time_idx,accelerometerAccelerationX(G),accelerometerAccelerationY(G),accelerometerAccelerationZ(G),gyroRotationX(rad/s),gyroRotationY(rad/s),gyroRotationZ(rad/s),magnetometerX(µT),magnetometerY(µT),magnetometerZ(µT)
256879,0.1758880615234375,1.108657836914062,-0.6547088623046875,0.2117836177349091,-0.6251730918884277,-0.8556845784187317,30.55635070800781,96.73834228515624,-4.246337890625
256880,0.175872802734375,1.2138671875,-0.7601470947265625,0.7069947123527527,-0.5108100175857544,-0.8706592321395874,30.20733642578125,96.56979370117188,-3.850418090820312
256881,0.1279449462890625,1.326202392578125,-0.9233856201171876,1.213824391365051,-0.3823383152484894,-0.8185875415802002,29.7340087890625,96.44871520996094,-3.644424438476562
256882,0.1279449462890625,1.326202392578125,-0.9233856201171876,1.213824391365051,-0.3823383152484894,-0.8185875415802002,29.7340087890625,96.44871520996094,-3.644424438476562
256883,0.000640869140625,1.823226928710938,-0.99346923828125,1.151214718818665,0.2643466889858246,-0.3822967708110809,28.80668640136719,96.189697265625,-3.723419189453125
256884,0.0207061767578125,2.19451904296875,-0.94537353515625,0.7844995856285095,0.2464113682508469,-0.4404405057430267,28.47695922851562,96.11679077148438,-4.203948974609375
256885,0.0486297607421875,2.565902709960938,-1.028945922851562,0.8761091232299805,-0.5387154221534729,-0.6875304579734802,28.16520690917969,96.22337341308594,-4.79180908203125
256886,0.0486297607421875,2.565902709960938,-1.028945922851562,0.8761091232299805,-0.5387154221534729,-0.6875304579734802,28.16520690917969,96.22337341308594,-4.79180908203125
256887,-0.092681884765625,2.958877563476562,-0.9016876220703124,2.087227821350098,-0.3872619569301605,-0.5798330307006836,27.69119262695312,96.0967254638672,-5.49700927734375
256888,-0.23236083984375,2.880752563476562,-1.218856811523438,2.046615839004517,0.4580770134925842,-0.1541938334703445,27.46879577636719,96.12335205078124,-5.833160400390625
256889,-0.1563568115234375,2.81268310546875,-1.239089965820312,1.558523893356323,0.3502735793590546,0.2724499106407166,27.18147277832031,96.152587890625,-6.425430297851562
256890,-0.1563568115234375,2.81268310546875,-1.239089965820312,1.558523893356323,0.3502735793590546,0.2724499106407166,27.18147277832031,96.152587890625,-6.425430297851562
256891,0.10302734375,2.7196044921875,-0.6182708740234375,0.9363932609558104,0.3481467962265015,0.9096245169639589,27.08396911621094,96.40754699707033,-8.179550170898438
256892,0.1872711181640625,2.714035034179688,-0.473846435546875,1.025738596916199,0.4534196853637695,1.275060534477234,27.26390075683594,96.53012084960938,-8.78594970703125
256893,0.244415283203125,2.713226318359375,-0.4331207275390625,1.227589726448059,0.2310595810413361,1.554007172584534,27.6712646484375,96.86175537109376,-9.315673828125
256894,0.244415283203125,2.713226318359375,-0.4331207275390625,1.227589726448059,0.2310595810413361,1.554007172584534,27.6712646484375,96.86175537109376,-9.315673828125
256895,0.1607666015625,2.535675048828125,0.001312255859375,1.699394226074219,-0.2223608940839767,1.463680744171143,28.87959289550781,97.64122009277344,-10.82835388183594
256896,0.1607666015625,2.535675048828125,0.001312255859375,1.699394226074219,-0.2223608940839767,1.463680744171143,28.87959289550781,97.64122009277344,-10.82835388183594
256897,0.0520477294921875,2.336135864257812,0.211883544921875,1.930466890335083,0.0625336840748786,1.229087710380554,29.70242309570312,97.9840087890625,-11.49307250976562
256898,0.01885986328125,2.203506469726562,0.323516845703125,2.14614200592041,0.5451110005378723,1.067183494567871,30.44668579101562,98.36318969726562,-12.36869812011719
256899,0.1617889404296875,1.791427612304688,0.10711669921875,2.186025142669678,0.3875147104263306,0.7551438212394714,31.81352233886719,98.81263732910156,-14.58877563476562
256900,0.158050537109375,1.480728149414062,0.0634918212890625,2.106608629226685,-0.3360749483108521,0.7526825666427612,32.46708679199219,98.80055236816406,-15.83952331542969
256901,0.1103363037109375,1.153976440429688,0.25872802734375,1.932934522628784,-0.908929407596588,0.9697083234786988,33.06684875488281,98.76318359375,-16.97482299804688
256902,0.0932464599609375,0.91595458984375,0.443115234375,1.932934522628784,-0.908929407596588,0.9697083234786988,33.54998779296875,98.60267639160156,-18.0399169921875
256903,0.074737548828125,0.7152862548828125,0.41693115234375,1.750552773475647,-0.8902888894081116,0.9897526502609252,34.610107421875,98.30914306640624,-19.83209228515625
256904,0.074737548828125,0.7152862548828125,0.41693115234375,1.750552773475647,-0.8902888894081116,0.9897526502609252,34.610107421875,98.30914306640624,-19.83209228515625
256905,-0.1067047119140625,0.502471923828125,0.356353759765625,1.319248199462891,-0.8186748623847961,0.7371358275413513,35.51237487792969,98.08425903320312,-21.09622192382812
256906,-0.261383056640625,0.5084075927734375,0.43505859375,0.9866596460342408,-0.3588407039642334,0.4870567321777344,35.85162353515625,98.00051879882812,-21.56021118164062
256907,-0.4133453369140625,0.5254058837890625,0.455169677734375,0.4932968020439148,0.2872331142425537,0.1306759864091873,36.07737731933594,98.1077880859375,-21.92843627929688
256908,-0.55511474609375,0.4921722412109375,0.364837646484375,-0.0713114663958549,0.8813124299049377,-0.1881504654884338,36.31971740722656,98.18692016601562,-22.170166015625
256909,-0.63690185546875,0.390380859375,0.2885894775390625,-0.4902767539024353,1.246904015541077,-0.3568060696125031,36.40725708007812,98.3560791015625,-22.47076416015625
256910,-0.7169189453125,0.2288055419921875,0.2512664794921875,-0.5667648911476135,1.472404479980469,-0.2266094386577606,36.41877746582031,98.29287719726562,-22.61309814453125
256911,-0.7635345458984375,0.0523529052734375,0.1445770263671875,-0.2706733047962189,1.474725127220154,0.1699315160512924,36.42384338378906,98.30271911621094,-22.7481689453125
256912,-0.565521240234375,0.0213775634765625,0.0744781494140625,0.1405414044857025,1.293867468833923,0.480059802532196,36.56275939941406,98.44186401367188,-22.81478881835938
256913,-0.2166900634765625,0.1888580322265625,0.15966796875,0.3481177687644958,1.141295313835144,0.4767870604991913,36.77120971679688,98.58758544921876,-23.00747680664062
256914,-0.2166900634765625,0.1888580322265625,0.15966796875,0.3481177687644958,1.141295313835144,0.4767870604991913,36.77120971679688,98.58758544921876,-23.00747680664062
256915,-0.021209716796875,0.3995208740234375,0.4366455078125,-0.1429395824670792,1.545458197593689,0.433769017457962,37.48550415039062,98.5391082763672,-23.40144348144531
256916,0.0345458984375,0.532257080078125,0.485382080078125,-0.6197660565376282,1.825454950332642,0.4675730466842651,37.78913879394531,98.57040405273438,-23.53791809082031
256917,0.04290771484375,0.74468994140625,0.4971466064453125,-1.091607093811035,1.94499945640564,0.3989383280277252,38.09327697753906,98.57649230957033,-23.52827453613281
256918,0.04290771484375,0.74468994140625,0.4971466064453125,-1.091607093811035,1.94499945640564,0.3989383280277252,38.09327697753906,98.57649230957033,-23.52827453613281
256919,0.0549774169921875,1.094024658203125,0.417724609375,-1.686491250991821,1.154316544532776,-0.1112213283777237,38.82926940917969,98.70703125,-23.00592041015625
256920,0.0549774169921875,1.094024658203125,0.417724609375,-1.686491250991821,1.154316544532776,-0.1112213283777237,38.82926940917969,98.70703125,-23.00592041015625
256921,0.0318450927734375,1.060165405273438,0.4447021484375,-1.797781586647034,-0.3026517331600189,-0.727975606918335,39.0233154296875,98.88673400878906,-21.77754211425781
256922,0.03216552734375,0.9689178466796876,0.42633056640625,-1.843296051025391,-0.6868001818656921,-0.8230358362197876,38.88182067871094,98.80331420898438,-20.91592407226562
256923,0.055145263671875,0.8676910400390625,0.334014892578125,-1.956559181213379,-0.9661852717399596,-0.8585618734359741,38.60238647460938,98.65869140625,-19.96440124511719
256924,0.0691680908203125,0.799713134765625,0.2943572998046875,-2.036761045455933,-1.128434062004089,-0.8507190942764282,38.20928955078125,98.46566772460938,-18.96733093261719
256925,0.090728759765625,0.6805572509765625,0.1921539306640625,-2.015855312347412,-1.094394087791443,-0.8267655968666077,37.88899230957031,98.40786743164062,-17.90420532226562
256926,0.090728759765625,0.6805572509765625,0.1921539306640625,-2.015855312347412,-1.094394087791443,-0.8267655968666077,37.88899230957031,98.40786743164062,-17.90420532226562
256927,0.085540771484375,0.34759521484375,-0.141082763671875,-1.390137314796448,-1.070572376251221,-0.6029452681541443,37.02363586425781,98.342041015625,-15.99092102050781
256928,-0.004547119140625,0.193603515625,-0.1837310791015625,-0.8432441353797913,-1.007025599479675,-0.4824721217155457,36.72001647949219,98.2101593017578,-14.99832153320312
256929,-0.0976715087890625,0.0918731689453125,-0.148406982421875,-0.3891799747943878,-0.8040293455123901,-0.4929729402065277,36.2879638671875,98.22738647460938,-14.28312683105469
256930,-0.1259002685546875,-0.0079345703125,-0.153717041015625,-0.1352536976337433,-0.6124069094657898,-0.5448753237724304,36.05699157714844,98.36546325683594,-13.80784606933594
256931,-0.1341705322265625,-0.0875091552734375,-0.2113800048828125,-0.0587956719100475,-0.5765826106071472,-0.5777592062950134,35.74763488769531,98.22640991210938,-13.51104736328125
256932,-0.1341705322265625,-0.0875091552734375,-0.2113800048828125,-0.0587956719100475,-0.5765826106071472,-0.5777592062950134,35.74763488769531,98.22640991210938,-13.51104736328125
256933,-0.1854095458984375,-0.207122802734375,-0.2595977783203125,-0.2654633522033691,-0.6476637125015259,-0.5471786856651306,34.7236328125,98.16716003417967,-12.99266052246094
256934,-0.1854095458984375,-0.207122802734375,-0.2595977783203125,-0.2654633522033691,-0.6476637125015259,-0.5471786856651306,34.7236328125,98.16716003417967,-12.99266052246094
256935,-0.2301788330078125,-0.262908935546875,-0.253753662109375,-0.423423171043396,-0.32883620262146,-0.4828872978687286,34.44163513183594,98.0874481201172,-12.683349609375
256936,-0.220672607421875,-0.3149261474609375,-0.2957611083984375,-0.6922881603240967,0.4370044767856598,-0.3409999310970306,34.11262512207031,98.0828857421875,-12.54226684570312
256937,-0.0625152587890625,-0.2504730224609375,-0.49298095703125,-0.8558395504951477,0.8893581032752991,-0.2823318243026733,33.83796691894531,98.06289672851562,-12.18252563476562
256938,0.08251953125,-0.1946563720703125,-0.5980377197265625,-0.9009503126144408,0.7166616916656494,-0.2512948215007782,33.73399353027344,97.92283630371094,-11.84434509277344
256939,0.175689697265625,-0.1241607666015625,-0.5661163330078125,-1.016819953918457,0.356255054473877,-0.1735843122005463,33.50907897949219,97.75352478027344,-11.42787170410156
256940,0.175689697265625,-0.1241607666015625,-0.5661163330078125,-1.016819953918457,0.356255054473877,-0.1735843122005463,33.50907897949219,97.75352478027344,-11.42787170410156
256941,0.21807861328125,0.0937652587890625,-0.48468017578125,-1.103034734725952,-0.6465731859207153,-0.0046565369702875,33.07351684570312,97.54551696777344,-10.24449157714844
256942,0.2185821533203125,0.179351806640625,-0.379241943359375,-1.009896993637085,-0.8885016441345215,0.040916807949543,32.90200805664062,97.57403564453124,-9.510879516601562
256943,0.25616455078125,0.2976226806640625,-0.38348388671875,-0.8160730004310608,-0.8365169763565063,0.0690565630793571,32.81082153320312,97.54939270019533,-8.873016357421875
256944,0.4133758544921875,0.7553253173828125,-0.7357940673828125,-0.3715074956417084,-0.9234876036643982,0.0803217366337776,32.74357604980469,97.56993103027344,-8.121170043945312
256945,0.7320404052734375,1.576095581054688,-1.27325439453125,1.306158304214478,-1.750189542770386,0.1670877933502197,32.69403076171875,97.49163818359376,-7.491714477539062
256946,0.7320404052734375,1.576095581054688,-1.27325439453125,1.306158304214478,-1.750189542770386,0.1670877933502197,32.69403076171875,97.49163818359376,-7.491714477539062
256947,0.8619842529296875,2.37371826171875,-1.113540649414062,1.459773898124695,-0.0580819435417652,0.2536072432994843,32.53401184082031,97.66566467285156,-6.908554077148438
256948,0.8619842529296875,2.37371826171875,-1.113540649414062,1.459773898124695,-0.0580819435417652,0.2536072432994843,32.53401184082031,97.66566467285156,-6.908554077148438
256949,0.3404388427734375,2.406753540039062,-1.118194580078125,-0.2364295870065689,-0.1269118785858154,-0.7988292574882507,32.40325927734375,98.16813659667967,-7.468109130859375
256950,0.1280059814453125,2.501907348632812,-0.8433685302734375,-0.3504291176795959,-1.549615979194641,-1.467024087905884,32.2808837890625,98.13827514648438,-7.75537109375
256951,-0.0801849365234375,2.653976440429688,-0.6831817626953125,0.3544923067092896,-2.382247686386108,-2.083653211593628,31.99971008300781,97.97412109375,-7.596954345703125
256952,-0.4002227783203125,2.60888671875,-0.379425048828125,1.107834577560425,-1.178678631782532,-2.386609077453613,31.46035766601562,97.77473449707033,-7.450057983398438
256953,-0.71148681640625,2.313934326171875,-0.6513824462890625,1.517735719680786,0.7895838618278503,-2.250423908233643,30.67109680175781,97.75382995605467,-7.543655395507812
256954,-0.9201202392578124,2.142120361328125,-1.082504272460938,1.380888104438782,1.348176836967468,-1.89384925365448,29.7850341796875,97.67404174804688,-8.175003051757812
256955,-1.2491455078125,2.205642700195312,-1.26263427734375,0.7462971210479736,0.7618009448051453,-1.187407970428467,28.87498474121094,97.5557098388672,-9.224960327148438
256956,-1.2491455078125,2.205642700195312,-1.26263427734375,0.7462971210479736,0.7618009448051453,-1.187407970428467,28.87498474121094,97.5557098388672,-9.224960327148438
256957,-0.4214935302734375,2.886276245117188,-0.65765380859375,-0.5602782368659973,-0.1073355078697205,0.6092859506607056,27.86167907714844,97.33383178710938,-10.62467956542969
256958,0.113189697265625,2.989425659179688,-0.3939056396484375,-0.46418097615242,0.1542811840772629,0.9375905990600586,27.84669494628906,97.35244750976562,-10.62443542480469
256959,0.2486724853515625,3.05401611328125,-0.073699951171875,0.0672030076384544,0.310449481010437,1.268135786056519,28.10659790039062,97.4788818359375,-10.44979858398438
256960,0.2365264892578125,3.109848022460938,0.2579803466796875,0.7512239217758179,0.591013491153717,1.505122184753418,28.59246826171875,97.81292724609376,-10.42622375488281
256961,0.15643310546875,3.128067016601562,0.3841400146484375,1.3278728723526,0.9894660711288452,1.590752482414246,29.26446533203125,98.11024475097656,-10.82168579101562
256962,0.15643310546875,3.128067016601562,0.3841400146484375,1.3278728723526,0.9894660711288452,1.590752482414246,29.26446533203125,98.11024475097656,-10.82168579101562
256963,-0.00048828125,2.658859252929688,0.4338226318359375,2.262974262237549,1.230244040489197,1.383888959884644,30.98704528808594,98.54542541503906,-12.36212158203125
256964,-0.028228759765625,2.093734741210938,0.44940185546875,2.542571306228638,1.200409770011902,1.162164092063904,31.90475463867188,98.5163116455078,-13.44810485839844
256965,-0.0166015625,1.490463256835938,0.393341064453125,2.652964353561401,0.8403216004371643,1.12434983253479,32.81370544433594,98.5233154296875,-14.88424682617188
256966,-0.0166015625,1.490463256835938,0.393341064453125,2.652964353561401,0.8403216004371643,1.12434983253479,32.81370544433594,98.5233154296875,-14.88424682617188
256967,0.00213623046875,0.75518798828125,0.5091705322265625,2.633299589157104,-0.0097919106483459,1.086443185806274,34.23876953125,98.44296264648438,-17.79342651367188
256968,0.001068115234375,0.5383758544921875,0.459716796875,2.305861711502075,-0.2612497210502625,1.03708553314209,34.88034057617188,98.27304077148438,-18.91204833984375
256969,0.014251708984375,0.3890838623046875,0.395660400390625,1.809557199478149,-0.5308995842933655,0.9533131122589112,35.33854675292969,98.20518493652344,-20.11396789550781
256970,0.0152740478515625,0.3018798828125,0.3942718505859375,1.266749024391174,-0.7245545387268066,0.8120039105415344,35.71711730957031,98.07083129882812,-21.13896179199219
256971,0.0235748291015625,0.2217559814453125,0.424407958984375,0.7822007536888123,-0.8155059814453125,0.6710649132728577,36.15052795410156,98.04385375976562,-21.84490966796875
256972,0.0235748291015625,0.2217559814453125,0.424407958984375,0.7822007536888123,-0.8155059814453125,0.6710649132728577,36.15052795410156,98.04385375976562,-21.84490966796875
256973,-0.0625762939453125,0.1892547607421875,0.6094207763671875,0.1200827285647392,-0.3425360321998596,0.5884398221969604,36.75265502929688,97.91543579101562,-22.29847717285156
256974,-0.0625762939453125,0.1892547607421875,0.6094207763671875,0.1200827285647392,-0.3425360321998596,0.5884398221969604,36.75265502929688,97.91543579101562,-22.29847717285156
256975,-0.1609344482421875,0.3193817138671875,0.711669921875,-0.4134120941162109,1.067315816879272,0.6779952645301819,37.177001953125,98.01193237304688,-22.37342834472656
256976,-0.198944091796875,0.366058349609375,0.5721435546875,-0.6912527680397034,1.64775025844574,0.66176438331604,37.491943359375,98.16253662109376,-22.28890991210938
256977,-0.2287445068359375,0.2987213134765625,0.0645751953125,-0.8880563378334045,1.305939078330994,0.6161433458328247,37.82632446289062,98.2403564453125,-22.24581909179688
256978,-0.2287445068359375,0.2987213134765625,0.0645751953125,-0.8880563378334045,1.305939078330994,0.6161433458328247,37.82632446289062,98.2403564453125,-22.24581909179688
256979,-0.1548004150390625,0.3544769287109375,0.4075164794921875,-0.8233242630958557,0.5518309473991394,0.4285550713539124,38.66651916503906,98.6397705078125,-21.8861083984375
256980,-0.085601806640625,0.441925048828125,0.54949951171875,-0.8234043717384338,0.9485434293746948,0.2427380830049515,39.01611328125,98.70416259765624,-21.56587219238281
256981,-0.103851318359375,0.5320281982421875,0.6263275146484375,-1.187915563583374,1.707491040229797,-0.160642147064209,39.29782104492188,98.9218292236328,-21.31147766113281
256982,-0.103851318359375,0.5320281982421875,0.6263275146484375,-1.187915563583374,1.707491040229797,-0.160642147064209,39.29782104492188,98.9218292236328,-21.31147766113281
256983,-0.213836669921875,0.73858642578125,0.663116455078125,-1.516109943389893,1.919522643089294,-0.3104614615440369,39.63432312011719,99.16879272460938,-20.58500671386719
256984,-0.2949676513671875,0.797454833984375,0.6764984130859375,-1.843445897102356,2.067119598388672,-0.427872508764267,39.72575378417969,99.12384033203124,-20.30239868164062
256985,-0.3610687255859375,0.82666015625,0.6563873291015625,-2.090595006942749,2.123044729232788,-0.5387396216392517,39.69595336914062,99.18226623535156,-19.9287109375
256986,-0.3968505859375,0.8433837890625,0.580596923828125,-2.243614912033081,1.98833441734314,-0.6489798426628113,39.66482543945312,99.21623229980467,-19.37234497070312
256987,-0.3836669921875,0.814422607421875,0.44146728515625,-2.35445499420166,1.595467329025269,-0.7401332259178162,39.58589172363281,99.24993896484376,-18.54466247558594
256988,-0.3082733154296875,0.7373809814453125,0.2727203369140625,-2.408772706985474,0.9798771142959596,-0.8190818428993225,39.33857727050781,99.19740295410156,-17.64701843261719
256989,-0.1809844970703125,0.6358642578125,0.1474609375,-2.410927295684814,0.2827134430408478,-0.8593863844871521,39.00894165039062,99.13681030273438,-16.845703125
256990,-0.1809844970703125,0.6358642578125,0.1474609375,-2.410927295684814,0.2827134430408478,-0.8593863844871521,39.00894165039062,99.13681030273438,-16.845703125
256991,-0.026947021484375,0.5205078125,0.135162353515625,-2.284619092941284,-0.321054995059967,-0.9291102886199952,38.15977478027344,98.94505310058594,-14.72773742675781
256992,0.0333099365234375,0.500946044921875,0.0067291259765625,-2.282506704330444,-0.3307619392871857,-0.990007221698761,37.57977294921875,98.89007568359376,-13.76388549804688
256993,0.088287353515625,0.4981231689453125,-0.2652740478515625,-2.286118030548096,-0.6337772011756897,-1.083530783653259,37.1346435546875,98.6657257080078,-12.89619445800781
256994,0.088287353515625,0.4981231689453125,-0.2652740478515625,-2.286118030548096,-0.6337772011756897,-1.083530783653259,37.1346435546875,98.6657257080078,-12.89619445800781
256995,0.1959075927734375,0.3534698486328125,-0.6859130859375,-1.790346264839172,-2.018516540527344,-1.176823735237122,36.03450012207031,98.2579345703125,-10.72262573242188
256996,0.22869873046875,0.2291412353515625,-0.61346435546875,-1.1772540807724,-2.447902202606201,-1.087229132652283,35.42739868164062,98.06842041015624,-9.592300415039062
256997,0.251861572265625,0.08172607421875,-0.29302978515625,-0.6829767227172852,0.2312689125537872,-0.7217451333999634,34.74288940429688,97.79945373535156,-8.502365112304688
256998,0.251861572265625,0.08172607421875,-0.29302978515625,-0.6829767227172852,0.2312689125537872,-0.7217451333999634,34.74288940429688,97.79945373535156,-8.502365112304688
256999,0.1585693359375,-0.049530029296875,-0.3898773193359375,-0.6554028987884521,0.9693911671638488,-0.6029189229011536,33.87385559082031,97.49766540527344,-6.904815673828125
257000,0.143402099609375,-0.03912353515625,-0.4108428955078125,-0.699804961681366,1.025323629379272,-0.5458375215530396,33.34072875976562,97.4968719482422,-6.490219116210938
257001,0.1548309326171875,-0.036529541015625,-0.38140869140625,-0.8292921185493469,0.757631778717041,-0.5087735056877136,32.98275756835938,97.3359375,-6.286758422851562
257002,0.1744537353515625,-0.024871826171875,-0.34002685546875,-0.9768000841140748,0.3876622319221497,-0.4489258527755737,32.75534057617188,97.02204895019533,-6.040435791015625
257003,0.19879150390625,0.016693115234375,-0.2997589111328125,-1.073753833770752,0.0822035297751426,-0.3680866658687592,32.45272827148438,96.89247131347656,-5.748336791992188
257004,0.22821044921875,0.0865478515625,-0.266387939453125,-1.064144253730774,-0.0754438936710357,-0.2849100232124329,32.29335021972656,96.609619140625,-5.348358154296875
257005,0.2650299072265625,0.1874542236328125,-0.2502899169921875,-0.9557920098304749,-0.0870214477181434,-0.2158385515213013,32.03358459472656,96.4152374267578,-4.64337158203125
257006,0.3012847900390625,0.3224945068359375,-0.258514404296875,-0.8063929080963135,-0.0277797002345323,-0.1802975982427597,31.77146911621094,96.24665832519533,-4.002548217773438
257007,0.32720947265625,0.4824371337890625,-0.2790679931640625,-0.6449920535087585,0.0179995074868202,-0.2043637931346893,31.54924011230469,96.23356628417967,-3.569778442382812
257008,0.32720947265625,0.4824371337890625,-0.2790679931640625,-0.6449920535087585,0.0179995074868202,-0.2043637931346893,31.54924011230469,96.23356628417967,-3.569778442382812
257009,0.358062744140625,0.8349456787109375,-0.5761871337890625,-0.148780420422554,-0.5649435520172119,-0.3776372969150543,31.15005493164062,96.03236389160156,-2.597854614257812
257010,0.3413848876953125,1.038330078125,-0.7020416259765625,0.2948548197746277,-1.153567433357239,-0.5125767588615417,30.99362182617188,96.103759765625,-2.339614868164062
257011,0.2817840576171875,1.22662353515625,-0.7494964599609375,0.8700289130210876,-1.487493991851807,-0.6005862355232239,30.79409790039062,96.01698303222656,-1.841522216796875
257012,0.195556640625,1.44415283203125,-0.809234619140625,1.494976878166199,-1.407487869262695,-0.6147693991661072,30.58467102050781,96.08926391601562,-1.54705810546875
257013,0.1658782958984375,1.685821533203125,-0.771759033203125,2.041915416717529,-0.4115851521492004,-0.673200249671936,30.30596923828125,96.23492431640624,-1.542800903320312
257014,0.1658782958984375,1.685821533203125,-0.771759033203125,2.041915416717529,-0.4115851521492004,-0.673200249671936,30.30596923828125,96.23492431640624,-1.542800903320312
257015,0.0609283447265625,2.21270751953125,-0.20947265625,1.853777647018433,-0.056085105985403,-0.9724261164665222,29.696533203125,96.63372802734376,-2.268585205078125
257016,0.0075225830078125,2.71844482421875,-0.1460723876953125,1.739160299301147,-0.2330175340175629,-1.530064344406128,29.18888854980469,96.9980926513672,-3.025375366210938
257017,-0.0938568115234375,3.336593627929688,-0.2327117919921875,1.694137692451477,-0.8138462901115417,-2.153762102127075,28.67913818359375,97.1502685546875,-3.884872436523438
257018,-0.0938568115234375,3.336593627929688,-0.2327117919921875,1.694137692451477,-0.8138462901115417,-2.153762102127075,28.67913818359375,97.1502685546875,-3.884872436523438
257019,-1.3021240234375,3.902786254882812,-0.32379150390625,0.7735705375671387,-0.3608852326869965,-2.342002153396606,27.10847473144531,97.41629028320312,-5.6749267578125
257020,-1.884353637695312,3.393936157226562,-0.6861114501953125,0.2293716669082642,-0.0353590548038482,-0.4810582399368286,26.09988403320312,97.3306884765625,-6.375640869140625
257021,-0.9542694091796876,3.25360107421875,-0.49725341796875,0.120275542140007,-0.8237998485565186,0.4336893856525421,25.29737854003906,97.10365295410156,-7.02105712890625
257022,-0.19158935546875,3.044601440429688,0.1130523681640625,0.4295460283756256,-0.6322530508041382,0.6377040147781372,25.01239013671875,96.914794921875,-7.391357421875
257023,0.0129241943359375,2.782028198242188,0.14642333984375,0.9781359434127808,-0.208051472902298,0.898027241230011,25.240966796875,96.88653564453124,-7.257644653320312
257024,0.0659942626953125,2.710342407226562,0.030303955078125,1.513260841369629,-0.3591800034046173,1.137219309806824,25.70761108398438,96.90017700195312,-7.306304931640625
257025,0.0345916748046875,2.739669799804688,0.152435302734375,1.704141020774841,-0.6039082407951355,1.131125688552856,26.25642395019531,96.9709014892578,-7.544815063476562
257026,0.0345916748046875,2.739669799804688,0.152435302734375,1.704141020774841,-0.6039082407951355,1.131125688552856,26.25642395019531,96.9709014892578,-7.544815063476562
257027,0.0833282470703125,2.2232666015625,0.403961181640625,1.815566062927246,-0.2690330743789673,0.7934345006942749,27.819580078125,97.10873413085938,-8.965728759765625
257028,0.1556854248046875,1.57513427734375,0.30145263671875,1.994001865386963,-0.3351865112781525,0.7881404161453247,28.52220153808594,97.19039916992188,-9.437393188476562
257029,0.241241455078125,1.110610961914062,0.1563873291015625,2.15386700630188,-0.8093721866607666,0.9490041136741638,29.29086303710938,97.17636108398438,-10.23411560058594
257030,0.2735137939453125,0.87213134765625,0.195343017578125,2.209900379180908,-1.330066204071045,1.070903897285461,29.94642639160156,97.08563232421876,-11.101806640625
257031,0.296905517578125,0.7076873779296875,0.3091888427734375,2.13120698928833,-1.634743928909302,1.114223718643188,30.5303955078125,97.05532836914062,-11.89308166503906
257032,0.3158416748046875,0.569427490234375,0.350006103515625,1.929010391235352,-1.722040176391602,1.142708659172058,31.15467834472656,96.85324096679688,-12.53138732910156
257033,0.331085205078125,0.453277587890625,0.299835205078125,1.671373248100281,-1.68761157989502,1.140169024467468,31.74510192871094,96.9518585205078,-13.17703247070312
257034,0.329315185546875,0.399078369140625,0.1714935302734375,1.47359573841095,-1.548175692558289,1.067331790924072,32.29237365722656,97.13037109375,-13.7471923828125
257035,0.203277587890625,0.407867431640625,0.0998382568359375,1.292374014854431,-1.265288114547729,0.9120996594429016,32.733154296875,97.39537048339844,-14.18244934082031
257036,-0.1029510498046875,0.4681854248046875,0.1768035888671875,1.033678293228149,-0.6019332408905029,0.8856579065322876,33.16902160644531,97.5334014892578,-14.48310852050781
257037,-0.2718505859375,0.5332489013671875,0.2657470703125,0.6303449273109436,0.1750133633613586,0.9513471722602844,33.50967407226562,97.74427795410156,-14.70912170410156
257038,-0.3481597900390625,0.5641632080078125,0.3735809326171875,0.2096986323595047,0.9388087391853333,0.9184377193450928,33.85694885253906,97.98672485351562,-15.19512939453125
257039,-0.39129638671875,0.55035400390625,0.456939697265625,-0.0771179571747779,1.611358165740967,0.8068411350250244,34.32939147949219,98.21551513671876,-15.71903991699219
257040,-0.39129638671875,0.55035400390625,0.456939697265625,-0.0771179571747779,1.611358165740967,0.8068411350250244,34.32939147949219,98.21551513671876,-15.71903991699219
257041,-0.4307098388671875,0.420013427734375,0.36065673828125,-0.1200707480311394,2.10341477394104,0.6182419061660767,35.31114196777344,98.32595825195312,-16.20608520507812
257042,-0.414825439453125,0.334625244140625,0.3113250732421875,0.0209713280200958,1.908175110816956,0.559860110282898,35.92781066894531,98.24354553222656,-16.43087768554688
257043,-0.3564453125,0.3068084716796875,0.3907470703125,0.0771163552999496,1.807435274124146,0.4639069437980652,36.4635009765625,98.35693359375,-16.73545837402344
257044,-0.26092529296875,0.344970703125,0.5314788818359375,-0.0629243701696395,1.994413375854492,0.3133773505687714,36.85247802734375,98.33576965332033,-17.03076171875
257045,-0.15814208984375,0.426361083984375,0.6227264404296875,-0.3842813670635223,2.272780895233154,0.1407366096973419,37.11074829101562,98.37374877929688,-17.36528015136719
257046,-0.15814208984375,0.426361083984375,0.6227264404296875,-0.3842813670635223,2.272780895233154,0.1407366096973419,37.11074829101562,98.37374877929688,-17.36528015136719
257047,-0.0957794189453125,0.7053680419921875,0.794403076171875,-1.230245113372803,2.764352321624756,-0.1616632044315338,37.43135070800781,98.49298095703124,-17.69284057617188
257048,-0.077667236328125,0.850799560546875,0.782135009765625,-1.589727878570557,2.777738332748413,-0.2786507904529572,37.51260375976562,98.5356903076172,-17.72291564941406
257049,-0.0814971923828125,0.91571044921875,0.7097625732421875,-1.809441924095154,2.483142137527466,-0.3540246486663818,37.56982421875,98.71925354003906,-17.5562744140625
257050,-0.0814971923828125,0.91571044921875,0.7097625732421875,-1.809441924095154,2.483142137527466,-0.3540246486663818,37.56982421875,98.71925354003906,-17.5562744140625
257051,-0.1492919921875,0.8624420166015625,0.6160888671875,-1.888513326644897,1.459321975708008,-0.5400320887565613,37.56803894042969,98.96615600585938,-16.86111450195312
257052,-0.2053070068359375,0.76885986328125,0.5331268310546875,-1.891292810440063,0.9434687495231628,-0.6861373782157898,37.41220092773438,98.9242706298828,-16.10552978515625
257053,-0.2458953857421875,0.66693115234375,0.38555908203125,-1.956966638565063,0.4314627051353455,-0.8343982100486755,37.29792785644531,98.90185546875,-15.57443237304688
257054,-0.2458953857421875,0.66693115234375,0.38555908203125,-1.956966638565063,0.4314627051353455,-0.8343982100486755,37.29792785644531,98.90185546875,-15.57443237304688
257055,-0.1251068115234375,0.4612579345703125,-0.0263519287109375,-2.104182720184326,-0.9245818853378296,-1.006046414375305,36.84030151367188,98.45156860351562,-14.10185241699219
257056,0.0794219970703125,0.3583221435546875,-0.284332275390625,-1.446765422821045,-2.559470653533936,-0.8210171461105347,36.0345458984375,97.955322265625,-12.06031799316406
257057,0.0794219970703125,0.3583221435546875,-0.284332275390625,-1.446765422821045,-2.559470653533936,-0.8210171461105347,36.0345458984375,97.955322265625,-12.06031799316406
257058,0.162933349609375,0.296661376953125,-0.4595489501953125,-1.446765422821045,-2.559470653533936,-0.8210171461105347,35.5198974609375,97.65261840820312,-10.79689025878906
257059,0.1816558837890625,0.2421875,-0.501678466796875,-0.7911439538002014,-2.860271692276001,-0.6405344605445862,34.93637084960938,97.56431579589844,-9.765182495117188
257060,0.1290435791015625,0.1613616943359375,-0.2972412109375,-0.1436828672885895,-2.286346912384033,-0.4391744434833527,34.47299194335938,97.38232421875,-8.696762084960938
257061,0.0405731201171875,-0.0053558349609375,-0.191925048828125,0.0688408464193344,-0.7240259051322937,-0.4049243330955505,34.07402038574219,97.3050537109375,-7.899017333984375
257062,0.0405731201171875,-0.0053558349609375,-0.191925048828125,0.0688408464193344,-0.7240259051322937,-0.4049243330955505,34.07402038574219,97.3050537109375,-7.899017333984375
257063,-0.012115478515625,-0.1453399658203125,-0.51580810546875,-0.0721053555607795,0.4475556612014771,-0.3962815701961517,33.68768310546875,97.08180236816406,-7.02239990234375
257064,0.00128173828125,-0.1655120849609375,-0.512725830078125,-0.4774901270866394,0.3869762122631073,-0.4578131139278412,33.45803833007812,97.0938720703125,-6.89501953125
257065,0.0435943603515625,-0.154815673828125,-0.509796142578125,-0.7284741401672363,0.2094408422708511,-0.4711038768291473,33.16131591796875,97.0888214111328,-6.920730590820312
257066,0.0923004150390625,-0.1090850830078125,-0.48956298828125,-0.7284741401672363,0.2094408422708511,-0.4711038768291473,32.86859130859375,96.91976928710938,-6.900894165039062
257067,0.133453369140625,-0.0276031494140625,-0.4385528564453125,-0.9538396596908568,-0.0143539058044552,-0.4466283619403839,32.67332458496094,96.77749633789062,-6.871444702148438
257068,0.1572265625,0.0782928466796875,-0.3942413330078125,-1.132639527320862,-0.2355747073888779,-0.3978456258773804,32.15951538085938,96.45817565917967,-5.989776611328125
257069,0.1707611083984375,0.1925048828125,-0.3757171630859375,-1.248306632041931,-0.4781018495559692,-0.3546326458454132,31.92619323730469,96.32240295410156,-5.442886352539062
257070,0.1707611083984375,0.1925048828125,-0.3757171630859375,-1.248306632041931,-0.4781018495559692,-0.3546326458454132,31.92619323730469,96.32240295410156,-5.442886352539062
257071,0.2027130126953125,0.4687347412109375,-0.2439117431640625,-1.313012957572937,-0.620826780796051,-0.3195233941078186,31.46099853515625,96.10968017578124,-4.16546630859375
257072,0.2368621826171875,0.6063995361328125,-0.2469329833984375,-1.226492524147034,-0.5814934968948364,-0.2963770627975464,31.29920959472656,95.91305541992188,-3.415756225585938
257073,0.263275146484375,0.7520904541015625,-0.264373779296875,-1.041064262390137,-0.5824311971664429,-0.2913391590118408,31.20686340332031,95.66598510742188,-2.61260986328125
257074,0.263275146484375,0.7520904541015625,-0.264373779296875,-1.041064262390137,-0.5824311971664429,-0.2913391590118408,31.20686340332031,95.66598510742188,-2.61260986328125
257075,0.2959747314453125,1.052413940429688,-0.3012847900390625,-0.3585768043994904,-0.65235835313797,-0.3944210708141327,31.11672973632812,95.43167114257812,-1.2088623046875
257076,0.27276611328125,1.203094482421875,-0.3360443115234375,0.1246639043092728,-0.6873088479042053,-0.4929929375648499,31.01882934570312,95.26278686523438,-0.46527099609375
257077,0.1826629638671875,1.346420288085938,-0.4284515380859375,0.6875749230384827,-0.7221134901046753,-0.5927898287773132,30.80117797851562,95.2703094482422,-0.1717376708984375
257078,0.1826629638671875,1.346420288085938,-0.4284515380859375,0.6875749230384827,-0.7221134901046753,-0.5927898287773132,30.80117797851562,95.2703094482422,-0.1717376708984375
257079,-0.0487823486328125,1.829696655273438,-0.6411590576171875,1.721381783485413,-0.7418970465660095,-0.7476483583450317,30.27757263183594,95.54896545410156,-0.147186279296875
257080,-0.1690826416015625,2.1766357421875,-0.43988037109375,1.640252590179443,-0.251613587141037,-0.81263667345047,29.95060729980469,95.64202880859376,-0.6683197021484375
257081,-0.2295989990234375,2.587295532226562,-0.1044921875,1.253361582756042,0.4420328140258789,-1.0245760679245,29.55787658691406,96.07508850097656,-1.34326171875
257082,-0.2295989990234375,2.587295532226562,-0.1044921875,1.253361582756042,0.4420328140258789,-1.0245760679245,29.55787658691406,96.07508850097656,-1.34326171875
257083,-0.517822265625,3.571182250976562,-0.0772552490234375,0.7980316877365112,1.036012530326843,-2.178873062133789,28.38725280761719,96.56805419921876,-3.015411376953125
257084,-1.154296875,3.71978759765625,-0.2026214599609375,0.6017351150512695,0.7522497773170471,-2.4427809715271,27.63748168945312,96.60479736328124,-3.905914306640625
257085,-1.982864379882812,3.421676635742188,-0.272216796875,0.1036819219589233,0.6937060356140137,-1.287951827049255,26.64405822753906,96.56753540039062,-4.677734375
257086,-1.982864379882812,3.421676635742188,-0.272216796875,0.1036819219589233,0.6937060356140137,-1.287951827049255,26.64405822753906,96.56753540039062,-4.677734375
257087,-0.688018798828125,3.374313354492188,-0.012359619140625,0.2980812191963196,-0.2295463681221008,0.6537719368934631,25.56340026855469,96.21875,-5.598495483398438
257088,-0.25604248046875,3.243545532226562,0.176727294921875,0.9819032549858092,0.1857917010784149,0.7923860549926758,25.67701721191406,96.31329345703124,-5.7413330078125
257089,-0.0873870849609375,3.136474609375,0.043670654296875,1.749528765678406,0.4876490235328674,0.8536038398742676,26.02897644042969,96.43136596679688,-6.132400512695312
257090,-0.0873870849609375,3.136474609375,0.043670654296875,1.749528765678406,0.4876490235328674,0.8536038398742676,26.02897644042969,96.43136596679688,-6.132400512695312
257091,0.13470458984375,2.649871826171875,0.2520751953125,2.589540958404541,-0.0115748969838023,0.9271611571311952,26.94622802734375,96.70564270019533,-7.936294555664062
257092,0.096343994140625,1.70074462890625,0.6934967041015625,2.655126094818115,-0.0434436127543449,1.251160740852356,28.20660400390625,96.77360534667967,-10.15217590332031
257093,0.096343994140625,1.70074462890625,0.6934967041015625,2.655126094818115,-0.0434436127543449,1.251160740852356,28.20660400390625,96.77360534667967,-10.15217590332031
257094,0.096343994140625,1.70074462890625,0.6934967041015625,2.655126094818115,-0.0434436127543449,1.251160740852356,28.20660400390625,96.77360534667967,-10.15217590332031
257095,0.2000732421875,0.807952880859375,0.1929779052734375,2.376458883285522,-0.8654993772506714,1.327990889549255,29.68032836914062,96.63046264648438,-12.32330322265625
257096,0.2149200439453125,0.620269775390625,0.2684326171875,2.064416408538818,-1.542652249336243,1.217563986778259,30.36746215820312,96.66903686523438,-13.46571350097656
257097,0.26483154296875,0.462158203125,0.373046875,1.584267139434814,-1.902059197425842,0.994790256023407,30.91769409179688,96.64488220214844,-14.23277282714844
257098,0.26483154296875,0.462158203125,0.373046875,1.584267139434814,-1.902059197425842,0.994790256023407,30.91769409179688,96.64488220214844,-14.23277282714844
257099,0.4523468017578125,0.2340850830078125,0.108062744140625,1.384660243988037,-2.024684906005859,1.012231349945068,31.75645446777344,96.92750549316406,-14.84942626953125
257100,0.3564300537109375,0.2997589111328125,0.2028045654296875,0.8769701719284058,-0.6969798803329468,0.9258652329444884,32.50222778320312,97.33489990234376,-15.00593566894531
257101,0.3564300537109375,0.2997589111328125,0.2028045654296875,0.8769701719284058,-0.6969798803329468,0.9258652329444884,32.50222778320312,97.33489990234376,-15.00593566894531
257102,0.3564300537109375,0.2997589111328125,0.2028045654296875,0.8769701719284058,-0.6969798803329468,0.9258652329444884,32.50222778320312,97.33489990234376,-15.00593566894531
257103,-0.0142974853515625,0.6246490478515625,0.3802337646484375,0.4582527875900269,1.061237692832947,1.200569272041321,33.314453125,97.73558044433594,-15.68061828613281
257104,-0.0142974853515625,0.6246490478515625,0.3802337646484375,0.4582527875900269,1.061237692832947,1.200569272041321,33.314453125,97.73558044433594,-15.68061828613281
257105,-0.0686798095703125,0.6203155517578125,0.479522705078125,0.2716059386730194,1.404629945755005,1.131276249885559,33.9068603515625,97.85015869140624,-16.07815551757812
257106,-0.1821441650390625,0.5014495849609375,0.6183013916015625,-0.1738873720169067,1.863158345222473,0.8829367160797119,35.29086303710938,97.95346069335938,-16.71121215820312
257107,-0.1782379150390625,0.42254638671875,0.6910858154296875,-0.3724702298641205,2.163004159927368,0.6798267364501953,35.99763488769531,97.97576904296876,-16.82398986816406
257108,-0.1916961669921875,0.36126708984375,0.720367431640625,-0.5262686014175415,2.46235179901123,0.4905241727828979,36.66822814941406,97.94541931152344,-16.88447570800781
257109,-0.2285614013671875,0.35870361328125,0.7440185546875,-0.6971937417984009,2.750388383865356,0.325655072927475,37.12184143066406,98.1268310546875,-17.05110168457031
257110,-0.2285614013671875,0.35870361328125,0.7440185546875,-0.6971937417984009,2.750388383865356,0.325655072927475,37.12184143066406,98.1268310546875,-17.05110168457031
257111,-0.3605804443359375,0.5621337890625,0.7486724853515625,-1.172583937644958,2.962738752365112,0.0404302477836608,37.68600463867188,98.26646423339844,-17.09657287597656
257112,-0.3605804443359375,0.5621337890625,0.7486724853515625,-1.172583937644958,2.962738752365112,0.0404302477836608,37.68600463867188,98.26646423339844,-17.09657287597656
257113,-0.522705078125,0.899993896484375,0.8317108154296875,-1.932367563247681,2.414911031723022,-0.4625492691993713,38.07368469238281,98.53733825683594,-16.88577270507812
257114,-0.584228515625,1.027145385742188,0.800262451171875,-1.932367563247681,2.414911031723022,-0.4625492691993713,38.05488586425781,98.715576171875,-16.56324768066406
257115,-0.6103363037109375,1.047958374023438,0.6899261474609375,-2.156031370162964,2.167958736419678,-0.6162371039390564,37.99409484863281,98.77140808105467,-15.92341613769531
257116,-0.5691070556640625,0.9459075927734376,0.470855712890625,-2.300556182861328,1.744465351104736,-0.7489376068115234,37.81874084472656,98.82521057128906,-15.38894653320312
257117,-0.407135009765625,0.7834320068359375,0.22027587890625,-2.326834917068481,1.021964907646179,-0.8764537572860718,37.57109069824219,98.89540100097656,-14.8778076171875
257118,-0.23260498046875,0.6147918701171875,0.098236083984375,-2.226099491119385,0.1772221773862839,-0.994042992591858,37.20857238769531,98.69882202148438,-14.04405212402344
257119,-0.1493072509765625,0.479949951171875,0.117340087890625,-2.058416128158569,-0.417812168598175,-1.062969565391541,36.77102661132812,98.507080078125,-13.15699768066406
257120,-0.1493072509765625,0.479949951171875,0.117340087890625,-2.058416128158569,-0.417812168598175,-1.062969565391541,36.77102661132812,98.507080078125,-13.15699768066406
257121,-0.0663604736328125,0.3799591064453125,0.062896728515625,-2.090384006500244,-1.213458180427551,-1.362605571746826,35.81312561035156,98.07583618164062,-11.50138854980469
257122,0.001251220703125,0.3921966552734375,-0.089691162109375,-2.090384006500244,-1.213458180427551,-1.362605571746826,35.28341674804688,97.67776489257812,-10.48045349121094
257123,0.1239166259765625,0.36761474609375,-0.4096527099609375,-2.07004451751709,-1.71009886264801,-1.398733258247375,34.54487609863281,97.27409362792967,-9.369415283203123
257124,0.2512054443359375,0.275360107421875,-0.76361083984375,-1.671120285987854,-2.562357425689697,-1.276512503623962,33.84732055664062,96.95399475097656,-8.28228759765625
257125,0.3676605224609375,0.157012939453125,-0.7160491943359375,-0.3316871225833893,-0.7754720449447632,-0.5761631727218628,33.19493103027344,96.53448486328124,-7.251754760742188
257126,0.3676605224609375,0.157012939453125,-0.7160491943359375,-0.3316871225833893,-0.7754720449447632,-0.5761631727218628,33.19493103027344,96.53448486328124,-7.251754760742188
257127,0.3169403076171875,-0.0169830322265625,-0.4818878173828125,-0.0174231994897127,0.6299872398376465,-0.320421427488327,32.22248840332031,96.05445861816406,-5.276290893554688
257128,0.25946044921875,-0.0554656982421875,-0.54473876953125,0.0199068635702133,1.164746522903442,-0.1975279897451401,31.90731811523438,95.95956420898438,-4.84490966796875
257129,0.265045166015625,-0.1131134033203125,-0.5843353271484375,-0.1346608698368073,1.119672536849976,-0.1250972002744675,31.65750122070312,96.05572509765624,-4.809677124023438
257130,0.265045166015625,-0.1131134033203125,-0.5843353271484375,-0.1346608698368073,1.119672536849976,-0.1250972002744675,31.65750122070312,96.05572509765624,-4.809677124023438
257131,0.288360595703125,-0.10528564453125,-0.5517578125,-0.7735814452171326,0.2650012969970703,0.0484788529574871,31.22044372558594,95.82656860351562,-4.71435546875
257132,0.2849273681640625,-0.0471954345703125,-0.44696044921875,-1.001474022865295,-0.1055357456207275,0.0862161144614219,31.12440490722656,95.69485473632812,-4.45849609375
257133,0.285186767578125,0.0411376953125,-0.310760498046875,-1.025358319282532,-0.2038758993148804,0.0547497980296611,31.18070983886719,95.73965454101562,-4.005584716796875
257134,0.285186767578125,0.0411376953125,-0.310760498046875,-1.025358319282532,-0.2038758993148804,0.0547497980296611,31.18070983886719,95.73965454101562,-4.005584716796875
257135,0.3025054931640625,0.23992919921875,-0.0351715087890625,-0.9422959089279176,-0.0022005699574947,0.0145347341895103,31.22311401367188,95.54119873046876,-3.071365356445312
257136,0.3209686279296875,0.3621368408203125,-0.0546417236328125,-0.8621560335159302,0.1041064262390137,-0.0316860228776931,31.16697692871094,95.4822998046875,-2.54498291015625
257137,0.3317108154296875,0.534088134765625,-0.2068939208984375,-0.5179430246353149,-0.7484025955200195,-0.2826831042766571,31.02467346191406,95.39556884765624,-1.999343872070312
257138,0.3317108154296875,0.534088134765625,-0.2068939208984375,-0.5179430246353149,-0.7484025955200195,-0.2826831042766571,31.02467346191406,95.39556884765624,-1.999343872070312
257139,0.3122100830078125,0.9968414306640624,-0.52105712890625,-0.0963984429836273,-1.463661313056946,-0.4863781630992889,30.97007751464844,95.18368530273438,-1.069351196289062
257140,0.227691650390625,1.20135498046875,-0.3753662109375,0.9445475935935974,-0.7837586998939514,-0.7338566780090332,30.89398193359375,95.23880004882812,-0.7018890380859375
257141,0.0641021728515625,1.332504272460938,-0.2916717529296875,0.9445475935935974,-0.7837586998939514,-0.7338566780090332,30.72120666503906,95.37525939941406,-0.2972564697265625
257142,-0.065765380859375,1.357620239257812,-0.3452606201171875,1.408673405647278,-0.3916852176189423,-0.9434003233909608,30.44015502929688,95.64312744140624,-0.2334747314453125
257143,-0.1363983154296875,1.359146118164062,-0.2782135009765625,1.702785730361938,-0.4057602882385254,-1.259319067001343,30.13127136230469,95.65428161621094,-0.3629913330078125
257144,-0.2134246826171875,1.444625854492188,-0.15478515625,1.773637056350708,-0.4501248300075531,-1.589499950408936,29.78865051269531,95.66592407226562,-0.9071807861328124
257145,-0.335693359375,1.685882568359375,-0.06500244140625,1.239652514457703,-0.0172892417758703,-2.292309761047363,29.34384155273438,95.69168090820312,-1.593292236328125
257146,-0.335693359375,1.685882568359375,-0.06500244140625,1.239652514457703,-0.0172892417758703,-2.292309761047363,29.34384155273438,95.69168090820312,-1.593292236328125
257147,-0.844268798828125,2.638809204101562,-0.37646484375,0.7610397934913635,0.0203353650867939,-2.431043863296509,27.6279296875,96.1204071044922,-3.28070068359375
257148,-0.844268798828125,2.638809204101562,-0.37646484375,0.7610397934913635,0.0203353650867939,-2.431043863296509,27.6279296875,96.1204071044922,-3.28070068359375
257149,-1.396682739257812,3.366836547851562,-0.260711669921875,0.1766991317272186,0.1632123589515686,-1.976395964622498,26.62612915039062,96.20777893066406,-4.21697998046875
257150,-1.548660278320312,4.060333251953125,-0.095184326171875,0.2544796764850616,0.6554790139198303,-0.7268698811531067,25.56764221191406,96.15960693359376,-4.859725952148438
257151,-0.860748291015625,4.150177001953125,0.3995513916015625,0.7584051489830017,-0.8035694360733032,0.2469032555818558,24.50926208496094,96.225341796875,-5.59429931640625
257152,-0.860748291015625,4.150177001953125,0.3995513916015625,0.7584051489830017,-0.8035694360733032,0.2469032555818558,24.50926208496094,96.225341796875,-5.59429931640625
257153,-0.42926025390625,2.861373901367188,0.3946380615234375,0.9942411184310912,-0.077233001589775,0.4280288517475128,24.73249816894531,96.3967742919922,-5.775192260742188
257154,-0.42926025390625,2.861373901367188,0.3946380615234375,0.9942411184310912,-0.077233001589775,0.4280288517475128,24.73249816894531,96.3967742919922,-5.775192260742188
257155,-0.286956787109375,2.784805297851562,-0.2022857666015625,1.70345151424408,-0.6375492811203003,0.560530960559845,25.36140441894531,96.17390441894533,-6.184860229492188
257156,-0.1374053955078125,2.331283569335938,0.310516357421875,2.083465576171875,-0.6865472197532654,0.4312749803066254,25.79800415039062,96.15768432617188,-6.55548095703125
257157,-0.1374053955078125,2.331283569335938,0.310516357421875,2.083465576171875,-0.6865472197532654,0.4312749803066254,25.79800415039062,96.15768432617188,-6.55548095703125
257158,0.05926513671875,1.8985595703125,0.4780426025390625,2.233893394470215,-0.7574560046195984,0.6198903918266296,26.28073120117188,96.02679443359376,-7.117767333984375
257159,0.2086181640625,1.079010009765625,0.2216339111328125,2.174767732620239,-1.107409715652466,0.8834158182144165,27.33186340332031,95.68626403808594,-8.549530029296875
257160,0.2086181640625,1.079010009765625,0.2216339111328125,2.174767732620239,-1.107409715652466,0.8834158182144165,27.33186340332031,95.68626403808594,-8.549530029296875
257161,0.321502685546875,0.7916259765625,-0.006744384765625,2.077606439590454,-1.94915235042572,1.053667902946472,27.8621826171875,95.5946044921875,-9.291061401367188
257162,0.3799896240234375,0.6869659423828125,0.1311798095703125,1.986495494842529,-2.423037767410278,1.08633029460907,28.33888244628906,95.73880004882812,-10.20668029785156
257163,0.5440826416015625,0.637786865234375,0.1535797119140625,1.708460211753845,-1.907618522644043,0.948699712753296,29.241943359375,96.0996551513672,-11.10275268554688
257164,0.5440826416015625,0.637786865234375,0.1535797119140625,1.708460211753845,-1.907618522644043,0.948699712753296,29.241943359375,96.0996551513672,-11.10275268554688
257165,0.439422607421875,0.7349395751953125,0.033416748046875,1.473959803581238,-0.9943844079971312,0.7439463138580322,29.65544128417969,96.29220581054688,-11.16130065917969
257166,0.00384521484375,0.7564544677734375,-0.085968017578125,1.147593379020691,0.3647955358028412,0.9474470019340516,29.99815368652344,96.52793884277344,-11.34844970703125
257167,-0.2159423828125,0.780731201171875,0.1340484619140625,1.047613024711609,0.4814260303974152,1.038612008094788,30.84527587890625,96.94593811035156,-12.43875122070312
257168,-0.2159423828125,0.780731201171875,0.1340484619140625,1.047613024711609,0.4814260303974152,1.038612008094788,30.84527587890625,96.94593811035156,-12.43875122070312
257169,-0.3241119384765625,0.6706695556640625,0.4174652099609375,0.6016783714294434,1.252575993537903,0.9750314950942992,31.86515808105469,97.30886840820312,-13.71205139160156
257170,-0.352691650390625,0.587066650390625,0.457916259765625,0.6016783714294434,1.252575993537903,0.9750314950942992,32.44740295410156,97.419189453125,-14.36509704589844
257171,-0.3673095703125,0.4859771728515625,0.4415283203125,0.4475761651992798,1.36803126335144,0.864328920841217,33.131103515625,97.42921447753906,-14.90596008300781
257172,-0.3673095703125,0.4859771728515625,0.4415283203125,0.4475761651992798,1.36803126335144,0.864328920841217,33.131103515625,97.42921447753906,-14.90596008300781
257173,-0.3721923828125,0.3731536865234375,0.3902435302734375,0.3710630238056183,1.328405261039734,0.7620169520378113,33.70993041992188,97.44148254394533,-15.351318359375
257174,-0.35272216796875,0.2699127197265625,0.3990325927734375,0.3296780288219452,1.249794006347656,0.6477487087249756,34.17825317382812,97.4951171875,-15.69467163085938
257175,-0.331024169921875,0.20159912109375,0.55816650390625,-0.0369590818881988,1.629962921142578,0.3484517335891724,34.95027160644531,97.66604614257812,-16.49693298339844
257176,-0.331024169921875,0.20159912109375,0.55816650390625,-0.0369590818881988,1.629962921142578,0.3484517335891724,34.95027160644531,97.66604614257812,-16.49693298339844
257177,-0.345550537109375,0.234222412109375,0.624053955078125,-0.4088053405284882,2.052319765090942,0.1709437817335129,35.27926635742188,97.86878967285156,-16.827880859375
257178,-0.3204498291015625,0.339141845703125,0.6764984130859375,-1.100546836853027,2.684464931488037,-0.113951601088047,35.48091125488281,98.0706787109375,-17.04977416992188
257179,-0.1867523193359375,0.7003173828125,0.6883087158203125,-1.307670712471008,2.643318891525269,-0.217631921172142,35.71463012695312,98.2792510986328,-17.19950866699219
257180,-0.1867523193359375,0.7003173828125,0.6883087158203125,-1.307670712471008,2.643318891525269,-0.217631921172142,35.71463012695312,98.2792510986328,-17.19950866699219
257181,-0.0705413818359375,0.847503662109375,0.6129150390625,-1.418606996536255,2.084493398666382,-0.2852988541126251,35.77816772460938,98.30891418457033,-16.85202026367188
257182,-0.053314208984375,0.8592529296875,0.5516815185546875,-1.378652215003967,1.676784038543701,-0.3623994886875153,35.66680908203125,98.44790649414062,-16.66618347167969
257183,-0.0676116943359375,0.8188018798828125,0.493804931640625,-1.337807536125183,1.19318962097168,-0.4890240132808685,35.62565612792969,98.55931091308594,-16.30825805664062
257184,-0.0676116943359375,0.8188018798828125,0.493804931640625,-1.337807536125183,1.19318962097168,-0.4890240132808685,35.62565612792969,98.55931091308594,-16.30825805664062
257185,-0.107666015625,0.7233734130859375,0.4376220703125,-1.547275543212891,0.1959567219018936,-0.9368364214897156,35.5433349609375,98.57408142089844,-15.88983154296875
257186,-0.180572509765625,0.384307861328125,0.3388519287109375,-1.765431046485901,-0.1087089031934738,-1.063506245613098,35.15179443359375,98.2671356201172,-15.11463928222656
257187,-0.1486968994140625,0.2500762939453125,0.18408203125,-1.950387358665466,-0.3337140679359436,-1.113544106483459,34.83152770996094,98.08602905273438,-14.38626098632812
257188,-0.1486968994140625,0.2500762939453125,0.18408203125,-1.950387358665466,-0.3337140679359436,-1.113544106483459,34.83152770996094,98.08602905273438,-14.38626098632812
257189,-0.08514404296875,0.1407928466796875,-0.2034149169921875,-2.065465927124023,-0.8789163827896118,-1.116389155387878,34.50424194335938,97.79035949707033,-13.51646423339844
257190,0.051239013671875,0.038482666015625,-0.6770477294921875,-1.769665479660034,-2.804729461669922,-0.9865142107009888,33.3717041015625,97.35963439941406,-11.58717346191406
257191,0.0845184326171875,0.0225830078125,-0.52752685546875,-1.197312951087952,-2.887171268463135,-0.8301643133163452,32.82511901855469,96.98516845703124,-10.41972351074219
257192,0.1055145263671875,-0.019500732421875,-0.2722625732421875,-0.6873142123222351,-1.17449426651001,-0.658409595489502,32.25334167480469,96.80648803710938,-9.259796142578123
257193,0.1055145263671875,-0.019500732421875,-0.2722625732421875,-0.6873142123222351,-1.17449426651001,-0.658409595489502,32.25334167480469,96.80648803710938,-9.259796142578123
257194,0.1190338134765625,-0.0303955078125,-0.4264984130859375,-0.3131552636623383,0.432836651802063,-0.398502916097641,31.51210021972656,96.59642028808594,-7.533432006835938
257195,0.1287078857421875,-0.0613861083984375,-0.337677001953125,-0.3507316410541534,0.3007374703884125,-0.3024490773677826,31.15701293945312,96.50778198242188,-7.036148071289062
257196,0.1287078857421875,-0.0613861083984375,-0.337677001953125,-0.3507316410541534,0.3007374703884125,-0.3024490773677826,31.15701293945312,96.50778198242188,-7.036148071289062
257197,0.1378173828125,-0.069610595703125,-0.27203369140625,-0.4735494554042816,0.0982392206788063,-0.2210106700658798,30.89048767089844,96.45755004882812,-6.874420166015625
257198,0.1659088134765625,-0.0276031494140625,-0.212982177734375,-0.7689622044563293,-0.2106669545173645,-0.0948274433612823,30.57005310058594,96.10238647460938,-6.390213012695312
257199,0.20709228515625,0.0224456787109375,-0.2632598876953125,-0.8574590086936951,-0.3264691829681396,-0.0163566023111343,30.4791259765625,96.10829162597656,-6.089279174804688
257200,0.2514190673828125,0.1266937255859375,-0.3923187255859375,-0.8637068271636963,-0.5388725399971008,0.0380850657820701,30.36746215820312,96.03314208984376,-5.724105834960938
257201,0.2514190673828125,0.1266937255859375,-0.3923187255859375,-0.8637068271636963,-0.5388725399971008,0.0380850657820701,30.36746215820312,96.03314208984376,-5.724105834960938
257202,0.281707763671875,0.465911865234375,-0.4969024658203125,-0.7388597130775452,-0.9622014164924622,-0.1085515096783638,30.21391296386719,95.8909149169922,-4.51544189453125
257203,0.2629547119140625,0.653594970703125,-0.4605255126953125,-0.647497832775116,-0.8765919804573059,-0.2414717376232147,30.19874572753906,96.01451110839844,-4.068038940429688
257204,0.2629547119140625,0.653594970703125,-0.4605255126953125,-0.647497832775116,-0.8765919804573059,-0.2414717376232147,30.19874572753906,96.01451110839844,-4.068038940429688
257205,0.1360321044921875,1.061248779296875,-0.5271148681640625,-0.1198603585362434,-0.4766645431518555,-0.4164227843284607,30.03102111816406,95.95494079589844,-2.775360107421875
257206,0.059234619140625,1.219284057617188,-0.596160888671875,0.2263761460781097,-0.5028135776519775,-0.5087535381317139,29.97288513183594,95.99252319335938,-2.296615600585938
257207,0.011749267578125,1.391937255859375,-0.6705169677734375,0.5396261811256409,-0.7504891753196716,-0.6011276245117188,29.74447631835938,95.9789581298828,-1.833831787109375
257208,0.011749267578125,1.391937255859375,-0.6705169677734375,0.5396261811256409,-0.7504891753196716,-0.6011276245117188,29.74447631835938,95.9789581298828,-1.833831787109375
257209,0.0082855224609375,2.031478881835938,-0.5320281982421875,0.8696683049201965,-0.8048903942108154,-0.8444167375564575,29.41853332519531,96.00975036621094,-1.406890869140625
257210,-0.023590087890625,2.405517578125,-0.3440093994140625,0.839593231678009,-0.3926644623279572,-0.9974435567855836,29.10614013671875,95.94403076171876,-1.580337524414062
257211,-0.1100616455078125,2.727310180664062,-0.3583831787109375,0.8851923942565918,-0.1444149762392044,-1.292740225791931,28.75740051269531,95.9615478515625,-1.783462524414062
257212,-0.1100616455078125,2.727310180664062,-0.3583831787109375,0.8851923942565918,-0.1444149762392044,-1.292740225791931,28.75740051269531,95.9615478515625,-1.783462524414062
257213,-0.216552734375,2.949737548828125,-0.4749908447265625,1.172102212905884,-0.3618599474430084,-1.603867769241333,28.37367248535156,95.877685546875,-1.974014282226562
257214,-0.4541015625,2.99224853515625,-0.4249114990234375,1.521113991737366,-0.3443507254123688,-1.786913156509399,27.81158447265625,95.9248046875,-2.383941650390625
257215,-1.440155029296875,2.692108154296875,-0.56707763671875,1.222355246543884,0.7963157892227173,-0.9235283136367798,26.50411987304688,96.1979522705078,-3.661575317382812
257216,-1.440155029296875,2.692108154296875,-0.56707763671875,1.222355246543884,0.7963157892227173,-0.9235283136367798,26.50411987304688,96.1979522705078,-3.661575317382812
257217,-1.359222412109375,2.937698364257812,-0.6994476318359375,0.8664248585700989,0.5197174549102783,0.0803390443325042,25.84010314941406,96.25747680664062,-4.5799560546875
257218,-0.456268310546875,3.4273681640625,-0.0429840087890625,0.2561758458614349,-0.2417388558387756,0.5908369421958923,25.16026306152344,96.46003723144533,-6.211563110351562
257219,-0.2612457275390625,3.434951782226562,0.0700531005859375,0.4779516458511353,-0.0438039377331733,0.8470090627670288,25.35232543945312,96.62278747558594,-6.504791259765625
257220,-0.2612457275390625,3.434951782226562,0.0700531005859375,0.4779516458511353,-0.0438039377331733,0.8470090627670288,25.35232543945312,96.62278747558594,-6.504791259765625
257221,-0.3253936767578125,3.009506225585938,0.411407470703125,2.109589099884033,0.4081643223762512,0.8757802248001099,25.96966552734375,96.87321472167967,-6.985549926757812
257222,-0.3253936767578125,3.009506225585938,0.411407470703125,2.109589099884033,0.4081643223762512,0.8757802248001099,25.96966552734375,96.87321472167967,-6.985549926757812
257223,-0.00579833984375,2.199020385742188,0.433837890625,2.929972171783447,0.2884544432163239,1.098103880882263,27.01498413085938,97.00840759277344,-8.423782348632812
257224,-0.00579833984375,2.199020385742188,0.433837890625,2.929972171783447,0.2884544432163239,1.098103880882263,27.01498413085938,97.00840759277344,-8.423782348632812
257225,0.15032958984375,1.15087890625,0.336456298828125,2.44127631187439,-0.7466739416122437,1.231545805931091,28.14903259277344,96.96034240722656,-11.04002380371094
257226,0.215667724609375,0.8369903564453125,0.3423309326171875,2.44127631187439,-0.7466739416122437,1.231545805931091,28.76600646972656,97.01405334472656,-12.52796936035156
257227,0.297027587890625,0.5960235595703125,0.2909088134765625,2.141577482223511,-1.12812864780426,1.262183666229248,29.33848571777344,96.90280151367188,-13.63246154785156
257228,0.297027587890625,0.5960235595703125,0.2909088134765625,2.141577482223511,-1.12812864780426,1.262183666229248,29.33848571777344,96.90280151367188,-13.63246154785156
257229,0.447601318359375,0.319671630859375,0.118560791015625,1.602380037307739,-2.096511840820312,1.227747559547424,30.54496765136719,96.92547607421876,-15.26742553710938
257230,0.5147552490234375,0.251190185546875,0.1383514404296875,1.446748375892639,-2.291792392730713,1.246570825576782,31.05323791503906,97.02232360839844,-15.79405212402344
257231,0.517578125,0.26953125,0.2315216064453125,1.361704111099243,-1.871689796447754,1.206404566764832,31.498779296875,97.19540405273438,-16.25187683105469
257232,0.517578125,0.26953125,0.2315216064453125,1.361704111099243,-1.871689796447754,1.206404566764832,31.498779296875,97.19540405273438,-16.25187683105469
257233,0.0161285400390625,0.372222900390625,0.38995361328125,0.9399262070655824,0.4956667423248291,0.9839453101158142,32.56707763671875,97.90007019042967,-17.11447143554688
257234,-0.154144287109375,0.497283935546875,0.4001007080078125,0.5389255285263062,1.465720772743225,1.090853691101074,33.11616516113281,97.97781372070312,-17.61769104003906
257235,-0.20953369140625,0.5117645263671875,0.440399169921875,0.0949211865663528,2.046959400177002,1.070781707763672,33.75019836425781,98.11500549316406,-18.01431274414062
257236,-0.20953369140625,0.5117645263671875,0.440399169921875,0.0949211865663528,2.046959400177002,1.070781707763672,33.75019836425781,98.11500549316406,-18.01431274414062
257237,-0.2670440673828125,0.4409637451171875,0.496246337890625,-0.2865361571311951,2.46728515625,0.9793670773506165,34.40049743652344,98.03709411621094,-18.51504516601562
257238,-0.3376922607421875,0.31036376953125,0.446014404296875,-0.6464964747428894,2.539037704467773,0.7082290649414062,35.92134094238281,98.10153198242188,-18.95835876464844
257239,-0.3715972900390625,0.3252105712890625,0.5209503173828125,-0.6320826411247253,2.444797992706299,0.5555071830749512,36.53456115722656,98.29600524902344,-18.94792175292969
257240,-0.3968505859375,0.416473388671875,0.6559600830078125,-0.664084792137146,2.552277803421021,0.3483782112598419,37.11442565917969,98.32652282714844,-18.9681396484375
257241,-0.407562255859375,0.5524444580078125,0.774322509765625,-0.8166530132293701,2.871417284011841,0.1057669073343277,37.49313354492188,98.59236145019533,-18.9884033203125
257242,-0.39605712890625,0.7078857421875,0.8212432861328125,-1.122312545776367,3.140721559524536,-0.1276040375232697,37.66680908203125,98.78703308105467,-19.03927612304688
257243,-0.4020843505859375,0.8804779052734375,0.7948150634765625,-1.524156332015991,3.117388486862183,-0.2841424942016602,37.88883972167969,98.88362121582033,-18.8424072265625
257244,-0.4020843505859375,0.8804779052734375,0.7948150634765625,-1.524156332015991,3.117388486862183,-0.2841424942016602,37.88883972167969,98.88362121582033,-18.8424072265625
257245,-0.4412994384765625,1.031173706054688,0.7391815185546875,-1.950307369232178,2.887333154678345,-0.4097723364830017,37.9969482421875,98.96804809570312,-18.68212890625
257246,-0.47576904296875,1.084930419921875,0.3806610107421875,-2.49699878692627,1.558061122894287,-0.7217342257499695,37.95474243164062,99.15513610839844,-17.8345947265625
257247,-0.38690185546875,0.969390869140625,0.208984375,-2.551820755004883,0.4186595678329468,-0.961908757686615,37.66905212402344,99.23243713378906,-16.98757934570312
257248,-0.38690185546875,0.969390869140625,0.208984375,-2.551820755004883,0.4186595678329468,-0.961908757686615,37.66905212402344,99.23243713378906,-16.98757934570312
257249,-0.2304229736328125,0.7912750244140625,0.2111968994140625,-2.528290987014771,-0.4863563179969788,-1.119299650192261,37.2877197265625,99.22525024414062,-16.06434631347656
257250,0.1088104248046875,0.646484375,0.33538818359375,-2.234929323196411,-0.8428789973258972,-1.190110802650452,36.24276733398438,98.76724243164062,-13.8641357421875
257251,0.1707916259765625,0.5446624755859375,0.2378997802734375,-2.157528877258301,-0.5572035908699036,-1.095906734466553,35.7093505859375,98.45881652832033,-12.72390747070312
257252,0.1707916259765625,0.5446624755859375,0.2378997802734375,-2.157528877258301,-0.5572035908699036,-1.095906734466553,35.7093505859375,98.45881652832033,-12.72390747070312
257253,0.213348388671875,0.4145050048828125,-0.05560302734375,-2.123202323913574,-0.4336867332458496,-0.9424367547035216,35.02601623535156,98.11286926269533,-11.636474609375
257254,0.2484283447265625,0.2073974609375,-0.642242431640625,-1.538127541542053,-1.57870090007782,-0.714448869228363,33.99229431152344,97.60650634765624,-9.76727294921875
257255,0.226409912109375,0.17767333984375,-0.5779266357421875,-0.9863288402557372,-1.96549117565155,-0.6501255631446838,33.63531494140625,97.272216796875,-8.456680297851562
257256,0.1621551513671875,0.178741455078125,-0.4037933349609375,-0.6685634255409241,-1.293792128562927,-0.7336798310279846,33.43556213378906,97.09536743164062,-7.452499389648438
257257,0.1621551513671875,0.178741455078125,-0.4037933349609375,-0.6685634255409241,-1.293792128562927,-0.7336798310279846,33.43556213378906,97.09536743164062,-7.452499389648438
257258,0.044921875,0.1448822021484375,-0.5313568115234375,-0.3963239192962646,0.1072308495640755,-0.8471959829330444,32.58930969238281,96.91188049316406,-6.0849609375
257259,0.05804443359375,0.11688232421875,-0.501068115234375,-0.3155036270618439,0.0457544401288032,-0.8540235757827759,32.2349853515625,96.67062377929688,-5.595504760742188
257260,0.05804443359375,0.11688232421875,-0.501068115234375,-0.3155036270618439,0.0457544401288032,-0.8540235757827759,32.2349853515625,96.67062377929688,-5.595504760742188
257261,0.146942138671875,0.037078857421875,-0.391387939453125,-0.3781283795833588,-0.27839195728302,-0.6710465550422668,31.52680969238281,96.06802368164062,-5.335662841796875
257262,0.1683807373046875,0.0273284912109375,-0.418182373046875,-0.4401462078094482,-0.3982877135276794,-0.5596576929092407,31.17013549804688,95.86082458496094,-5.18438720703125
257263,0.197723388671875,0.034088134765625,-0.448516845703125,-0.477706640958786,-0.559707522392273,-0.4495328068733215,30.918212890625,95.7472686767578,-4.977294921875
257264,0.197723388671875,0.034088134765625,-0.448516845703125,-0.477706640958786,-0.559707522392273,-0.4495328068733215,30.918212890625,95.7472686767578,-4.977294921875
257265,0.26116943359375,0.1076202392578125,-0.3900146484375,-0.6056755185127258,-0.6211293339729309,-0.2041680514812469,30.45960998535156,95.51292419433594,-4.308013916015625
257266,0.2688140869140625,0.1823883056640625,-0.3109588623046875,-0.677908718585968,-0.5577506422996521,-0.083527386188507,30.38539123535156,95.47988891601562,-3.914154052734375
257267,0.2710723876953125,0.2883453369140625,-0.251678466796875,-0.7299524545669556,-0.4571512937545776,0.0010293117957189,30.35006713867188,95.37310791015624,-3.452896118164062
257268,0.2710723876953125,0.2883453369140625,-0.251678466796875,-0.7299524545669556,-0.4571512937545776,0.0010293117957189,30.35006713867188,95.37310791015624,-3.452896118164062
257269,0.2853851318359375,0.419403076171875,-0.30267333984375,-0.7387848496437073,-0.4840841293334961,0.0459365993738174,30.39071655273438,95.17434692382812,-2.881988525390625
257270,0.2952880859375,0.76495361328125,-0.46875,-0.4627135694026947,-1.070906281471252,-0.0414116233587265,30.53547668457031,95.09260559082033,-1.849578857421875
257271,0.265472412109375,0.9724273681640624,-0.489501953125,-0.1336225122213364,-1.372515439987183,-0.2146702259778976,30.67393493652344,95.04115295410156,-1.289688110351562
257272,0.265472412109375,0.9724273681640624,-0.489501953125,-0.1336225122213364,-1.372515439987183,-0.2146702259778976,30.67393493652344,95.04115295410156,-1.289688110351562
257273,0.1425933837890625,1.241073608398438,-0.2961883544921875,1.157852172851562,-0.8089399933815002,-0.6990315914154053,30.721435546875,95.0883331298828,-0.4667510986328125
257274,0.0802001953125,1.337860107421875,-0.249298095703125,1.157852172851562,-0.8089399933815002,-0.6990315914154053,30.72933959960938,95.17230224609376,-0.2421112060546875
257275,0.048431396484375,1.486862182617188,-0.285888671875,1.515560746192932,-0.6285760402679443,-0.742234468460083,30.60382080078125,95.20602416992188,-0.2248077392578125
257276,-0.0432586669921875,1.775360107421875,-0.2588043212890625,1.783449172973633,-0.5278955101966858,-0.8358491063117981,30.35464477539062,95.4797821044922,-0.665924072265625
257277,-0.0432586669921875,1.775360107421875,-0.2588043212890625,1.783449172973633,-0.5278955101966858,-0.8358491063117981,30.35464477539062,95.4797821044922,-0.665924072265625
257278,-0.214111328125,2.2305908203125,-0.166015625,1.918857932090759,-0.3017747700214386,-1.153796195983887,30.07525634765625,95.90243530273438,-1.069229125976562
257279,-0.762603759765625,3.80084228515625,0.3932342529296875,1.718840360641479,1.906638979911804,-2.709344625473022,28.83035278320312,96.61634826660156,-2.967056274414062
257280,-0.762603759765625,3.80084228515625,0.3932342529296875,1.718840360641479,1.906638979911804,-2.709344625473022,28.83035278320312,96.61634826660156,-2.967056274414062
257281,-3.332611083984375,5.51397705078125,-0.2125701904296875,-1.418782234191895,1.099591493606567,-1.774136424064636,26.79704284667969,97.13755798339844,-6.0693359375
257282,-1.683303833007812,3.266998291015625,0.4039154052734375,-1.120985984802246,-0.4198281764984131,-0.1150307133793831,25.9049072265625,97.09901428222656,-7.353439331054688
257283,-0.7898101806640625,2.6485595703125,0.7960662841796875,0.9704516530036926,-0.760176956653595,0.4479516744613647,25.4261474609375,96.78355407714844,-7.392959594726562
257284,-0.7898101806640625,2.6485595703125,0.7960662841796875,0.9704516530036926,-0.760176956653595,0.4479516744613647,25.4261474609375,96.78355407714844,-7.392959594726562
257285,-0.515106201171875,2.77264404296875,0.8113555908203125,2.091792821884155,0.3473680913448334,0.747247576713562,25.48472595214844,96.39540100097656,-6.795425415039062
257286,0.0501556396484375,2.545486450195312,-0.4751129150390625,2.196829557418823,-0.1754674315452576,1.236768007278442,26.12635803222656,96.17770385742188,-7.934967041015625
257287,0.209564208984375,2.337844848632812,-0.1981048583984375,2.111841678619385,-1.484167456626892,1.223259091377258,26.70771789550781,96.2136688232422,-8.969390869140625
257288,0.209564208984375,2.337844848632812,-0.1981048583984375,2.111841678619385,-1.484167456626892,1.223259091377258,26.70771789550781,96.2136688232422,-8.969390869140625
257289,0.22174072265625,2.085174560546875,0.4575347900390625,1.968402504920959,-2.11490535736084,1.136320233345032,27.287109375,96.20989990234376,-9.849822998046877
257290,0.376007080078125,1.099044799804688,0.23358154296875,1.969602584838867,-1.799148321151733,1.076585531234741,28.62715148925781,96.13272094726562,-10.76106262207031
257291,0.495819091796875,0.7657470703125,-0.1065521240234375,1.844154357910156,-2.49714183807373,1.089173197746277,29.2425537109375,96.19667053222656,-11.10749816894531
257292,0.495819091796875,0.7657470703125,-0.1065521240234375,1.844154357910156,-2.49714183807373,1.089173197746277,29.2425537109375,96.19667053222656,-11.10749816894531
257293,0.617279052734375,0.5658721923828125,0.16937255859375,1.767929077148438,-1.319352149963379,0.8282036781311035,30.28559875488281,96.43936157226562,-11.4100341796875
257294,0.589508056640625,0.582672119140625,0.0814971923828125,1.767929077148438,-1.319352149963379,0.8282036781311035,30.70158386230469,96.6894073486328,-11.56063842773438
257295,0.362823486328125,0.544921875,-0.23419189453125,1.572090864181519,0.0518626645207405,0.5795664191246033,31.13563537597656,96.84490966796876,-11.73052978515625
257296,0.362823486328125,0.544921875,-0.23419189453125,1.572090864181519,0.0518626645207405,0.5795664191246033,31.13563537597656,96.84490966796876,-11.73052978515625
257297,-0.071807861328125,0.583404541015625,-0.1064910888671875,1.154820680618286,0.442810446023941,1.050787806510925,31.83926391601562,97.16848754882812,-12.90342712402344
257298,-0.1075897216796875,0.5758819580078125,0.1480255126953125,0.8803576827049255,0.6764783263206482,1.184345006942749,32.34628295898438,97.36604309082033,-13.56253051757812
257299,-0.153411865234375,0.564605712890625,0.3690948486328125,0.6802744269371033,1.049933671951294,1.222979784011841,32.91619873046875,97.47439575195312,-14.20538330078125
257300,-0.153411865234375,0.564605712890625,0.3690948486328125,0.6802744269371033,1.049933671951294,1.222979784011841,32.91619873046875,97.47439575195312,-14.20538330078125
257301,-0.1792755126953125,0.53033447265625,0.5733795166015625,0.5518048405647278,1.655938148498535,1.19529914855957,33.51292419433594,97.48394775390624,-14.65322875976562
257302,-0.1923828125,0.3645782470703125,0.4933624267578125,0.2516221106052399,2.623175859451294,0.9829607605934144,34.83866882324219,97.7576904296875,-15.73690795898438
257303,-0.201263427734375,0.2813568115234375,0.382598876953125,0.1319998502731323,2.529977083206177,0.8483635187149048,35.54460144042969,97.84934997558594,-16.19419860839844
257304,-0.201263427734375,0.2813568115234375,0.382598876953125,0.1319998502731323,2.529977083206177,0.8483635187149048,35.54460144042969,97.84934997558594,-16.19419860839844
257305,-0.215972900390625,0.2251739501953125,0.40167236328125,0.0551530010998249,2.324185609817505,0.7176358699798584,36.27680969238281,97.96636962890624,-16.69775390625
257306,-0.2314605712890625,0.244293212890625,0.5574951171875,-0.2439540773630142,2.45994758605957,0.3279967904090881,37.227783203125,98.34957885742188,-17.52423095703125
257307,-0.2318115234375,0.304656982421875,0.5991668701171875,-0.5597836971282959,2.531213998794556,0.1477188915014267,37.56864929199219,98.53167724609376,-17.68634033203125
257308,-0.2479400634765625,0.4674835205078125,0.7042083740234375,-0.9787356853485109,2.476565599441528,0.0622346103191375,37.90103149414062,98.51312255859376,-17.67221069335938
257309,-0.2479400634765625,0.4674835205078125,0.7042083740234375,-0.9787356853485109,2.476565599441528,0.0622346103191375,37.90103149414062,98.51312255859376,-17.67221069335938
257310,-0.267974853515625,0.697113037109375,0.787353515625,-1.35740602016449,2.376280784606934,0.0021406488958746,38.11930847167969,98.63189697265624,-17.5997314453125
257311,-0.317779541015625,1.051406860351562,0.622222900390625,-1.772581100463867,1.571700215339661,-0.2499919980764389,38.39112854003906,99.03059387207033,-17.18251037597656
257312,-0.317779541015625,1.051406860351562,0.622222900390625,-1.772581100463867,1.571700215339661,-0.2499919980764389,38.39112854003906,99.03059387207033,-17.18251037597656
257313,-0.3056640625,1.103988647460938,0.4819488525390625,-1.859424710273743,0.5736680626869202,-0.481329619884491,38.48428344726562,99.0354461669922,-16.7772216796875
257314,-0.3011322021484375,1.019790649414062,0.523651123046875,-2.066824674606323,-0.8366546630859375,-0.8998056650161743,38.43374633789062,99.12777709960938,-16.27293395996094
257315,-0.198455810546875,0.7443084716796875,0.4264984130859375,-2.132161378860474,-1.038937211036682,-1.060730338096619,38.00381469726562,98.74295043945312,-14.71406555175781
257316,-0.198455810546875,0.7443084716796875,0.4264984130859375,-2.132161378860474,-1.038937211036682,-1.060730338096619,38.00381469726562,98.74295043945312,-14.71406555175781
257317,-0.035003662109375,0.6442413330078125,-0.1850128173828125,-1.698648571968079,-1.992374658584595,-1.24151885509491,37.19038391113281,98.26487731933594,-12.70208740234375
257318,0.0690765380859375,0.5381622314453125,-0.47442626953125,-1.698648571968079,-1.992374658584595,-1.24151885509491,36.56648254394531,98.05401611328124,-11.72837829589844
257319,0.133758544921875,0.3253173828125,-0.516632080078125,-0.9234526753425598,-1.962656021118164,-1.097355008125305,35.938232421875,97.77743530273438,-10.69845581054688
257320,0.133758544921875,0.3253173828125,-0.516632080078125,-0.9234526753425598,-1.962656021118164,-1.097355008125305,35.938232421875,97.77743530273438,-10.69845581054688
257321,0.0194091796875,0.110565185546875,-0.3531341552734375,0.3603837490081787,0.3530683219432831,-0.6152405142784119,35.38496398925781,97.49134826660156,-9.679000854492188
257322,-0.0582275390625,0.0554962158203125,-0.366546630859375,0.3603837490081787,0.3530683219432831,-0.6152405142784119,34.90045166015625,97.31170654296876,-8.903182983398438
257323,0.000946044921875,-0.050811767578125,-0.3110809326171875,0.0984285697340965,0.1846494674682617,-0.4348699748516083,34.22738647460938,97.22744750976562,-8.873077392578125
257324,0.000946044921875,-0.050811767578125,-0.3110809326171875,0.0984285697340965,0.1846494674682617,-0.4348699748516083,34.22738647460938,97.22744750976562,-8.873077392578125
257325,0.0352783203125,-0.1266937255859375,-0.3314666748046875,-0.1574428826570511,-0.1616149991750717,-0.3652282953262329,33.955078125,96.9921417236328,-8.889785766601562
257326,0.0617523193359375,-0.1590118408203125,-0.3267974853515625,-0.4064425826072693,-0.4676670730113983,-0.3041329979896545,33.67286682128906,96.824462890625,-8.6925048828125
257327,0.1035003662109375,-0.1609954833984375,-0.30218505859375,-0.8043529391288757,-0.5332111716270447,-0.2556767761707306,33.22476196289062,96.85105895996094,-8.52227783203125
257328,0.1035003662109375,-0.1609954833984375,-0.30218505859375,-0.8043529391288757,-0.5332111716270447,-0.2556767761707306,33.22476196289062,96.85105895996094,-8.52227783203125
257329,0.1325531005859375,-0.1483917236328125,-0.313995361328125,-0.9725954532623292,-0.3627249300479889,-0.2369190752506256,33.07450866699219,96.76841735839844,-8.004959106445312
257330,0.176361083984375,-0.0015716552734375,-0.201171875,-0.9976875185966492,-0.3300154507160187,-0.2506439387798309,32.72987365722656,96.43748474121094,-6.91973876953125
257331,0.17486572265625,0.055877685546875,-0.1036376953125,-1.011177778244019,-0.3240041732788086,-0.2592842876911163,32.49737548828125,96.50216674804688,-6.325668334960938
257332,0.17486572265625,0.055877685546875,-0.1036376953125,-1.011177778244019,-0.3240041732788086,-0.2592842876911163,32.49737548828125,96.50216674804688,-6.325668334960938
257333,0.2197113037109375,0.2069549560546875,-0.0252685546875,-0.908418357372284,-0.325542151927948,-0.1924533396959305,32.27049255371094,96.17453002929688,-5.127120971679688
257334,0.2563934326171875,0.370574951171875,-0.088592529296875,-0.908418357372284,-0.325542151927948,-0.1924533396959305,32.18728637695312,96.10818481445312,-4.506362915039062
257335,0.2808837890625,0.6035919189453125,-0.23382568359375,-0.6832046508789062,-0.5102376937866211,-0.2303658276796341,31.94679260253906,96.12583923339844,-3.844223022460938
257336,0.2808837890625,0.6035919189453125,-0.23382568359375,-0.6832046508789062,-0.5102376937866211,-0.2303658276796341,31.94679260253906,96.12583923339844,-3.844223022460938
257337,0.2660675048828125,0.9156951904296876,-0.44488525390625,-0.2752403616905212,-0.8984940648078918,-0.3259863555431366,31.84024047851562,96.12203979492188,-3.320907592773438
257338,0.02734375,1.36572265625,-0.77093505859375,1.232943177223206,-1.609431862831116,-0.8560390472412109,31.64869689941406,95.93180847167967,-2.335067749023438
257339,-0.08819580078125,1.491317749023438,-0.942779541015625,1.910871863365173,-1.14841628074646,-0.9780783653259276,31.44010925292969,96.0206298828125,-2.194580078125
257340,-0.17718505859375,1.751449584960938,-1.112091064453125,2.003058671951294,-0.4676050245761871,-0.8897644877433777,31.14285278320312,95.96165466308594,-2.233612060546875
257341,-0.1534881591796875,2.1160888671875,-0.848785400390625,1.383490562438965,0.0292471013963222,-0.8985260725021362,30.7030029296875,96.07418823242188,-2.6395263671875
257342,-0.161773681640625,2.518905639648438,-0.542724609375,0.5814697742462158,0.0438843667507171,-1.297688126564026,30.17857360839844,96.25213623046876,-3.384841918945312
257343,-0.280548095703125,3.050430297851562,-0.5045928955078125,0.2561268508434296,-0.2942462861537933,-1.991763234138489,29.69886779785156,96.31655883789062,-3.818405151367188
257344,-0.5222015380859375,3.607772827148438,-0.4471282958984375,0.4462920129299164,-0.3577003479003906,-2.587536334991455,29.18603515625,96.33480834960938,-4.259201049804688
257345,-0.5222015380859375,3.607772827148438,-0.4471282958984375,0.4462920129299164,-0.3577003479003906,-2.587536334991455,29.18603515625,96.33480834960938,-4.259201049804688
257346,-1.17108154296875,3.884323120117188,-0.475616455078125,0.7252290844917297,0.4895241558551788,-2.535866498947144,28.44003295898438,96.18060302734376,-4.443817138671875
257347,-1.90704345703125,3.940414428710938,-0.7726593017578125,0.5732738971710205,0.9832465052604676,0.4519797265529633,26.64314270019531,95.89949035644533,-5.281524658203125
257348,-0.7781829833984375,3.689056396484375,-0.268524169921875,0.6310136318206787,0.1426429003477097,0.3955499827861786,26.21739196777344,95.90510559082033,-5.97174072265625
257349,-0.7781829833984375,3.689056396484375,-0.268524169921875,0.6310136318206787,0.1426429003477097,0.3955499827861786,26.21739196777344,95.90510559082033,-5.97174072265625
257350,-0.2932891845703125,2.754364013671875,-0.2536163330078125,1.143270015716553,0.6841303706169128,0.6679785847663879,26.19845581054688,96.29866027832033,-7.093475341796875
257351,-0.151336669921875,2.625335693359375,-0.198455810546875,1.570021867752075,0.2275255620479584,0.868133544921875,26.40074157714844,96.6522979736328,-7.620407104492188
257352,-0.151336669921875,2.625335693359375,-0.198455810546875,1.570021867752075,0.2275255620479584,0.868133544921875,26.40074157714844,96.6522979736328,-7.620407104492188
257353,-0.1043548583984375,2.680999755859375,0.1121978759765625,1.711714267730713,-0.1337969452142715,0.9290450811386108,26.60003662109375,96.7508544921875,-8.413543701171875
257354,0.04718017578125,2.117599487304688,0.452880859375,1.882182478904724,-0.1258599311113358,0.6597030758857727,27.43626403808594,96.94972229003906,-10.28021240234375
257355,0.137481689453125,1.409637451171875,0.329864501953125,2.140408277511597,-0.3453062772750854,0.8630066514015198,27.96661376953125,96.782958984375,-11.16476440429688
257356,0.137481689453125,1.409637451171875,0.329864501953125,2.140408277511597,-0.3453062772750854,0.8630066514015198,27.96661376953125,96.782958984375,-11.16476440429688
257357,0.2342529296875,0.884002685546875,0.1568603515625,2.494069576263428,-1.310427904129028,1.365332365036011,28.47377014160156,96.568603515625,-11.93008422851562
257358,0.32427978515625,0.524627685546875,0.525299072265625,2.508584499359131,-1.282073140144348,1.405428886413574,29.68539428710938,96.24595642089844,-13.28981018066406
257359,0.362396240234375,0.4507293701171875,0.632598876953125,2.325733661651611,-0.8494301438331604,1.413386940956116,30.29934692382812,96.2303466796875,-13.97930908203125
257360,0.362396240234375,0.4507293701171875,0.632598876953125,2.325733661651611,-0.8494301438331604,1.413386940956116,30.29934692382812,96.2303466796875,-13.97930908203125
257361,0.3839111328125,0.34295654296875,0.4439697265625,1.820049047470093,-0.3853152096271515,1.406608700752258,30.89938354492188,96.26470947265624,-14.76817321777344
257362,0.2740478515625,0.3134918212890625,-0.05621337890625,1.517770409584045,-0.5848439931869507,1.204593062400818,32.02876281738281,96.90052795410156,-16.70236206054688
257363,0.13519287109375,0.3538665771484375,0.139862060546875,1.167685866355896,-0.3473675549030304,1.038193941116333,32.58357238769531,97.07955932617188,-17.40335083007812
257364,0.13519287109375,0.3538665771484375,0.139862060546875,1.167685866355896,-0.3473675549030304,1.038193941116333,32.58357238769531,97.07955932617188,-17.40335083007812
257365,-0.0487518310546875,0.511383056640625,0.573394775390625,0.3921563327312469,1.435924530029297,1.22104012966156,33.48570251464844,97.64881896972656,-18.61846923828125
257366,-0.0350341796875,0.554779052734375,0.610015869140625,0.0272079184651374,2.279534578323364,1.158789873123169,34.05398559570312,97.60182189941406,-19.17527770996094
257367,-0.05877685546875,0.489837646484375,0.4953460693359375,-0.2866218984127045,2.703618049621582,1.061921119689941,34.65693664550781,97.73796081542967,-19.60453796386719
257368,-0.05877685546875,0.489837646484375,0.4953460693359375,-0.2866218984127045,2.703618049621582,1.061921119689941,34.65693664550781,97.73796081542967,-19.60453796386719
257369,-0.1130828857421875,0.40069580078125,0.4158477783203125,-0.379639208316803,2.428034782409668,0.6706857085227966,36.29507446289062,97.89593505859376,-20.08610534667969
257370,-0.138397216796875,0.4099884033203125,0.5169830322265625,-0.379639208316803,2.428034782409668,0.6706857085227966,36.95028686523438,98.03070068359376,-20.33320617675781
257371,-0.1893768310546875,0.4415740966796875,0.6191253662109375,-0.4377821385860443,2.458598852157593,0.4518441557884216,37.61688232421875,98.06956481933594,-20.37516784667969
257372,-0.1893768310546875,0.4415740966796875,0.6191253662109375,-0.4377821385860443,2.458598852157593,0.4518441557884216,37.61688232421875,98.06956481933594,-20.37516784667969
257373,-0.2491912841796875,0.51361083984375,0.69146728515625,-0.6917925477027893,2.515498638153076,0.2464475929737091,38.25958251953125,98.29287719726562,-20.4208984375
257374,-0.376739501953125,0.765380859375,0.74334716796875,-1.5525963306427,2.476146459579468,-0.1432301253080368,39.010498046875,98.5729522705078,-20.43502807617188
257375,-0.4029693603515625,0.8628387451171875,0.734344482421875,-1.890591859817505,2.287573575973511,-0.298763781785965,39.2431640625,98.66104125976562,-20.09162902832031
257376,-0.4029693603515625,0.8628387451171875,0.734344482421875,-1.890591859817505,2.287573575973511,-0.298763781785965,39.2431640625,98.66104125976562,-20.09162902832031
257377,-0.344207763671875,0.8567657470703125,0.5708160400390625,-2.177048206329346,1.357791066169739,-0.6019220948219299,39.45634460449219,99.15736389160156,-19.31356811523438
257378,-0.264129638671875,0.7781982421875,0.5125885009765625,-2.158626079559326,0.7312678098678589,-0.7695238590240479,39.31893920898438,99.19960021972656,-18.603271484375
257379,-0.21405029296875,0.6670074462890625,0.484771728515625,-2.121964693069458,0.3377412855625153,-0.9558183550834656,39.13284301757812,99.22885131835938,-17.73353576660156
257380,-0.21405029296875,0.6670074462890625,0.484771728515625,-2.121964693069458,0.3377412855625153,-0.9558183550834656,39.13284301757812,99.22885131835938,-17.73353576660156
257381,-0.125396728515625,0.4153594970703125,0.252716064453125,-2.108310699462891,-0.3786540925502777,-1.248274445533752,38.57699584960938,98.98280334472656,-15.94441223144531
257382,-0.111541748046875,0.3274078369140625,0.1426849365234375,-2.108310699462891,-0.3786540925502777,-1.248274445533752,38.04005432128906,99.06550598144533,-15.07359313964844
257383,-0.11181640625,0.289794921875,0.0292816162109375,-2.222407817840576,-0.708766520023346,-1.311505079269409,37.51707458496094,98.88345336914062,-14.12083435058594
257384,-0.105621337890625,0.2773284912109375,-0.26434326171875,-2.349321365356445,-1.323218703269958,-1.425808787345886,37.08108520507812,98.57147216796876,-13.18440246582031
257385,-0.105621337890625,0.2773284912109375,-0.26434326171875,-2.349321365356445,-1.323218703269958,-1.425808787345886,37.08108520507812,98.57147216796876,-13.18440246582031
257386,-0.0552215576171875,0.249603271484375,-0.6618499755859375,-2.386494636535645,-2.600369930267334,-1.57658863067627,36.53303527832031,98.21875,-12.14439392089844
257387,0.128997802734375,0.100189208984375,-0.557861328125,-1.415647745132446,-4.828091144561768,-1.36898946762085,35.25523376464844,97.633544921875,-9.61749267578125
257388,0.128997802734375,0.100189208984375,-0.557861328125,-1.415647745132446,-4.828091144561768,-1.36898946762085,35.25523376464844,97.633544921875,-9.61749267578125
257389,0.031097412109375,0.126068115234375,-0.058258056640625,-0.6470474600791931,-2.114103555679321,-0.988433003425598,34.55107116699219,97.2646026611328,-8.062210083007812
257390,0.1027679443359375,0.11163330078125,-0.678619384765625,-0.0065777413547039,0.823007345199585,-0.4513331055641174,33.53091430664062,96.64494323730467,-5.669769287109375
257391,0.1055450439453125,0.0626373291015625,-0.3733978271484375,-0.2237052619457245,0.4434501528739929,-0.3808264434337616,33.12222290039062,96.337646484375,-5.435958862304688
257392,0.1055450439453125,0.0626373291015625,-0.3733978271484375,-0.2237052619457245,0.4434501528739929,-0.3808264434337616,33.12222290039062,96.337646484375,-5.435958862304688
257393,0.1544342041015625,0.0195159912109375,-0.272186279296875,-0.7556213736534119,-0.0793134644627571,-0.2510647177696228,32.59214782714844,96.27029418945312,-5.65301513671875
257394,0.1858062744140625,0.0313568115234375,-0.2714385986328125,-0.8915120959281921,-0.3625195920467377,-0.1605643779039383,32.39411926269531,96.3740692138672,-5.585540771484375
257395,0.209442138671875,0.0824127197265625,-0.2397308349609375,-0.9544098377227784,-0.6118857860565186,-0.0747267007827758,32.15457153320312,96.27503967285156,-5.104812622070312
257396,0.209442138671875,0.0824127197265625,-0.2397308349609375,-0.9544098377227784,-0.6118857860565186,-0.0747267007827758,32.15457153320312,96.27503967285156,-5.104812622070312
257397,0.2586517333984375,0.3311004638671875,-0.1814117431640625,-0.9554372429847716,-0.6447044014930725,-0.0336375869810581,32.08880615234375,95.94142150878906,-3.428131103515625
257398,0.26153564453125,0.5094146728515625,-0.2482452392578125,-0.8262214660644531,-0.4526215195655823,-0.1722045242786407,32.06398010253906,95.77418518066406,-2.669967651367188
257399,0.2440185546875,0.6756591796875,-0.3620758056640625,-0.5755732655525208,-0.269502580165863,-0.3837348818778992,32.03866577148438,95.85710144042967,-2.163421630859375
257400,0.19061279296875,0.7921600341796875,-0.537506103515625,-0.1861488372087479,-0.2492649555206299,-0.5620753169059753,31.90509033203125,95.79208374023438,-1.68572998046875
257401,0.19061279296875,0.7921600341796875,-0.537506103515625,-0.1861488372087479,-0.2492649555206299,-0.5620753169059753,31.90509033203125,95.79208374023438,-1.68572998046875
257402,0.08905029296875,0.8693389892578125,-0.539825439453125,0.6231847405433655,-0.4334379732608795,-0.5532272458076477,31.37274169921875,95.65260314941406,-1.063796997070312
257403,0.0564727783203125,1.000900268554688,-0.5413970947265625,0.8488405346870422,-0.3300048112869263,-0.4619015753269196,31.13381958007812,95.66990661621094,-1.046310424804688
257404,0.0564727783203125,1.000900268554688,-0.5413970947265625,0.8488405346870422,-0.3300048112869263,-0.4619015753269196,31.13381958007812,95.66990661621094,-1.046310424804688
257405,-0.04937744140625,1.501220703125,-0.6209564208984375,1.020715594291687,-0.2201438248157501,-0.5274904370307922,30.64404296875,95.83108520507812,-1.49993896484375
257406,-0.1657562255859375,1.88018798828125,-0.4967193603515625,0.9742159843444824,-0.0231575164943933,-0.772201418876648,30.42286682128906,96.01823425292967,-1.791946411132812
257407,-0.3497314453125,2.338226318359375,-0.2242584228515625,0.8469176888465881,0.4342885911464691,-1.262328505516052,29.9576416015625,96.26751708984376,-2.28424072265625
257408,-0.3497314453125,2.338226318359375,-0.2242584228515625,0.8469176888465881,0.4342885911464691,-1.262328505516052,29.9576416015625,96.26751708984376,-2.28424072265625
257409,-0.5121612548828125,2.935897827148438,0.0055389404296875,0.7120829224586487,1.18998396396637,-2.059798002243042,29.33026123046875,96.60604858398438,-2.846511840820312
257410,-1.77197265625,3.99853515625,-0.0500946044921875,0.1807703077793121,1.294036626815796,-2.231019973754883,27.54412841796875,96.58184814453124,-4.350265502929688
257411,-2.29229736328125,4.360092163085938,-0.0649871826171875,-0.2324763834476471,1.517501711845398,-0.311160534620285,26.45634460449219,96.48721313476562,-4.98077392578125
257412,-2.29229736328125,4.360092163085938,-0.0649871826171875,-0.2324763834476471,1.517501711845398,-0.311160534620285,26.45634460449219,96.48721313476562,-4.98077392578125
257413,-0.6571197509765625,3.366165161132812,0.5552825927734375,0.5001235604286194,0.1398476511240005,0.2039462029933929,25.67881774902344,96.30915832519533,-5.6417236328125
257414,-0.1920166015625,2.781173706054688,0.138214111328125,1.230154275894165,1.11493182182312,0.8510546684265137,25.68211364746094,96.21820068359376,-5.84246826171875
257415,-0.02178955078125,2.764892578125,-0.419036865234375,1.76445734500885,0.7697776556015015,1.176183223724365,25.800048828125,96.28733825683594,-6.284515380859375
257416,-0.02178955078125,2.764892578125,-0.419036865234375,1.76445734500885,0.7697776556015015,1.176183223724365,25.800048828125,96.28733825683594,-6.284515380859375
257417,-0.072723388671875,2.835891723632812,-0.19842529296875,2.305549383163452,0.2780659794807434,1.018366932868958,26.16117858886719,96.40994262695312,-7.153091430664062
257418,0.014404296875,2.459976196289062,0.3807373046875,2.715771913528442,-0.3879466652870178,1.207903623580933,27.29432678222656,96.57662963867188,-9.432601928710938
257419,0.0408782958984375,2.105743408203125,0.5077972412109375,2.617922067642212,-0.4210396409034729,1.097468972206116,27.84248352050781,96.58660888671876,-10.62083435058594
257420,0.0408782958984375,2.105743408203125,0.5077972412109375,2.617922067642212,-0.4210396409034729,1.097468972206116,27.84248352050781,96.58660888671876,-10.62083435058594
257421,0.1667327880859375,1.531356811523438,0.288238525390625,2.49518609046936,-0.6739699244499207,1.117948651313782,28.55154418945312,96.48902893066406,-11.58590698242188
257422,0.3599090576171875,0.719146728515625,0.1567840576171875,2.114356756210327,-2.045493364334106,1.444380283355713,29.83015441894531,96.505859375,-13.66107177734375
257423,0.4556427001953125,0.4599151611328125,0.146728515625,2.114356756210327,-2.045493364334106,1.444380283355713,30.44955444335938,96.7945556640625,-14.38668823242188
257424,0.4556427001953125,0.4599151611328125,0.146728515625,2.114356756210327,-2.045493364334106,1.444380283355713,30.44955444335938,96.7945556640625,-14.38668823242188
257425,0.5604400634765625,0.2725830078125,0.079498291015625,2.103009939193726,-2.2223060131073,1.54726779460907,31.02412414550781,96.73268127441406,-14.7935791015625
257426,0.730804443359375,0.115570068359375,-0.0142364501953125,2.053498029708862,-1.806865096092224,1.696971774101257,32.03309631347656,97.2822723388672,-15.52781677246094
257427,0.704437255859375,0.119354248046875,0.1432037353515625,1.85173237323761,-0.6578652262687683,1.564313650131226,32.58798217773438,97.5733642578125,-15.8975830078125
257428,0.704437255859375,0.119354248046875,0.1432037353515625,1.85173237323761,-0.6578652262687683,1.564313650131226,32.58798217773438,97.5733642578125,-15.8975830078125
257429,0.1463165283203125,0.446533203125,0.3537750244140625,0.7124192714691162,1.376824975013733,1.09854781627655,33.96029663085938,97.95909118652344,-17.08621215820312
257430,-0.05487060546875,0.5712127685546875,0.47137451171875,0.7124192714691162,1.376824975013733,1.09854781627655,34.80007934570312,98.00920104980467,-17.8431396484375
257431,-0.204345703125,0.6434478759765625,0.444000244140625,-0.1609691828489304,1.399018168449402,0.8258031010627747,35.565673828125,97.96644592285156,-18.57167053222656
257432,-0.204345703125,0.6434478759765625,0.444000244140625,-0.1609691828489304,1.399018168449402,0.8258031010627747,35.565673828125,97.96644592285156,-18.57167053222656
257433,-0.336944580078125,0.4971160888671875,0.4979248046875,-0.3836595118045807,1.281676650047302,0.7008680701255798,36.95240783691406,98.10940551757812,-19.14808654785156
257434,-0.3365325927734375,0.4029998779296875,0.590667724609375,-0.5269420742988586,1.32814610004425,0.606711745262146,37.490478515625,98.10116577148438,-19.21533203125
257435,-0.33709716796875,0.4106597900390625,0.6725006103515625,-0.7132765650749207,1.534591674804688,0.4866756498813629,38.03213500976562,98.243408203125,-19.17196655273438
257436,-0.33709716796875,0.4106597900390625,0.6725006103515625,-0.7132765650749207,1.534591674804688,0.4866756498813629,38.03213500976562,98.243408203125,-19.17196655273438
257437,-0.349853515625,0.5207977294921875,0.7779083251953125,-0.9940642714500428,1.866722226142883,0.3155427873134613,38.37799072265625,98.324462890625,-19.15426635742188
257438,-0.3473663330078125,0.91156005859375,0.9362030029296876,-1.65483021736145,2.528391599655151,-0.2113924026489258,39.03944396972656,98.5658721923828,-18.72662353515625
257439,-0.350250244140625,1.017501831054688,0.84979248046875,-2.113402128219604,2.025474071502686,-0.4128980934619904,39.19639587402344,98.73196411132812,-18.35549926757812
257440,-0.3673858642578125,1.067489624023438,0.6926422119140625,-2.204960823059082,1.358796119689941,-0.4288232624530792,39.24763488769531,98.79182434082033,-17.83334350585938
257441,-0.3470916748046875,1.077865600585938,0.5099639892578125,-2.204960823059082,1.358796119689941,-0.4288232624530792,39.25154113769531,98.85511779785156,-17.11485290527344
257442,-0.2754669189453125,1.028106689453125,0.400421142578125,-2.214313983917236,0.7606736421585083,-0.5125796794891357,39.13407897949219,99.01528930664062,-16.34638977050781
257443,-0.19830322265625,0.9272003173828124,0.317657470703125,-2.213356018066406,0.4921146035194397,-0.6586756110191345,39.00787353515625,99.15428161621094,-15.51435852050781
257444,-0.1211090087890625,0.833953857421875,0.22698974609375,-2.168855667114258,0.4505163133144379,-0.7713209390640259,38.66720581054688,99.101806640625,-14.61334228515625
257445,-0.1211090087890625,0.833953857421875,0.22698974609375,-2.168855667114258,0.4505163133144379,-0.7713209390640259,38.66720581054688,99.101806640625,-14.61334228515625
257446,-0.0957489013671875,0.634002685546875,0.1677703857421875,-1.782228946685791,0.7778917551040649,-0.8961518406867981,38.03726196289062,99.03794860839844,-12.83271789550781
257447,-0.1357421875,0.488983154296875,-0.00628662109375,-1.550727844238281,0.7253491878509521,-0.9398660063743592,37.71221923828125,98.98944091796876,-12.05059814453125
257448,-0.1357421875,0.488983154296875,-0.00628662109375,-1.550727844238281,0.7253491878509521,-0.9398660063743592,37.71221923828125,98.98944091796876,-12.05059814453125
257449,-0.1289825439453125,0.374908447265625,-0.196441650390625,-1.340820074081421,0.3416577279567719,-0.9725632667541504,37.15461730957031,98.81027221679688,-11.26173400878906
257450,0.017333984375,0.2144622802734375,-0.3674774169921875,-0.8814194798469543,-0.7179221510887146,-0.9517951011657716,36.11561584472656,98.48780822753906,-10.13282775878906
257451,0.07421875,0.1640625,-0.422821044921875,-0.5528109669685364,-1.17602264881134,-0.8914947509765625,35.5904541015625,98.40223693847656,-9.625823974609377
257452,0.07421875,0.1640625,-0.422821044921875,-0.5528109669685364,-1.17602264881134,-0.8914947509765625,35.5904541015625,98.40223693847656,-9.625823974609377
257453,0.08697509765625,0.1178131103515625,-0.387054443359375,-0.2234328240156174,-1.412447929382324,-0.8389987945556641,35.13603210449219,98.11734008789062,-9.036758422851562
257454,0.08697509765625,0.1178131103515625,-0.387054443359375,-0.2234328240156174,-1.412447929382324,-0.8389987945556641,35.13603210449219,98.11734008789062,-9.036758422851562
257455,0.0874176025390625,-0.0717315673828125,-0.351715087890625,-0.1661873757839203,0.3540619313716888,-0.6950786709785461,33.8218994140625,97.71620178222656,-8.176864624023438
257456,0.0983428955078125,-0.033203125,-0.44354248046875,-0.5025994777679443,0.3714689016342163,-0.6292109489440918,33.50830078125,97.51368713378906,-7.88812255859375
257457,0.0983428955078125,-0.033203125,-0.44354248046875,-0.5025994777679443,0.3714689016342163,-0.6292109489440918,33.50830078125,97.51368713378906,-7.88812255859375
257458,0.1053009033203125,0.007232666015625,-0.4220733642578125,-0.5025994777679443,0.3714689016342163,-0.6292109489440918,33.13717651367188,97.27078247070312,-7.59991455078125
257459,0.1242218017578125,0.0716094970703125,-0.253662109375,-0.68486487865448,0.1931702643632889,-0.5607194900512695,32.44174194335938,96.9038543701172,-7.41827392578125
257460,0.1242218017578125,0.0716094970703125,-0.253662109375,-0.68486487865448,0.1931702643632889,-0.5607194900512695,32.44174194335938,96.9038543701172,-7.41827392578125
257461,0.1414642333984375,0.0886993408203125,-0.188934326171875,-0.6594024300575256,0.1254617869853973,-0.4566849768161774,32.04277038574219,96.89132690429688,-7.602813720703125
257462,0.190277099609375,0.100250244140625,-0.1209564208984375,-0.5903152227401733,-0.0364642664790153,-0.1242092996835709,31.51187133789062,96.7613525390625,-7.371719360351562
257463,0.225738525390625,0.1226043701171875,-0.1259307861328125,-0.6046760678291321,-0.1914437264204025,0.068829134106636,31.343505859375,96.58552551269533,-6.927490234375
257464,0.225738525390625,0.1226043701171875,-0.1259307861328125,-0.6046760678291321,-0.1914437264204025,0.068829134106636,31.343505859375,96.58552551269533,-6.927490234375
257465,0.259796142578125,0.187713623046875,-0.1608734130859375,-0.6449164152145386,-0.4439537525177002,0.2716328501701355,31.33329772949219,96.49232482910156,-6.43310546875
257466,0.2753753662109375,0.3349609375,-0.2432098388671875,-0.6804736256599426,-0.8334932327270508,0.3680123686790466,31.42633056640625,96.38963317871094,-6.01873779296875
257467,0.323974609375,0.6501617431640625,-0.4407806396484375,-0.4083099961280823,-2.059561491012573,0.124744325876236,31.65048217773438,96.25473022460938,-4.906768798828125
257468,0.323974609375,0.6501617431640625,-0.4407806396484375,-0.4083099961280823,-2.059561491012573,0.124744325876236,31.65048217773438,96.25473022460938,-4.906768798828125
257469,0.35565185546875,0.9438018798828124,-0.2760009765625,0.8525380492210388,-1.088282942771912,-0.6006272435188293,31.93380737304688,96.46800231933594,-3.496536254882812
257470,0.2736358642578125,1.098190307617188,-0.44195556640625,0.8525380492210388,-1.088282942771912,-0.6006272435188293,31.96971130371094,96.5679168701172,-3.003204345703125
257471,0.1706085205078125,1.279129028320312,-0.7891082763671875,1.482665419578552,-0.7020273804664612,-0.7141311764717102,31.95149230957031,96.54452514648438,-2.685577392578125
257472,0.1706085205078125,1.279129028320312,-0.7891082763671875,1.482665419578552,-0.7020273804664612,-0.7141311764717102,31.95149230957031,96.54452514648438,-2.685577392578125
257473,0.063568115234375,1.623550415039062,-0.929656982421875,2.037129402160645,-0.5632420778274536,-0.7383318543434143,31.75367736816406,96.6664581298828,-2.77215576171875
257474,-0.497772216796875,3.029098510742188,-0.486572265625,1.699660539627075,1.400449872016907,-1.882339239120483,30.94270324707031,97.14118957519533,-3.940185546875
257475,-0.6307830810546875,3.989227294921875,-0.6553497314453125,1.182213187217712,1.721852898597717,-3.319499254226685,30.34165954589844,97.4980010986328,-4.979339599609375
257476,-0.6307830810546875,3.989227294921875,-0.6553497314453125,1.182213187217712,1.721852898597717,-3.319499254226685,30.34165954589844,97.4980010986328,-4.979339599609375
257477,-0.8575286865234375,4.727691650390625,-0.7480926513671875,0.9029498100280762,1.416047215461731,-4.461473941802979,29.30859375,97.46319580078124,-6.08917236328125
257478,-2.311294555664062,4.40252685546875,-0.530487060546875,0.283171534538269,1.349010944366455,-2.816572666168213,28.00079345703125,97.06227111816406,-7.238449096679688
257479,-1.178207397460938,3.810501098632812,0.1129913330078125,0.0349404066801071,0.5592150688171387,0.6412513852119446,25.46989440917969,96.20230102539062,-9.06414794921875
257480,-0.395721435546875,3.040023803710938,0.4429931640625,0.8176759481430054,0.5183699131011963,0.7870905995368958,25.19677734375,96.06033325195312,-9.464157104492188
257481,-0.395721435546875,3.040023803710938,0.4429931640625,0.8176759481430054,0.5183699131011963,0.7870905995368958,25.19677734375,96.06033325195312,-9.464157104492188
257482,0.05267333984375,2.12420654296875,0.237701416015625,2.106765031814575,1.3055419921875,1.082989096641541,25.55120849609375,96.21722412109376,-10.470947265625
257483,0.20794677734375,2.319107055664062,-0.189971923828125,1.970536828041077,0.5764974355697632,1.483722925186157,25.77323913574219,96.4347686767578,-11.27186584472656
257484,0.20794677734375,2.319107055664062,-0.189971923828125,1.970536828041077,0.5764974355697632,1.483722925186157,25.77323913574219,96.4347686767578,-11.27186584472656
257485,0.1112823486328125,2.732940673828125,-0.16021728515625,1.338117003440857,-0.5603847503662109,1.208599209785461,26.25021362304688,96.4718017578125,-12.25309753417969
257486,0.192535400390625,1.771255493164062,0.15771484375,1.210431218147278,-1.282830834388733,0.2934981882572174,27.49261474609375,96.53703308105467,-14.06126403808594
257487,0.271942138671875,1.040512084960938,-0.0709686279296875,1.76064133644104,-1.823206424713135,0.5103724598884583,27.9097900390625,96.28933715820312,-14.50009155273438
257488,0.271942138671875,1.040512084960938,-0.0709686279296875,1.76064133644104,-1.823206424713135,0.5103724598884583,27.9097900390625,96.28933715820312,-14.50009155273438
257489,0.3775787353515625,0.5839996337890625,-0.0349884033203125,2.575103282928467,-2.18604040145874,1.110587477684021,28.10842895507812,96.23623657226562,-14.69291687011719
257490,0.525604248046875,0.229248046875,0.09503173828125,2.415599822998047,-1.626804947853088,1.278383135795593,28.75393676757812,96.21037292480467,-15.55093383789062
257491,0.5349884033203125,0.22589111328125,0.0763092041015625,1.964146852493286,-0.9175791144371032,1.288526296615601,29.12251281738281,96.49539184570312,-16.00822448730469
257492,0.5349884033203125,0.22589111328125,0.0763092041015625,1.964146852493286,-0.9175791144371032,1.288526296615601,29.12251281738281,96.49539184570312,-16.00822448730469
257493,0.5009613037109375,0.2920989990234375,0.086395263671875,1.427213311195374,-0.3858108222484589,1.211297512054443,29.51509094238281,96.7346649169922,-16.70986938476562
257494,0.0605010986328125,0.5156097412109375,0.3909759521484375,0.4615963995456696,0.665803074836731,0.9399629831314088,30.572998046875,96.9892578125,-17.85711669921875
257495,-0.1206817626953125,0.6112213134765625,0.4052581787109375,0.4615963995456696,0.665803074836731,0.9399629831314088,31.25820922851562,96.98471069335938,-18.22819519042969
257496,-0.1206817626953125,0.6112213134765625,0.4052581787109375,0.4615963995456696,0.665803074836731,0.9399629831314088,31.25820922851562,96.98471069335938,-18.22819519042969
257497,-0.2322845458984375,0.6759033203125,0.277984619140625,0.1457705199718475,0.7248056530952454,0.7857310771942139,31.86943054199219,97.1177978515625,-18.62846374511719
257498,-0.273193359375,0.48565673828125,0.3209381103515625,-0.1411856263875961,0.3503726720809937,0.5678871273994446,32.97860717773438,97.10818481445312,-19.19850158691406
257499,-0.219512939453125,0.334808349609375,0.412689208984375,-0.0869016125798225,0.388720840215683,0.5871322154998779,33.365234375,97.14068603515624,-19.28721618652344
257500,-0.15924072265625,0.2987823486328125,0.5303802490234375,-0.0622247569262981,0.6584503054618835,0.5857990384101868,33.76216125488281,97.30050659179688,-19.26914978027344
257501,-0.15924072265625,0.2987823486328125,0.5303802490234375,-0.0622247569262981,0.6584503054618835,0.5857990384101868,33.76216125488281,97.30050659179688,-19.26914978027344
257502,-0.17315673828125,0.446929931640625,0.8686370849609375,-0.4729707539081573,2.026380062103271,0.322519451379776,34.45210266113281,97.31062316894533,-19.41447448730469
257503,-0.24285888671875,0.5860137939453125,0.9332733154296876,-0.9498310685157776,2.921479225158691,0.1299353688955307,34.74754333496094,97.48414611816406,-19.45925903320312
257504,-0.24285888671875,0.5860137939453125,0.9332733154296876,-0.9498310685157776,2.921479225158691,0.1299353688955307,34.74754333496094,97.48414611816406,-19.45925903320312
257505,-0.325958251953125,0.72943115234375,0.8458709716796875,-1.483077168464661,3.531583309173584,-0.1361879259347916,35.08868408203125,97.59408569335938,-19.476318359375
257506,-0.506744384765625,0.8675689697265625,0.5339813232421875,-2.053311824798584,3.151462316513062,-0.5416776537895203,35.68809509277344,97.82810974121094,-19.55015563964844
257507,-0.574371337890625,0.816925048828125,0.4576263427734375,-1.973799109458923,2.452876806259155,-0.5683393478393555,35.68719482421875,97.87974548339844,-19.16400146484375
257508,-0.5809173583984375,0.7076416015625,0.3996734619140625,-1.788482546806335,1.760061025619507,-0.5080451369285583,35.69459533691406,98.00202941894533,-18.74433898925781
257509,-0.5108184814453125,0.60247802734375,0.343841552734375,-1.652874708175659,1.190877795219421,-0.4385528564453125,35.63693237304688,98.181396484375,-18.24559020996094
257510,-0.3737335205078125,0.546783447265625,0.2628173828125,-1.622964978218079,0.688814640045166,-0.4555270373821259,35.46697998046875,98.30332946777344,-17.66697692871094
257511,-0.251556396484375,0.515838623046875,0.1900482177734375,-1.663232445716858,0.2171418964862823,-0.5705002546310425,35.2928466796875,98.40887451171876,-17.13026428222656
257512,-0.251556396484375,0.515838623046875,0.1900482177734375,-1.663232445716858,0.2171418964862823,-0.5705002546310425,35.2928466796875,98.40887451171876,-17.13026428222656
257513,-0.1555633544921875,0.45208740234375,0.1392059326171875,-1.735068082809448,-0.1972771137952805,-0.6943846344947815,34.99267578125,98.27342224121094,-16.63502502441406
257514,-0.0862884521484375,0.377044677734375,0.09832763671875,-1.81094229221344,-0.5217995643615723,-0.7868165373802185,34.79867553710938,98.31105041503906,-16.00599670410156
257515,0.00787353515625,0.2257843017578125,-0.1130523681640625,-1.913714289665222,-1.139112830162048,-0.9143460392951964,33.98171997070312,97.92634582519533,-14.1639404296875
257516,0.00787353515625,0.2257843017578125,-0.1130523681640625,-1.913714289665222,-1.139112830162048,-0.9143460392951964,33.98171997070312,97.92634582519533,-14.1639404296875
257517,0.059356689453125,0.1524658203125,-0.3671722412109375,-1.857467532157898,-1.771539807319641,-0.9432975053787231,33.56291198730469,97.6625518798828,-13.17539978027344
257518,0.1567230224609375,0.0111083984375,-0.52850341796875,-1.032414078712463,-3.593907594680786,-0.8259735703468323,32.70390319824219,97.06271362304688,-10.98262023925781
257519,0.1077117919921875,-0.0776519775390625,-0.20654296875,-0.6222691535949707,-2.404262065887451,-0.7395291924476624,32.28273010253906,97.02874755859376,-10.03292846679688
257520,0.086334228515625,-0.1905059814453125,-0.3801422119140625,-0.1645508706569672,0.6289718151092529,-0.482221245765686,31.85887145996094,96.7721710205078,-8.983367919921875
257521,0.086334228515625,-0.1905059814453125,-0.3801422119140625,-0.1645508706569672,0.6289718151092529,-0.482221245765686,31.85887145996094,96.7721710205078,-8.983367919921875
257522,0.13385009765625,-0.0945281982421875,-0.514404296875,-0.3079375922679901,0.5089447498321533,-0.389503538608551,31.2694091796875,96.30824279785156,-7.892745971679688
257523,0.1433563232421875,-0.07757568359375,-0.416168212890625,-0.5882025361061096,0.2886967658996582,-0.3337902128696442,31.03361511230469,96.15583801269533,-7.824417114257812
257524,0.1433563232421875,-0.07757568359375,-0.416168212890625,-0.5882025361061096,0.2886967658996582,-0.3337902128696442,31.03361511230469,96.15583801269533,-7.824417114257812
257525,0.193359375,0.0175323486328125,-0.399444580078125,-0.8932708501815796,-0.7079480886459351,-0.1088196933269501,30.72972106933594,95.86660766601562,-7.604843139648438
257526,0.2164459228515625,0.0775299072265625,-0.295501708984375,-0.8932708501815796,-0.7079480886459351,-0.1088196933269501,30.47727966308594,95.66586303710938,-7.318740844726562
257527,0.2411346435546875,0.182586669921875,-0.142791748046875,-0.8898332118988037,-0.803878903388977,0.0042251050472259,30.3277587890625,95.74363708496094,-6.922073364257812
257528,0.2411346435546875,0.182586669921875,-0.142791748046875,-0.8898332118988037,-0.803878903388977,0.0042251050472259,30.3277587890625,95.74363708496094,-6.922073364257812
257529,0.2831573486328125,0.344970703125,-0.0160675048828125,-0.9274951219558716,-0.7121010422706604,0.1364718228578568,30.29859924316406,95.71153259277344,-6.293441772460938
257530,0.3330230712890625,0.794586181640625,-0.0547943115234375,-0.991789162158966,-0.3641537129878998,0.1773023456335068,30.35380554199219,95.62449645996094,-4.939804077148438
257531,0.32135009765625,1.009841918945312,-0.2989959716796875,-0.7065576910972595,-0.5581445097923279,-0.0578292123973369,30.39047241210938,95.54029846191406,-4.066146850585938
257532,0.32135009765625,1.009841918945312,-0.2989959716796875,-0.7065576910972595,-0.5581445097923279,-0.0578292123973369,30.39047241210938,95.54029846191406,-4.066146850585938
257533,0.113311767578125,1.124710083007812,-0.347900390625,0.7477221488952637,-0.8735080361366272,-0.8008655309677124,30.64662170410156,95.53401184082033,-2.83514404296875
257534,-0.0339813232421875,1.086944580078125,-0.4222564697265625,1.48914110660553,-0.6418367028236389,-1.075968980789185,30.61076354980469,95.36509704589844,-2.365280151367188
257535,-0.161773681640625,1.202545166015625,-0.688232421875,1.967523217201233,-0.7189485430717468,-1.353350043296814,30.28179931640625,95.4930419921875,-2.2801513671875
257536,-0.2828216552734375,1.477310180664062,-0.738372802734375,2.017126083374023,-0.9400460720062256,-1.581416726112366,29.87599182128906,95.55311584472656,-2.55706787109375
257537,-0.2828216552734375,1.477310180664062,-0.738372802734375,2.017126083374023,-0.9400460720062256,-1.581416726112366,29.87599182128906,95.55311584472656,-2.55706787109375
257538,-0.599578857421875,2.472625732421875,-0.106689453125,1.104532480239868,0.6614884734153748,-2.284954071044922,28.55409240722656,95.88218688964844,-3.86309814453125
257539,-0.7157440185546875,3.122467041015625,-0.1672821044921875,0.6809217929840088,1.094702243804932,-2.873119831085205,27.66297912597656,96.0570831298828,-4.676193237304688
257540,-1.3310546875,3.884002685546875,-0.1237335205078125,-0.0304742865264415,0.5345267653465271,-2.728322982788086,26.64801025390625,96.01057434082033,-5.575164794921875
257541,-1.3310546875,3.884002685546875,-0.1237335205078125,-0.0304742865264415,0.5345267653465271,-2.728322982788086,26.64801025390625,96.01057434082033,-5.575164794921875
257542,-2.243331909179688,5.1146240234375,0.03912353515625,-0.3539844453334808,-0.2519922852516174,0.0028895298019051,24.48007202148438,95.718994140625,-6.742721557617188
257543,-1.315628051757812,3.798370361328125,0.6239471435546875,0.0075942701660096,-1.016683578491211,0.2669478058815002,23.98587036132812,95.62367248535156,-6.806060791015625
257544,-1.315628051757812,3.798370361328125,0.6239471435546875,0.0075942701660096,-1.016683578491211,0.2669478058815002,23.98587036132812,95.62367248535156,-6.806060791015625
257545,-0.581878662109375,2.911422729492188,0.7396240234375,0.7784736752510071,0.3256593346595764,0.5950918793678284,23.93020629882812,95.41539001464844,-6.720016479492188
257546,-0.3976593017578125,2.838287353515625,0.1985626220703125,1.464113235473633,1.382606744766235,0.8441842198371887,24.15901184082031,95.364990234375,-6.504562377929688
257547,-0.108551025390625,2.599838256835938,-0.13232421875,2.160890579223633,0.1866878569126129,0.3830408453941345,24.5982666015625,95.45661926269533,-7.358749389648438
257548,-0.108551025390625,2.599838256835938,-0.13232421875,2.160890579223633,0.1866878569126129,0.3830408453941345,24.5982666015625,95.45661926269533,-7.358749389648438
257549,0.0724639892578125,1.978256225585938,0.1822967529296875,2.259799003601074,-0.37261962890625,0.677842378616333,24.89234924316406,95.47639465332033,-8.290969848632812
257550,0.101593017578125,1.367050170898438,0.4249420166015625,1.854949235916138,-1.150928258895874,1.118736386299133,25.65815734863281,95.17041015625,-10.1431884765625
257551,0.1878662109375,1.070327758789062,0.33880615234375,1.758167862892151,-1.409892916679382,1.162502288818359,26.21365356445312,95.19894409179688,-11.21762084960938
257552,0.1878662109375,1.070327758789062,0.33880615234375,1.758167862892151,-1.409892916679382,1.162502288818359,26.21365356445312,95.19894409179688,-11.21762084960938
257553,0.2887115478515625,0.8266143798828125,0.1263885498046875,1.706391215324402,-1.835817575454712,1.256532669067383,26.74302673339844,95.22222900390624,-11.87089538574219
257554,0.3888397216796875,0.66021728515625,-0.077423095703125,1.684391260147095,-2.416759014129639,1.338387012481689,27.2119140625,95.37347412109376,-12.28671264648438
257555,0.56903076171875,0.4757080078125,-0.0261383056640625,1.775893568992615,-2.508400201797485,1.561158895492554,28.18356323242188,95.67117309570312,-12.81996154785156
257556,0.56903076171875,0.4757080078125,-0.0261383056640625,1.775893568992615,-2.508400201797485,1.561158895492554,28.18356323242188,95.67117309570312,-12.81996154785156
257557,0.5764923095703125,0.4918060302734375,-0.0312347412109375,1.397321224212646,-0.7600445747375488,1.357354640960693,28.71070861816406,95.9320831298828,-12.84722900390625
257558,0.08209228515625,0.7559051513671875,-0.0588531494140625,0.8137608170509338,0.5851681232452393,1.088536977767944,29.85154724121094,96.58518981933594,-13.00106811523438
257559,-0.0488739013671875,0.7823486328125,0.1424713134765625,0.8137608170509338,0.5851681232452393,1.088536977767944,30.34286499023438,96.8157196044922,-13.21395874023438
257560,-0.0488739013671875,0.7823486328125,0.1424713134765625,0.8137608170509338,0.5851681232452393,1.088536977767944,30.34286499023438,96.8157196044922,-13.21395874023438
257561,-0.12164306640625,0.6706390380859375,0.28118896484375,0.4727225303649902,0.6896764039993286,1.064788222312927,32.17814636230469,97.33004760742188,-15.24356079101562
257562,-0.10186767578125,0.583099365234375,0.3568878173828125,0.3915786743164062,0.8360738754272461,1.036110758781433,32.83085632324219,97.31434631347656,-15.55787658691406
257563,-0.058197021484375,0.4809417724609375,0.372711181640625,0.3266705274581909,1.011290907859802,0.9720796346664428,33.46432495117188,97.5322723388672,-15.82513427734375
257564,-0.032440185546875,0.3911285400390625,0.3596038818359375,0.2430850863456726,1.106652855873108,0.901238977909088,34.02427673339844,97.4218292236328,-16.14572143554688
257565,-0.032440185546875,0.3911285400390625,0.3596038818359375,0.2430850863456726,1.106652855873108,0.901238977909088,34.02427673339844,97.4218292236328,-16.14572143554688
257566,-0.0529937744140625,0.3515777587890625,0.5461883544921875,0.0126630645245313,1.595400214195251,0.7221331596374512,35.00947570800781,97.5950164794922,-16.68170166015625
257567,-0.0872344970703125,0.3644561767578125,0.662506103515625,-0.2083982080221176,2.145452260971069,0.5668706297874451,35.41569519042969,97.749267578125,-17.05262756347656
257568,-0.0872344970703125,0.3644561767578125,0.662506103515625,-0.2083982080221176,2.145452260971069,0.5668706297874451,35.41569519042969,97.749267578125,-17.05262756347656
257569,-0.1532135009765625,0.407867431640625,0.69195556640625,-0.524066686630249,2.696868658065796,0.3846667110919952,35.91348266601562,97.80018615722656,-17.17068481445312
257570,-0.2977447509765625,0.523162841796875,0.64697265625,-1.224597930908203,3.264226675033569,-0.0349734313786029,36.64532470703125,98.07780456542967,-17.3668212890625
