time_idx,accelerometerAccelerationX(G),accelerometerAccelerationY(G),accelerometerAccelerationZ(G),gyroRotationX(rad/s),gyroRotationY(rad/s),gyroRotationZ(rad/s),magnetometerX(µT),magnetometerY(µT),magnetometerZ(µT)
179652,0.0916595458984375,1.522491455078125,0.096099853515625,0.7750054597854614,-1.148573398590088,0.3984765410423279,65.708984375,99.7908935546875,-19.94902038574219
179653,-0.012054443359375,1.219024658203125,-0.0810089111328125,0.7429428696632385,-1.329038858413696,0.6283369064331055,66.35560607910156,99.2125244140625,-21.25248718261719
179654,-0.0405426025390625,1.065353393554688,-0.1204986572265625,0.9378782510757446,-1.597334742546082,0.6355170607566833,66.60696411132812,99.00209045410156,-21.67713928222656
179655,-0.0405426025390625,1.065353393554688,-0.1204986572265625,0.9378782510757446,-1.597334742546082,0.6355170607566833,66.60696411132812,99.00209045410156,-21.67713928222656
179656,-0.0381622314453125,0.9006195068359375,-0.0925750732421875,1.18293571472168,-1.739598631858826,0.630692720413208,66.91127014160156,98.8637237548828,-22.26318359375
179657,-0.0693511962890625,0.5640869140625,-0.0399627685546875,1.470383167266846,-1.266947984695435,0.5696752071380615,67.45216369628906,98.24244689941406,-23.77630615234375
179658,-0.107513427734375,0.3835906982421875,-0.0292510986328125,1.417780160903931,-0.7437945008277893,0.4955066740512848,67.7188720703125,97.92529296875,-24.56234741210938
179659,-0.107513427734375,0.3835906982421875,-0.0292510986328125,1.417780160903931,-0.7437945008277893,0.4955066740512848,67.7188720703125,97.92529296875,-24.56234741210938
179660,-0.1417694091796875,0.2111358642578125,-0.059478759765625,1.290970206260681,-0.1617846339941025,0.4282735884189606,67.91841125488281,97.53465270996094,-25.38534545898438
179661,-0.1613616943359375,0.0515899658203125,-0.178070068359375,1.066841244697571,0.3107163310050964,0.3675535023212433,68.03970336914062,97.30929565429688,-26.20834350585938
179662,-0.132415771484375,-0.19464111328125,-0.3378753662109375,0.9978936314582824,0.2169267237186432,0.3946141600608826,68.51545715332031,96.9735107421875,-27.18165588378906
179663,-0.132415771484375,-0.19464111328125,-0.3378753662109375,0.9978936314582824,0.2169267237186432,0.3946141600608826,68.51545715332031,96.9735107421875,-27.18165588378906
179664,-0.044342041015625,-0.2614898681640625,-0.25018310546875,0.7381331920623779,0.2362098693847656,0.4406200051307678,68.91233825683594,96.54248046875,-27.94923400878906
179665,0.01434326171875,-0.261138916015625,-0.26519775390625,0.7381331920623779,0.2362098693847656,0.4406200051307678,69.03364562988281,96.51609802246094,-28.33903503417969
179666,0.06219482421875,-0.2448883056640625,-0.2866668701171875,0.6497330069541931,0.1788405925035477,0.4198950231075287,69.25959777832031,96.31016540527344,-28.64823913574219
179667,0.06219482421875,-0.2448883056640625,-0.2866668701171875,0.6497330069541931,0.1788405925035477,0.4198950231075287,69.25959777832031,96.31016540527344,-28.64823913574219
179668,0.1083526611328125,-0.199859619140625,-0.2065277099609375,0.5126904845237732,-0.0454489737749099,0.3352507054805756,69.59153747558594,95.93893432617188,-29.34330749511719
179669,0.11798095703125,-0.1761474609375,-0.1297607421875,0.4408604800701141,-0.0606415085494518,0.2828862965106964,69.72918701171875,95.7464599609375,-29.41761779785156
179670,0.1179656982421875,-0.1548004150390625,-0.0869903564453125,0.3422926366329193,0.0069098374806344,0.2230661064386368,69.88414001464844,95.55404663085938,-29.52336120605469
179671,0.1179656982421875,-0.1548004150390625,-0.0869903564453125,0.3422926366329193,0.0069098374806344,0.2230661064386368,69.88414001464844,95.55404663085938,-29.52336120605469
179672,0.118377685546875,-0.150604248046875,-0.0924530029296875,0.1990028470754623,0.0792961567640304,0.1617425531148911,69.87712097167969,95.47691345214844,-29.56452941894531
179673,0.116119384765625,-0.1766510009765625,-0.157958984375,-0.1486454010009766,0.0573927201330661,0.0159611236304044,69.96755981445312,95.44505310058594,-29.57859802246094
179674,0.115020751953125,-0.1961517333984375,-0.1812591552734375,-0.3311294615268707,0.023403326049447,-0.0633289068937301,69.91035461425781,95.46322631835938,-29.34263610839844
179675,0.115020751953125,-0.1961517333984375,-0.1812591552734375,-0.3311294615268707,0.023403326049447,-0.0633289068937301,69.91035461425781,95.46322631835938,-29.34263610839844
179676,0.11309814453125,-0.218109130859375,-0.213531494140625,-0.6399064660072327,-0.0351332202553749,-0.2212277203798294,69.96490478515625,95.43788146972656,-28.70053100585938
179677,0.13153076171875,-0.148651123046875,-0.1781768798828125,-0.789834201335907,-0.0444311127066612,-0.2971528470516205,69.93849182128906,95.6178741455078,-28.49237060546875
179678,0.09808349609375,0.0468597412109375,-0.1153564453125,-0.9348853826522828,-0.0415463782846927,-0.3653028607368469,69.93978881835938,95.73580932617188,-28.08151245117188
179679,0.09808349609375,0.0468597412109375,-0.1153564453125,-0.9348853826522828,-0.0415463782846927,-0.3653028607368469,69.93978881835938,95.73580932617188,-28.08151245117188
179680,0.0373992919921875,0.196502685546875,0.0283203125,-1.201200127601624,0.0883434414863586,-0.5391952991485596,69.52937316894531,96.2140655517578,-27.39060974121094
179681,0.052459716796875,0.1994781494140625,0.10577392578125,-1.302829027175903,0.1458464115858078,-0.6378912329673767,69.34774780273438,96.41102600097656,-26.9500732421875
179682,0.0659332275390625,0.21343994140625,0.264373779296875,-1.384726524353027,0.3678459227085114,-0.7260115146636963,69.13763427734375,96.61976623535156,-26.302978515625
179683,0.0659332275390625,0.21343994140625,0.264373779296875,-1.384726524353027,0.3678459227085114,-0.7260115146636963,69.13763427734375,96.61976623535156,-26.302978515625
179684,0.0689849853515625,0.2179412841796875,0.4242706298828125,-1.455357551574707,0.8602500557899475,-0.7992132902145386,68.8394775390625,96.98233032226562,-25.85784912109375
179685,0.1531219482421875,0.757171630859375,0.5753021240234375,-1.423975944519043,1.487752318382263,-0.9025207757949828,68.49139404296875,97.259765625,-25.33200073242188
179686,0.191864013671875,3.783294677734375,0.93603515625,-1.200359702110291,2.109293937683105,-0.1948555111885071,67.64607238769531,98.12806701660156,-24.59385681152344
179687,0.191864013671875,3.783294677734375,0.93603515625,-1.200359702110291,2.109293937683105,-0.1948555111885071,67.64607238769531,98.12806701660156,-24.59385681152344
179688,-0.6045379638671875,5.182723999023438,0.923919677734375,-0.4047102034091949,0.7227062582969666,-0.4045048654079437,67.45747375488281,99.07843017578124,-23.76716613769531
179689,-0.6045379638671875,5.182723999023438,0.923919677734375,-0.4047102034091949,0.7227062582969666,-0.4045048654079437,67.45747375488281,99.07843017578124,-23.76716613769531
179690,-0.5035400390625,3.396102905273438,0.8381500244140625,-0.7908245921134949,-1.292819261550903,-0.9595417380332948,67.60334777832031,99.374267578125,-22.90184020996094
179691,-0.5035400390625,3.396102905273438,0.8381500244140625,-0.7908245921134949,-1.292819261550903,-0.9595417380332948,67.60334777832031,99.374267578125,-22.90184020996094
179692,-0.2215423583984375,1.95013427734375,0.49127197265625,-1.286460995674133,-1.273808360099792,-0.9267566204071044,66.89419555664062,99.5874481201172,-22.470947265625
179693,-0.0249786376953125,1.9688720703125,-0.380218505859375,-1.259981751441956,-0.9911379814147948,-0.4704058468341827,66.33366394042969,99.62820434570312,-22.15121459960938
179694,0.27911376953125,2.446121215820312,-1.73651123046875,-1.241661310195923,-3.309859752655029,0.0682980939745903,65.68626403808594,99.9110107421875,-21.75593566894531
179695,0.27911376953125,2.446121215820312,-1.73651123046875,-1.241661310195923,-3.309859752655029,0.0682980939745903,65.68626403808594,99.9110107421875,-21.75593566894531
179696,0.419769287109375,2.494140625,-0.3434295654296875,-0.4254144132137299,-1.680066823959351,0.6263000965118408,65.12419128417969,100.1520233154297,-21.50511169433594
179697,0.490753173828125,2.107406616210938,-0.0775909423828125,0.7549648880958557,0.4089808464050293,0.936879813671112,64.79072570800781,100.2079620361328,-21.26956176757812
179698,0.292205810546875,1.559402465820312,0.0990142822265625,1.532283067703247,0.1910213530063629,0.9938413500785828,65.48680114746094,100.0077514648438,-21.48797607421875
179699,0.292205810546875,1.559402465820312,0.0990142822265625,1.532283067703247,0.1910213530063629,0.9938413500785828,65.48680114746094,100.0077514648438,-21.48797607421875
179700,0.1329193115234375,1.157379150390625,0.2889556884765625,0.4698953330516815,-0.0316620543599128,0.898774266242981,66.93635559082031,98.94686889648438,-22.47877502441406
179701,0.070831298828125,0.9647674560546876,0.30023193359375,0.4698953330516815,-0.0316620543599128,0.898774266242981,67.652099609375,98.59220886230467,-23.10926818847656
179702,0.0333709716796875,0.7696533203125,0.200775146484375,0.2127447575330734,0.0797337144613266,0.8490980267524719,68.20140075683594,98.1553192138672,-23.31524658203125
179703,0.0333709716796875,0.7696533203125,0.200775146484375,0.2127447575330734,0.0797337144613266,0.8490980267524719,68.20140075683594,98.1553192138672,-23.31524658203125
179704,-0.0101165771484375,0.58526611328125,0.017364501953125,0.0733197554945945,-0.0381649620831012,0.8135320544242859,68.67601013183594,97.82510375976562,-23.50102233886719
179705,-0.1279144287109375,0.3410797119140625,-0.1545257568359375,0.1504417061805725,-0.6959018111228943,0.6671085357666016,69.39300537109375,97.6076202392578,-23.62385559082031
179706,-0.1696929931640625,0.255615234375,-0.1903533935546875,0.2892762720584869,-0.9547845125198364,0.5281405448913574,69.70384216308594,97.63265991210938,-23.57852172851562
179707,-0.179718017578125,0.159423828125,-0.2763519287109375,0.4377619028091431,-1.220152854919434,0.372500866651535,69.90034484863281,97.4954833984375,-23.83122253417969
179708,-0.179718017578125,0.159423828125,-0.2763519287109375,0.4377619028091431,-1.220152854919434,0.372500866651535,69.90034484863281,97.4954833984375,-23.83122253417969
179709,-0.156402587890625,-0.0239410400390625,-0.386260986328125,0.7366740107536316,-1.57735812664032,0.1262146532535553,69.95799255371094,97.50999450683594,-24.60574340820312
179710,-0.094085693359375,-0.1346588134765625,-0.396484375,0.8484101295471191,-1.428964138031006,0.047605600208044,69.96511840820312,97.38711547851562,-25.23982238769531
179711,-0.094085693359375,-0.1346588134765625,-0.396484375,0.8484101295471191,-1.428964138031006,0.047605600208044,69.96511840820312,97.38711547851562,-25.23982238769531
179712,0.0428009033203125,-0.2314453125,-0.3486328125,0.8193068504333496,-0.7149506211280823,-0.0207284484058618,69.79124450683594,97.21949768066406,-25.80853271484375
179713,0.2711639404296875,-0.1798858642578125,-0.188690185546875,0.5791352391242981,0.2531837821006775,0.0076459352858364,69.52687072753906,96.74876403808594,-27.06271362304688
179714,0.250396728515625,-0.1412506103515625,-0.0413818359375,0.5013488531112671,0.4350776970386505,0.0126920929178595,69.525390625,96.57528686523438,-27.33956909179688
179715,0.250396728515625,-0.1412506103515625,-0.0413818359375,0.5013488531112671,0.4350776970386505,0.0126920929178595,69.525390625,96.57528686523438,-27.33956909179688
179716,0.2159271240234375,-0.110198974609375,0.013946533203125,0.401683509349823,0.5355308055877686,5.725796290789731e-05,69.59100341796875,96.59402465820312,-27.47073364257812
179717,0.1538848876953125,-0.101470947265625,-0.0771026611328125,0.1833639591932297,0.3081271946430206,-0.0206080731004476,69.66128540039062,96.60450744628906,-27.65132141113281
179718,0.130645751953125,-0.1089019775390625,-0.1387786865234375,0.0993438959121704,-0.0172700677067041,-0.0258124228566885,69.71826171875,96.5623016357422,-27.63139343261719
179719,0.130645751953125,-0.1089019775390625,-0.1387786865234375,0.0993438959121704,-0.0172700677067041,-0.0258124228566885,69.71826171875,96.5623016357422,-27.63139343261719
179720,0.10986328125,-0.1117401123046875,-0.150177001953125,0.0190320145338773,-0.3788226842880249,-0.041701640933752,69.83436584472656,96.60690307617188,-27.53282165527344
179721,0.075836181640625,-0.10809326171875,-0.1195831298828125,-0.2055062800645828,-0.9375439882278442,-0.1909055113792419,69.82879638671875,96.71188354492188,-27.50869750976562
179722,0.0574493408203125,-0.0832061767578125,0.007080078125,-0.2055062800645828,-0.9375439882278442,-0.1909055113792419,69.75137329101562,96.76620483398438,-27.39253234863281
179723,0.0291595458984375,-0.0095977783203125,0.170928955078125,-0.5955240726470947,0.0921424403786659,-0.5236014127731323,69.62228393554688,96.8028564453125,-27.1727294921875
179724,0.0291595458984375,-0.0095977783203125,0.170928955078125,-0.5955240726470947,0.0921424403786659,-0.5236014127731323,69.62228393554688,96.8028564453125,-27.1727294921875
179725,-0.008270263671875,0.10992431640625,0.2679901123046875,-0.8732755780220032,0.7017264366149902,-0.6675873398780823,69.532958984375,96.88182067871094,-27.153076171875
179726,-0.0231475830078125,0.1432342529296875,0.1313934326171875,-1.13270366191864,0.9971761703491212,-0.7835328578948975,69.19126892089844,97.16297912597656,-26.57318115234375
179727,-0.0231475830078125,0.1432342529296875,0.1313934326171875,-1.13270366191864,0.9971761703491212,-0.7835328578948975,69.19126892089844,97.16297912597656,-26.57318115234375
179728,-0.05078125,0.33807373046875,0.1252593994140625,-1.331930994987488,1.053061008453369,-0.9475018382072448,68.94699096679688,97.31015014648438,-25.91455078125
179729,-0.2698211669921875,1.812179565429688,0.432647705078125,-1.077848672866821,1.505204796791077,-2.084731340408325,68.47857666015625,98.16714477539062,-24.9124755859375
179730,-0.3784332275390625,2.408309936523438,0.5004119873046875,-0.4611612260341644,1.150352954864502,-2.237246513366699,68.09059143066406,98.61248779296876,-24.29255676269531
179731,-0.3784332275390625,2.408309936523438,0.5004119873046875,-0.4611612260341644,1.150352954864502,-2.237246513366699,68.09059143066406,98.61248779296876,-24.29255676269531
179732,-0.530731201171875,2.789230346679688,0.6345672607421875,0.3750340640544891,0.4058833122253418,-1.970465660095215,67.43504333496094,99.0959930419922,-23.88446044921875
179733,-0.46209716796875,3.510223388671875,0.903045654296875,1.224097967147827,-1.29508912563324,-0.8541689515113831,65.70449829101562,99.99313354492188,-23.63279724121094
179734,-0.2825775146484375,3.682388305664062,1.01068115234375,0.9037922024726868,-1.758261322975159,-0.2457471787929535,64.88046264648438,100.2870178222656,-24.21238708496094
179735,-0.2825775146484375,3.682388305664062,1.01068115234375,0.9037922024726868,-1.758261322975159,-0.2457471787929535,64.88046264648438,100.2870178222656,-24.21238708496094
179736,-0.1973876953125,3.30621337890625,1.04742431640625,0.0468460693955421,-2.035354852676392,-0.164494663476944,64.26481628417969,100.5661315917969,-25.03660583496094
179737,-0.280426025390625,2.635147094726562,1.0341796875,-0.9305670857429504,-2.015779972076416,-0.5528141856193542,63.80844116210938,100.6221618652344,-25.82380676269531
179738,-0.3103485107421875,2.066650390625,0.6996612548828125,-1.729015827178955,-2.161696910858154,-1.07201075553894,63.23287963867188,100.3761596679688,-26.15818786621094
179739,-0.154083251953125,2.386260986328125,0.536956787109375,-1.500426530838013,-2.131058216094971,-0.8275032639503479,62.87774658203125,100.2129974365234,-25.67819213867188
179740,-0.154083251953125,2.386260986328125,0.536956787109375,-1.500426530838013,-2.131058216094971,-0.8275032639503479,62.87774658203125,100.2129974365234,-25.67819213867188
179741,0.0506591796875,2.723312377929688,0.020843505859375,-1.13934588432312,-1.490530252456665,-0.4904029965400696,62.21427917480469,100.1849365234375,-25.06219482421875
179742,0.474761962890625,2.609512329101562,-1.04620361328125,0.4832668006420135,-3.55951452255249,0.1347538232803345,60.64155578613281,100.8198699951172,-23.98077392578125
179743,0.474761962890625,2.609512329101562,-1.04620361328125,0.4832668006420135,-3.55951452255249,0.1347538232803345,60.64155578613281,100.8198699951172,-23.98077392578125
179744,0.1805572509765625,1.764678955078125,-0.029937744140625,2.233507394790649,0.9441409111022948,0.478821188211441,59.58428955078125,101.3082885742188,-23.83140563964844
179745,0.1656036376953125,1.562759399414062,0.10418701171875,2.261360645294189,0.9541062116622924,0.6930932402610779,59.60537719726562,101.1908721923828,-24.45578002929688
179746,0.1408233642578125,1.337417602539062,0.0795440673828125,1.896427154541016,0.5049505233764648,0.8235276937484741,60.00398254394531,100.6715393066406,-25.507080078125
179747,0.1408233642578125,1.337417602539062,0.0795440673828125,1.896427154541016,0.5049505233764648,0.8235276937484741,60.00398254394531,100.6715393066406,-25.507080078125
179748,0.1033172607421875,0.93231201171875,0.106689453125,1.241127848625183,-1.097983479499817,0.6867498755455017,61.34310913085938,99.5180206298828,-27.29237365722656
179749,0.1497039794921875,0.6984405517578125,0.0935211181640625,1.241127848625183,-1.097983479499817,0.6867498755455017,61.98028564453125,99.05012512207033,-27.91476440429688
179750,0.185455322265625,0.4813385009765625,0.072723388671875,1.328034520149231,-1.391582846641541,0.769669234752655,62.38459777832031,98.89938354492188,-28.71736145019531
179751,0.185455322265625,0.4813385009765625,0.072723388671875,1.328034520149231,-1.391582846641541,0.769669234752655,62.38459777832031,98.89938354492188,-28.71736145019531
179752,0.18450927734375,0.3089447021484375,0.0535736083984375,1.544691205024719,-1.553121447563171,0.962131679058075,62.63461303710938,98.63941955566406,-29.48243713378906
179753,0.1293487548828125,0.0025177001953125,-0.026580810546875,1.603598952293396,-1.528715133666992,0.998665452003479,62.83642578125,97.9903564453125,-30.81208801269531
179754,0.0956573486328125,-0.1109161376953125,-0.16790771484375,1.608792424201965,-1.678286075592041,1.013427376747131,63.03443908691406,97.673583984375,-31.53672790527344
179755,0.0956573486328125,-0.1109161376953125,-0.16790771484375,1.608792424201965,-1.678286075592041,1.013427376747131,63.03443908691406,97.673583984375,-31.53672790527344
179756,0.0332183837890625,-0.225433349609375,0.072784423828125,0.9206867218017578,0.3520150184631348,0.7951716780662537,63.25440979003906,97.02140808105467,-33.21395874023438
179757,-0.008087158203125,-0.247039794921875,0.1198577880859375,0.9206867218017578,0.3520150184631348,0.7951716780662537,63.28999328613281,96.65177917480467,-33.94265747070312
179758,-0.01806640625,-0.204681396484375,-0.0088958740234375,0.6208374500274658,0.787442684173584,0.7061802744865417,63.54151916503906,96.26979064941406,-34.57798767089844
179759,-0.01806640625,-0.204681396484375,-0.0088958740234375,0.6208374500274658,0.787442684173584,0.7061802744865417,63.54151916503906,96.26979064941406,-34.57798767089844
179760,-0.076324462890625,-0.223968505859375,-0.1214752197265625,0.2499081045389175,0.3232012391090393,0.4349173605442047,64.53620910644531,95.63661193847656,-34.7401123046875
179761,-0.125762939453125,-0.2743377685546875,-0.1598663330078125,0.2499081045389175,0.3232012391090393,0.4349173605442047,65.24909973144531,95.45077514648438,-34.63499450683594
179762,-0.1828765869140625,-0.3514556884765625,-0.22442626953125,0.2623136341571808,0.508750319480896,0.2783839404582977,65.98344421386719,95.35246276855467,-34.22441101074219
179763,-0.1828765869140625,-0.3514556884765625,-0.22442626953125,0.2623136341571808,0.508750319480896,0.2783839404582977,65.98344421386719,95.35246276855467,-34.22441101074219
179764,-0.2401123046875,-0.405792236328125,-0.332916259765625,0.2034820169210434,0.6028919816017151,0.0677564069628715,66.69613647460938,95.10752868652344,-33.74490356445312
179765,-0.1743011474609375,-0.384674072265625,-0.207550048828125,-0.0991705283522605,0.2668894827365875,-0.3714361488819122,68.08586120605469,94.36497497558594,-32.75321960449219
179766,-0.0676727294921875,-0.3573760986328125,-0.122161865234375,-0.2180234044790268,0.1026992127299309,-0.4129103422164917,68.52432250976562,93.7895050048828,-32.08273315429688
179767,-0.0676727294921875,-0.3573760986328125,-0.122161865234375,-0.2180234044790268,0.1026992127299309,-0.4129103422164917,68.52432250976562,93.7895050048828,-32.08273315429688
179768,-0.0002593994140625,-0.3345489501953125,-0.0584869384765625,-0.3180621266365051,-0.0092683332040905,-0.3836951851844788,68.66361999511719,93.40373229980467,-31.59219360351562
179769,0.0576019287109375,-0.2943115234375,0.043670654296875,-0.6079392433166504,0.1822251975536346,-0.35920050740242,68.10939025878906,92.62423706054688,-31.06437683105469
179770,0.0816497802734375,-0.2531280517578125,0.0418701171875,-0.8385761380195618,0.3201380670070648,-0.4098591506481171,67.78157043457031,92.64225769042967,-30.78804016113281
179771,0.0816497802734375,-0.2531280517578125,0.0418701171875,-0.8385761380195618,0.3201380670070648,-0.4098591506481171,67.78157043457031,92.64225769042967,-30.78804016113281
179772,0.122467041015625,-0.0246734619140625,0.011016845703125,-1.314090967178345,0.0704230368137359,-0.5636441707611084,67.19390869140625,92.9991455078125,-30.2685546875
179773,0.045989990234375,0.094757080078125,0.0661468505859375,-1.407629489898682,-0.2018215358257294,-0.5802311301231384,66.91526794433594,93.29783630371094,-29.71330261230469
179774,0.0103759765625,0.1240234375,0.1907501220703125,-1.442469716072083,-0.3760210275650024,-0.5838517546653748,66.68656921386719,93.64797973632812,-29.11175537109375
179775,-0.003997802734375,0.1402740478515625,0.3507232666015625,-1.494089245796204,-0.3286596536636353,-0.5844858288764954,66.36259460449219,94.21511840820312,-28.63522338867188
179776,-0.003997802734375,0.1402740478515625,0.3507232666015625,-1.494089245796204,-0.3286596536636353,-0.5844858288764954,66.36259460449219,94.21511840820312,-28.63522338867188
179777,-0.014373779296875,0.1739959716796875,0.4720458984375,-1.574617743492126,-0.1472480446100235,-0.591086208820343,66.02149963378906,94.76229858398438,-27.96449279785156
179778,-0.0751190185546875,0.3878936767578125,0.81591796875,-1.679391741752625,0.0559892319142818,-0.6896255612373352,64.95671081542969,96.59690856933594,-26.80865478515625
179779,-0.0751190185546875,0.3878936767578125,0.81591796875,-1.679391741752625,0.0559892319142818,-0.6896255612373352,64.95671081542969,96.59690856933594,-26.80865478515625
179780,-0.128753662109375,0.7678985595703125,1.176284790039062,-1.686137080192566,0.2046926915645599,-0.7692756652832031,64.05477905273438,97.64956665039062,-26.82968139648438
179781,-0.269317626953125,2.472854614257812,1.430068969726562,-1.891099810600281,0.3859074711799622,-0.9820278882980348,63.33212280273438,98.50621032714844,-27.59930419921875
179782,-1.602279663085938,8.14727783203125,2.1448974609375,-1.697991013526917,2.130252838134766,2.039249658584595,62.94718933105469,100.0420989990234,-29.87637329101562
179783,-1.602279663085938,8.14727783203125,2.1448974609375,-1.697991013526917,2.130252838134766,2.039249658584595,62.94718933105469,100.0420989990234,-29.87637329101562
179784,-1.8123779296875,7.56103515625,1.248703002929688,-1.128860235214233,2.410654783248901,-0.1255110502243042,63.78683471679688,100.2433013916016,-30.01983642578125
179785,0.138092041015625,1.715667724609375,-1.237091064453125,-2.017990112304688,0.3297035992145538,-1.087937235832214,64.44313049316406,100.1974945068359,-27.63719177246094
179786,0.6675262451171875,0.700592041015625,-2.99432373046875,-2.923637628555298,-2.874496221542358,-0.141756072640419,63.81056213378906,100.2302856445312,-26.2735595703125
179787,0.6675262451171875,0.700592041015625,-2.99432373046875,-2.923637628555298,-2.874496221542358,-0.141756072640419,63.81056213378906,100.2302856445312,-26.2735595703125
179788,0.6897735595703125,1.593414306640625,0.353179931640625,1.335708737373352,-4.612810134887695,1.446980357170105,62.72163391113281,100.2505645751953,-24.17408752441406
179789,0.74609375,1.761672973632812,0.8711395263671875,2.370865345001221,-2.583945989608765,1.668615341186523,62.42727661132812,100.0218048095703,-24.23439025878906
179790,0.6747894287109375,1.703872680664062,0.7483062744140625,2.319303274154663,-0.4985533356666565,1.839589476585388,62.65443420410156,99.68635559082033,-25.09707641601562
179791,0.6747894287109375,1.703872680664062,0.7483062744140625,2.319303274154663,-0.4985533356666565,1.839589476585388,62.65443420410156,99.68635559082033,-25.09707641601562
179792,0.5728607177734375,1.655166625976562,0.3217620849609375,1.661635637283325,0.589515745639801,1.73067843914032,63.12934875488281,99.2070770263672,-26.12818908691406
179793,0.3680572509765625,1.322235107421875,-0.525909423828125,0.3699578046798706,-0.7092932462692261,0.7700644731521606,64.77960205078125,98.23165893554688,-27.44879150390625
179794,0.263916015625,1.068191528320312,-0.51495361328125,0.3502765297889709,-1.934588432312012,0.2511001229286194,65.36216735839844,97.79557800292967,-27.65769958496094
179795,0.263916015625,1.068191528320312,-0.51495361328125,0.3502765297889709,-1.934588432312012,0.2511001229286194,65.36216735839844,97.79557800292967,-27.65769958496094
179796,0.154510498046875,0.93475341796875,-0.2049407958984375,0.7019184231758118,-2.152121067047119,0.0024836640805006,65.64700317382812,97.63784790039062,-28.0208740234375
179797,-0.0074310302734375,0.7469940185546875,-0.162353515625,1.440589070320129,-1.182647824287415,-0.1769417524337769,65.26609802246094,97.5870361328125,-29.20962524414062
179798,-0.0840301513671875,0.6143798828125,-0.14434814453125,1.484988212585449,-0.6283155679702759,-0.1804520636796951,64.968994140625,97.52821350097656,-29.88978576660156
179799,-0.0840301513671875,0.6143798828125,-0.14434814453125,1.484988212585449,-0.6283155679702759,-0.1804520636796951,64.968994140625,97.52821350097656,-29.88978576660156
179800,-0.102264404296875,0.3815765380859375,-0.1897125244140625,1.144125699996948,0.1106753796339035,-0.1512006968259811,64.70664978027344,96.97964477539062,-31.61634826660156
179801,-0.0843505859375,0.3037567138671875,-0.177642822265625,1.06529712677002,0.1380481570959091,-0.1355248093605042,64.77127075195312,96.80276489257812,-32.21697998046875
179802,-0.0565338134765625,0.22320556640625,-0.1338958740234375,1.012726426124573,0.1315367221832275,-0.116298645734787,64.80828857421875,96.66926574707033,-32.71255493164062
179803,-0.01593017578125,0.1377410888671875,-0.108001708984375,0.9289348125457764,0.1416498124599457,-0.0786133185029029,64.82513427734375,96.61680603027344,-33.15388488769531
179804,-0.01593017578125,0.1377410888671875,-0.108001708984375,0.9289348125457764,0.1416498124599457,-0.0786133185029029,64.82513427734375,96.61680603027344,-33.15388488769531
179805,0.08721923828125,-0.0222015380859375,-0.1630706787109375,0.6206912398338318,0.0568904466927051,0.071958877146244,64.85603332519531,96.2714385986328,-33.84846496582031
179806,0.1279449462890625,-0.0758056640625,-0.1370849609375,0.4550841450691223,-0.0300907902419567,0.1516779363155365,64.84452819824219,96.042236328125,-34.14437866210938
179807,0.14495849609375,-0.1080169677734375,-0.056640625,0.3293081223964691,0.0684110149741172,0.2073097825050354,64.90153503417969,95.92007446289062,-34.32928466796875
179808,0.14495849609375,-0.1080169677734375,-0.056640625,0.3293081223964691,0.0684110149741172,0.2073097825050354,64.90153503417969,95.92007446289062,-34.32928466796875
179809,0.125274658203125,-0.14068603515625,0.0545806884765625,0.3444785475730896,0.2149615734815598,0.1923276335000992,64.99055480957031,95.88592529296876,-34.46710205078125
179810,0.1038818359375,-0.150360107421875,0.0588836669921875,0.3595946431159973,0.3573373556137085,0.1571936160326004,65.18022155761719,95.72549438476562,-34.47866821289062
179811,0.1038818359375,-0.150360107421875,0.0588836669921875,0.3595946431159973,0.3573373556137085,0.1571936160326004,65.18022155761719,95.72549438476562,-34.47866821289062
179812,0.084228515625,-0.1527862548828125,0.03851318359375,0.3440220952033997,0.4443335235118866,0.1179753690958023,65.3167724609375,95.87709045410156,-34.54832458496094
179813,0.061737060546875,-0.13970947265625,-0.005706787109375,0.2259415239095688,0.4479375779628754,0.0642410367727279,65.67166137695312,95.58404541015624,-34.26129150390625
179814,0.061676025390625,-0.135284423828125,-0.03875732421875,0.1658715307712555,0.4051301777362823,0.0504964627325534,65.84330749511719,95.60679626464844,-34.34939575195312
179815,0.061676025390625,-0.135284423828125,-0.03875732421875,0.1658715307712555,0.4051301777362823,0.0504964627325534,65.84330749511719,95.60679626464844,-34.34939575195312
179816,0.0624542236328125,-0.1306304931640625,-0.0569305419921875,0.1120461076498032,0.3454263806343079,0.0357055328786373,66.01438903808594,95.52183532714844,-34.24839782714844
179817,0.07672119140625,-0.1369171142578125,-0.0946807861328125,-0.0250507574528455,0.2908555269241333,0.0055348477326333,66.16189575195312,95.59635925292967,-33.93798828125
179818,0.088592529296875,-0.1330108642578125,-0.10137939453125,-0.1196033656597137,0.2801288664340973,-0.0243862997740507,66.327392578125,95.59124755859376,-33.70857238769531
179819,0.088592529296875,-0.1330108642578125,-0.10137939453125,-0.1196033656597137,0.2801288664340973,-0.0243862997740507,66.327392578125,95.59124755859376,-33.70857238769531
179820,0.102996826171875,-0.110748291015625,-0.0885009765625,-0.402204692363739,0.2933642268180847,-0.1302661299705505,66.40072631835938,95.65628051757812,-33.57127380371094
179821,0.076080322265625,0.165374755859375,0.0821685791015625,-0.5857420563697815,0.3887006044387817,-0.2663898766040802,66.51197814941406,95.73892211914062,-33.24586486816406
179822,0.0330657958984375,0.254547119140625,0.34765625,-1.229230761528015,1.630322217941284,-0.6969923973083496,66.53147888183594,95.89585876464844,-32.84642028808594
179823,0.027374267578125,0.3280029296875,0.709747314453125,-1.749611020088196,2.710584163665771,-1.005830407142639,66.39366149902344,96.15650939941406,-32.37289428710938
179824,0.027374267578125,0.3280029296875,0.709747314453125,-1.749611020088196,2.710584163665771,-1.005830407142639,66.39366149902344,96.15650939941406,-32.37289428710938
179825,-0.0734100341796875,2.59814453125,1.12677001953125,-2.018618822097778,3.755849599838257,-2.176963090896606,66.15081787109375,96.99656677246094,-31.09449768066406
179826,-0.0993804931640625,4.316390991210938,1.079513549804688,-1.585628271102905,3.630735874176025,-2.750372886657715,65.92379760742188,97.50813293457033,-30.15750122070312
179827,-0.53076171875,5.328262329101562,1.007568359375,-0.977531373500824,1.444814443588257,-2.200028419494629,65.65354919433594,98.39381408691406,-29.49284362792969
179828,-0.53076171875,5.328262329101562,1.007568359375,-0.977531373500824,1.444814443588257,-2.200028419494629,65.65354919433594,98.39381408691406,-29.49284362792969
179829,-1.2216796875,4.947052001953125,1.47894287109375,0.9197524785995485,-2.087027788162231,-1.0992511510849,64.52940368652344,99.81013488769533,-28.91012573242188
179830,-0.8349761962890625,3.312820434570312,1.196182250976562,0.6082159280776978,-2.501879930496216,-1.162322521209717,63.804443359375,100.2208709716797,-29.0633544921875
179831,-0.68402099609375,2.157516479492188,0.8454132080078125,-0.1151116788387299,-2.551891326904297,-1.658821821212769,63.03582763671875,100.4236602783203,-29.53938293457031
179832,-0.68402099609375,2.157516479492188,0.8454132080078125,-0.1151116788387299,-2.551891326904297,-1.658821821212769,63.03582763671875,100.4236602783203,-29.53938293457031
179833,-0.4225311279296875,1.234344482421875,0.363311767578125,-1.362053751945496,-2.773890972137451,-1.944369912147522,61.02474975585938,100.435302734375,-30.12586975097656
179834,-0.380126953125,1.5888671875,0.236907958984375,-2.296900272369385,-0.6093142032623291,-1.105105042457581,59.83189392089844,100.4639739990234,-30.12260437011719
179835,0.1134490966796875,2.326904296875,-2.2110595703125,-3.159054756164551,-1.076449394226074,-0.2424605786800385,58.70111083984375,100.4312438964844,-29.49346923828125
179836,0.1134490966796875,2.326904296875,-2.2110595703125,-3.159054756164551,-1.076449394226074,-0.2424605786800385,58.70111083984375,100.4312438964844,-29.49346923828125
179837,0.5761260986328125,2.2156982421875,0.086212158203125,1.314967513084412,-3.9468674659729,0.952861189842224,57.56900024414062,100.7221374511719,-27.31143188476562
179838,0.5451202392578125,1.8465576171875,0.7245635986328125,2.665116310119629,-1.098507046699524,1.339267730712891,57.09675598144531,100.7532196044922,-26.84114074707031
179839,0.4689483642578125,1.542587280273438,0.4221038818359375,2.357102870941162,1.569363832473755,1.645236492156982,56.92959594726562,100.6375732421875,-27.56494140625
179840,0.4689483642578125,1.542587280273438,0.4221038818359375,2.357102870941162,1.569363832473755,1.645236492156982,56.92959594726562,100.6375732421875,-27.56494140625
179841,0.2187347412109375,1.270263671875,-0.2717437744140625,1.67629611492157,0.8467280864715576,1.344942092895508,58.31167602539062,99.71934509277344,-29.55827331542969
179842,0.0911865234375,1.079025268554688,-0.21600341796875,1.099825620651245,-0.296070009469986,0.9178427457809448,59.30294799804688,99.12294006347656,-30.42120361328125
179843,0.0911865234375,1.079025268554688,-0.21600341796875,1.099825620651245,-0.296070009469986,0.9178427457809448,59.30294799804688,99.12294006347656,-30.42120361328125
179844,0.0084381103515625,0.881103515625,0.0254974365234375,0.818075954914093,-0.9199621081352234,0.4918174147605896,60.22142028808594,98.76448059082033,-30.91151428222656
179845,0.0263671875,0.4190826416015625,0.06890869140625,0.8843090534210205,-1.294862985610962,0.1205911263823509,60.90827941894531,98.19596862792967,-31.94642639160156
179846,0.022430419921875,0.245361328125,-0.0113372802734375,0.8843090534210205,-1.294862985610962,0.1205911263823509,60.95027160644531,98.03651428222656,-32.34391784667969
179847,0.022430419921875,0.245361328125,-0.0113372802734375,0.8843090534210205,-1.294862985610962,0.1205911263823509,60.95027160644531,98.03651428222656,-32.34391784667969
179848,0.0197296142578125,0.07275390625,-0.18603515625,1.034325361251831,-1.381108641624451,0.1030371710658073,60.87945556640625,97.76065063476562,-32.86763000488281
179849,-0.06231689453125,-0.3220367431640625,-0.4033203125,1.212441921234131,-1.373848080635071,0.1563307493925095,60.58099365234375,97.29452514648438,-34.01536560058594
179850,-0.107025146484375,-0.4768524169921875,-0.4188385009765625,0.9152661561965942,0.2963972985744476,0.1756937950849533,60.27415466308594,97.09367370605467,-34.68458557128906
179851,-0.107025146484375,-0.4768524169921875,-0.4188385009765625,0.9152661561965942,0.2963972985744476,0.1756937950849533,60.27415466308594,97.09367370605467,-34.68458557128906
179852,-0.008697509765625,-0.4375762939453125,-0.585479736328125,0.8602686524391174,0.9928030371665956,0.2932353317737579,60.24845886230469,96.91413879394533,-35.3607177734375
179853,0.02020263671875,-0.247528076171875,-0.2146148681640625,0.9905611872673036,0.6664296984672546,0.4525693356990814,60.52395629882812,96.41183471679688,-36.02725219726562
179854,0.010986328125,-0.2059326171875,-0.1235504150390625,0.957130253314972,0.4707310199737549,0.4390524625778198,60.86453247070312,96.24488830566406,-36.16322326660156
179855,0.010986328125,-0.2059326171875,-0.1235504150390625,0.957130253314972,0.4707310199737549,0.4390524625778198,60.86453247070312,96.24488830566406,-36.16322326660156
179856,0.009033203125,-0.200653076171875,-0.119964599609375,0.7288342118263245,0.1433129459619522,0.3580476343631744,61.19236755371094,96.03622436523438,-36.44148254394531
179857,0.0218353271484375,-0.2306671142578125,-0.1412811279296875,0.6033074259757996,0.1179599240422249,0.3142974674701691,61.68223571777344,95.75238037109376,-36.870361328125
179858,0.0401153564453125,-0.2299346923828125,-0.1433563232421875,0.5010015964508057,0.1019564568996429,0.2792089879512787,61.98822021484375,95.69395446777344,-36.85768127441406
179859,0.0401153564453125,-0.2299346923828125,-0.1433563232421875,0.5010015964508057,0.1019564568996429,0.2792089879512787,61.98822021484375,95.69395446777344,-36.85768127441406
179860,0.0593414306640625,-0.21783447265625,-0.1243743896484375,0.3437823951244354,-0.0469898805022239,0.2108115702867508,62.19181823730469,95.66238403320312,-36.85267639160156
179861,0.0770263671875,-0.2050933837890625,-0.0706329345703125,0.3437823951244354,-0.0469898805022239,0.2108115702867508,62.35617065429688,95.6004638671875,-36.84523010253906
179862,0.09588623046875,-0.1762847900390625,0.0991668701171875,-0.0351854190230369,0.3630785942077637,0.0329901725053787,62.91392517089844,95.23419189453124,-36.58360290527344
179863,0.09588623046875,-0.1762847900390625,0.0991668701171875,-0.0351854190230369,0.3630785942077637,0.0329901725053787,62.91392517089844,95.23419189453124,-36.58360290527344
179864,0.1029815673828125,-0.17413330078125,0.112457275390625,-0.0351854190230369,0.3630785942077637,0.0329901725053787,63.10800170898438,95.15110778808594,-36.4716796875
179865,0.1396942138671875,-0.214508056640625,-0.0649566650390625,-0.5879220962524414,0.2856940627098083,-0.1047586351633072,63.56610107421875,94.72157287597656,-36.15510559082031
179866,0.1689300537109375,-0.20501708984375,-0.12615966796875,-0.9385858178138732,0.038792934268713,-0.209002748131752,63.68162536621094,94.56393432617188,-35.83538818359375
179867,0.1584320068359375,-0.0325775146484375,-0.1243438720703125,-1.333342790603638,-0.1150166019797325,-0.5029494166374207,63.71421813964844,94.56015014648438,-35.35630798339844
179868,0.0174713134765625,0.185791015625,-0.122467041015625,-1.254340648651123,-0.1805766969919205,-0.6391533017158508,63.63514709472656,94.82196044921876,-34.8741455078125
179869,-0.0211334228515625,0.247467041015625,-0.140533447265625,-1.149749755859375,-0.2579508423805237,-0.7765527367591858,63.46324157714844,94.94015502929688,-34.45050048828125
179870,-0.0137939453125,0.269287109375,-0.0779876708984375,-1.149749755859375,-0.2579508423805237,-0.7765527367591858,63.28691101074219,95.34245300292967,-33.84471130371094
179871,-0.0137939453125,0.269287109375,-0.0779876708984375,-1.149749755859375,-0.2579508423805237,-0.7765527367591858,63.28691101074219,95.34245300292967,-33.84471130371094
179872,-0.0153350830078125,0.259735107421875,0.136749267578125,-1.161539554595947,-0.0813073739409446,-0.8904247283935547,62.89431762695312,95.81187438964844,-33.297607421875
179873,-0.0164031982421875,0.3431243896484375,0.7291107177734375,-1.574758887290955,1.2172931432724,-1.157883882522583,61.72377014160156,96.81242370605467,-32.72271728515625
179874,-0.000244140625,0.69989013671875,0.860565185546875,-2.097182273864746,3.022198915481567,-1.324336171150208,61.03997802734375,97.32626342773438,-32.5062255859375
179875,-0.000244140625,0.69989013671875,0.860565185546875,-2.097182273864746,3.022198915481567,-1.324336171150208,61.03997802734375,97.32626342773438,-32.5062255859375
179876,-0.060028076171875,3.277603149414062,1.05255126953125,-2.097182273864746,3.022198915481567,-1.324336171150208,60.35612487792969,98.10044860839844,-32.56016540527344
179877,-0.3702239990234375,5.903106689453125,1.194290161132812,-1.944677233695984,2.957135677337646,0.0641148015856742,59.87660217285156,98.9073486328125,-32.83238220214844
179878,-1.631988525390625,6.347900390625,0.98931884765625,-0.2105322033166885,0.4138264656066895,-0.0606652125716209,60.40840148925781,100.1888732910156,-32.79676818847656
179879,-1.631988525390625,6.347900390625,0.98931884765625,-0.2105322033166885,0.4138264656066895,-0.0606652125716209,60.40840148925781,100.1888732910156,-32.79676818847656
179880,-1.00140380859375,4.041778564453125,0.557952880859375,-0.2200727164745331,-1.663424253463745,-1.011170268058777,61.22695922851562,100.2454833984375,-32.27409362792969
179881,-0.3262176513671875,1.5216064453125,0.53082275390625,-1.348294854164124,-3.204801797866821,-1.098096370697021,61.21066284179688,100.1080474853516,-31.28668212890625
179882,-0.080108642578125,1.352294921875,0.4725341796875,-1.803209066390991,-2.217777967453003,-0.7425619959831238,60.28929138183594,100.1980438232422,-31.0372314453125
179883,-0.080108642578125,1.352294921875,0.4725341796875,-1.803209066390991,-2.217777967453003,-0.7425619959831238,60.28929138183594,100.1980438232422,-31.0372314453125
179884,0.28118896484375,1.7449951171875,-0.3430023193359375,-2.387319087982178,-1.205607652664185,0.0878526270389556,59.22560119628906,100.3697967529297,-30.61857604980469
179885,0.638946533203125,2.465362548828125,-0.3011932373046875,-1.050666809082031,-1.286069273948669,1.225498795509338,57.66123962402344,100.8351898193359,-29.18614196777344
179886,0.426605224609375,2.107009887695312,0.059234619140625,0.6740399599075317,0.2519544661045074,1.075778603553772,57.44241333007812,101.1784973144531,-28.11442565917969
179887,0.426605224609375,2.107009887695312,0.059234619140625,0.6740399599075317,0.2519544661045074,1.075778603553772,57.44241333007812,101.1784973144531,-28.11442565917969
179888,0.18017578125,1.683029174804688,0.118499755859375,1.357472062110901,1.174558997154236,0.7418911457061768,57.63323974609375,101.176025390625,-27.31071472167969
179889,-0.104339599609375,1.364212036132812,0.138916015625,0.8656466603279114,1.162413358688354,0.583387553691864,58.88136291503906,100.8014526367188,-27.440673828125
179890,-0.1708984375,1.21661376953125,0.1725616455078125,0.3816115260124207,0.9497764706611632,0.4657043218612671,59.66361999511719,100.3368072509766,-28.01123046875
179891,-0.1708984375,1.21661376953125,0.1725616455078125,0.3816115260124207,0.9497764706611632,0.4657043218612671,59.66361999511719,100.3368072509766,-28.01123046875
179892,-0.22259521484375,1.041427612304688,0.189788818359375,0.1513152122497559,0.6775587797164917,0.3793409168720245,60.43234252929688,99.8675537109375,-28.26399230957031
179893,-0.2498016357421875,0.67828369140625,0.0414581298828125,0.3278670907020569,-0.1068734526634216,0.3359977304935455,61.51083374023438,99.44947814941406,-28.53984069824219
179894,-0.226043701171875,0.5412139892578125,0.005157470703125,0.5289032459259033,-0.4754930138587952,0.3462386429309845,61.7288818359375,99.35330200195312,-28.40586853027344
179895,-0.226043701171875,0.5412139892578125,0.005157470703125,0.5289032459259033,-0.4754930138587952,0.3462386429309845,61.7288818359375,99.35330200195312,-28.40586853027344
179896,-0.16961669921875,0.31396484375,-0.127716064453125,0.7501938343048096,-0.8790585994720459,0.2606009542942047,62.0167236328125,99.42781066894533,-28.79086303710938
179897,-0.13250732421875,0.1786346435546875,-0.27691650390625,0.7375715374946594,-1.205185890197754,0.1818744540214539,62.00045776367188,99.4617156982422,-29.20649719238281
179898,-0.1063995361328125,0.0534210205078125,-0.3740997314453125,0.644296407699585,-1.749423623085022,0.0825081914663314,61.92086791992188,99.51222229003906,-29.62405395507812
179899,-0.067108154296875,-0.060760498046875,-0.3877105712890625,0.644296407699585,-1.749423623085022,0.0825081914663314,61.69911193847656,99.43370056152344,-30.08888244628906
179900,0.0472869873046875,-0.103912353515625,-0.283538818359375,0.6013500094413757,-1.591713905334473,0.0734667629003524,61.49520874023438,99.49000549316406,-30.6240234375
179901,0.1756744384765625,-0.0709075927734375,-0.0242156982421875,0.6147939562797546,-0.8998419046401978,-0.0087218526750802,61.11093139648438,99.51155090332033,-31.134521484375
179902,0.232330322265625,-0.0327911376953125,0.166046142578125,0.7031773328781128,-0.0679276511073112,-0.0620178319513797,60.9229736328125,99.42002868652344,-31.47074890136719
179903,0.232330322265625,-0.0327911376953125,0.166046142578125,0.7031773328781128,-0.0679276511073112,-0.0620178319513797,60.9229736328125,99.42002868652344,-31.47074890136719
179904,0.23980712890625,-0.00811767578125,0.2182464599609375,0.798062801361084,0.939422607421875,0.1454053968191147,60.57672119140625,99.12725830078124,-32.12802124023438
179905,0.259185791015625,-0.0060577392578125,0.1757965087890625,0.798062801361084,0.939422607421875,0.1454053968191147,60.6561279296875,98.88702392578124,-32.50810241699219
179906,0.2635040283203125,-0.0084075927734375,0.12945556640625,0.7237435579299927,0.7796422839164734,0.3010416030883789,60.89590454101562,98.58921813964844,-32.47874450683594
179907,0.2406463623046875,-0.0159454345703125,0.0784149169921875,0.6379852890968323,0.5136617422103882,0.4225171506404877,61.09381103515625,98.53628540039062,-32.53273010253906
179908,0.2406463623046875,-0.0159454345703125,0.0784149169921875,0.6379852890968323,0.5136617422103882,0.4225171506404877,61.09381103515625,98.53628540039062,-32.53273010253906
179909,0.10455322265625,-0.0164642333984375,0.0022735595703125,0.5242741703987122,-0.0048131309449672,0.3881823718547821,61.7178955078125,98.08413696289062,-32.68894958496094
179910,0.0546417236328125,-0.02996826171875,-0.0200958251953125,0.4462004005908966,-0.1922208368778229,0.2401430904865265,61.97080993652344,97.90272521972656,-32.68536376953125
179911,0.0546417236328125,-0.02996826171875,-0.0200958251953125,0.4462004005908966,-0.1922208368778229,0.2401430904865265,61.97080993652344,97.90272521972656,-32.68536376953125
179912,0.0075225830078125,-0.0480194091796875,0.0294952392578125,0.1301252394914627,-0.4878535568714142,-0.0215401798486709,62.35826110839844,97.63003540039062,-32.8345947265625
179913,-0.0072479248046875,-0.041961669921875,0.0874481201171875,-0.0680520236492157,-0.4777668416500092,-0.1465907692909241,62.44123840332031,97.54531860351562,-32.86308288574219
179914,-0.0238494873046875,-0.0278167724609375,0.1387786865234375,-0.2785304188728333,-0.3451803028583527,-0.2753250598907471,62.47764587402344,97.53114318847656,-32.88743591308594
179915,-0.0406951904296875,-0.01251220703125,0.1632080078125,-0.6869514584541321,0.0806972458958625,-0.528922438621521,62.35098266601562,97.6288604736328,-32.88999938964844
179916,-0.0406951904296875,-0.01251220703125,0.1632080078125,-0.6869514584541321,0.0806972458958625,-0.528922438621521,62.35098266601562,97.6288604736328,-32.88999938964844
179917,-0.071746826171875,0.03167724609375,0.14239501953125,-0.8725343942642212,0.2613458633422852,-0.6510376930236816,62.08029174804688,97.79441833496094,-32.58409118652344
179918,-0.0858154296875,0.066986083984375,0.131134033203125,-1.054252743721008,0.3814685344696045,-0.7849938869476318,61.82331848144531,97.931640625,-32.32450866699219
179919,-0.108154296875,0.1050872802734375,0.1052703857421875,-1.405204176902771,0.1691959500312805,-1.081838369369507,61.72608947753906,98.14764404296876,-31.9149169921875
179920,-0.108154296875,0.1050872802734375,0.1052703857421875,-1.405204176902771,0.1691959500312805,-1.081838369369507,61.72608947753906,98.14764404296876,-31.9149169921875
179921,-0.1497039794921875,0.152557373046875,0.038726806640625,-1.44491982460022,-0.3519386053085327,-1.246773481369019,61.44795227050781,98.42144775390624,-31.52748107910156
179922,-0.9206085205078124,1.561859130859375,0.385589599609375,-1.026187062263489,0.1460727900266647,-1.963508486747742,60.79696655273438,99.214599609375,-30.38357543945312
179923,-1.07861328125,2.455322265625,0.570709228515625,-0.3363135755062103,1.787784814834595,-2.128625869750977,60.26921081542969,99.65267944335938,-29.89472961425781
179924,-1.07861328125,2.455322265625,0.570709228515625,-0.3363135755062103,1.787784814834595,-2.128625869750977,60.26921081542969,99.65267944335938,-29.89472961425781
179925,-0.79986572265625,3.704574584960938,0.40374755859375,0.7823573350906372,-0.3681399524211884,-1.015851020812988,58.70115661621094,100.5408782958984,-29.65440368652344
179926,-0.61688232421875,4.113113403320312,0.7238006591796875,1.290521264076233,-1.994664192199707,-0.8494045734405518,58.08589172363281,100.7281494140625,-29.70359802246094
179927,-0.61688232421875,4.113113403320312,0.7238006591796875,1.290521264076233,-1.994664192199707,-0.8494045734405518,58.08589172363281,100.7281494140625,-29.70359802246094
179928,-0.1712646484375,4.054595947265625,0.9781036376953124,1.32845664024353,-2.682231664657593,-0.3262715935707092,57.50143432617188,100.7412109375,-29.99455261230469
179929,0.017669677734375,2.7052001953125,1.131820678710938,-0.0187606383115053,-1.723486542701721,0.087305873632431,56.10218811035156,101.0703125,-31.76312255859375
179930,-0.12060546875,2.15008544921875,0.8372344970703125,-0.8212370872497559,-1.39988100528717,-0.5633400678634644,55.62199401855469,100.9716491699219,-32.38862609863281
179931,-0.12060546875,2.15008544921875,0.8372344970703125,-0.8212370872497559,-1.39988100528717,-0.5633400678634644,55.62199401855469,100.9716491699219,-32.38862609863281
179932,-0.120849609375,1.770553588867188,0.58624267578125,-1.758946537971497,-2.398569583892822,-0.9593257308006288,55.15542602539062,100.3728942871094,-32.1427001953125
179933,-0.008026123046875,2.19879150390625,0.5828704833984375,-1.614811420440674,-0.8340945839881897,-0.4220127463340759,53.97184753417969,100.033935546875,-30.87503051757812
179934,0.2867431640625,2.457412719726562,-0.7169189453125,-0.8259847164154053,0.410197913646698,0.3344112634658813,53.31051635742188,100.2928161621094,-30.01734924316406
179935,0.2867431640625,2.457412719726562,-0.7169189453125,-0.8259847164154053,0.410197913646698,0.3344112634658813,53.31051635742188,100.2928161621094,-30.01734924316406
179936,0.5678863525390625,2.296401977539062,-0.6119232177734375,2.000658750534058,-2.467468023300171,0.7757375240325928,53.00601196289062,100.9476013183594,-29.1529541015625
179937,0.40081787109375,1.95635986328125,0.25286865234375,2.358467817306519,-1.046647906303406,0.7177045941352844,53.04350280761719,100.8806610107422,-29.64909362792969
179938,0.27587890625,1.78839111328125,0.2627105712890625,1.984723687171936,-0.2930992543697357,0.6566715836524963,53.15093994140625,100.4089202880859,-30.67877197265625
179939,0.1702880859375,1.63458251953125,0.2095794677734375,1.382097482681274,-0.2512133121490479,0.5374320149421692,53.53115844726562,99.86613464355467,-31.55908203125
179940,0.0878753662109375,1.41729736328125,0.2034912109375,0.985446572303772,-0.419051855802536,0.4353128373622894,53.94735717773438,99.3859405517578,-32.40620422363281
179941,0.081207275390625,1.177154541015625,0.164398193359375,0.9664155840873718,-0.6119707226753235,0.4913596212863922,54.39118957519531,98.96768188476562,-32.94123840332031
179942,0.0776824951171875,0.9710845947265624,0.0919189453125,1.227635979652405,-0.8674746751785278,0.6358731389045715,54.65997314453125,98.64471435546876,-33.35791015625
179943,0.0776824951171875,0.9710845947265624,0.0919189453125,1.227635979652405,-0.8674746751785278,0.6358731389045715,54.65997314453125,98.64471435546876,-33.35791015625
179944,0.06201171875,0.794647216796875,0.010833740234375,1.568702578544617,-1.130574464797974,0.7495275139808655,54.86418151855469,98.37713623046876,-33.84326171875
179945,0.0113067626953125,0.4445953369140625,-0.1098175048828125,1.88804566860199,-1.612168312072754,0.8103525042533875,55.25433349609375,97.72999572753906,-35.373046875
179946,-0.0363616943359375,0.2685699462890625,-0.0954742431640625,1.85142982006073,-1.654276609420776,0.759650468826294,55.40853881835938,97.25709533691406,-36.30238342285156
179947,-0.0363616943359375,0.2685699462890625,-0.0954742431640625,1.85142982006073,-1.654276609420776,0.759650468826294,55.40853881835938,97.25709533691406,-36.30238342285156
179948,-0.13934326171875,-0.0814971923828125,-0.102752685546875,1.61961817741394,-1.202291250228882,0.6472064852714539,55.59074401855469,96.48234558105467,-38.057373046875
179949,-0.145111083984375,-0.1974334716796875,-0.1130218505859375,1.514155149459839,-0.8239474296569824,0.62127286195755,55.52000427246094,96.11654663085938,-38.788818359375
179950,-0.1187591552734375,-0.2503814697265625,-0.1010284423828125,1.427045822143555,-0.3600862622261047,0.5918787717819214,55.62742614746094,95.70892333984376,-39.53517150878906
179951,-0.1187591552734375,-0.2503814697265625,-0.1010284423828125,1.427045822143555,-0.3600862622261047,0.5918787717819214,55.62742614746094,95.70892333984376,-39.53517150878906
179952,-0.096954345703125,-0.2481231689453125,-0.0716705322265625,1.319724440574646,0.082057848572731,0.5430930852890015,55.73365783691406,95.253173828125,-40.20637512207031
179953,-0.1458892822265625,-0.1986083984375,-0.0729522705078125,0.9374310970306396,0.2656029164791107,0.4056348502635956,56.02980041503906,94.5772705078125,-41.17312622070312
179954,-0.2085113525390625,-0.1881256103515625,-0.0786590576171875,0.7659783959388733,0.2141889929771423,0.3100193738937378,56.28425598144531,94.36375427246094,-41.54783630371094
179955,-0.2085113525390625,-0.1881256103515625,-0.0786590576171875,0.7659783959388733,0.2141889929771423,0.3100193738937378,56.28425598144531,94.36375427246094,-41.54783630371094
179956,-0.1925048828125,-0.167633056640625,-0.10076904296875,0.6537162661552429,0.1836228221654892,0.1243927925825119,56.67544555664062,94.14141845703124,-42.04000854492188
179957,-0.100372314453125,-0.1467742919921875,-0.1352386474609375,0.6286607384681702,-0.0330269262194633,0.0725506320595741,56.82058715820312,93.98545837402344,-42.33193969726562
179958,-0.032928466796875,-0.120635986328125,-0.1079864501953125,0.5760803818702698,-0.305663526058197,0.0142284706234931,56.93626403808594,93.82984924316406,-42.56036376953125
179959,-0.032928466796875,-0.120635986328125,-0.1079864501953125,0.5760803818702698,-0.305663526058197,0.0142284706234931,56.93626403808594,93.82984924316406,-42.56036376953125
179960,0.015960693359375,-0.0986328125,0.0275726318359375,0.4045123159885406,-0.5145946145057678,-0.1168901324272156,56.92286682128906,93.69577026367188,-43.09930419921875
179961,0.015960693359375,-0.0986328125,0.0275726318359375,0.4045123159885406,-0.5145946145057678,-0.1168901324272156,56.92286682128906,93.69577026367188,-43.09930419921875
179962,0.03515625,-0.1030120849609375,0.09228515625,0.1828124225139618,-0.3188892900943756,-0.2265471220016479,56.56895446777344,93.44563293457033,-43.29534912109375
179963,0.03515625,-0.1030120849609375,0.09228515625,0.1828124225139618,-0.3188892900943756,-0.2265471220016479,56.56895446777344,93.44563293457033,-43.29534912109375
179964,0.038055419921875,-0.1124420166015625,0.1013641357421875,0.037417147308588,-0.2002566605806351,-0.2667632400989532,56.520751953125,93.39291381835938,-43.28828430175781
179965,0.0372314453125,-0.1325225830078125,0.0746917724609375,-0.4279643893241882,-0.2395153790712357,-0.3378217220306396,56.32040405273438,93.3591766357422,-42.90159606933594
179966,0.0377655029296875,-0.156890869140625,0.003387451171875,-0.7359198331832886,-0.4529341757297516,-0.3629289269447327,56.1790771484375,93.30892944335938,-42.51387023925781
179967,0.0377655029296875,-0.156890869140625,0.003387451171875,-0.7359198331832886,-0.4529341757297516,-0.3629289269447327,56.1790771484375,93.30892944335938,-42.51387023925781
179968,0.0445556640625,-0.2001953125,-0.1851806640625,-1.286111831665039,-1.975025057792664,-0.3189465701580048,56.06761169433594,93.19207763671876,-41.93142700195312
179969,0.1146697998046875,-0.3459014892578125,-0.668792724609375,-1.323679208755493,-3.141556978225708,-0.226883739233017,55.57832336425781,93.4889678955078,-40.44189453125
179970,0.1898040771484375,-0.13385009765625,-0.4600677490234375,-1.11775004863739,-2.106674194335938,-0.2296369224786758,55.05467224121094,93.87062072753906,-39.88356018066406
179971,0.145416259765625,0.3593292236328125,-0.555145263671875,-0.7177919745445251,-0.6888905167579651,-0.2700743675231934,54.21995544433594,94.34519958496094,-39.48051452636719
179972,0.094757080078125,0.355712890625,-0.272674560546875,-0.4640550315380096,-0.1795729547739029,-0.3014040589332581,53.55958557128906,94.669189453125,-39.06483459472656
179973,0.07550048828125,0.30718994140625,0.15216064453125,-0.6429584622383118,0.2310119122266769,-0.3713740706443787,52.99885559082031,94.96923828125,-38.76139831542969
179974,0.0532989501953125,0.3087005615234375,0.4765777587890625,-1.153431057929993,0.6379802227020264,-0.4941026568412781,52.60108947753906,95.2334442138672,-38.44754028320312
179975,0.0532989501953125,0.3087005615234375,0.4765777587890625,-1.153431057929993,0.6379802227020264,-0.4941026568412781,52.60108947753906,95.2334442138672,-38.44754028320312
179976,0.0740966796875,1.029876708984375,1.003067016601562,-2.529544591903687,2.355355739593506,-1.103402256965637,51.72232055664062,95.93087768554688,-38.01889038085938
179977,0.0993194580078125,3.933822631835938,0.97686767578125,-3.264544486999512,2.973540306091309,-1.467845439910889,51.30033874511719,96.62678527832033,-37.92750549316406
179978,-0.1138458251953125,7.310348510742188,0.6387176513671875,-3.5538010597229,1.978334546089172,-0.4886735379695892,51.15339660644531,97.3525848388672,-37.76148986816406
179979,-1.363815307617188,8.098800659179688,0.6487884521484375,-2.457622051239014,-0.0317281037569046,0.0589184425771236,51.20042419433594,98.34825134277344,-37.45535278320312
179980,-1.363815307617188,8.098800659179688,0.6487884521484375,-2.457622051239014,-0.0317281037569046,0.0589184425771236,51.20042419433594,98.34825134277344,-37.45535278320312
179981,-1.870269775390625,7.127182006835938,0.655242919921875,-0.5137152671813965,-1.01891028881073,-1.179176568984985,51.3946533203125,99.19483947753906,-36.88627624511719
179982,-0.3389892578125,1.244400024414062,-0.2345123291015625,-0.2112888097763062,1.646453499794006,-0.2543758153915405,50.86611938476562,99.59716796875,-35.65158081054688
179983,-0.3389892578125,1.244400024414062,-0.2345123291015625,-0.2112888097763062,1.646453499794006,-0.2543758153915405,50.86611938476562,99.59716796875,-35.65158081054688
179984,0.0273284912109375,0.7425994873046875,-1.213546752929688,-0.0378456488251686,0.0149312792345881,0.8624758720397949,50.38665771484375,99.51570129394533,-35.40658569335938
179985,0.191802978515625,1.612335205078125,0.2170257568359375,0.7788726091384888,-1.698693513870239,1.283364295959473,50.68299865722656,99.2636260986328,-34.9373779296875
179986,0.288055419921875,1.98004150390625,0.404510498046875,0.5661693811416626,-1.320650339126587,1.272145390510559,50.82966613769531,99.10546875,-35.09527587890625
179987,0.288055419921875,1.98004150390625,0.404510498046875,0.5661693811416626,-1.320650339126587,1.272145390510559,50.82966613769531,99.10546875,-35.09527587890625
179988,0.3253021240234375,2.103897094726562,0.357452392578125,-0.0128596061840653,-0.2059238702058792,1.003455400466919,51.11817932128906,98.88015747070312,-35.24507141113281
179989,0.3522796630859375,1.93255615234375,0.0482330322265625,-0.0128596061840653,-0.2059238702058792,1.003455400466919,51.40144348144531,98.61309814453124,-35.44709777832031
179990,0.108245849609375,1.443405151367188,-0.0671844482421875,0.273543119430542,-0.5234456658363342,0.5059079527854919,52.25257873535156,98.34329223632812,-35.3662109375
179991,0.108245849609375,1.443405151367188,-0.0671844482421875,0.273543119430542,-0.5234456658363342,0.5059079527854919,52.25257873535156,98.34329223632812,-35.3662109375
179992,-0.078338623046875,1.183380126953125,0.1033935546875,0.5462103486061096,0.1166126355528831,0.1620490849018097,52.78123474121094,98.28776550292967,-35.404541015625
179993,-0.1153564453125,1.034149169921875,0.00897216796875,0.5462103486061096,0.1166126355528831,0.1620490849018097,53.0537109375,98.1055145263672,-35.67988586425781
179994,-0.1334686279296875,0.8657073974609375,-0.109039306640625,0.5614835619926453,-0.0437224470078945,0.072314940392971,53.28277587890625,97.95587158203124,-35.89303588867188
179995,-0.1455078125,0.7089996337890625,-0.168182373046875,0.638457715511322,-0.3343816995620728,-0.0029342707712203,53.37919616699219,97.8507080078125,-36.18428039550781
179996,-0.1455078125,0.7089996337890625,-0.168182373046875,0.638457715511322,-0.3343816995620728,-0.0029342707712203,53.37919616699219,97.8507080078125,-36.18428039550781
179997,-0.16888427734375,0.3822021484375,-0.1498565673828125,0.8991918563842773,-0.7416328191757202,-0.0428268276154995,53.46630859375,97.55226135253906,-36.91880798339844
179998,-0.229949951171875,0.212493896484375,-0.071441650390625,0.9000104665756226,-0.4777540564537048,0.0612364597618579,53.37504577636719,97.40090942382812,-37.36294555664062
179999,-0.229949951171875,0.212493896484375,-0.071441650390625,0.9000104665756226,-0.4777540564537048,0.0612364597618579,53.37504577636719,97.40090942382812,-37.36294555664062
180000,-0.185272216796875,0.0832061767578125,-0.1571807861328125,0.8067420721054077,-0.1827282756567001,0.2208724617958069,53.20254516601562,97.24154663085938,-37.77383422851562
180001,-0.0035400390625,-0.0985260009765625,-0.3900604248046875,0.7231276035308838,-0.495381236076355,0.4385107755661011,53.12588500976562,96.91302490234376,-38.60255432128906
180002,0.0621337890625,-0.197845458984375,-0.4221343994140625,0.6088340282440186,-0.6007058024406433,0.4936661720275879,53.18519592285156,96.69522094726562,-38.73979187011719
180003,0.1426849365234375,-0.270355224609375,-0.447174072265625,0.3330930173397064,-0.5202088356018066,0.5764811635017395,53.33181762695312,96.46536254882812,-38.90191650390625
180004,0.1426849365234375,-0.270355224609375,-0.447174072265625,0.3330930173397064,-0.5202088356018066,0.5764811635017395,53.33181762695312,96.46536254882812,-38.90191650390625
180005,0.2257232666015625,-0.215240478515625,-0.1434478759765625,0.2969429790973663,-0.3250063061714172,0.5547393560409546,53.56748962402344,96.14691162109376,-39.11338806152344
180006,0.213775634765625,-0.167327880859375,0.0269622802734375,0.2730461955070496,0.0090510193258523,0.4792467653751373,53.59651184082031,96.1234130859375,-39.10151672363281
180007,0.1892852783203125,-0.13726806640625,0.071746826171875,0.2238029986619949,0.3268857002258301,0.3792783319950104,53.79376220703125,96.02833557128906,-39.16500854492188
180008,0.1892852783203125,-0.13726806640625,0.071746826171875,0.2238029986619949,0.3268857002258301,0.3792783319950104,53.79376220703125,96.02833557128906,-39.16500854492188
180009,0.1723175048828125,-0.1217498779296875,-0.1059417724609375,0.0762705355882644,-0.0588177777826786,0.1288389414548874,54.18013000488281,96.02584838867188,-38.85404968261719
180010,0.1700897216796875,-0.116302490234375,-0.1305999755859375,0.0762705355882644,-0.0588177777826786,0.1288389414548874,54.37481689453125,96.07823181152344,-38.59028625488281
180011,0.1700897216796875,-0.116302490234375,-0.1305999755859375,0.0762705355882644,-0.0588177777826786,0.1288389414548874,54.37481689453125,96.07823181152344,-38.59028625488281
180012,0.167877197265625,-0.1074066162109375,-0.104339599609375,0.0818365439772605,-0.293484091758728,0.0485715307295322,54.48976135253906,96.05735778808594,-38.36376953125
180013,0.15045166015625,-0.0892181396484375,0.0367584228515625,0.045521680265665,-0.4044707715511322,-0.1390755921602249,54.51861572265625,95.8463134765625,-37.88084411621094
180014,0.1446533203125,-0.08221435546875,0.1035919189453125,-0.0569128170609474,-0.2604174613952637,-0.2285609990358353,54.467529296875,95.67303466796876,-37.71086120605469
180015,0.140960693359375,-0.0746917724609375,0.1434478759765625,-0.2366362363100052,-0.0514852963387966,-0.3046291470527649,54.328125,95.46296691894533,-37.47628784179688
180016,0.140960693359375,-0.0746917724609375,0.1434478759765625,-0.2366362363100052,-0.0514852963387966,-0.3046291470527649,54.328125,95.46296691894533,-37.47628784179688
180017,0.1264495849609375,-0.00250244140625,0.173675537109375,-0.7231486439704895,0.3947779536247253,-0.4407699406147003,54.15098571777344,95.30418395996094,-36.98265075683594
180018,0.074798583984375,0.0985107421875,0.189178466796875,-0.9913612008094788,0.6417070627212524,-0.5491163730621338,54.0428466796875,95.38539123535156,-36.75091552734375
180019,0.074798583984375,0.0985107421875,0.189178466796875,-0.9913612008094788,0.6417070627212524,-0.5491163730621338,54.0428466796875,95.38539123535156,-36.75091552734375
180020,0.0141754150390625,0.14569091796875,0.2374114990234375,-1.582703590393066,1.226121783256531,-0.8557767271995544,53.95265197753906,95.5644989013672,-36.31948852539062
180021,-0.05322265625,0.3646087646484375,0.498809814453125,-2.352204322814941,1.627631068229675,-1.382602691650391,53.8282470703125,96.0251922607422,-35.19499206542969
180022,-0.1276702880859375,0.48779296875,0.5941162109375,-2.076439619064331,1.479787588119507,-2.323441028594971,53.69831848144531,96.55807495117188,-34.53945922851562
180023,-0.420867919921875,1.954376220703125,0.711456298828125,-2.076439619064331,1.479787588119507,-2.323441028594971,53.65481567382812,97.26173400878906,-33.89717102050781
180024,-0.420867919921875,1.954376220703125,0.711456298828125,-2.076439619064331,1.479787588119507,-2.323441028594971,53.65481567382812,97.26173400878906,-33.89717102050781
180025,-0.809417724609375,4.714630126953125,0.77740478515625,0.2063640952110291,0.3141587376594543,-4.171289920806885,52.6878662109375,98.8117218017578,-32.8994140625
180026,-1.229690551757812,4.91900634765625,1.000579833984375,1.005870342254639,-1.319754242897034,-3.106753587722778,51.45516967773438,99.46121215820312,-33.03242492675781
180027,-1.229690551757812,4.91900634765625,1.000579833984375,1.005870342254639,-1.319754242897034,-3.106753587722778,51.45516967773438,99.46121215820312,-33.03242492675781
180028,-1.538116455078125,4.03692626953125,1.166305541992188,1.696870684623718,-1.631937146186829,-1.953709363937378,49.82681274414062,99.91954040527344,-33.88821411132812
180029,-0.7929840087890625,1.629989624023438,0.4997711181640625,0.9270487427711488,-2.133147716522217,-0.9128476977348328,47.06632995605469,99.93479919433594,-36.17019653320312
180030,-0.7027435302734375,1.22711181640625,0.3740234375,-0.0946498066186904,-2.795433282852173,-0.9392135739326476,46.2584228515625,99.45135498046876,-36.77122497558594
180031,-0.7027435302734375,1.22711181640625,0.3740234375,-0.0946498066186904,-2.795433282852173,-0.9392135739326476,46.2584228515625,99.45135498046876,-36.77122497558594
180032,-0.5840911865234375,1.16033935546875,0.2310791015625,-1.840870380401611,-3.69513988494873,-0.8039806485176086,45.62356567382812,98.75770568847656,-36.9473876953125
180033,-0.2793426513671875,2.169525146484375,0.6578521728515625,-2.670274019241333,-1.506953716278076,-0.336791604757309,44.04856872558594,97.83755493164062,-36.09172058105469
180034,0.123199462890625,2.596359252929688,-0.3492584228515625,-2.837958812713623,0.3657153844833374,0.4519267082214355,43.11654663085938,97.62506103515624,-34.90211486816406
180035,0.123199462890625,2.596359252929688,-0.3492584228515625,-2.837958812713623,0.3657153844833374,0.4519267082214355,43.11654663085938,97.62506103515624,-34.90211486816406
180036,0.55999755859375,2.35943603515625,-0.46990966796875,0.5557281970977783,-3.748263835906982,1.432254195213318,42.00260925292969,98.44781494140624,-32.17919921875
180037,0.3974761962890625,1.986740112304688,0.66204833984375,2.068973064422607,-1.189833998680115,1.355858206748962,41.72874450683594,99.11843872070312,-31.09339904785156
180038,0.31500244140625,1.788803100585938,0.3564300537109375,2.603539705276489,0.9644345045089722,1.221765637397766,41.58073425292969,99.61067199707033,-30.56527709960938
180039,0.167022705078125,1.748779296875,-0.140106201171875,2.477374792098999,1.229887723922729,0.9020541906356812,41.91618347167969,99.58689880371094,-30.9150390625
180040,0.167022705078125,1.748779296875,-0.140106201171875,2.477374792098999,1.229887723922729,0.9020541906356812,41.91618347167969,99.58689880371094,-30.9150390625
180041,-0.01666259765625,1.31390380859375,0.2149200439453125,1.72743284702301,-0.229496568441391,0.4967455863952637,43.43905639648438,98.63128662109376,-33.07429504394531
180042,-0.0472259521484375,1.035354614257812,0.290130615234375,1.560870170593262,-0.5742454528808594,0.5117418169975281,44.12712097167969,98.01799011230467,-34.11392211914062
180043,-0.0472259521484375,1.035354614257812,0.290130615234375,1.560870170593262,-0.5742454528808594,0.5117418169975281,44.12712097167969,98.01799011230467,-34.11392211914062
180044,-0.0645751953125,0.78948974609375,0.2815093994140625,1.552250027656555,-0.9125731587409972,0.6105450987815857,44.63578796386719,97.54949951171876,-34.90640258789062
180045,0.012115478515625,0.4311981201171875,0.2309417724609375,1.535422563552856,-1.440690279006958,0.8380222320556641,45.39445495605469,96.5557861328125,-36.09062194824219
180046,0.0540008544921875,0.2863311767578125,0.21038818359375,1.410632252693176,-1.551500916481018,0.9281616806983948,45.53489685058594,96.29641723632812,-36.54977416992188
180047,0.0664520263671875,0.1515045166015625,0.188507080078125,1.046170949935913,-1.330402612686157,0.9813474416732788,45.69685363769531,96.015625,-37.14505004882812
180048,0.0664520263671875,0.1515045166015625,0.188507080078125,1.046170949935913,-1.330402612686157,0.9813474416732788,45.69685363769531,96.015625,-37.14505004882812
180049,0.0499725341796875,-0.0422821044921875,0.068572998046875,0.911696434020996,-1.109222888946533,0.9484001398086548,45.82014465332031,95.76579284667967,-37.92263793945312
180050,0.05029296875,-0.1136932373046875,-0.2318115234375,0.8302239775657654,-1.061734437942505,0.9147034287452698,45.91159057617188,95.61407470703124,-38.22480773925781
180051,0.05029296875,-0.1136932373046875,-0.2318115234375,0.8302239775657654,-1.061734437942505,0.9147034287452698,45.91159057617188,95.61407470703124,-38.22480773925781
180052,-0.0395660400390625,-0.287994384765625,-0.24639892578125,0.6513897776603699,-1.663660168647766,0.9293177723884584,46.03884887695312,95.36048889160156,-38.59440612792969
180053,-0.17401123046875,-0.2139129638671875,0.1287689208984375,0.6139148473739624,-0.169367715716362,0.8382371664047241,46.08802795410156,95.29747009277344,-38.75193786621094
180054,-0.1798095703125,-0.1249847412109375,0.066253662109375,0.6963319182395935,0.7208353877067566,0.7506593465805054,46.06840515136719,95.09396362304688,-38.78781127929688
180055,-0.17401123046875,-0.0803680419921875,-0.0055084228515625,0.9344792366027832,0.4890911281108856,0.5421996116638184,46.32333374023438,95.00457763671876,-38.93278503417969
180056,-0.17401123046875,-0.0803680419921875,-0.0055084228515625,0.9344792366027832,0.4890911281108856,0.5421996116638184,46.32333374023438,95.00457763671876,-38.93278503417969
180057,-0.2123565673828125,-0.047698974609375,-0.1244659423828125,0.9550854563713074,0.049753975123167,0.3721242845058441,47.27534484863281,94.551025390625,-39.56570434570312
180058,-0.22021484375,-0.0825347900390625,-0.169952392578125,0.7328811287879944,-0.540800154209137,0.0049103363417088,47.6929931640625,94.44200134277344,-39.95599365234375
180059,-0.22021484375,-0.0825347900390625,-0.169952392578125,0.7328811287879944,-0.540800154209137,0.0049103363417088,47.6929931640625,94.44200134277344,-39.95599365234375
180060,-0.18194580078125,-0.1274871826171875,-0.1688690185546875,0.7328811287879944,-0.540800154209137,0.0049103363417088,47.92948913574219,94.28477478027344,-40.39384460449219
180061,-0.0091705322265625,-0.1226959228515625,-0.079254150390625,0.2067350745201111,-0.3951694369316101,-0.1181873604655266,47.88314819335938,94.21159362792967,-41.27772521972656
180062,0.0177764892578125,-0.09832763671875,-0.035797119140625,0.2067350745201111,-0.3951694369316101,-0.1181873604655266,47.62106323242188,94.22621154785156,-41.32772827148438
180063,0.0177764892578125,-0.09832763671875,-0.035797119140625,0.2067350745201111,-0.3951694369316101,-0.1181873604655266,47.62106323242188,94.22621154785156,-41.32772827148438
180064,0.04083251953125,-0.0792388916015625,-0.043914794921875,-0.230985015630722,-0.3159257471561432,-0.1070659980177879,47.27195739746094,94.33894348144533,-41.6588134765625
180065,0.0500640869140625,-0.0851287841796875,-0.0714874267578125,-0.230985015630722,-0.3159257471561432,-0.1070659980177879,47.17279052734375,94.1451416015625,-41.64518737792969
180066,0.0611572265625,-0.09619140625,-0.113983154296875,-0.4323878884315491,-0.5058178901672363,-0.1004589647054672,47.0076904296875,94.3153076171875,-41.4154052734375
180067,0.0872955322265625,-0.125152587890625,-0.17730712890625,-0.6693594455718994,-0.7865646481513977,-0.0946788415312767,46.85520935058594,94.36534118652344,-41.07749938964844
180068,0.1318359375,-0.17315673828125,-0.2417449951171875,-1.228435516357422,-0.6001750230789185,-0.1656089425086975,46.69168090820312,94.37478637695312,-40.69126892089844
180069,0.1881103515625,-0.1898651123046875,-0.2898101806640625,-1.228435516357422,-0.6001750230789185,-0.1656089425086975,46.51812744140625,94.49766540527344,-40.16873168945312
180070,0.2349700927734375,-0.029815673828125,-0.428466796875,-1.268173336982727,-0.3455560803413391,-0.2103164941072464,46.245361328125,94.58644104003906,-39.65687561035156
180071,0.2349700927734375,-0.029815673828125,-0.428466796875,-1.268173336982727,-0.3455560803413391,-0.2103164941072464,46.245361328125,94.58644104003906,-39.65687561035156
180072,0.0367889404296875,0.2620849609375,-0.242919921875,-0.8451416492462158,-0.4315865635871887,-0.3307779133319855,45.70945739746094,95.10163879394533,-38.46455383300781
180073,0.009185791015625,0.251922607421875,0.0049591064453125,-0.7545305490493774,-0.2622143030166626,-0.437358170747757,45.50064086914062,95.19041442871094,-37.784423828125
180074,-0.009124755859375,0.3478851318359375,0.298492431640625,-0.9046425223350524,0.1878987997770309,-0.584884762763977,45.144287109375,95.43077087402344,-37.25831604003906
180075,-0.0107879638671875,0.590789794921875,0.5168304443359375,-1.847757577896118,2.162453413009644,-1.515082240104675,44.6815185546875,95.86880493164062,-37.06221008300781
180076,-0.0107879638671875,0.590789794921875,0.5168304443359375,-1.847757577896118,2.162453413009644,-1.515082240104675,44.6815185546875,95.86880493164062,-37.06221008300781
180077,-0.2820587158203125,5.447891235351562,0.5330963134765625,-1.915017366409302,3.383783102035522,-2.070345640182495,43.59927368164062,96.80517578125,-37.05854797363281
180078,-0.9105682373046876,6.779251098632812,0.073333740234375,-1.561501860618591,2.558321952819824,-2.05830979347229,43.148193359375,97.55438232421876,-37.26338195800781
180079,-0.9105682373046876,6.779251098632812,0.073333740234375,-1.561501860618591,2.558321952819824,-2.05830979347229,43.148193359375,97.55438232421876,-37.26338195800781
180080,-1.933364868164062,6.523101806640625,0.2166290283203125,-0.7632992267608643,1.315878510475159,-1.556730508804321,42.77000427246094,98.2676239013672,-37.68089294433594
180081,-1.22650146484375,2.615142822265625,0.327423095703125,-0.258036881685257,0.4203440248966217,-0.3476322591304779,42.71293640136719,98.75445556640624,-37.54319763183594
180082,-0.7753143310546875,1.857620239257812,0.199005126953125,-0.6571568250656128,0.0861974656581878,0.1581707298755646,42.77923583984375,98.56964111328124,-37.28034973144531
180083,-0.0980987548828125,1.97125244140625,-0.657073974609375,-0.3256050050258636,-1.048611998558044,0.6928192377090454,42.79795837402344,98.08943176269533,-36.63755798339844
180084,-0.0980987548828125,1.97125244140625,-0.657073974609375,-0.3256050050258636,-1.048611998558044,0.6928192377090454,42.79795837402344,98.08943176269533,-36.63755798339844
180085,0.045623779296875,2.258270263671875,-0.670654296875,-0.3256050050258636,-1.048611998558044,0.6928192377090454,42.76705932617188,98.09381103515624,-36.15763854980469
180086,0.109527587890625,2.279098510742188,-0.386688232421875,0.3254611790180206,-0.7430664300918579,0.9503551721572876,42.76675415039062,97.98992919921876,-35.62016296386719
180087,0.109527587890625,2.279098510742188,-0.386688232421875,0.3254611790180206,-0.7430664300918579,0.9503551721572876,42.76675415039062,97.98992919921876,-35.62016296386719
180088,0.166015625,1.905258178710938,-0.19317626953125,1.024619817733765,-0.6311318874359131,1.246159911155701,42.89962768554688,98.0376434326172,-35.40936279296875
180089,0.201141357421875,1.750457763671875,-0.1491546630859375,0.9829445481300354,-0.8843673467636108,1.224939346313477,43.21644592285156,97.9333953857422,-35.54861450195312
180090,0.2151641845703125,1.591232299804688,-0.0765838623046875,0.7901170253753662,-1.063363194465637,1.068743348121643,43.74009704589844,97.69978332519533,-35.78347778320312
180091,0.2151641845703125,1.591232299804688,-0.0765838623046875,0.7901170253753662,-1.063363194465637,1.068743348121643,43.74009704589844,97.69978332519533,-35.78347778320312
180092,0.2289886474609375,1.386123657226562,0.0446319580078125,0.5346599221229553,-1.049440741539001,0.7595873475074768,44.14726257324219,97.38581848144533,-36.11105346679688
180093,0.25299072265625,0.9086761474609376,0.1846771240234375,0.6930647492408752,-0.994180142879486,0.7384732365608215,44.79353332519531,97.00968933105467,-36.54594421386719
180094,0.24609375,0.7037506103515625,0.1214752197265625,0.9756293296813964,-1.047860980033875,0.7746800184249878,45.02984619140625,96.85220336914062,-36.72360229492188
180095,0.24609375,0.7037506103515625,0.1214752197265625,0.9756293296813964,-1.047860980033875,0.7746800184249878,45.02984619140625,96.85220336914062,-36.72360229492188
180096,0.21771240234375,0.5464935302734375,0.118499755859375,1.396155476570129,-0.9198814034461976,0.8193398714065552,45.30795288085938,96.61190795898438,-37.09260559082031
180097,0.143707275390625,0.289581298828125,0.0917816162109375,1.399498343467712,-0.7763016223907471,0.8138604164123535,45.57986450195312,96.09359741210938,-38.05526733398438
180098,0.078582763671875,0.1947021484375,0.041351318359375,1.252258539199829,-0.7216562032699585,0.7609506249427795,45.81056213378906,95.86994934082033,-38.55291748046875
180099,0.078582763671875,0.1947021484375,0.041351318359375,1.252258539199829,-0.7216562032699585,0.7609506249427795,45.81056213378906,95.86994934082033,-38.55291748046875
180100,-0.0506744384765625,0.0125732421875,-0.0591278076171875,0.814799964427948,-0.945466935634613,0.5280672907829285,46.20954895019531,95.31040954589844,-39.36552429199219
180101,-0.091400146484375,-0.0864105224609375,-0.2176513671875,0.6562974452972412,-1.313855290412903,0.4142094254493713,46.33062744140625,95.0956573486328,-39.678466796875
180102,-0.0926666259765625,-0.2006378173828125,-0.4387969970703125,0.5872965455055237,-1.996289253234863,0.3743991553783417,46.34634399414062,94.8383331298828,-39.96910095214844
180103,-0.056732177734375,-0.442230224609375,-0.4761962890625,0.6648799777030945,-2.60737156867981,0.4682236611843109,45.79277038574219,94.679443359375,-40.38566589355469
180104,-0.056732177734375,-0.442230224609375,-0.4761962890625,0.6648799777030945,-2.60737156867981,0.4682236611843109,45.79277038574219,94.679443359375,-40.38566589355469
180105,0.011688232421875,-0.53094482421875,-0.3645477294921875,0.5344655513763428,-0.7492609024047852,0.3993625640869141,45.31172180175781,94.55909729003906,-40.41705322265625
180106,0.1912841796875,-0.3976898193359375,-0.307098388671875,0.588399350643158,0.2233361452817917,0.3143965601921082,45.17247009277344,94.4064483642578,-40.58067321777344
180107,0.2519683837890625,-0.273468017578125,-0.1377105712890625,0.6919448971748352,0.2172697335481644,0.2406469583511353,45.29318237304688,94.18890380859376,-40.784912109375
180108,0.2519683837890625,-0.273468017578125,-0.1377105712890625,0.6919448971748352,0.2172697335481644,0.2406469583511353,45.29318237304688,94.18890380859376,-40.784912109375
180109,0.214111328125,-0.15692138671875,0.068084716796875,0.6847556829452515,-0.1323561817407608,0.0743517279624939,45.57395935058594,93.87130737304688,-41.09980773925781
180110,0.1910400390625,-0.139923095703125,0.037139892578125,0.6039511561393738,-0.3038677573204041,0.0172093473374843,45.58447265625,93.80001831054688,-41.41111755371094
180111,0.1727294921875,-0.134765625,-0.0078277587890625,0.5199893712997437,-0.4769079685211182,-0.009678459726274,45.5460205078125,93.71852111816406,-41.55351257324219
180112,0.1727294921875,-0.134765625,-0.0078277587890625,0.5199893712997437,-0.4769079685211182,-0.009678459726274,45.5460205078125,93.71852111816406,-41.55351257324219
180113,0.1495361328125,-0.1501617431640625,-0.0453033447265625,0.298905223608017,-0.8337334394454956,0.0141887897625565,45.23834228515625,93.7340850830078,-41.67280578613281
180114,0.14434814453125,-0.1585540771484375,-0.0164794921875,0.1765840947628021,-0.9444032311439514,0.0459360666573047,45.09994506835938,93.62472534179688,-41.63568115234375
180115,0.1353759765625,-0.154754638671875,0.083770751953125,0.0361180566251277,-0.8786210417747498,0.0678032785654068,44.89884948730469,93.44683837890624,-41.40702819824219
180116,0.1184539794921875,-0.1441497802734375,0.1897125244140625,-0.1725219637155533,-0.6306208372116089,0.059197012335062,44.73796081542969,93.30783081054688,-41.1571044921875
180117,0.0904541015625,-0.1275177001953125,0.261566162109375,-0.4691690802574158,-0.2873787879943848,0.0073141055181622,44.55598449707031,93.28884887695312,-40.65789794921875
180118,0.045989990234375,-0.079559326171875,0.288970947265625,-0.8468855023384094,0.0310173034667968,-0.1060441434383392,44.49223327636719,93.32171630859376,-40.302001953125
180119,0.045989990234375,-0.079559326171875,0.288970947265625,-0.8468855023384094,0.0310173034667968,-0.1060441434383392,44.49223327636719,93.32171630859376,-40.302001953125
180120,-0.0549774169921875,0.17633056640625,0.37060546875,-1.671254754066467,0.6740846633911133,-0.6103509664535522,44.62939453125,93.72215270996094,-39.51058959960938
180121,-0.072113037109375,0.2363433837890625,0.4294281005859375,-2.121137857437134,0.9009106159210204,-0.833393394947052,44.6553955078125,94.11799621582033,-38.6697998046875
180122,-0.1002044677734375,0.4470672607421875,0.6266937255859375,-3.079823970794678,1.316268444061279,-1.496030211448669,44.63273620605469,94.63787841796876,-37.90638732910156
180123,-0.16522216796875,0.7213134765625,0.786651611328125,-2.908343076705933,1.268087029457092,-2.588793039321899,44.37686157226562,95.27439880371094,-36.93301391601562
180124,-0.5803375244140625,2.522384643554688,1.07366943359375,-2.908343076705933,1.268087029457092,-2.588793039321899,43.94279479980469,96.09342956542967,-36.12486267089844
180125,-0.7390289306640625,5.029510498046875,1.231292724609375,-1.505359530448914,1.658947467803955,-3.677257537841797,43.35943603515625,96.81471252441406,-35.51716613769531
180126,-0.671478271484375,6.88128662109375,1.146652221679688,0.0220288690179586,0.0640985593199729,-1.931663155555725,42.37168884277344,97.72047424316406,-35.41595458984375
180127,-1.158370971679688,4.461761474609375,0.44952392578125,1.809793949127197,-0.7487226724624634,-0.5449535846710205,41.22505187988281,98.53034973144533,-37.15834045410156
180128,-1.158370971679688,4.461761474609375,0.44952392578125,1.809793949127197,-0.7487226724624634,-0.5449535846710205,41.22505187988281,98.53034973144533,-37.15834045410156
180129,-0.39178466796875,1.948867797851562,0.0185089111328125,-1.02802574634552,-4.193813800811768,-1.48200786113739,41.18447875976562,98.02116394042967,-37.79232788085938
180130,-0.2615203857421875,0.9370574951171876,0.2465057373046875,-2.660606861114502,-2.224603414535522,-1.480433940887451,40.72357177734375,97.08392333984376,-37.83659362792969
180131,-0.2525177001953125,0.551849365234375,0.678192138671875,-3.756015777587891,-0.4463090300559998,-0.8558134436607361,39.5828857421875,96.60261535644533,-37.26615905761719
180132,0.0153045654296875,1.063369750976562,-0.3304443359375,-3.756015777587891,-0.4463090300559998,-0.8558134436607361,38.34300231933594,96.42202758789062,-35.89234924316406
180133,0.1371917724609375,2.054550170898438,-1.802658081054688,-3.312890768051147,-2.639935970306396,-0.3591738641262054,37.45860290527344,96.48768615722656,-34.28706359863281
180134,0.16339111328125,2.629867553710938,-0.9720306396484376,-1.102579593658447,-4.122693061828613,0.1118210703134537,36.84095764160156,96.7615966796875,-32.38047790527344
180135,0.282806396484375,2.679153442382812,0.2803955078125,1.142085433006287,-2.546597480773926,0.6712353825569153,36.23255920410156,97.08967590332033,-30.71269226074219
180136,0.282806396484375,2.679153442382812,0.2803955078125,1.142085433006287,-2.546597480773926,0.6712353825569153,36.23255920410156,97.08967590332033,-30.71269226074219
180137,0.095855712890625,1.850128173828125,-0.0725555419921875,2.024113178253174,0.6174754500389099,0.841532289981842,35.8572998046875,97.1737823486328,-29.87408447265625
180138,-0.0164947509765625,1.596923828125,-0.132293701171875,1.683619260787964,0.2651222050189972,0.7976793050765991,36.26853942871094,96.88555908203124,-30.46783447265625
180139,-0.048492431640625,1.410308837890625,0.165679931640625,1.467776775360107,-0.0526032894849777,0.6300013661384583,36.74488830566406,96.52857971191406,-31.33134460449219
180140,-0.05462646484375,1.174285888671875,0.2769927978515625,1.467776775360107,-0.0526032894849777,0.6300013661384583,37.17501831054688,96.17723083496094,-32.11695861816406
180141,-0.065826416015625,0.946014404296875,0.2476043701171875,1.542427778244019,-0.1249107792973518,0.5873798727989197,37.69010925292969,95.89944458007812,-32.74186706542969
180142,-0.0682220458984375,0.7331695556640625,0.2011566162109375,1.586524963378906,-0.2180793285369873,0.5582776665687561,38.03337097167969,95.74671936035156,-33.38931274414062
180143,-0.0482330322265625,0.54412841796875,0.148040771484375,1.437760233879089,-0.4263249635696411,0.5387710928916931,38.29510498046875,95.61257934570312,-34.01506042480469
180144,-0.0482330322265625,0.54412841796875,0.148040771484375,1.437760233879089,-0.4263249635696411,0.5387710928916931,38.29510498046875,95.61257934570312,-34.01506042480469
180145,0.0487518310546875,0.183135986328125,-0.113677978515625,1.243304252624512,-0.7568104267120361,0.6170549392700195,38.74601745605469,95.0341796875,-35.04600524902344
180146,0.0783843994140625,0.0310821533203125,-0.23406982421875,0.7950582504272461,-1.862971425056458,0.8122542500495911,38.9066162109375,94.9164581298828,-35.55268859863281
180147,0.10479736328125,-0.159423828125,-0.266387939453125,0.6583248972892761,-2.235723495483398,0.8854008913040161,38.95771789550781,94.50735473632812,-36.26948547363281
180148,0.10479736328125,-0.159423828125,-0.266387939453125,0.6583248972892761,-2.235723495483398,0.8854008913040161,38.95771789550781,94.50735473632812,-36.26948547363281
180149,0.1059417724609375,-0.21527099609375,-0.32672119140625,0.618289589881897,-2.469347476959229,0.9460203051567078,38.82424926757812,94.35891723632812,-36.23284912109375
180150,0.0852813720703125,-0.303863525390625,-0.290496826171875,0.5817638039588928,-0.536693274974823,0.9258053302764891,38.73945617675781,94.26748657226562,-36.19158935546875
180151,0.0381317138671875,-0.4584197998046875,-0.1828765869140625,0.5817638039588928,-0.536693274974823,0.9258053302764891,38.51016235351562,94.29167175292967,-36.08683776855469
180152,0.0381317138671875,-0.4584197998046875,-0.1828765869140625,0.5817638039588928,-0.536693274974823,0.9258053302764891,38.51016235351562,94.29167175292967,-36.08683776855469
180153,0.05462646484375,-0.442413330078125,-0.2700653076171875,0.6839884519577026,0.9434431791305542,0.8604037165641785,38.4573974609375,94.1903839111328,-35.96885681152344
180154,0.067901611328125,-0.2496795654296875,0.0159759521484375,0.6727033257484436,0.3758782744407654,0.7478587627410889,39.3704833984375,93.97404479980467,-36.14128112792969
180155,0.0192108154296875,-0.2148284912109375,-0.042449951171875,0.6038272976875305,0.0474524684250354,0.6632440090179443,40.4815673828125,94.06002807617188,-36.72744750976562
180156,0.0192108154296875,-0.2148284912109375,-0.042449951171875,0.6038272976875305,0.0474524684250354,0.6632440090179443,40.4815673828125,94.06002807617188,-36.72744750976562
180157,0.0023040771484375,-0.24072265625,-0.1104888916015625,0.5377968549728394,-0.1647506058216095,0.5892238616943359,40.89309692382812,94.09840393066406,-37.03594970703125
180158,-0.0214996337890625,-0.2673492431640625,-0.081756591796875,0.4194678366184235,-0.0020900487434118,0.4932382106781006,41.16476440429688,94.31863403320312,-37.27272033691406
180159,-0.031005859375,-0.2597503662109375,-0.043731689453125,0.2326705306768417,0.4101324081420898,0.3644759654998779,41.46257019042969,94.34829711914062,-37.43153381347656
180160,-0.0206756591796875,-0.2222137451171875,-0.0305633544921875,0.0045241778716444,0.6462543606758118,0.2560179233551025,41.73905944824219,94.42588806152344,-37.57518005371094
180161,-0.016387939453125,-0.1876983642578125,0.0001678466796875,-0.231603130698204,0.6711893081665039,0.1657301038503647,42.15213012695312,94.37263488769533,-37.46781921386719
180162,-0.026947021484375,-0.157958984375,0.069732666015625,-0.4604800045490265,0.6223836541175842,0.0871756449341774,42.454833984375,94.39314270019533,-37.31147766113281
180163,-0.06707763671875,-0.10736083984375,0.14227294921875,-0.8401029706001282,0.7115481495857239,-0.0185627657920122,42.79312133789062,94.4644775390625,-37.25447082519531
180164,-0.088348388671875,-0.0252532958984375,0.1809844970703125,-0.8401029706001282,0.7115481495857239,-0.0185627657920122,43.04006958007812,94.5096435546875,-36.88619995117188
180165,-0.0778350830078125,0.0314483642578125,0.1605224609375,-1.017659306526184,0.744412362575531,-0.0729636922478675,43.272705078125,94.68617248535156,-36.64404296875
180166,-0.071807861328125,0.068115234375,0.127166748046875,-1.233957529067993,0.6693767309188843,-0.1559168994426727,43.47119140625,94.96403503417967,-36.33843994140625
180167,-0.06365966796875,0.09478759765625,0.098114013671875,-1.466306447982788,0.4807458519935608,-0.2427135705947876,43.54110717773438,95.2384796142578,-35.89680480957031
180168,-0.04571533203125,0.114593505859375,0.0789794921875,-1.810966849327087,-0.1651631295681,-0.4055661559104919,43.58319091796875,95.59123229980467,-35.63296508789062
180169,-0.02685546875,0.1305389404296875,0.1076812744140625,-1.810966849327087,-0.1651631295681,-0.4055661559104919,43.45829772949219,95.95401000976562,-35.16807556152344
180170,-0.0089263916015625,0.150909423828125,0.1947784423828125,-1.827213406562805,-0.3083996474742889,-0.4931918680667877,43.13577270507812,96.40782165527344,-34.68058776855469
180171,0.0097503662109375,0.192413330078125,0.35089111328125,-1.641031622886658,0.4837101995944977,-0.7649461627006531,42.74462890625,96.80392456054688,-34.27218627929688
180172,0.0097503662109375,0.192413330078125,0.35089111328125,-1.641031622886658,0.4837101995944977,-0.7649461627006531,42.74462890625,96.80392456054688,-34.27218627929688
180173,0.0884552001953125,0.8173370361328125,0.7398529052734375,-1.7365483045578,1.363623380661011,-0.9827075004577636,41.55906677246094,97.49627685546876,-33.49374389648438
180174,0.24493408203125,3.062820434570312,0.7764129638671875,-1.827686429023743,2.145023107528687,-0.9279994964599608,41.00190734863281,97.9150390625,-33.33982849121094
180175,0.0718536376953125,4.732376098632812,0.61920166015625,-1.282116532325745,-0.3621310591697693,-0.066005915403366,40.45858764648438,98.14866638183594,-32.94003295898438
180176,0.0718536376953125,4.732376098632812,0.61920166015625,-1.282116532325745,-0.3621310591697693,-0.066005915403366,40.45858764648438,98.14866638183594,-32.94003295898438
180177,-0.6787567138671875,7.3994140625,1.094528198242188,-0.9428788423538208,-1.597300887107849,-0.2794840931892395,40.0535888671875,99.09011840820312,-32.58096313476562
180178,-0.464630126953125,5.376373291015625,1.203994750976562,-0.8072560429573059,-1.221279859542847,-0.5184229016304016,39.87995910644531,99.46456909179688,-32.34895324707031
180179,-0.1565704345703125,2.942184448242188,0.7493896484375,-0.7627444863319397,-0.7765407562255859,-0.520639181137085,39.586181640625,99.5102081298828,-31.86630249023438
180180,-0.1565704345703125,2.942184448242188,0.7493896484375,-0.7627444863319397,-0.7765407562255859,-0.520639181137085,39.586181640625,99.5102081298828,-31.86630249023438
180181,-0.11651611328125,1.3131103515625,0.125762939453125,-0.2090807855129242,1.048973560333252,-0.2171363085508347,38.85331726074219,99.32267761230467,-30.42610168457031
180182,-0.1196746826171875,1.453399658203125,-0.486083984375,0.2668945491313934,1.151419520378113,0.1284535825252533,38.60801696777344,99.35862731933594,-29.93252563476562
180183,-0.08721923828125,2.0416259765625,-0.864959716796875,0.3936626017093658,-0.7886733412742615,0.4770832061767578,38.60301208496094,99.41651916503906,-29.94056701660156
180184,-0.08721923828125,2.0416259765625,-0.864959716796875,0.3936626017093658,-0.7886733412742615,0.4770832061767578,38.60301208496094,99.41651916503906,-29.94056701660156
180185,0.2217864990234375,1.93890380859375,0.16009521484375,0.1916056573390961,-0.5870397686958313,0.6126921772956848,38.90618896484375,99.27009582519533,-30.427001953125
