time_idx,accelerometerAccelerationX(G),accelerometerAccelerationY(G),accelerometerAccelerationZ(G),gyroRotationX(rad/s),gyroRotationY(rad/s),gyroRotationZ(rad/s),magnetometerX(µT),magnetometerY(µT),magnetometerZ(µT)
244328,-0.0257720947265625,-0.0280914306640625,0.117706298828125,0.7133527398109436,0.2231683731079102,0.0712890923023223,75.38363647460938,93.55068969726562,-27.61625671386719
244329,0.0050048828125,-0.0621490478515625,0.192901611328125,0.7707057595252991,0.4608008861541748,-0.0241364948451519,75.54197692871094,93.43109130859376,-27.74299621582031
244330,0.0050048828125,-0.0621490478515625,0.192901611328125,0.7707057595252991,0.4608008861541748,-0.0241364948451519,75.54197692871094,93.43109130859376,-27.74299621582031
244331,0.00933837890625,-0.104461669921875,0.2123260498046875,0.6183303594589233,1.008405447006226,-0.1616844981908798,76.06208801269531,93.30027770996094,-28.30123901367188
244332,-0.0025634765625,-0.09991455078125,0.1880645751953125,0.4515472054481506,1.209965467453003,-0.2235167175531387,76.21429443359375,93.14083862304688,-28.25157165527344
244333,-0.0025634765625,-0.09991455078125,0.1880645751953125,0.4515472054481506,1.209965467453003,-0.2235167175531387,76.21429443359375,93.14083862304688,-28.25157165527344
244334,-0.029388427734375,-0.0825653076171875,0.0926055908203125,0.0053558833897113,1.321075916290283,-0.3644285500049591,76.67594909667969,92.96804809570312,-28.07115173339844
244335,-0.048675537109375,-0.071807861328125,0.054168701171875,-0.2446736693382263,1.170915722846985,-0.4510965943336487,76.95033264160156,93.04620361328124,-27.77926635742188
244336,-0.07452392578125,-0.0587005615234375,0.041961669921875,-0.4938131868839264,0.9151076674461364,-0.5630266070365906,77.09434509277344,93.22935485839844,-27.40249633789062
244337,-0.07452392578125,-0.0587005615234375,0.041961669921875,-0.4938131868839264,0.9151076674461364,-0.5630266070365906,77.09434509277344,93.22935485839844,-27.40249633789062
244338,-0.16839599609375,-0.03826904296875,0.115875244140625,-1.227572679519653,0.0563463643193244,-1.053862690925598,77.35658264160156,93.58659362792967,-26.42945861816406
244339,-0.247406005859375,-0.0055389404296875,0.1992034912109375,-1.227572679519653,0.0563463643193244,-1.053862690925598,77.27294921875,93.8881378173828,-25.7447509765625
244340,-0.385345458984375,0.0614776611328125,0.3174285888671875,-1.484175682067871,-0.033430129289627,-1.296464920043945,77.1026611328125,94.29135131835938,-25.03428649902344
244341,-0.385345458984375,0.0614776611328125,0.3174285888671875,-1.484175682067871,-0.033430129289627,-1.296464920043945,77.1026611328125,94.29135131835938,-25.03428649902344
244342,-0.6105499267578125,0.1681365966796875,0.519287109375,-1.76595413684845,0.1108088046312332,-1.490724325180054,76.74897766113281,94.96420288085938,-24.53707885742188
244343,-0.9511566162109376,0.4027862548828125,0.8358154296875,-2.009984493255615,0.6342310309410095,-1.481451511383057,76.25175476074219,95.68898010253906,-23.88548278808594
244344,-1.545394897460938,1.251983642578125,1.323043823242188,-1.901884436607361,3.057874917984009,-0.7129412889480591,74.78840637207031,97.11148071289062,-22.14161682128906
244345,-1.601715087890625,2.252639770507812,1.1146240234375,-1.339602470397949,3.517719507217407,-0.6178815960884094,74.19357299804688,97.7158660888672,-21.01020812988281
244346,-1.601715087890625,2.252639770507812,1.1146240234375,-1.339602470397949,3.517719507217407,-0.6178815960884094,74.19357299804688,97.7158660888672,-21.01020812988281
244347,-0.1129608154296875,5.402816772460938,0.4569244384765625,0.929408609867096,1.871742248535156,1.681775569915771,73.31855773925781,98.72892761230467,-18.83203125
244348,0.272979736328125,5.745086669921875,-0.366302490234375,1.120546817779541,1.502406597137451,3.16719913482666,73.36204528808594,98.8759307861328,-18.40620422363281
244349,0.2334442138671875,4.016525268554688,-2.122634887695312,-0.477260559797287,-2.111602067947388,0.9701027870178224,74.11317443847656,98.68301391601562,-18.54208374023438
244350,0.2334442138671875,4.016525268554688,-2.122634887695312,-0.477260559797287,-2.111602067947388,0.9701027870178224,74.11317443847656,98.68301391601562,-18.54208374023438
244351,-0.0612030029296875,1.681732177734375,0.1869049072265625,-2.45265793800354,-4.001666069030762,-2.379110813140869,75.57717895507812,97.23846435546876,-18.36424255371094
244352,0.2810211181640625,1.40972900390625,0.3122100830078125,-2.803742170333862,-2.868728637695312,-2.075532674789429,75.155029296875,96.85440063476562,-18.37640380859375
244353,0.2810211181640625,1.40972900390625,0.3122100830078125,-2.803742170333862,-2.868728637695312,-2.075532674789429,75.155029296875,96.85440063476562,-18.37640380859375
244354,0.8814697265625,1.727188110351562,-0.1463165283203125,-2.75920033454895,-2.565482378005981,-0.8497433066368103,74.06155395507812,96.8017120361328,-18.32852172851562
244355,1.722259521484375,2.250244140625,-1.456741333007812,0.6488134264945984,-0.990228533744812,1.441253781318665,72.19529724121094,96.86515808105467,-17.04151916503906
244356,1.110382080078125,2.315444946289062,-0.6590423583984375,2.495090484619141,-1.086090922355652,0.9274447560310364,72.17959594726562,96.78857421875,-16.7510986328125
244357,1.110382080078125,2.315444946289062,-0.6590423583984375,2.495090484619141,-1.086090922355652,0.9274447560310364,72.17959594726562,96.78857421875,-16.7510986328125
244358,0.8423309326171875,1.968063354492188,-0.2843780517578125,2.986332654953003,-1.305335402488708,0.2890533804893494,72.57864379882812,96.4874267578125,-16.95233154296875
244359,0.3858642578125,1.318023681640625,0.0736083984375,2.107478380203247,-1.645114779472351,0.2690229415893555,73.29084777832031,95.95423889160156,-19.67984008789062
244360,0.298309326171875,1.080734252929688,0.1345367431640625,1.731916546821594,-1.397036790847778,0.4360044598579407,73.36795043945312,95.70213317871094,-21.28558349609375
244361,0.298309326171875,1.080734252929688,0.1345367431640625,1.731916546821594,-1.397036790847778,0.4360044598579407,73.36795043945312,95.70213317871094,-21.28558349609375
244362,0.2218170166015625,0.6092529296875,-0.0615997314453125,1.561417937278748,-1.122288584709167,0.8003057241439819,73.63432312011719,95.02882385253906,-23.64083862304688
244363,0.1832122802734375,0.4383697509765625,-0.1212310791015625,1.561417937278748,-1.122288584709167,0.8003057241439819,73.93751525878906,94.80001831054688,-24.57052612304688
244364,0.1144256591796875,0.329803466796875,-0.015380859375,1.66331958770752,-0.9761534333229064,0.820328414440155,74.1197509765625,94.56184387207033,-25.40939331054688
244365,0.1144256591796875,0.329803466796875,-0.015380859375,1.66331958770752,-0.9761534333229064,0.820328414440155,74.1197509765625,94.56184387207033,-25.40939331054688
244366,0.01806640625,0.2857208251953125,0.079437255859375,1.606974005699158,-0.1693211197853088,0.5356186628341675,74.36968994140625,94.44325256347656,-26.31356811523438
244367,-0.2303466796875,0.3203887939453125,0.1534271240234375,1.075870156288147,0.6010469794273376,-0.179280012845993,74.78660583496094,93.99075317382812,-28.13792419433594
244368,-0.3283538818359375,0.3197174072265625,0.25799560546875,1.075870156288147,0.6010469794273376,-0.179280012845993,75.1048583984375,93.73361206054688,-28.85157775878906
244369,-0.347198486328125,0.2462005615234375,0.3081207275390625,0.7144201397895813,1.295371413230896,-0.6392630338668823,75.23765563964844,93.60096740722656,-29.33309936523438
244370,-0.347198486328125,0.2462005615234375,0.3081207275390625,0.7144201397895813,1.295371413230896,-0.6392630338668823,75.23765563964844,93.60096740722656,-29.33309936523438
244371,-0.3980865478515625,0.0742340087890625,0.170196533203125,0.6570263504981995,1.295269370079041,-0.7094799280166626,75.4630126953125,93.42562866210938,-29.55657958984375
244372,-0.4354400634765625,-0.026947021484375,0.0828857421875,0.6850627660751343,1.126023650169373,-0.7323234677314758,75.53652954101562,93.35626220703124,-29.46978759765625
244373,-0.4354400634765625,-0.026947021484375,0.0828857421875,0.6850627660751343,1.126023650169373,-0.7323234677314758,75.53652954101562,93.35626220703124,-29.46978759765625
244374,-0.4514923095703125,-0.1376190185546875,0.01611328125,0.7505424618721008,0.8491874933242798,-0.6872817277908325,75.59529113769531,93.47996520996094,-29.61541748046875
244375,-0.4624786376953125,-0.2279815673828125,0.0259857177734375,0.7841928005218506,0.6280330419540405,-0.5775983333587646,75.45576477050781,93.6196746826172,-29.86373901367188
244376,-0.40875244140625,-0.3041534423828125,0.1182861328125,0.5941262245178223,0.8856845498085022,-0.2682519555091858,75.22702026367188,93.705810546875,-30.19087219238281
244377,-0.40875244140625,-0.3041534423828125,0.1182861328125,0.5941262245178223,0.8856845498085022,-0.2682519555091858,75.22702026367188,93.705810546875,-30.19087219238281
244378,-0.334991455078125,-0.3117218017578125,0.1213531494140625,0.3476312160491943,1.242956876754761,-0.1255539357662201,75.03128051757812,93.81906127929688,-30.25743103027344
244379,-0.1978302001953125,-0.2733001708984375,0.037353515625,-0.1612354964017868,1.664435744285583,0.0295123513787984,75.17613220214844,94.14480590820312,-30.00399780273438
244380,-0.16217041015625,-0.2617950439453125,0.0063323974609375,-0.3944887220859528,1.469041466712952,-0.0084419539198279,75.41047668457031,94.23985290527344,-29.43144226074219
244381,-0.16217041015625,-0.2617950439453125,0.0063323974609375,-0.3944887220859528,1.469041466712952,-0.0084419539198279,75.41047668457031,94.23985290527344,-29.43144226074219
244382,-0.13226318359375,-0.2454376220703125,-0.021240234375,-0.3944887220859528,1.469041466712952,-0.0084419539198279,75.71736145019531,94.35813903808594,-28.68565368652344
244383,-0.1015777587890625,-0.2326812744140625,-0.0450592041015625,-0.6111592650413513,0.7744142413139343,-0.1366499960422516,76.42111206054688,94.4864501953125,-27.26039123535156
244384,-0.0812530517578125,-0.2136993408203125,-0.021728515625,-0.8192205429077148,0.3868193626403809,-0.2051430344581604,76.65983581542969,94.59490966796876,-26.61665344238281
244385,-0.0812530517578125,-0.2136993408203125,-0.021728515625,-0.8192205429077148,0.3868193626403809,-0.2051430344581604,76.65983581542969,94.59490966796876,-26.61665344238281
244386,-0.049407958984375,-0.181182861328125,0.017578125,-1.083607792854309,0.1221368312835693,-0.2702876925468445,76.701171875,94.66885375976562,-25.90690612792969
244387,-0.00067138671875,-0.1212005615234375,0.064910888671875,-1.386265873908997,0.0533495061099529,-0.3373162448406219,76.76406860351562,94.86602783203124,-25.49533081054688
244388,0.0112152099609375,0.089141845703125,0.14410400390625,-2.103342771530151,-0.0762540251016616,-0.3476375937461853,76.34951782226562,95.44967651367188,-24.69380187988281
244389,-0.0106353759765625,0.202178955078125,0.3473052978515625,-2.546944618225098,-0.0714219883084297,-0.3129134476184845,76.08506774902344,95.71421813964844,-24.38542175292969
244390,-0.0106353759765625,0.202178955078125,0.3473052978515625,-2.546944618225098,-0.0714219883084297,-0.3129134476184845,76.08506774902344,95.71421813964844,-24.38542175292969
244391,-0.0649871826171875,1.84771728515625,1.214141845703125,-3.31553840637207,0.97101491689682,-0.7720208168029785,74.76533508300781,96.39143371582033,-23.73426818847656
244392,-0.186004638671875,5.615127563476562,1.6102294921875,-2.478055953979492,2.059332132339478,-0.8205654621124268,74.06132507324219,96.64048767089844,-22.8680419921875
244393,-0.186004638671875,5.615127563476562,1.6102294921875,-2.478055953979492,2.059332132339478,-0.8205654621124268,74.06132507324219,96.64048767089844,-22.8680419921875
244394,-0.684173583984375,7.945755004882812,1.591766357421875,-1.263568997383118,2.32900595664978,0.0389311537146568,73.51591491699219,96.86634826660156,-21.70542907714844
244395,-0.610595703125,5.774429321289062,-0.296630859375,0.9210073947906494,-0.0038546593859791,-0.7394535541534424,73.34928894042969,97.50274658203124,-20.4140625
244396,-0.2117462158203125,2.166748046875,-0.859832763671875,-0.2760169506072998,-0.9901233315467834,-0.8305554986000061,73.60462951660156,97.19094848632812,-20.31639099121094
244397,-0.2117462158203125,2.166748046875,-0.859832763671875,-0.2760169506072998,-0.9901233315467834,-0.8305554986000061,73.60462951660156,97.19094848632812,-20.31639099121094
244398,0.1753387451171875,0.477691650390625,-0.98297119140625,-1.359105348587036,-1.626458764076233,0.1958379447460175,73.17599487304688,96.7776336669922,-19.58317565917969
244399,0.317108154296875,0.8683013916015625,-0.712493896484375,0.1156307235360146,-0.2963991761207581,0.1025042682886124,72.92835998535156,96.81289672851562,-18.91447448730469
244400,0.1337432861328125,1.53973388671875,-0.762237548828125,1.492644309997559,0.696441650390625,0.109606921672821,72.59059143066406,96.9386749267578,-18.30216979980469
244401,0.1337432861328125,1.53973388671875,-0.762237548828125,1.492644309997559,0.696441650390625,0.109606921672821,72.59059143066406,96.9386749267578,-18.30216979980469
244402,-0.0067901611328125,1.738616943359375,-0.5440826416015625,1.852505803108215,0.7752403020858765,0.1726655215024948,72.58201599121094,97.00765991210938,-18.2073974609375
244403,0.3738250732421875,1.483856201171875,-0.2974395751953125,0.7827935814857483,0.4128725230693817,0.0678610727190971,72.68272399902344,96.4743194580078,-19.21934509277344
244404,0.5091705322265625,1.320770263671875,-0.366119384765625,0.7058929204940796,0.2952390909194946,0.1582141369581223,72.8287353515625,96.24708557128906,-19.63261413574219
244405,0.5091705322265625,1.320770263671875,-0.366119384765625,0.7058929204940796,0.2952390909194946,0.1582141369581223,72.8287353515625,96.24708557128906,-19.63261413574219
244406,0.6118011474609375,1.180374145507812,-0.454193115234375,1.065966129302979,0.0980456098914146,0.3418707847595215,72.82762145996094,96.06744384765624,-19.96427917480469
244407,0.589508056640625,1.058135986328125,-0.5177001953125,1.823208808898926,-0.0818373411893844,0.4654347896575928,73.02430725097656,95.75741577148438,-20.55804443359375
244408,0.4975128173828125,0.8936920166015625,-0.51019287109375,1.851826906204224,-0.1092239618301392,0.4388055801391602,73.23849487304688,95.61172485351562,-21.04312133789062
244409,0.4975128173828125,0.8936920166015625,-0.51019287109375,1.851826906204224,-0.1092239618301392,0.4388055801391602,73.23849487304688,95.61172485351562,-21.04312133789062
244410,0.4097442626953125,0.6679840087890625,-0.4684295654296875,1.780548691749573,-0.1046949848532677,0.4760727882385254,73.28106689453125,95.47810363769533,-21.72308349609375
244411,0.2738494873046875,0.34716796875,-0.2476043701171875,1.575752973556519,0.1953029185533524,0.6096073985099792,73.52798461914062,95.22061157226562,-23.4676513671875
244412,0.172454833984375,0.2564239501953125,-0.133026123046875,1.419603824615479,0.4586458802223206,0.6448870897293091,73.70899963378906,94.859375,-24.14663696289062
244413,0.0560150146484375,0.2097625732421875,0.003936767578125,1.252299308776855,0.7275652289390564,0.6436998844146729,74.076171875,94.759033203125,-24.918701171875
244414,0.0560150146484375,0.2097625732421875,0.003936767578125,1.252299308776855,0.7275652289390564,0.6436998844146729,74.076171875,94.759033203125,-24.918701171875
244415,-0.170623779296875,0.18353271484375,0.20269775390625,0.9412388801574708,1.399330496788025,0.4501152336597443,74.67230224609375,94.39340209960938,-25.72415161132812
244416,-0.222320556640625,0.1123809814453125,0.178497314453125,0.7770954966545105,1.636701822280884,0.2997651398181915,74.95867919921875,94.11781311035156,-25.89018249511719
244417,-0.222320556640625,0.1123809814453125,0.178497314453125,0.7770954966545105,1.636701822280884,0.2997651398181915,74.95867919921875,94.11781311035156,-25.89018249511719
244418,-0.250274658203125,0.011749267578125,0.1066131591796875,0.6254423260688782,1.642518758773804,0.1655447483062744,75.48190307617188,93.9548797607422,-26.06031799316406
244419,-0.2706756591796875,-0.1945648193359375,0.0343475341796875,0.4781415462493896,1.291463255882263,0.0569106861948967,76.30450439453125,93.43449401855467,-25.95445251464844
244420,-0.24896240234375,-0.257904052734375,0.0479278564453125,0.4455697536468506,1.207559823989868,0.0702517926692962,76.62889099121094,93.36546325683594,-25.806884765625
244421,-0.24896240234375,-0.257904052734375,0.0479278564453125,0.4455697536468506,1.207559823989868,0.0702517926692962,76.62889099121094,93.36546325683594,-25.806884765625
244422,-0.2247314453125,-0.2802734375,0.0884246826171875,0.2335001081228256,1.724689722061157,0.1090239584445953,76.83181762695312,93.41033935546876,-25.73823547363281
244423,-0.1706695556640625,-0.265625,0.0176544189453125,0.0443717241287231,2.03502631187439,0.1181540712714195,77.11225891113281,93.40109252929688,-25.45973205566406
244424,-0.1410980224609375,-0.255584716796875,-0.03631591796875,-0.1457793116569519,2.183854103088379,0.1158203408122063,77.34577941894531,93.42790222167967,-25.21940612792969
244425,-0.1410980224609375,-0.255584716796875,-0.03631591796875,-0.1457793116569519,2.183854103088379,0.1158203408122063,77.34577941894531,93.42790222167967,-25.21940612792969
244426,-0.126312255859375,-0.2471771240234375,-0.064910888671875,-0.5043294429779053,2.124526977539062,0.0678914338350296,77.66593933105469,93.58772277832033,-24.92376708984375
244427,-0.1254425048828125,-0.234710693359375,-0.067108154296875,-0.6428463459014893,2.059602022171021,0.0008420915110036,77.94349670410156,93.63270568847656,-24.25871276855469
244428,-0.1113433837890625,-0.20086669921875,-0.0682525634765625,-0.7522516846656799,1.962331295013428,-0.0840914398431778,78.69564819335938,93.79823303222656,-22.521484375
244429,-0.1113433837890625,-0.20086669921875,-0.0682525634765625,-0.7522516846656799,1.962331295013428,-0.0840914398431778,78.69564819335938,93.79823303222656,-22.521484375
244430,-0.0949554443359375,-0.1862640380859375,-0.0977783203125,-0.8235953450202942,1.808998227119446,-0.1812273114919662,79.06050109863281,93.82579040527344,-21.41621398925781
244431,-0.0587158203125,-0.159820556640625,-0.2510833740234375,-0.8964112401008606,1.159950137138367,-0.3507774472236633,79.37568664550781,93.95175170898438,-19.18815612792969
244432,-0.08245849609375,-0.0818939208984375,-0.3284149169921875,-0.9691184759140016,0.5551739931106567,-0.4812872707843781,79.54104614257812,94.0460205078125,-18.14067077636719
244433,-0.08245849609375,-0.0818939208984375,-0.3284149169921875,-0.9691184759140016,0.5551739931106567,-0.4812872707843781,79.54104614257812,94.0460205078125,-18.14067077636719
244434,-0.15008544921875,0.14337158203125,-0.3206939697265625,-1.131401419639587,-0.0404875054955482,-0.65318763256073,79.46467590332031,94.21148681640624,-17.12248229980469
244435,-0.4170379638671875,0.31109619140625,0.1060333251953125,-1.590123653411865,-0.1529756933450699,-0.6789452433586121,78.9141845703125,94.67481994628906,-15.95156860351562
244436,-0.56787109375,0.4370574951171875,0.46099853515625,-1.647180318832397,1.030576229095459,-0.6814741492271423,78.54666137695312,94.95248413085938,-15.54345703125
244437,-0.5876617431640625,0.795166015625,0.6172332763671875,-1.701750874519348,2.162802457809448,-0.6595651507377625,78.04341125488281,95.17668151855467,-15.2027587890625
244438,-0.5876617431640625,0.795166015625,0.6172332763671875,-1.701750874519348,2.162802457809448,-0.6595651507377625,78.04341125488281,95.17668151855467,-15.2027587890625
244439,-0.6198577880859375,2.677093505859375,0.5871734619140625,-1.255245804786682,2.123327970504761,-0.7581561207771301,77.4237060546875,95.29061889648438,-14.7982177734375
244440,-0.44866943359375,5.729736328125,0.9707794189453124,0.728864312171936,-0.3118473589420319,0.3600316941738129,76.5633544921875,95.30368041992188,-13.24124145507812
244441,-0.44866943359375,5.729736328125,0.9707794189453124,0.728864312171936,-0.3118473589420319,0.3600316941738129,76.5633544921875,95.30368041992188,-13.24124145507812
244442,-0.3572845458984375,6.419448852539062,1.135940551757812,1.106770873069763,-0.9833794236183168,1.040382266044617,76.16888427734375,95.43899536132812,-12.90631103515625
244443,-0.072906494140625,3.195602416992188,0.1756744384765625,-1.07768988609314,-0.7972183227539062,-0.7745838761329651,76.06646728515625,96.12220764160156,-13.98991394042969
244444,0.0889739990234375,1.90765380859375,-0.370819091796875,-2.356496810913086,-1.717954039573669,-1.385363578796387,76.26870727539062,95.92559814453124,-14.45774841308594
244445,0.8637847900390625,1.70318603515625,-0.801666259765625,-2.893872737884521,-1.953156232833862,-0.9500907063484192,74.9130859375,95.34898376464844,-13.06593322753906
244446,0.8637847900390625,1.70318603515625,-0.801666259765625,-2.893872737884521,-1.953156232833862,-0.9500907063484192,74.9130859375,95.34898376464844,-13.06593322753906
244447,1.364990234375,2.219390869140625,-1.374160766601562,-1.222553968429565,-0.0038277613930404,0.1079626828432083,74.17218017578125,95.59275817871094,-12.22282409667969
244448,0.996490478515625,2.499267578125,-1.209716796875,1.308539390563965,-0.4915018081665039,0.2507779002189636,73.93280029296875,95.7838134765625,-11.30708312988281
244449,0.639495849609375,2.3631591796875,-0.3566436767578125,2.642823219299316,-0.9521461129188538,-0.0773488506674766,73.99383544921875,95.69082641601562,-11.277099609375
244450,0.639495849609375,2.3631591796875,-0.3566436767578125,2.642823219299316,-0.9521461129188538,-0.0773488506674766,73.99383544921875,95.69082641601562,-11.277099609375
244451,0.159912109375,1.76031494140625,0.005401611328125,1.78846287727356,-1.14917266368866,-0.1887872219085693,74.18385314941406,95.59799194335938,-13.33897399902344
244452,0.056427001953125,1.326187133789062,0.0521087646484375,1.232623338699341,-0.788195788860321,0.016834108158946,74.2655029296875,95.58367919921876,-14.57633972167969
244453,0.059783935546875,1.053787231445312,-0.09918212890625,1.072713851928711,-0.538791835308075,0.2412016987800598,74.40950012207031,95.58306884765624,-15.60848999023438
244454,0.0523529052734375,0.8167724609375,-0.2503204345703125,1.184950590133667,-0.5534871816635132,0.4648696780204773,74.56095886230469,95.51832580566406,-16.23568725585938
244455,0.0038299560546875,0.61492919921875,-0.2918853759765625,1.436107516288757,-0.6889376640319824,0.6327832937240601,74.808837890625,95.45687866210938,-16.82022094726562
244456,-0.0816650390625,0.4591522216796875,-0.18408203125,1.69464373588562,-0.7092056274414062,0.7166047096252441,75.09886169433594,95.2884521484375,-17.51107788085938
244457,-0.0816650390625,0.4591522216796875,-0.18408203125,1.69464373588562,-0.7092056274414062,0.7166047096252441,75.09886169433594,95.2884521484375,-17.51107788085938
244458,-0.161865234375,0.3506927490234375,-0.012237548828125,1.847424149513245,-0.4444991648197174,0.7228186726570129,75.29804992675781,95.10049438476562,-18.28292846679688
244459,-0.2399749755859375,0.1214752197265625,0.174224853515625,1.514965772628784,0.7740768194198608,0.5061143040657043,75.85563659667969,94.69264221191406,-20.06439208984375
244460,-0.3158111572265625,0.04132080078125,0.1337890625,1.162194490432739,1.370122909545898,0.3092175126075745,76.1038818359375,94.48707580566406,-20.69009399414062
244461,-0.3158111572265625,0.04132080078125,0.1337890625,1.162194490432739,1.370122909545898,0.3092175126075745,76.1038818359375,94.48707580566406,-20.69009399414062
244462,-0.38397216796875,-0.0217437744140625,0.1268463134765625,0.8418068289756775,1.797951221466064,0.1188784465193748,76.19094848632812,94.38662719726562,-20.92306518554688
244463,-0.433837890625,-0.1361846923828125,0.12060546875,0.4554151892662048,2.501121759414673,-0.1128064393997192,76.60540771484375,94.43424987792967,-20.74522399902344
244464,-0.4273529052734375,-0.17755126953125,0.033355712890625,0.3732945024967194,2.572244167327881,-0.1429430395364761,76.80613708496094,94.36073303222656,-20.37530517578125
244465,-0.4273529052734375,-0.17755126953125,0.033355712890625,0.3732945024967194,2.572244167327881,-0.1429430395364761,76.80613708496094,94.36073303222656,-20.37530517578125
244466,-0.38958740234375,-0.2584686279296875,-0.08612060546875,0.4157969355583191,1.990036964416504,-0.1958424746990204,77.11337280273438,94.3334503173828,-19.37309265136719
244467,-0.3553314208984375,-0.2830047607421875,-0.0537261962890625,0.4375624358654022,1.65002167224884,-0.2006129920482635,77.239990234375,94.45936584472656,-19.02043151855469
244468,-0.2965850830078125,-0.282928466796875,-0.0347747802734375,0.4375624358654022,1.65002167224884,-0.2006129920482635,77.16087341308594,94.47802734375,-18.74104309082031
244469,-0.2233428955078125,-0.2743682861328125,-0.0660858154296875,0.0340975150465965,1.706121325492859,-0.1063014045357704,77.20301818847656,94.54307556152344,-18.37886047363281
244470,-0.2233428955078125,-0.2743682861328125,-0.0660858154296875,0.0340975150465965,1.706121325492859,-0.1063014045357704,77.20301818847656,94.54307556152344,-18.37886047363281
244471,-0.0993499755859375,-0.236297607421875,-0.1013336181640625,-0.2581724226474762,1.729325294494629,-0.0479329042136669,77.14865112304688,94.74156188964844,-17.71755981445312
244472,-0.04388427734375,-0.1983184814453125,-0.115875244140625,-0.4830209910869598,1.678219437599182,-0.0286039486527442,77.19790649414062,94.9093780517578,-17.29275512695312
244473,-0.04388427734375,-0.1983184814453125,-0.115875244140625,-0.4830209910869598,1.678219437599182,-0.0286039486527442,77.19790649414062,94.9093780517578,-17.29275512695312
244474,0.002471923828125,-0.1654052734375,-0.12451171875,-0.6188981533050537,1.553678870201111,-0.0469866842031478,77.14642333984375,95.03939819335938,-16.90170288085938
244475,0.0467987060546875,-0.11383056640625,-0.0860748291015625,-0.710928738117218,1.227084279060364,-0.1409219652414322,77.22056579589844,95.16661071777344,-15.37020874023438
244476,0.0548095703125,-0.097503662109375,-0.0598297119140625,-0.7557768821716309,1.050639152526855,-0.2046229094266891,77.19529724121094,95.21989440917967,-14.60896301269531
244477,0.0548095703125,-0.097503662109375,-0.0598297119140625,-0.7557768821716309,1.050639152526855,-0.2046229094266891,77.19529724121094,95.21989440917967,-14.60896301269531
244478,0.0836181640625,-0.0684356689453125,-0.11712646484375,-1.411344289779663,-0.2208290547132492,-0.4384649693965912,76.95367431640625,95.1803741455078,-13.14321899414062
244479,0.0943450927734375,0.069671630859375,-0.09918212890625,-1.411344289779663,-0.2208290547132492,-0.4384649693965912,76.76683044433594,95.12872314453124,-12.39321899414062
244480,0.037811279296875,0.1743011474609375,0.1201934814453125,-1.70924711227417,-0.4446557462215424,-0.5155988931655884,76.49929809570312,95.12527465820312,-11.84098815917969
244481,0.02252197265625,0.2011260986328125,0.4873046875,-2.091030359268188,1.153115510940552,-0.7263529300689697,76.12709045410156,95.3556671142578,-11.42352294921875
244482,0.02252197265625,0.2011260986328125,0.4873046875,-2.091030359268188,1.153115510940552,-0.7263529300689697,76.12709045410156,95.3556671142578,-11.42352294921875
244483,0.04638671875,0.8340301513671875,1.0438232421875,-2.271197319030762,2.486660957336426,-0.914691686630249,75.03765869140625,95.6971435546875,-10.17417907714844
244484,-0.0729522705078125,2.925537109375,1.377838134765625,-2.035751104354858,3.908329963684082,-0.9419746994972228,74.47337341308594,95.63003540039062,-9.057708740234377
244485,-0.4526214599609375,4.909133911132812,1.738876342773438,0.1691237837076187,3.933022737503052,0.8814274668693542,73.92535400390625,95.6475830078125,-7.826370239257812
244486,-0.4526214599609375,4.909133911132812,1.738876342773438,0.1691237837076187,3.933022737503052,0.8814274668693542,73.92535400390625,95.6475830078125,-7.826370239257812
244487,-1.664474487304688,7.23516845703125,1.424835205078125,0.888918936252594,2.589808225631714,0.5190796256065369,73.58616638183594,95.62899780273438,-6.43408203125
244488,-1.289505004882812,4.597122192382812,0.84918212890625,0.2529608905315399,1.413500666618347,-1.214904546737671,73.80580139160156,95.51325988769533,-5.969497680664062
244489,-0.767181396484375,2.128799438476562,0.2714691162109375,-0.7481405138969421,0.2287591397762299,-2.013885974884033,73.75898742675781,95.57786560058594,-5.775192260742188
244490,-0.767181396484375,2.128799438476562,0.2714691162109375,-0.7481405138969421,0.2287591397762299,-2.013885974884033,73.75898742675781,95.57786560058594,-5.775192260742188
244491,-0.3389892578125,0.261688232421875,-0.467254638671875,-2.250614881515503,0.1059631854295731,-1.481798768043518,72.05351257324219,95.84727478027344,-4.703399658203125
244492,0.3235321044921875,0.6742401123046875,-2.040435791015625,-3.756041765213013,-0.7288973331451416,-0.5974591374397278,71.034423828125,95.96028137207033,-4.003021240234375
244493,0.5903472900390625,1.48126220703125,-1.64007568359375,0.4555059969425201,-1.831767678260803,1.398630142211914,70.27897644042969,95.69441223144533,-2.816497802734375
244494,0.5903472900390625,1.48126220703125,-1.64007568359375,0.4555059969425201,-1.831767678260803,1.398630142211914,70.27897644042969,95.69441223144533,-2.816497802734375
244495,0.5234832763671875,2.109390258789062,0.5905303955078125,2.546668529510498,0.3004226684570312,1.757812261581421,69.99131774902344,94.75059509277344,-1.167404174804688
244496,0.491058349609375,2.156967163085938,0.314300537109375,2.956564426422119,1.806178450584412,1.655629754066467,70.43415832519531,94.60093688964844,-1.310958862304688
244497,0.491058349609375,2.156967163085938,0.314300537109375,2.956564426422119,1.806178450584412,1.655629754066467,70.43415832519531,94.60093688964844,-1.310958862304688
244498,0.6554718017578125,2.007644653320312,-0.83111572265625,1.274572849273682,-0.4263217449188232,0.7112096548080444,71.257080078125,94.56793212890624,-2.6160888671875
244499,0.642364501953125,1.5927734375,-0.4127655029296875,0.9378209710121156,-1.178148150444031,0.2752310335636139,71.44354248046875,94.59120178222656,-3.126937866210938
244500,0.548858642578125,1.133392333984375,-0.433868408203125,1.374737858772278,-0.5146521329879761,0.3123674988746643,71.71365356445312,94.53604125976562,-3.594863891601562
244501,0.548858642578125,1.133392333984375,-0.433868408203125,1.374737858772278,-0.5146521329879761,0.3123674988746643,71.71365356445312,94.53604125976562,-3.594863891601562
244502,0.1214752197265625,0.717376708984375,-0.59832763671875,2.709590673446655,0.2324236482381821,0.4665458798408508,72.04380798339844,94.86924743652344,-4.757461547851562
244503,0.0185546875,0.5552978515625,-0.397735595703125,2.297697782516479,0.1447950005531311,0.3921571373939514,72.26657104492188,94.95207214355467,-5.5853271484375
244504,-0.0422210693359375,0.3693695068359375,-0.2976837158203125,2.297697782516479,0.1447950005531311,0.3921571373939514,72.53767395019531,94.92007446289062,-6.617111206054688
244505,-0.0422210693359375,0.3693695068359375,-0.2976837158203125,2.297697782516479,0.1447950005531311,0.3921571373939514,72.53767395019531,94.92007446289062,-6.617111206054688
244506,-0.129913330078125,0.1565093994140625,-0.0449066162109375,1.42985463142395,0.2479171305894852,0.1890175938606262,73.09808349609375,95.13275146484376,-8.540023803710938
244507,-0.1413116455078125,0.096282958984375,0.0384063720703125,1.15667188167572,0.505918025970459,0.1280349344015121,73.24990844726562,95.15863037109376,-9.238189697265623
244508,-0.1533660888671875,0.0909271240234375,0.065582275390625,1.08728289604187,0.7400311827659607,0.0825473368167877,73.40536499023438,95.26066589355467,-9.823165893554688
244509,-0.1533660888671875,0.0909271240234375,0.065582275390625,1.08728289604187,0.7400311827659607,0.0825473368167877,73.40536499023438,95.26066589355467,-9.823165893554688
244510,-0.16888427734375,0.1202239990234375,0.04742431640625,1.155696034431458,0.8670903444290161,0.0366341769695282,73.39141845703125,95.3002471923828,-10.19740295410156
244511,-0.1901092529296875,0.103729248046875,0.027587890625,1.258178472518921,0.9001556038856506,0.0203769113868475,73.40643310546875,95.50442504882812,-11.13034057617188
244512,-0.192718505859375,0.05731201171875,0.0624237060546875,1.158679842948914,1.014583945274353,0.0452692098915576,73.32339477539062,95.52456665039062,-11.46379089355469
244513,-0.192718505859375,0.05731201171875,0.0624237060546875,1.158679842948914,1.014583945274353,0.0452692098915576,73.32339477539062,95.52456665039062,-11.46379089355469
244514,-0.1873779296875,0.0016326904296875,0.0868682861328125,0.947267770767212,1.25632381439209,0.0524139404296875,73.32884216308594,95.55696105957033,-11.78440856933594
244515,-0.1718292236328125,-0.095489501953125,0.05181884765625,0.4261159002780914,1.72429347038269,0.0399788431823253,73.29879760742188,95.73445129394533,-12.12748718261719
244516,-0.1661834716796875,-0.12060546875,0.05029296875,0.2120541930198669,1.886815309524536,0.0255213379859924,73.38430786132812,95.61434936523438,-12.12579345703125
244517,-0.1624755859375,-0.12371826171875,0.066375732421875,0.0364165976643562,2.027901172637939,0.0092467619106173,73.44136047363281,95.73744201660156,-12.01020812988281
244518,-0.1624755859375,-0.12371826171875,0.066375732421875,0.0364165976643562,2.027901172637939,0.0092467619106173,73.44136047363281,95.73744201660156,-12.01020812988281
244519,-0.169342041015625,-0.102813720703125,0.126678466796875,-0.2499509751796722,2.295297145843506,-0.1182456836104393,73.49087524414062,95.85015869140624,-11.22743225097656
244520,-0.1809844970703125,-0.100128173828125,0.135101318359375,-0.3664336502552032,2.379470586776733,-0.2535097599029541,73.48280334472656,95.92405700683594,-10.46754455566406
244521,-0.20758056640625,-0.099945068359375,0.1312103271484375,-0.477703183889389,2.317017793655396,-0.6269690990447998,73.55712890625,96.02775573730467,-9.834136962890623
244522,-0.20758056640625,-0.099945068359375,0.1312103271484375,-0.477703183889389,2.317017793655396,-0.6269690990447998,73.55712890625,96.02775573730467,-9.834136962890623
244523,-0.2896575927734375,-0.1666412353515625,0.0796661376953125,-0.440569669008255,2.126955509185791,-0.8045510649681091,73.15217590332031,96.2177734375,-8.4097900390625
244524,-0.3258056640625,-0.204986572265625,0.05255126953125,-0.4060079455375671,1.847863078117371,-0.9261411428451538,72.9278564453125,96.3974609375,-7.703903198242188
244525,-0.3258056640625,-0.204986572265625,0.05255126953125,-0.4060079455375671,1.847863078117371,-0.9261411428451538,72.9278564453125,96.3974609375,-7.703903198242188
244526,-0.361724853515625,-0.213226318359375,0.0345611572265625,-0.438292920589447,1.513681411743164,-0.9809159636497498,72.49293518066406,96.57937622070312,-6.866790771484375
244527,-0.41632080078125,-0.1282501220703125,0.051666259765625,-0.7793951034545898,1.103640079498291,-1.039650917053223,71.96044921875,96.97615051269533,-6.17431640625
244528,-0.52301025390625,0.299896240234375,0.2083587646484375,-1.142473936080933,1.401624321937561,-1.11006224155426,70.68179321289062,97.71492004394533,-5.06396484375
244529,-0.52301025390625,0.299896240234375,0.2083587646484375,-1.142473936080933,1.401624321937561,-1.11006224155426,70.68179321289062,97.71492004394533,-5.06396484375
244530,-0.623992919921875,0.4900360107421875,0.1135101318359375,-2.080303192138672,1.730347871780396,-1.111300587654114,69.99961853027344,97.94163513183594,-4.701873779296875
244531,-0.7054595947265625,1.987060546875,-0.511627197265625,-2.491398572921753,0.4587262868881226,-1.287390947341919,68.22337341308594,97.9931182861328,-3.213912963867188
244532,-0.4936065673828125,3.421478271484375,0.0861358642578125,-2.559537172317505,-0.4773154258728027,-0.935690701007843,67.35371398925781,97.7189483642578,-2.023269653320312
244533,-0.4936065673828125,3.421478271484375,0.0861358642578125,-2.559537172317505,-0.4773154258728027,-0.935690701007843,67.35371398925781,97.7189483642578,-2.023269653320312
244534,-0.4925384521484375,4.474990844726562,0.2406158447265625,-2.182907581329346,-2.423221111297607,-0.4747942090034485,66.50352478027344,97.56700134277344,-0.8937530517578125
244535,0.1919403076171875,6.44818115234375,1.685409545898438,-0.3634349405765533,-1.888489365577698,1.61835241317749,66.00038146972656,96.75100708007812,0.6264495849609375
244536,0.48443603515625,4.672164916992188,0.975677490234375,0.0851005166769027,1.908267855644226,1.378304839134216,66.57803344726562,96.06745910644533,0.564910888671875
244537,0.48443603515625,4.672164916992188,0.975677490234375,0.0851005166769027,1.908267855644226,1.378304839134216,66.57803344726562,96.06745910644533,0.564910888671875
244538,0.88848876953125,2.5506591796875,-1.599639892578125,0.3696211874485016,3.140767335891724,1.220475554466248,67.32254028320312,95.4259796142578,0.6920166015625
244539,0.805419921875,2.1571044921875,-0.4566650390625,1.292241096496582,-0.1307428330183029,0.3181337714195251,67.73236083984375,94.73130798339844,1.494308471679688
244540,0.825103759765625,2.078155517578125,-0.25140380859375,1.391820430755615,-0.2431543320417404,0.0806114897131919,67.9686279296875,94.70404052734376,1.597503662109375
244541,0.825103759765625,2.078155517578125,-0.25140380859375,1.391820430755615,-0.2431543320417404,0.0806114897131919,67.9686279296875,94.70404052734376,1.597503662109375
244542,0.876922607421875,1.962783813476562,-0.372406005859375,1.023760437965393,-0.5114001631736755,0.0404299795627594,68.20884704589844,94.62828063964844,1.179092407226562
244543,0.75042724609375,1.570816040039062,-0.493133544921875,1.347299337387085,-0.799184262752533,0.2468377500772476,68.58432006835938,94.72654724121094,-0.05853271484375
244544,0.5336761474609375,1.397445678710938,-0.454620361328125,1.836351275444031,-0.899305522441864,0.4142525792121887,68.84457397460938,94.869140625,-0.484161376953125
244545,0.14849853515625,1.11309814453125,-0.3406219482421875,2.390452146530151,-0.9394593834877014,0.5489344596862793,69.54769897460938,95.04202270507812,-2.30633544921875
244546,0.14849853515625,1.11309814453125,-0.3406219482421875,2.390452146530151,-0.9394593834877014,0.5489344596862793,69.54769897460938,95.04202270507812,-2.30633544921875
244547,0.015380859375,0.9238433837890624,-0.294830322265625,2.364213943481445,-0.8638660907745361,0.5904545187950134,69.96881103515625,95.13133239746094,-3.465103149414062
244548,-0.099822998046875,0.7002105712890625,-0.246551513671875,2.229040145874023,-0.6847090721130371,0.6323979496955872,70.25834655761719,95.35763549804688,-4.534881591796875
244549,-0.099822998046875,0.7002105712890625,-0.246551513671875,2.229040145874023,-0.6847090721130371,0.6323979496955872,70.25834655761719,95.35763549804688,-4.534881591796875
244550,-0.1847686767578125,0.482666015625,-0.1567840576171875,1.81409740447998,0.0621573813259601,0.6832392811775208,70.70767211914062,95.57931518554688,-5.81427001953125
244551,-0.26605224609375,0.1541290283203125,-0.064727783203125,1.643489956855774,0.3744942545890808,0.6500573754310608,71.36778259277344,95.4779052734375,-7.964752197265625
244552,-0.303955078125,0.031036376953125,0.00213623046875,1.322410702705383,1.017142653465271,0.4089185297489166,71.77035522460938,95.5442352294922,-8.786102294921875
244553,-0.3520050048828125,-0.0359039306640625,0.11553955078125,1.208229064941406,1.416401386260986,0.2315850257873535,71.93878173828125,95.68391418457033,-9.518844604492188
244554,-0.3520050048828125,-0.0359039306640625,0.11553955078125,1.208229064941406,1.416401386260986,0.2315850257873535,71.93878173828125,95.68391418457033,-9.518844604492188
244555,-0.3459320068359375,-0.094757080078125,0.3038482666015625,1.003109931945801,2.207428693771362,-0.0637185275554657,72.34027099609375,95.79420471191406,-10.54899597167969
244556,-0.3242645263671875,-0.1006927490234375,0.2834930419921875,1.003109931945801,2.207428693771362,-0.0637185275554657,72.34451293945312,95.98301696777344,-10.81800842285156
244557,-0.306915283203125,-0.119842529296875,0.1839752197265625,0.9149545431137084,2.191177845001221,-0.3321675658226013,72.34745788574219,96.05702209472656,-10.87240600585938
244558,-0.306915283203125,-0.119842529296875,0.1839752197265625,0.9149545431137084,2.191177845001221,-0.3321675658226013,72.34745788574219,96.05702209472656,-10.87240600585938
244559,-0.30975341796875,-0.20159912109375,0.0325469970703125,0.8946375846862793,1.936935663223267,-0.4653123021125793,72.18223571777344,96.37542724609376,-10.90287780761719
244560,-0.2856903076171875,-0.233856201171875,0.0458831787109375,0.8491446375846863,1.76943564414978,-0.5414206385612488,71.97879028320312,96.45445251464844,-10.7218017578125
244561,-0.2856903076171875,-0.233856201171875,0.0458831787109375,0.8491446375846863,1.76943564414978,-0.5414206385612488,71.97879028320312,96.45445251464844,-10.7218017578125
244562,-0.25372314453125,-0.2419281005859375,0.0545501708984375,0.7399010062217712,1.753407120704651,-0.5911314487457275,71.76969909667969,96.70387268066406,-10.78173828125
244563,-0.1759033203125,-0.23736572265625,-0.0053863525390625,0.3683053255081177,1.837915658950806,-0.5920587778091431,71.15425109863281,97.31138610839844,-10.96064758300781
244564,-0.148345947265625,-0.248138427734375,-0.0028228759765625,0.0826506689190864,1.946755528450012,-0.5570675134658813,70.88215637207031,97.66682434082033,-10.77919006347656
244565,-0.148345947265625,-0.248138427734375,-0.0028228759765625,0.0826506689190864,1.946755528450012,-0.5570675134658813,70.88215637207031,97.66682434082033,-10.77919006347656
244566,-0.1085052490234375,-0.2430572509765625,-0.0112762451171875,-0.261926144361496,2.148939847946167,-0.5160255432128906,70.59939575195312,97.98902893066406,-10.5101318359375
244567,-0.059234619140625,-0.2109375,-0.0557861328125,-0.7428208589553833,2.017849683761597,-0.5317038297653198,70.249267578125,98.18382263183594,-9.990798950195312
244568,-0.0118408203125,-0.172515869140625,-0.10382080078125,-0.9206244349479676,1.705453991889954,-0.5680192112922668,69.89808654785156,98.45872497558594,-8.343215942382812
244569,-0.0095367431640625,-0.1666717529296875,-0.1142120361328125,-1.399135828018188,0.8662179112434387,-0.6373714208602905,69.70693969726562,98.39297485351562,-7.068939208984375
244570,-0.0095367431640625,-0.1666717529296875,-0.1142120361328125,-1.399135828018188,0.8662179112434387,-0.6373714208602905,69.70693969726562,98.39297485351562,-7.068939208984375
244571,-0.009002685546875,-0.19970703125,-0.240142822265625,-1.76229202747345,0.2866716980934143,-0.6553104519844055,69.24754333496094,98.168701171875,-4.637283325195312
244572,0.0114898681640625,-0.1457672119140625,-0.36724853515625,-2.177765846252441,-0.4690188765525818,-0.6282660365104675,69.06646728515625,98.00881958007812,-3.5556640625
244573,-0.0369873046875,0.1365814208984375,-0.1842193603515625,-2.549328327178955,-0.9112697839736938,-0.5407002568244934,68.69952392578125,97.88108825683594,-2.559463500976562
244574,-0.0369873046875,0.1365814208984375,-0.1842193603515625,-2.549328327178955,-0.9112697839736938,-0.5407002568244934,68.69952392578125,97.88108825683594,-2.559463500976562
244575,-0.0406951904296875,0.24554443359375,0.810546875,-2.629223108291626,2.568293571472168,-0.579430103302002,67.84353637695312,98.02285766601562,-1.188400268554688
244576,-0.017425537109375,0.73309326171875,1.179290771484375,-2.629223108291626,2.568293571472168,-0.579430103302002,67.1138916015625,98.0224151611328,-0.3543243408203125
244577,-0.017425537109375,0.73309326171875,1.179290771484375,-2.629223108291626,2.568293571472168,-0.579430103302002,67.1138916015625,98.0224151611328,-0.3543243408203125
244578,-0.7873687744140625,6.630828857421875,2.265762329101562,-0.4991472363471985,4.543998241424561,-0.1013729572296143,65.50148010253906,97.34962463378906,1.396194458007812
244579,-1.263931274414062,8.164947509765625,2.0343017578125,1.709860444068909,6.783551216125488,3.461475849151611,64.7962646484375,97.1701202392578,1.559844970703125
244580,-1.048919677734375,7.257736206054688,0.435577392578125,2.645791292190552,7.057008266448975,2.212145328521729,64.40115356445312,97.484130859375,0.89300537109375
244581,-1.048919677734375,7.257736206054688,0.435577392578125,2.645791292190552,7.057008266448975,2.212145328521729,64.40115356445312,97.484130859375,0.89300537109375
244582,-0.1844329833984375,3.483367919921875,-1.10491943359375,1.746134877204895,2.966150522232056,0.165237158536911,64.67723083496094,97.61599731445312,0.470062255859375
244583,0.242523193359375,0.9073333740234376,-2.197769165039062,-0.0878377109766006,-3.195289611816406,-0.506504476070404,64.92489624023438,97.51130676269533,0.7008514404296875
244584,0.6942596435546875,0.4221343994140625,0.0050201416015625,-4.730449199676514,1.998908758163452,-0.9045171141624452,63.91934204101562,97.13719177246094,1.694427490234375
244585,1.2406005859375,1.635635375976562,-0.179229736328125,-4.730449199676514,1.998908758163452,-0.9045171141624452,63.82994079589844,96.90086364746094,2.07879638671875
244586,1.2406005859375,1.635635375976562,-0.179229736328125,-4.730449199676514,1.998908758163452,-0.9045171141624452,63.82994079589844,96.90086364746094,2.07879638671875
244587,0.652984619140625,2.715805053710938,-0.7350616455078125,3.037126779556274,-0.1585278511047363,0.8765767812728882,63.80111694335938,95.75953674316406,3.857223510742188
244588,0.17901611328125,2.173187255859375,-0.06622314453125,3.709851264953613,0.9494997262954712,0.4844364523887634,63.70938110351562,95.23651123046876,5.029083251953125
244589,0.17901611328125,2.173187255859375,-0.06622314453125,3.709851264953613,0.9494997262954712,0.4844364523887634,63.70938110351562,95.23651123046876,5.029083251953125
244590,-0.021514892578125,1.466201782226562,-0.6713104248046875,2.297867774963379,1.039047479629517,0.3660735785961151,63.93788146972656,95.2190399169922,4.733810424804688
244591,0.0015411376953125,0.95501708984375,-0.345367431640625,0.7755798697471619,0.3441885411739349,0.4748677313327789,64.41874694824219,95.62705993652344,2.363800048828125
244592,-0.0115814208984375,0.65283203125,-0.450958251953125,0.928507924079895,-0.027109382674098,0.4965423941612244,64.65562438964844,95.86051940917967,1.592819213867188
244593,-0.0115814208984375,0.65283203125,-0.450958251953125,0.928507924079895,-0.027109382674098,0.4965423941612244,64.65562438964844,95.86051940917967,1.592819213867188
244594,-0.105316162109375,0.209228515625,-0.5074310302734375,1.276466965675354,0.3927483558654785,0.3731309771537781,65.1302490234375,96.06680297851562,0.67047119140625
244595,-0.1190948486328125,0.0758819580078125,-0.4481353759765625,1.183266997337341,0.9009079933166504,0.3971734642982483,65.31307983398438,96.16937255859376,0.202880859375
244596,-0.0977630615234375,0.0776214599609375,-0.4571075439453125,1.183266997337341,0.9009079933166504,0.3971734642982483,65.47883605957031,96.2088623046875,-0.3892669677734375
244597,-0.0571136474609375,0.2175750732421875,-0.37225341796875,1.172045707702637,1.011854410171509,0.3953419923782349,65.62225341796875,96.44674682617188,-0.962738037109375
244598,-0.0571136474609375,0.2175750732421875,-0.37225341796875,1.172045707702637,1.011854410171509,0.3953419923782349,65.62225341796875,96.44674682617188,-0.962738037109375
244599,-0.014678955078125,0.43658447265625,0.0613250732421875,1.275282144546509,0.9601044654846193,0.1172331497073174,65.67123413085938,96.67857360839844,-1.980361938476562
244600,0.008331298828125,0.440093994140625,0.2936859130859375,1.354990243911743,1.14124870300293,0.0075737638399004,65.75154113769531,96.71360778808594,-2.353912353515625
244601,0.008331298828125,0.440093994140625,0.2936859130859375,1.354990243911743,1.14124870300293,0.0075737638399004,65.75154113769531,96.71360778808594,-2.353912353515625
244602,0.031158447265625,0.3827667236328125,0.4677276611328125,1.365209579467773,1.535228967666626,-0.0728877857327461,65.86529541015625,96.82986450195312,-2.897186279296875
244603,0.0169830322265625,0.1929931640625,0.3878936767578125,1.061597466468811,2.255720376968384,-0.1440810114145279,65.7926025390625,97.21815490722656,-3.756927490234375
244604,0.002716064453125,0.09332275390625,0.2696685791015625,0.8357446789741516,2.242444038391113,-0.1811929643154144,65.70941162109375,97.37611389160156,-4.164886474609375
244605,0.002716064453125,0.09332275390625,0.2696685791015625,0.8357446789741516,2.242444038391113,-0.1811929643154144,65.70941162109375,97.37611389160156,-4.164886474609375
244606,-0.0255126953125,0.0187835693359375,0.1937255859375,0.6349407434463501,2.088377714157104,-0.2616041898727417,65.63919067382812,97.37603759765624,-4.287811279296875
244607,-0.096923828125,-0.084625244140625,0.0840606689453125,0.2590046525001526,1.417990803718567,-0.6918588876724243,65.414794921875,97.61170959472656,-4.38360595703125
244608,-0.12261962890625,-0.09881591796875,0.0653839111328125,0.2590046525001526,1.417990803718567,-0.6918588876724243,65.21624755859375,97.69529724121094,-4.273635864257812
244609,-0.12261962890625,-0.09881591796875,0.0653839111328125,0.2590046525001526,1.417990803718567,-0.6918588876724243,65.21624755859375,97.69529724121094,-4.273635864257812
244610,-0.14666748046875,-0.105987548828125,0.0720977783203125,0.1379900872707367,1.272930502891541,-0.8654541373252869,65.07066345214844,97.72282409667967,-4.3255615234375
244611,-0.1953887939453125,-0.1340789794921875,0.0828094482421875,-0.1304147243499756,1.098126292228699,-1.213752388954163,63.8377685546875,98.2145538330078,-3.7635498046875
244612,-0.2226409912109375,-0.1920623779296875,0.1090087890625,-0.3436764180660248,1.04011082649231,-1.321509003639221,63.18611145019531,98.56468200683594,-3.448089599609375
244613,-0.2226409912109375,-0.1920623779296875,0.1090087890625,-0.3436764180660248,1.04011082649231,-1.321509003639221,63.18611145019531,98.56468200683594,-3.448089599609375
244614,-0.2871246337890625,-0.2990570068359375,0.16119384765625,-0.835197389125824,1.101293802261353,-1.237935543060303,62.00993347167969,99.28895568847656,-2.609817504882812
244615,-0.317291259765625,-0.3220977783203125,0.1703033447265625,-1.002299547195435,1.194122552871704,-1.126155972480774,61.41410827636719,99.53376770019533,-1.931228637695312
244616,-0.3370208740234375,-0.32220458984375,0.16021728515625,-1.163487434387207,1.244204044342041,-1.013408184051514,60.86412048339844,99.56976318359376,-0.92913818359375
244617,-0.3679351806640625,-0.276275634765625,0.128875732421875,-1.355183124542236,1.154179930686951,-0.9803993105888368,60.19883728027344,99.48869323730467,0.03515625
244618,-0.458404541015625,-0.1003570556640625,0.1408538818359375,-1.573495745658875,0.9540191292762756,-0.9942770600318908,59.56167602539062,99.5716552734375,0.899169921875
244619,-0.52825927734375,0.1470794677734375,0.2161407470703125,-1.805511593818665,0.8368722796440125,-0.8619917631149292,58.743408203125,99.71156311035156,1.556777954101562
244620,-0.66607666015625,0.3714141845703125,0.382843017578125,-2.022338390350342,1.359822869300842,-0.712350606918335,57.98260498046875,99.69610595703124,2.064620971679688
244621,-0.66607666015625,0.3714141845703125,0.382843017578125,-2.022338390350342,1.359822869300842,-0.712350606918335,57.98260498046875,99.69610595703124,2.064620971679688
244622,-0.8116455078125,0.6231842041015625,0.5163421630859375,-2.257672071456909,2.374843835830688,-0.5006239414215088,57.14544677734375,99.368896484375,2.59423828125
244623,-0.7500762939453125,2.686721801757812,0.2424468994140625,-2.383214950561523,1.487799167633057,-0.1880356818437576,55.54403686523438,98.2664794921875,3.906646728515625
244624,-0.515899658203125,6.732208251953125,0.6103668212890625,-0.7742725610733032,1.237391471862793,1.575329780578613,54.98422241210938,97.73883056640624,4.6536865234375
244625,-0.515899658203125,6.732208251953125,0.6103668212890625,-0.7742725610733032,1.237391471862793,1.575329780578613,54.98422241210938,97.73883056640624,4.6536865234375
244626,-0.1530303955078125,8.1300048828125,0.417266845703125,1.122581243515015,0.5796399116516113,4.704408168792725,55.05854797363281,97.68252563476562,4.649185180664062
244627,0.3314056396484375,3.373977661132812,-0.6833648681640625,0.6171460151672363,-2.323011636734009,0.9600961804389954,57.51571655273438,97.57522583007812,4.26214599609375
244628,0.607147216796875,1.629135131835938,-0.283905029296875,-0.6333327293395996,-4.112052917480469,-0.2187134325504303,58.57002258300781,97.19412231445312,4.375213623046875
244629,0.78662109375,1.243270874023438,0.22650146484375,-1.493263483047485,-4.065512180328369,-0.7545310258865356,58.89508056640625,97.06854248046876,4.435928344726562
244630,0.78662109375,1.243270874023438,0.22650146484375,-1.493263483047485,-4.065512180328369,-0.7545310258865356,58.89508056640625,97.06854248046876,4.435928344726562
244631,2.2183837890625,2.4796142578125,-2.062118530273438,-1.664909482002258,0.0780950710177421,-0.2566341757774353,58.86613464355469,96.38528442382812,5.321273803710938
244632,1.92950439453125,2.719314575195312,-1.901931762695312,1.424269437789917,-1.703392386436462,0.7181272506713867,58.64523315429688,95.90054321289062,6.020782470703125
244633,1.92950439453125,2.719314575195312,-1.901931762695312,1.424269437789917,-1.703392386436462,0.7181272506713867,58.64523315429688,95.90054321289062,6.020782470703125
244634,1.016342163085938,2.369888305664062,-0.1842803955078125,3.477899551391602,-1.253348827362061,0.2475450783967972,58.87944030761719,95.6000518798828,6.322952270507812
244635,0.2211456298828125,1.262924194335938,-0.2292022705078125,2.632653474807739,-1.14176344871521,0.1766088604927063,59.9080810546875,96.2885284423828,3.9498291015625
244636,0.073211669921875,1.02972412109375,0.0068359375,1.395441293716431,-0.6526659727096558,0.0693258121609687,60.307861328125,96.67131042480467,2.312042236328125
244637,0.073211669921875,1.02972412109375,0.0068359375,1.395441293716431,-0.6526659727096558,0.0693258121609687,60.307861328125,96.67131042480467,2.312042236328125
244638,0.0150299072265625,0.747589111328125,0.0076446533203125,1.395441293716431,-0.6526659727096558,0.0693258121609687,60.81071472167969,96.81980895996094,1.003311157226562
244639,-0.1547088623046875,0.25946044921875,-0.282379150390625,1.343674778938293,-0.9558865427970886,-0.0544933341443538,61.44358825683594,97.11460876464844,-0.559173583984375
244640,-0.263946533203125,0.043701171875,-0.234832763671875,1.555519342422485,-0.7890037894248962,-0.1173210367560387,61.57012939453125,97.30760192871094,-1.202651977539062
244641,-0.3270721435546875,-0.1168212890625,-0.131011962890625,1.68903112411499,-0.1198499724268913,-0.1375546604394913,61.7451171875,97.57835388183594,-2.060867309570312
244642,-0.3270721435546875,-0.1168212890625,-0.131011962890625,1.68903112411499,-0.1198499724268913,-0.1375546604394913,61.7451171875,97.57835388183594,-2.060867309570312
244643,-0.2720489501953125,-0.1629180908203125,0.0705413818359375,1.63701319694519,1.042655229568481,-0.1244652271270752,61.69502258300781,97.98176574707033,-3.703140258789062
244644,-0.281524658203125,-0.131195068359375,0.1148223876953125,1.423444390296936,1.310846209526062,-0.2104911953210831,61.6259765625,98.20843505859376,-4.436767578125
244645,-0.314910888671875,-0.1255340576171875,0.120147705078125,1.128941178321838,1.39331579208374,-0.3425996899604797,61.59370422363281,98.384765625,-5.093826293945312
244646,-0.39056396484375,-0.1259918212890625,0.12091064453125,0.7946084141731262,1.460774779319763,-0.4684359133243561,61.3656005859375,98.5735321044922,-5.673797607421875
244647,-0.453887939453125,-0.1445770263671875,0.106597900390625,0.5100885629653931,1.596672892570496,-0.5191608667373657,60.92314147949219,98.88743591308594,-6.202011108398438
244648,-0.44781494140625,-0.1628570556640625,0.058807373046875,0.3371719121932983,1.758514523506165,-0.4526883661746979,60.62480163574219,99.119873046875,-6.446487426757812
244649,-0.3976898193359375,-0.1740264892578125,0.0057220458984375,0.2597205340862274,1.85569703578949,-0.2873201966285706,60.27047729492188,99.39920043945312,-6.640182495117188
244650,-0.3428802490234375,-0.1706695556640625,-0.0123443603515625,0.2597205340862274,1.85569703578949,-0.2873201966285706,59.9227294921875,99.56843566894533,-6.602188110351562
244651,-0.2926788330078125,-0.1600341796875,-0.008636474609375,0.2157434821128845,1.812080025672913,-0.2721558809280396,59.76249694824219,99.7165985107422,-6.673782348632812
244652,-0.2463531494140625,-0.151336669921875,0.0043182373046875,0.1041469052433968,1.749856352806091,-0.28489750623703,59.48844909667969,100.0151977539062,-6.645339965820312
244653,-0.20880126953125,-0.149871826171875,0.02020263671875,-0.0664471983909606,1.717426538467407,-0.3136918842792511,59.28643798828125,100.0895843505859,-6.430923461914062
244654,-0.173370361328125,-0.1465911865234375,0.0265045166015625,-0.2410656064748764,1.721810102462769,-0.3427280485630035,59.13070678710938,100.1583862304688,-6.247283935546875
244655,-0.1274871826171875,-0.1374053955078125,0.0308380126953125,-0.3936996161937714,1.751424193382263,-0.3628548979759216,58.85420227050781,100.3072357177734,-5.906204223632812
244656,-0.0764617919921875,-0.1153106689453125,0.020172119140625,-0.4988846480846405,1.72975218296051,-0.3985929191112518,58.61088562011719,100.3865661621094,-5.5408935546875
244657,-0.0366668701171875,-0.1031036376953125,0.0040740966796875,-0.630320131778717,1.43462598323822,-0.4991541504859924,58.43507385253906,100.3583221435547,-5.115753173828125
244658,-0.0366668701171875,-0.1031036376953125,0.0040740966796875,-0.630320131778717,1.43462598323822,-0.4991541504859924,58.43507385253906,100.3583221435547,-5.115753173828125
244659,0.003570556640625,-0.0882720947265625,-0.0251007080078125,-0.707341194152832,1.161328673362732,-0.5360895395278931,57.86880493164062,100.1941680908203,-3.84222412109375
244660,0.00970458984375,-0.08648681640625,-0.0374908447265625,-0.8396999835968018,0.7669488191604614,-0.568817675113678,57.55400085449219,100.2077941894531,-3.319610595703125
244661,0.013092041015625,-0.0875701904296875,-0.020965576171875,-1.094242572784424,0.2397180497646332,-0.6030608415603638,57.2086181640625,99.98373413085938,-2.599258422851562
244662,0.013092041015625,-0.0875701904296875,-0.020965576171875,-1.094242572784424,0.2397180497646332,-0.6030608415603638,57.2086181640625,99.98373413085938,-2.599258422851562
244663,-0.011016845703125,0.0823974609375,0.2049713134765625,-1.943069696426392,-0.8404843211174011,-0.6556532382965088,56.54942321777344,99.68414306640624,-1.541412353515625
244664,-0.053955078125,0.1772003173828125,0.427154541015625,-2.436891555786133,-1.023856043815613,-0.6800200939178467,56.15460205078125,99.4155731201172,-0.897796630859375
244665,-0.1056671142578125,0.59552001953125,1.030914306640625,-3.240510225296021,-0.0540121011435985,-0.9636102318763732,55.33113098144531,98.8816375732422,0.5977325439453125
244666,-0.1056671142578125,0.59552001953125,1.030914306640625,-3.240510225296021,-0.0540121011435985,-0.9636102318763732,55.33113098144531,98.8816375732422,0.5977325439453125
244667,-0.2159423828125,1.206817626953125,1.381072998046875,-3.315247297286987,0.995982587337494,-1.036774158477783,54.80604553222656,98.49266052246094,1.555023193359375
244668,-0.482879638671875,4.1229248046875,2.081283569335938,-2.490529537200928,3.255807876586914,-0.7913188934326172,53.98246765136719,98.02943420410156,2.461944580078125
244669,-1.006759643554688,7.78546142578125,2.047515869140625,-0.5161043405532837,6.628774642944336,1.400067687034607,53.13703918457031,97.8079071044922,3.075729370117188
244670,-1.006759643554688,7.78546142578125,2.047515869140625,-0.5161043405532837,6.628774642944336,1.400067687034607,53.13703918457031,97.8079071044922,3.075729370117188
244671,-0.4003448486328125,5.174331665039062,-1.70709228515625,2.417062044143677,3.822239398956299,0.3993143737316132,52.22293090820312,97.93171691894533,2.232498168945312
244672,0.17828369140625,1.87017822265625,-2.920059204101562,0.7192239165306091,-4.316245079040527,-0.4077238440513611,51.98770141601562,98.0399169921875,1.763229370117188
244673,0.031707763671875,0.825927734375,-0.2482147216796875,-1.246588706970215,-7.184587478637695,-0.8740627765655518,51.54292297363281,98.21688842773438,1.70257568359375
244674,0.031707763671875,0.825927734375,-0.2482147216796875,-1.246588706970215,-7.184587478637695,-0.8740627765655518,51.54292297363281,98.21688842773438,1.70257568359375
244675,0.9131622314453124,1.939056396484375,-0.135406494140625,-2.834551095962524,1.854158997535706,-0.1026669889688492,51.43840026855469,98.25714111328124,2.820297241210938
244676,1.146209716796875,2.64080810546875,-2.344467163085938,-0.9618991613388062,1.097449541091919,0.4064668118953705,51.24871826171875,97.58308410644533,3.902923583984375
244677,0.6536102294921875,2.412551879882812,-0.9793243408203124,1.988252639770508,-0.252547562122345,0.5338056087493896,51.18412780761719,96.92741394042967,5.030029296875
244678,0.6536102294921875,2.412551879882812,-0.9793243408203124,1.988252639770508,-0.252547562122345,0.5338056087493896,51.18412780761719,96.92741394042967,5.030029296875
244679,0.26513671875,1.612411499023438,-0.324798583984375,2.474305391311646,0.6733914613723755,0.4931588470935822,51.51223754882812,96.67819213867188,4.726058959960938
244680,0.2514495849609375,1.396865844726562,-0.3222198486328125,1.67450749874115,0.4551664590835571,0.4280861020088196,51.7578125,96.98007202148438,3.6383056640625
244681,0.311859130859375,0.9464569091796876,-0.451263427734375,1.432648301124573,-0.2651523053646088,0.4980417490005493,52.28730773925781,97.44075012207033,1.715667724609375
244682,0.311859130859375,0.9464569091796876,-0.451263427734375,1.432648301124573,-0.2651523053646088,0.4980417490005493,52.28730773925781,97.44075012207033,1.715667724609375
244683,0.3413238525390625,0.7368316650390625,-0.518524169921875,1.799013733863831,-0.6183668375015259,0.5869641900062561,52.61538696289062,97.62638854980467,1.112319946289062
244684,0.26031494140625,0.534027099609375,-0.394500732421875,2.017978191375732,-0.4254240095615387,0.6232558488845825,52.88099670410156,97.76803588867188,0.5271453857421875
244685,0.1427764892578125,0.3291473388671875,-0.3073883056640625,1.943817853927612,-0.0038743666373193,0.6656741499900818,53.15428161621094,98.03590393066406,-0.311065673828125
244686,0.1427764892578125,0.3291473388671875,-0.3073883056640625,1.943817853927612,-0.0038743666373193,0.6656741499900818,53.15428161621094,98.03590393066406,-0.311065673828125
244687,-0.0693511962890625,0.10687255859375,-0.233062744140625,1.492672801017761,0.3574135303497314,0.6728862524032593,53.69537353515625,98.69410705566406,-2.080245971679688
244688,-0.1235504150390625,0.02734375,-0.1471099853515625,1.272920727729797,0.4007972180843353,0.5803057551383972,53.97746276855469,98.88302612304688,-2.792190551757812
244689,-0.14324951171875,-0.0200653076171875,-0.0333251953125,0.9598562717437744,0.6769712567329407,0.2736962735652924,54.18858337402344,99.11857604980467,-3.484695434570312
244690,-0.14324951171875,-0.0200653076171875,-0.0333251953125,0.9598562717437744,0.6769712567329407,0.2736962735652924,54.18858337402344,99.11857604980467,-3.484695434570312
244691,-0.1562347412109375,-0.0804595947265625,0.1471710205078125,0.8546355366706848,0.8982384204864502,0.1346166729927063,54.67135620117188,99.54966735839844,-4.668548583984375
244692,-0.152862548828125,-0.119384765625,0.1589508056640625,0.7793352007865906,1.074059247970581,0.0535865277051925,54.65676879882812,99.62619018554688,-4.9962158203125
244693,-0.1518707275390625,-0.1356658935546875,0.1435699462890625,0.7272149920463562,1.166594743728638,0.0001368864759569,54.65234375,99.73204040527344,-5.345123291015625
244694,-0.1518707275390625,-0.1356658935546875,0.1435699462890625,0.7272149920463562,1.166594743728638,0.0001368864759569,54.65234375,99.73204040527344,-5.345123291015625
244695,-0.1296844482421875,-0.178436279296875,0.102294921875,0.5983771681785583,1.108309626579285,-0.1015348806977272,54.685546875,99.76988220214844,-6.049606323242188
244696,-0.115814208984375,-0.17962646484375,0.09954833984375,0.3530555367469788,1.066917777061462,-0.2395960837602615,54.74250793457031,99.71408081054688,-6.246856689453125
244697,-0.1021728515625,-0.170562744140625,0.115966796875,0.3530555367469788,1.066917777061462,-0.2395960837602615,54.69537353515625,99.83883666992188,-6.53472900390625
244698,-0.1021728515625,-0.170562744140625,0.115966796875,0.3530555367469788,1.066917777061462,-0.2395960837602615,54.69537353515625,99.83883666992188,-6.53472900390625
244699,-0.094146728515625,-0.1283416748046875,0.160675048828125,-0.0022000374738126,1.381344318389893,-0.4186870157718658,54.4080810546875,100.0156707763672,-6.784011840820312
244700,-0.08837890625,-0.1135406494140625,0.1357421875,-0.1773601323366165,1.586848497390747,-0.5246542096138,54.22711181640625,100.0936126708984,-6.840744018554688
244701,-0.0749664306640625,-0.110443115234375,0.0438232421875,-0.5034908652305603,1.634245276451111,-0.7250487804412842,53.64961242675781,100.4066467285156,-6.570388793945312
244702,-0.0749664306640625,-0.110443115234375,0.0438232421875,-0.5034908652305603,1.634245276451111,-0.7250487804412842,53.64961242675781,100.4066467285156,-6.570388793945312
244703,-0.0772705078125,-0.1160736083984375,0.012451171875,-0.6895227432250977,1.495307207107544,-0.8200181722640991,53.28392028808594,100.3478088378906,-5.961990356445312
244704,-0.0789794921875,-0.122589111328125,-0.010406494140625,-0.900942862033844,1.315521955490112,-0.9028592705726624,52.91419982910156,100.3408050537109,-5.471160888671875
244705,-0.078399658203125,-0.1305694580078125,-0.0427398681640625,-1.100892424583435,1.145760297775269,-0.9635439515113832,52.49220275878906,100.3973999023438,-5.018829345703125
244706,-0.078399658203125,-0.1305694580078125,-0.0427398681640625,-1.100892424583435,1.145760297775269,-0.9635439515113832,52.49220275878906,100.3973999023438,-5.018829345703125
244707,-0.013092041015625,-0.200286865234375,-0.4236297607421875,-1.383697509765625,0.5157626867294312,-0.9657878875732422,51.51934814453125,100.4570770263672,-3.7030029296875
244708,0.08697509765625,-0.11224365234375,-0.586212158203125,-1.463825702667236,-0.2249670624732971,-0.900716245174408,50.94267272949219,100.3777923583984,-2.912261962890625
244709,0.0432891845703125,0.191925048828125,-0.5100555419921875,-1.542483448982239,-0.8266111016273499,-0.897124707698822,50.49421691894531,100.2495727539062,-2.254806518554688
244710,0.0432891845703125,0.191925048828125,-0.5100555419921875,-1.542483448982239,-0.8266111016273499,-0.897124707698822,50.49421691894531,100.2495727539062,-2.254806518554688
244711,-0.1442718505859375,0.2779541015625,0.2361907958984375,-1.587409138679504,0.013693974353373,-0.8609179258346558,49.464599609375,99.89973449707033,-0.981109619140625
244712,-0.1760101318359375,0.4114227294921875,0.5185394287109375,-1.814835071563721,0.7639415860176086,-0.8388563394546509,48.91314697265625,99.6683349609375,-0.3477020263671875
244713,-0.26470947265625,1.377899169921875,0.8020477294921875,-1.926152586936951,1.03497314453125,-0.9782613515853882,48.27854919433594,99.48422241210938,0.2803192138671875
244714,-0.227325439453125,4.131195068359375,1.035964965820312,-1.324281334877014,1.932330012321472,-0.8946838974952698,47.63499450683594,99.14492797851562,0.6627349853515625
244715,-0.14764404296875,6.850341796875,0.908843994140625,-0.8027883172035217,0.9749323725700378,1.106366872787476,46.90226745605469,99.0924835205078,0.737548828125
244716,-0.7905120849609375,7.971405029296875,1.2030029296875,0.4172558188438416,1.21283495426178,1.922106981277466,46.51609802246094,99.16029357910156,0.43316650390625
244717,-0.5076141357421875,5.287826538085938,0.555267333984375,0.9611316323280334,0.7908230423927307,0.0003254382754676,46.6824951171875,99.30067443847656,0.0935516357421875
244718,-0.0883331298828125,2.499603271484375,0.0261993408203125,0.4112341403961182,-0.9727302193641664,-0.8199212551116943,47.27449035644531,99.27986145019533,-0.02301025390625
244719,0.0563507080078125,1.228286743164062,-0.2239227294921875,-0.6633263230323792,-2.791159152984619,-1.064673185348511,47.39730834960938,99.16445922851562,-0.0477447509765625
244720,0.2018585205078125,1.228988647460938,-0.6241607666015625,-1.847958087921143,-3.752337694168091,-1.091626763343811,47.19294738769531,98.87019348144533,0.28717041015625
244721,0.533843994140625,2.179550170898438,-0.87091064453125,-2.662331581115723,-1.178698301315308,-0.947340726852417,46.7913818359375,98.54193115234376,0.8496246337890625
244722,0.533843994140625,2.179550170898438,-0.87091064453125,-2.662331581115723,-1.178698301315308,-0.947340726852417,46.7913818359375,98.54193115234376,0.8496246337890625
244723,0.9079742431640624,2.39166259765625,-1.168792724609375,1.56626307964325,-0.9798981547355652,0.1353178769350052,46.31121826171875,97.36659240722656,3.03790283203125
244724,0.62457275390625,2.248672485351562,-0.201934814453125,2.885823488235474,-1.181198477745056,0.0352426767349243,46.35545349121094,96.91421508789062,3.663681030273438
244725,0.4834747314453125,1.904037475585938,-0.164306640625,2.627395153045654,-1.065514206886292,0.0031358720734715,46.50657653808594,96.9382781982422,3.46563720703125
244726,0.4834747314453125,1.904037475585938,-0.164306640625,2.627395153045654,-1.065514206886292,0.0031358720734715,46.50657653808594,96.9382781982422,3.46563720703125
244727,0.0238494873046875,1.203598022460938,-0.119873046875,1.516942381858826,-1.013287305831909,0.3673798739910126,47.26473999023438,97.35513305664062,1.412857055664062
244728,-0.05865478515625,0.9500579833984376,-0.1922149658203125,1.471530437469482,-1.120058178901672,0.5370205640792847,47.47366333007812,97.6605224609375,0.301177978515625
244729,-0.178955078125,0.7183837890625,-0.2004547119140625,1.778247714042664,-0.8929679989814758,0.7272392511367798,47.88490295410156,97.98014831542967,-0.620330810546875
244730,-0.178955078125,0.7183837890625,-0.2004547119140625,1.778247714042664,-0.8929679989814758,0.7272392511367798,47.88490295410156,97.98014831542967,-0.620330810546875
244731,-0.411712646484375,0.3800048828125,-0.0312652587890625,1.811736464500427,-0.3496831655502319,0.7004830241203308,48.58151245117188,98.54029846191406,-2.005477905273438
244732,-0.4473724365234375,0.2867584228515625,0.021636962890625,1.684743881225586,0.2316457480192184,0.6028222441673279,48.92410278320312,98.88949584960938,-2.735855102539062
244733,-0.424560546875,0.207611083984375,0.05975341796875,1.459763526916504,0.6791108846664429,0.4717715382575989,49.24705505371094,99.2315673828125,-3.582260131835938
244734,-0.424560546875,0.207611083984375,0.05975341796875,1.459763526916504,0.6791108846664429,0.4717715382575989,49.24705505371094,99.2315673828125,-3.582260131835938
244735,-0.35357666015625,0.101470947265625,0.288055419921875,0.9689525365829468,1.611880660057068,0.167924553155899,49.55662536621094,99.70578002929688,-5.38262939453125
244736,-0.3225860595703125,0.082733154296875,0.320343017578125,0.7790145874023438,2.105013132095337,0.0196778308600187,49.6883544921875,99.72476196289062,-5.80731201171875
244737,-0.2897796630859375,0.065460205078125,0.2908782958984375,0.6440639495849609,2.483057022094727,-0.1136269643902779,49.67262268066406,99.79135131835938,-6.271148681640625
244738,-0.2897796630859375,0.065460205078125,0.2908782958984375,0.6440639495849609,2.483057022094727,-0.1136269643902779,49.67262268066406,99.79135131835938,-6.271148681640625
244739,-0.21771240234375,-0.025238037109375,0.0601043701171875,0.4914402961730957,2.452942371368408,-0.1666715443134308,49.45423889160156,99.91453552246094,-7.16009521484375
244740,-0.1758270263671875,-0.07232666015625,-0.0080718994140625,0.3877141773700714,2.038985013961792,-0.0784042626619339,49.28105163574219,100.0555725097656,-7.431747436523438
244741,-0.134674072265625,-0.0845947265625,0.0208892822265625,0.1654528826475143,1.436303973197937,0.0354458764195442,49.01553344726562,100.1020202636719,-7.668075561523438
244742,-0.134674072265625,-0.0845947265625,0.0208892822265625,0.1654528826475143,1.436303973197937,0.0354458764195442,49.01553344726562,100.1020202636719,-7.668075561523438
244743,-0.0793609619140625,-0.1001129150390625,0.08050537109375,0.02307815477252,1.350018978118896,0.0118076568469405,48.61695861816406,100.1571655273438,-8.189041137695312
244744,-0.0544586181640625,-0.1338043212890625,0.0074310302734375,-0.1332291662693024,1.244337558746338,-0.0284135323017835,48.51516723632812,100.1415710449219,-8.289459228515625
244745,-0.029998779296875,-0.1559600830078125,-0.12603759765625,-0.2730347216129303,0.9954432845115662,-0.0694070383906364,48.39134216308594,100.1241607666016,-8.356277465820312
244746,0.002166748046875,-0.1763916015625,-0.2280120849609375,-0.5370283126831055,0.3348376452922821,-0.0663822218775749,48.33045959472656,100.1977081298828,-8.349853515625
244747,0.02569580078125,-0.1876678466796875,-0.2183685302734375,-0.5370283126831055,0.3348376452922821,-0.0663822218775749,48.15396118164062,100.1803283691406,-8.27325439453125
244748,0.0392303466796875,-0.1861114501953125,-0.1356201171875,-0.6829021573066711,0.394140899181366,-0.0510930120944976,48.06637573242188,100.209716796875,-8.05096435546875
244749,0.0454254150390625,-0.1806182861328125,-0.06268310546875,-0.8333297371864319,0.7358905076980591,-0.0561128035187721,47.89546203613281,100.1797027587891,-7.7525634765625
244750,0.0454254150390625,-0.1806182861328125,-0.06268310546875,-0.8333297371864319,0.7358905076980591,-0.0561128035187721,47.89546203613281,100.1797027587891,-7.7525634765625
244751,0.0568695068359375,-0.171600341796875,-0.069244384765625,-1.129586100578308,1.483028888702393,-0.1266961544752121,47.74519348144531,100.3102111816406,-6.9669189453125
244752,0.0400390625,-0.15924072265625,-0.123046875,-1.282331228256226,1.513709306716919,-0.1734234541654587,47.64161682128906,100.2547454833984,-6.341079711914062
244753,-0.01190185546875,-0.1132659912109375,-0.1723480224609375,-1.43242621421814,0.9119638204574584,-0.3366020023822784,47.58966064453125,100.1401672363281,-5.586441040039062
244754,-0.01190185546875,-0.1132659912109375,-0.1723480224609375,-1.43242621421814,0.9119638204574584,-0.3366020023822784,47.58966064453125,100.1401672363281,-5.586441040039062
244755,-0.0218658447265625,0.230865478515625,-0.1297760009765625,-1.434495449066162,0.5744454264640808,-0.4300536513328552,47.252685546875,99.83668518066406,-4.217071533203125
244756,0.03411865234375,0.2696533203125,0.0698394775390625,-1.445297241210938,0.3910574913024902,-0.5299528241157532,47.00263977050781,99.6474609375,-3.561370849609375
244757,0.0754852294921875,0.269866943359375,0.3847503662109375,-1.48596715927124,0.6699554324150085,-0.6393248438835144,46.653076171875,99.48143005371094,-2.856903076171875
244758,0.1002960205078125,0.36126708984375,0.666778564453125,-1.449099183082581,1.480475425720215,-0.7669086456298828,46.24034118652344,99.4697265625,-2.398773193359375
244759,0.3114013671875,1.577362060546875,0.7917938232421875,-1.232079029083252,2.450467109680176,-0.6011534929275513,45.68293762207031,99.34352111816406,-2.022048950195312
244760,0.4616851806640625,2.962722778320312,0.945587158203125,-1.239382386207581,2.457250595092773,0.5047459602355957,44.98924255371094,99.14559936523438,-1.746841430664062
244761,0.1000823974609375,4.523101806640625,1.4534912109375,-1.258465886116028,1.62014627456665,1.347856402397156,44.30856323242188,99.12924194335938,-1.818222045898438
244762,0.1000823974609375,4.523101806640625,1.4534912109375,-1.258465886116028,1.62014627456665,1.347856402397156,44.30856323242188,99.12924194335938,-1.818222045898438
244763,-0.9139404296875,6.813568115234375,2.396743774414062,-0.5636609792709351,1.461345672607422,-0.3993961215019226,44.36393737792969,98.81478881835938,-1.807296752929688
244764,-0.770843505859375,4.84283447265625,1.459930419921875,-0.5679105520248413,3.123886108398438,-1.294165253639221,44.96392822265625,98.5860595703125,-1.495407104492188
244765,-0.4811859130859375,2.347396850585938,0.1459808349609375,-1.153226494789124,1.50735878944397,-1.867910861968994,45.14485168457031,98.27590942382812,-1.37353515625
244766,-0.4811859130859375,2.347396850585938,0.1459808349609375,-1.153226494789124,1.50735878944397,-1.867910861968994,45.14485168457031,98.27590942382812,-1.37353515625
244767,-0.0285491943359375,1.030166625976562,-1.9493408203125,-1.503495335578918,-2.711995363235474,-1.893033266067505,43.7147216796875,97.79655456542967,-0.690948486328125
244768,0.1961669921875,1.511474609375,-2.571914672851562,-0.5024279952049255,-1.575299143791199,1.021890640258789,42.47666931152344,97.46653747558594,-0.0075836181640625
244769,0.364898681640625,2.284835815429688,-0.64874267578125,-0.5024279952049255,-1.575299143791199,1.021890640258789,41.34298706054688,97.31141662597656,0.7308197021484375
244770,0.364898681640625,2.284835815429688,-0.64874267578125,-0.5024279952049255,-1.575299143791199,1.021890640258789,41.34298706054688,97.31141662597656,0.7308197021484375
244771,0.40789794921875,2.172607421875,-0.280792236328125,2.653496742248535,1.662456750869751,0.9177737832069396,41.1748046875,97.08685302734376,2.833648681640625
244772,0.296417236328125,1.828567504882812,-0.4241485595703125,2.2221839427948,0.7663962244987488,0.5889686942100525,41.67716979980469,96.89485168457033,2.972549438476562
244773,0.124176025390625,1.464141845703125,-0.3131561279296875,0.9347948431968688,-0.0266148336231708,0.3055873513221741,42.12123107910156,97.02548217773438,2.074493408203125
244774,0.0399627685546875,1.114791870117188,-0.3191070556640625,0.9347948431968688,-0.0266148336231708,0.3055873513221741,42.4066162109375,97.21524047851562,0.813629150390625
244775,0.0399627685546875,1.114791870117188,-0.3191070556640625,0.9347948431968688,-0.0266148336231708,0.3055873513221741,42.4066162109375,97.21524047851562,0.813629150390625
244776,0.049041748046875,0.6079864501953125,-0.7786712646484375,1.253966450691223,-0.4139612317085266,0.6360113620758057,42.83052062988281,97.55598449707033,-0.68328857421875
244777,-0.0605316162109375,0.3712615966796875,-0.689208984375,1.50304651260376,-0.352401465177536,0.7280746698379517,43.19703674316406,98.11297607421876,-1.39691162109375
244778,-0.0605316162109375,0.3712615966796875,-0.689208984375,1.50304651260376,-0.352401465177536,0.7280746698379517,43.19703674316406,98.11297607421876,-1.39691162109375
244779,-0.181396484375,0.1699676513671875,-0.484344482421875,1.469036340713501,0.3258990049362183,0.6140647530555725,43.84005737304688,98.46662902832033,-2.671096801757812
244780,-0.19573974609375,0.1860504150390625,-0.4215850830078125,1.34284496307373,0.4024760723114014,0.4811011254787445,44.10986328125,98.70126342773438,-3.373077392578125
244781,-0.1623992919921875,0.2024078369140625,-0.3209228515625,1.251938939094543,0.344071626663208,0.3485281467437744,44.33250427246094,98.8896026611328,-4.02130126953125
244782,-0.1623992919921875,0.2024078369140625,-0.3209228515625,1.251938939094543,0.344071626663208,0.3485281467437744,44.33250427246094,98.8896026611328,-4.02130126953125
244783,-0.0148162841796875,0.2377471923828125,0.11993408203125,1.137866139411926,0.6592506170272827,0.1623931676149368,44.59954833984375,99.38226318359376,-5.289047241210938
244784,-0.004913330078125,0.242156982421875,0.3048095703125,1.072904467582703,1.204211354255676,0.0694381967186927,44.71864318847656,99.46275329589844,-5.983230590820312
244785,0.002197265625,0.2123870849609375,0.3128509521484375,0.9006842970848083,2.054177045822144,0.002951315138489,44.73060607910156,99.53964233398438,-6.507232666015625
244786,0.002197265625,0.2123870849609375,0.3128509521484375,0.9006842970848083,2.054177045822144,0.002951315138489,44.73060607910156,99.53964233398438,-6.507232666015625
244787,0.00128173828125,0.102325439453125,0.1282958984375,0.8290223479270935,2.148407459259033,0.0197792965918779,44.55282592773438,99.72721862792967,-7.62322998046875
244788,-0.009735107421875,0.047027587890625,0.094940185546875,0.7634361386299133,2.161471605300903,0.0321363657712936,44.42306518554688,99.80973815917967,-8.23651123046875
244789,-0.0490570068359375,-0.025848388671875,0.0972747802734375,0.6614605188369751,2.210375547409058,-0.0149659002199769,44.33145141601562,100.1228485107422,-9.120590209960938
244790,-0.0490570068359375,-0.025848388671875,0.0972747802734375,0.6614605188369751,2.210375547409058,-0.0149659002199769,44.33145141601562,100.1228485107422,-9.120590209960938
244791,-0.0612640380859375,-0.06097412109375,0.1155242919921875,0.5928787589073181,2.255981922149658,-0.0868163853883743,44.419189453125,100.1355285644531,-9.642288208007812
244792,-0.0742340087890625,-0.08709716796875,0.1061859130859375,0.4871249198913574,2.270073413848877,-0.1654158532619476,44.31745910644531,99.99151611328124,-10.0374755859375
244793,-0.1130218505859375,-0.115570068359375,0.0760498046875,0.2224423885345459,2.011278867721558,-0.3445320725440979,44.35301208496094,99.97572326660156,-10.63774108886719
244794,-0.1130218505859375,-0.115570068359375,0.0760498046875,0.2224423885345459,2.011278867721558,-0.3445320725440979,44.35301208496094,99.97572326660156,-10.63774108886719
244795,-0.139495849609375,-0.1341552734375,0.0727996826171875,0.1005758792161942,1.777616381645203,-0.4357181787490845,44.31759643554688,100.030517578125,-10.81002807617188
244796,-0.1675872802734375,-0.159515380859375,0.0886688232421875,0.0171747263520956,1.506298065185547,-0.522645890712738,44.18035888671875,99.99794006347656,-10.888916015625
244797,-0.1948699951171875,-0.185699462890625,0.11883544921875,-0.0361667908728122,1.240114569664001,-0.5849745273590088,44.03713989257812,100.0332183837891,-10.93185424804688
244798,-0.1948699951171875,-0.185699462890625,0.11883544921875,-0.0361667908728122,1.240114569664001,-0.5849745273590088,44.03713989257812,100.0332183837891,-10.93185424804688
244799,-0.223785400390625,-0.2086334228515625,0.204376220703125,-0.1251616477966309,0.9491071701049804,-0.6495106220245361,43.38301086425781,100.1493682861328,-11.05366516113281
244800,-0.2283935546875,-0.180450439453125,0.226470947265625,-0.2419527173042297,0.8972535729408264,-0.7047126293182373,43.01097106933594,100.1159973144531,-10.92941284179688
244801,-0.2525482177734375,-0.1078033447265625,0.2494049072265625,-0.4227230250835419,0.8259498476982117,-0.8147326111793518,42.61294555664062,100.2840576171875,-10.93186950683594
244802,-0.2525482177734375,-0.1078033447265625,0.2494049072265625,-0.4227230250835419,0.8259498476982117,-0.8147326111793518,42.61294555664062,100.2840576171875,-10.93186950683594
244803,-0.23638916015625,0.2630462646484375,0.2364501953125,-1.160296082496643,0.3679039776325226,-1.015622854232788,41.60385131835938,100.4303588867188,-10.84651184082031
244804,-0.242950439453125,0.4013824462890625,0.3582763671875,-1.776137232780457,-0.0564896427094936,-1.123056411743164,41.05119323730469,100.3633270263672,-10.54292297363281
244805,-0.4910125732421875,1.782760620117188,0.679473876953125,-2.844368457794189,0.0091807153075933,-1.29627788066864,39.80101013183594,100.2041320800781,-9.575088500976562
244806,-0.4910125732421875,1.782760620117188,0.679473876953125,-2.844368457794189,0.0091807153075933,-1.29627788066864,39.80101013183594,100.2041320800781,-9.575088500976562
244807,-0.708465576171875,3.291183471679688,0.5574188232421875,-2.434735059738159,-0.2212982922792435,-1.390878438949585,39.15251159667969,100.0553283691406,-8.762420654296875
244808,-0.74468994140625,4.673019409179688,0.660064697265625,-1.099737405776978,-1.864941954612732,-0.7703784704208374,38.48066711425781,99.79188537597656,-7.7230224609375
244809,-0.7110137939453125,7.499282836914062,1.085098266601562,0.6274333000183105,-2.069287300109863,1.100435733795166,38.07456970214844,99.61795043945312,-7.17669677734375
244810,-0.7110137939453125,7.499282836914062,1.085098266601562,0.6274333000183105,-2.069287300109863,1.100435733795166,38.07456970214844,99.61795043945312,-7.17669677734375
244811,-0.0267333984375,3.30487060546875,0.0241546630859375,0.8285126090049744,-0.5133317708969116,0.3932964205741882,38.9827880859375,99.33261108398438,-7.322662353515625
244812,0.082000732421875,1.840316772460938,-1.23907470703125,-1.099096655845642,-2.203006982803345,-0.3862089514732361,39.31889343261719,99.24375915527344,-7.390838623046875
244813,0.319183349609375,1.46722412109375,-0.800689697265625,-2.79854154586792,0.0736851394176483,-0.4474683105945587,39.03958129882812,99.19862365722656,-7.0108642578125
244814,0.319183349609375,1.46722412109375,-0.800689697265625,-2.79854154586792,0.0736851394176483,-0.4474683105945587,39.03958129882812,99.19862365722656,-7.0108642578125
244815,0.9993896484375,2.528091430664062,-1.55706787109375,2.165494680404663,-0.3893320560455322,0.2206860333681107,37.88359069824219,98.9459991455078,-4.082107543945312
244816,0.8244476318359375,2.657211303710938,-1.0823974609375,2.165494680404663,-0.3893320560455322,0.2206860333681107,37.87272644042969,98.56608581542967,-2.945785522460938
244817,0.675506591796875,2.355255126953125,-0.2402191162109375,3.179872035980225,-0.6350118517875671,0.1272564828395844,37.92950439453125,98.4103546142578,-2.771240234375
244818,0.675506591796875,2.355255126953125,-0.2402191162109375,3.179872035980225,-0.6350118517875671,0.1272564828395844,37.92950439453125,98.4103546142578,-2.771240234375
244819,0.381805419921875,1.616424560546875,-0.13543701171875,1.810200929641724,-0.8995478749275208,0.0035451999865472,38.41001892089844,98.69590759277344,-4.810745239257812
244820,0.1479034423828125,1.199249267578125,-0.1069793701171875,1.373112559318542,-0.534891664981842,0.169926181435585,38.70207214355469,98.74386596679688,-5.915603637695312
244821,0.0495452880859375,0.9338836669921876,-0.2774200439453125,1.484920501708984,-0.4287827908992767,0.3732268512248993,38.91964721679688,98.75843811035156,-6.6378173828125
244822,0.0495452880859375,0.9338836669921876,-0.2774200439453125,1.484920501708984,-0.4287827908992767,0.3732268512248993,38.91964721679688,98.75843811035156,-6.6378173828125
244823,-0.103302001953125,0.484130859375,-0.3516693115234375,1.974054336547852,-0.4303473830223083,0.4633772373199463,39.45419311523438,98.96937561035156,-7.92877197265625
244824,-0.1590576171875,0.250732421875,-0.3147125244140625,1.982622742652893,-0.2803296744823456,0.4702450037002563,39.63726806640625,99.0419921875,-8.701156616210938
244825,-0.2060699462890625,-0.017578125,-0.1245880126953125,1.657249689102173,0.4653527736663818,0.4826795756816864,40.08621215820312,99.47129821777344,-10.487548828125
244826,-0.2060699462890625,-0.017578125,-0.1245880126953125,1.657249689102173,0.4653527736663818,0.4826795756816864,40.08621215820312,99.47129821777344,-10.487548828125
244827,-0.21630859375,-0.0952606201171875,-0.00836181640625,1.469014048576355,1.011579871177673,0.418683797121048,40.29774475097656,99.53385925292967,-11.22908020019531
244828,-0.201690673828125,-0.1640777587890625,0.025421142578125,1.302955508232117,1.539465546607971,0.3578409552574158,40.6058349609375,99.57272338867188,-11.96681213378906
244829,-0.1905517578125,-0.1135711669921875,0.076141357421875,0.8892377614974976,1.769322156906128,0.294866532087326,40.83712768554688,99.9135284423828,-13.6468505859375
244830,-0.1905517578125,-0.1135711669921875,0.076141357421875,0.8892377614974976,1.769322156906128,0.294866532087326,40.83712768554688,99.9135284423828,-13.6468505859375
244831,-0.2460174560546875,-0.0533294677734375,0.12786865234375,0.693309485912323,1.856918096542358,0.216477707028389,40.97982788085938,100.1071319580078,-14.31575012207031
244832,-0.272186279296875,-0.0402069091796875,0.0944366455078125,0.5684983134269714,1.936086893081665,0.1230364441871643,41.06529235839844,100.1015625,-14.92166137695312
244833,-0.272186279296875,-0.0402069091796875,0.0944366455078125,0.5684983134269714,1.936086893081665,0.1230364441871643,41.06529235839844,100.1015625,-14.92166137695312
244834,-0.268218994140625,-0.0798797607421875,0.03729248046875,0.4920339286327362,1.917271137237549,0.050190731883049,41.22789001464844,100.1077117919922,-15.56388854980469
244835,-0.2603912353515625,-0.16754150390625,0.025909423828125,0.1999847590923309,2.073256015777588,-0.092194378376007,41.31034851074219,100.36279296875,-16.47398376464844
244836,-0.25018310546875,-0.1839447021484375,0.0381927490234375,0.1999847590923309,2.073256015777588,-0.092194378376007,41.32040405273438,100.26708984375,-16.84686279296875
244837,-0.2279205322265625,-0.198486328125,0.00140380859375,0.0077790934592485,2.302931547164917,-0.1396234035491943,41.3697509765625,100.3043670654297,-17.17796325683594
244838,-0.2279205322265625,-0.198486328125,0.00140380859375,0.0077790934592485,2.302931547164917,-0.1396234035491943,41.3697509765625,100.3043670654297,-17.17796325683594
244839,-0.1299285888671875,-0.24371337890625,-0.17315673828125,-0.4813362658023834,2.304599285125732,-0.1148181930184364,41.49530029296875,100.6049194335938,-17.79666137695312
244840,-0.0922393798828125,-0.2396392822265625,-0.1738128662109375,-0.722676157951355,2.103759527206421,-0.0554038695991039,41.52218627929688,100.5808258056641,-17.77140808105469
244841,-0.0551910400390625,-0.206207275390625,-0.14666748046875,-0.9546207189559937,1.693742990493774,-0.0413415804505348,41.64166259765625,100.53369140625,-17.64358520507812
244842,-0.0551910400390625,-0.206207275390625,-0.14666748046875,-0.9546207189559937,1.693742990493774,-0.0413415804505348,41.64166259765625,100.53369140625,-17.64358520507812
244843,-0.020233154296875,-0.1421661376953125,-0.0578155517578125,-1.005344152450562,1.51515007019043,-0.1096149086952209,41.98934936523438,100.8028717041016,-16.82119750976562
244844,-0.0258026123046875,-0.1272430419921875,-0.03759765625,-1.068471670150757,1.382679104804993,-0.1881475299596786,42.17533874511719,100.7606201171875,-16.24919128417969
244845,-0.036834716796875,-0.109619140625,-0.04339599609375,-1.161882638931274,1.195675134658813,-0.287293553352356,42.22994995117188,100.6116333007812,-15.48397827148438
244846,-0.036834716796875,-0.109619140625,-0.04339599609375,-1.161882638931274,1.195675134658813,-0.287293553352356,42.22994995117188,100.6116333007812,-15.48397827148438
244847,-0.0950927734375,0.0293426513671875,-0.04193115234375,-1.444547891616821,0.5117408037185669,-0.6135576963424683,42.15699768066406,100.5016174316406,-14.24192810058594
244848,-0.10308837890625,0.123291015625,0.0360565185546875,-1.658496618270874,0.1982449144124985,-0.6407173871994019,41.99136352539062,100.5004577636719,-13.66513061523438
244849,-0.127899169921875,0.154052734375,0.20745849609375,-1.963795781135559,0.0842152759432792,-0.605438232421875,41.56449890136719,100.6006164550781,-13.02926635742188
244850,-0.127899169921875,0.154052734375,0.20745849609375,-1.963795781135559,0.0842152759432792,-0.605438232421875,41.56449890136719,100.6006164550781,-13.02926635742188
244851,-0.2036895751953125,0.6644287109375,0.9344329833984376,-2.271488189697266,1.253617882728577,-0.7231329083442688,40.34153747558594,100.6828308105469,-12.00454711914062
244852,-0.3977508544921875,2.778366088867188,1.331329345703125,-1.747514605522156,2.273696184158325,-1.018391728401184,39.74462890625,100.6652984619141,-11.59202575683594
244853,-0.7301483154296875,6.317214965820312,1.767929077148438,1.130577921867371,4.576499462127686,3.005718946456909,39.15910339355469,100.6462707519531,-11.33847045898438
244854,-0.7301483154296875,6.317214965820312,1.767929077148438,1.130577921867371,4.576499462127686,3.005718946456909,39.15910339355469,100.6462707519531,-11.33847045898438
244855,-0.9423370361328124,7.225753784179688,0.58563232421875,1.83549427986145,4.075242519378662,1.923621773719788,39.06663513183594,101.0959930419922,-13.09317016601562
244856,-0.1277923583984375,3.428848266601562,-0.7428131103515625,0.9101473093032836,0.9953705668449402,0.2091186046600342,40.06193542480469,101.3638305664062,-14.37290954589844
244857,0.0345611572265625,1.300094604492188,-1.40899658203125,-1.002506732940674,-3.716310977935791,-0.8118404150009155,40.91859436035156,101.3520355224609,-14.9942626953125
244858,0.2176971435546875,0.8426513671875,-0.4307403564453125,-2.334809303283691,-5.730246067047119,-1.349181413650513,40.64892578125,101.0980682373047,-14.61642456054688
244859,0.6809234619140625,1.19964599609375,0.3797607421875,-2.954495668411255,-3.487786293029785,-1.120882630348206,39.81301879882812,101.0081176757812,-13.50971984863281
244860,1.4759521484375,1.86712646484375,-0.8099822998046875,-3.037028074264526,2.328435897827148,0.0081514036282897,38.91802978515625,100.7204742431641,-11.74253845214844
244861,0.773712158203125,1.69244384765625,-0.7029571533203125,2.419082641601562,-0.5412411689758301,0.7762278318405151,38.209228515625,99.7471160888672,-8.720230102539062
244862,0.773712158203125,1.69244384765625,-0.7029571533203125,2.419082641601562,-0.5412411689758301,0.7762278318405151,38.209228515625,99.7471160888672,-8.720230102539062
244863,0.4402008056640625,1.277603149414062,-0.26629638671875,3.235223054885864,-0.3200336694717407,0.6594857573509216,38.44795227050781,99.70501708984376,-8.371932983398438
244864,0.2466278076171875,1.126846313476562,-0.41064453125,2.673683643341064,-0.2332100868225098,0.5657027959823608,38.93605041503906,99.6580047607422,-9.0374755859375
244865,0.1422882080078125,0.9794921875,-0.2785186767578125,1.649636268615723,-0.0239253062754869,0.5844272375106812,39.25347900390625,99.7944793701172,-10.54296875
244866,0.1422882080078125,0.9794921875,-0.2785186767578125,1.649636268615723,-0.0239253062754869,0.5844272375106812,39.25347900390625,99.7944793701172,-10.54296875
244867,0.0414276123046875,0.6103363037109375,-0.532135009765625,0.8223814964294434,-0.070770040154457,0.7318270802497864,39.97604370117188,99.91169738769533,-12.78709411621094
244868,-0.0430755615234375,0.4485015869140625,-0.6207275390625,1.032043099403381,-0.4210633337497711,0.7375091910362244,40.38922119140625,99.77371215820312,-13.17420959472656
244869,-0.1414642333984375,0.3230438232421875,-0.436553955078125,1.327503800392151,-0.3290865421295166,0.6617923378944397,40.78440856933594,99.91384887695312,-13.57859802246094
244870,-0.1414642333984375,0.3230438232421875,-0.436553955078125,1.327503800392151,-0.3290865421295166,0.6617923378944397,40.78440856933594,99.91384887695312,-13.57859802246094
244871,-0.258148193359375,0.1524505615234375,-0.2101287841796875,1.396538972854614,0.694421648979187,0.385054737329483,41.40443420410156,100.1062622070312,-14.22904968261719
244872,-0.239837646484375,0.0745391845703125,-0.1507415771484375,1.2975754737854,0.9776533246040344,0.2706016600131989,41.65127563476562,100.3317718505859,-14.93414306640625
244873,-0.2044677734375,0.0182952880859375,-0.0764923095703125,1.196326851844788,1.128342986106873,0.15613953769207,41.87123107910156,100.3362884521484,-15.791015625
244874,-0.2044677734375,0.0182952880859375,-0.0764923095703125,1.196326851844788,1.128342986106873,0.15613953769207,41.87123107910156,100.3362884521484,-15.791015625
244875,-0.13958740234375,-0.0269927978515625,0.005157470703125,1.179413080215454,1.123867869377136,0.0848278030753135,42.2283935546875,100.3372344970703,-17.52326965332031
244876,-0.1105804443359375,-0.0423583984375,0.051422119140625,1.15698504447937,1.158671617507935,0.0156170427799224,42.32080078125,100.3239135742188,-18.25967407226562
244877,-0.0806121826171875,-0.069305419921875,0.120086669921875,1.122925043106079,1.303897500038147,-0.0564441010355949,42.39009094238281,100.3468170166016,-18.87762451171875
244878,-0.0806121826171875,-0.069305419921875,0.120086669921875,1.122925043106079,1.303897500038147,-0.0564441010355949,42.39009094238281,100.3468170166016,-18.87762451171875
244879,-0.0561370849609375,-0.1156158447265625,0.1904449462890625,0.990154504776001,1.811770796775818,-0.1764504015445709,42.39939880371094,100.3560485839844,-20.2293701171875
244880,-0.0469207763671875,-0.1251983642578125,0.2074737548828125,0.8743506669998169,2.107246875762939,-0.2433628588914871,42.49745178222656,100.3693389892578,-20.87411499023438
244881,-0.04376220703125,-0.1235504150390625,0.203125,0.7179040908813477,2.366348028182983,-0.3243013918399811,42.49391174316406,100.3301391601562,-21.483154296875
244882,-0.0421142578125,-0.11688232421875,0.176727294921875,0.3302237093448639,2.688070774078369,-0.4909231066703796,42.61659240722656,100.2403106689453,-22.05865478515625
244883,-0.039764404296875,-0.1105194091796875,0.1407470703125,0.3302237093448639,2.688070774078369,-0.4909231066703796,42.85406494140625,100.1546325683594,-22.535400390625
244884,-0.037200927734375,-0.0995635986328125,0.10162353515625,0.1341847032308578,2.705387353897095,-0.5686352252960205,42.93379211425781,100.1101379394531,-22.98095703125
244885,-0.0368194580078125,-0.09246826171875,0.06536865234375,-0.0464825481176376,2.601389646530151,-0.6489388346672058,43.05255126953125,100.1599426269531,-23.25633239746094
244886,-0.0407867431640625,-0.0899200439453125,0.0373687744140625,-0.2080163210630417,2.401498079299927,-0.719298779964447,43.09521484375,100.0872344970703,-23.51950073242188
244887,-0.0482330322265625,-0.087158203125,0.01788330078125,-0.3567219078540802,2.133460998535156,-0.7874187231063843,43.14372253417969,99.96788024902344,-23.5172119140625
244888,-0.0574798583984375,-0.0887451171875,0.006591796875,-0.4927617609500885,1.815000772476196,-0.8444942235946655,43.13423156738281,99.970458984375,-23.49220275878906
244889,-0.0714874267578125,-0.091644287109375,0.006500244140625,-0.8593552112579346,1.027085661888123,-0.9442125558853148,43.06735229492188,100.0707397460938,-23.41903686523438
244890,-0.0714874267578125,-0.091644287109375,0.006500244140625,-0.8593552112579346,1.027085661888123,-0.9442125558853148,43.06735229492188,100.0707397460938,-23.41903686523438
244891,-0.1762847900390625,0.0007171630859375,0.0622406005859375,-1.11319625377655,0.6386982202529907,-0.99433434009552,42.67921447753906,100.1839904785156,-22.86445617675781
244892,-0.20977783203125,0.14111328125,0.11737060546875,-1.91669225692749,-0.2391326874494553,-1.071894407272339,42.3233642578125,100.2295074462891,-22.44606018066406
244893,-0.2453155517578125,0.2712860107421875,0.193511962890625,-2.409357070922852,-0.6075831651687622,-1.107237458229065,41.96621704101562,100.4502716064453,-22.09878540039062
244894,-0.2453155517578125,0.2712860107421875,0.193511962890625,-2.409357070922852,-0.6075831651687622,-1.107237458229065,41.96621704101562,100.4502716064453,-22.09878540039062
244895,-0.582366943359375,1.466323852539062,0.8048248291015625,-2.445745944976807,-0.3679764270782471,-1.326178550720215,40.81517028808594,100.5161437988281,-20.68612670898438
244896,-0.6785430908203125,2.9500732421875,1.076797485351562,-1.806452751159668,0.4041741192340851,-1.58569347858429,40.14262390136719,100.7436828613281,-20.00883483886719
244897,-0.4986114501953125,4.167434692382812,1.248641967773438,-1.146676421165466,0.6927443742752075,-0.7860754132270813,39.42488098144531,100.9703063964844,-19.38200378417969
244898,-0.4986114501953125,4.167434692382812,1.248641967773438,-1.146676421165466,0.6927443742752075,-0.7860754132270813,39.42488098144531,100.9703063964844,-19.38200378417969
244899,-0.41021728515625,6.600997924804688,0.8364410400390625,-0.0121219102293252,2.129209995269775,2.635378360748291,38.46026611328125,101.4123382568359,-18.6868896484375
244900,-0.0790252685546875,3.367080688476562,0.236480712890625,0.1085714846849442,1.30109691619873,1.353838205337524,38.95991516113281,101.8191528320312,-18.70318603515625
244901,-0.0166473388671875,1.838699340820312,-0.2687225341796875,-0.8806820511817932,-2.415057182312012,-0.9912330508232116,40.0968017578125,101.9116821289062,-18.75907897949219
244902,-0.0166473388671875,1.838699340820312,-0.2687225341796875,-0.8806820511817932,-2.415057182312012,-0.9912330508232116,40.0968017578125,101.9116821289062,-18.75907897949219
244903,0.4543609619140625,2.13165283203125,-1.506118774414062,-2.520581722259521,-6.495510578155518,-2.123953819274902,40.99386596679688,101.1241760253906,-18.03947448730469
244904,0.76806640625,2.596755981445312,-0.3941650390625,-3.266774892807007,-7.033254146575928,-2.070467233657837,40.22593688964844,100.8801422119141,-17.3037109375
244905,1.391281127929688,3.366073608398438,-0.681182861328125,-2.65877366065979,0.8218736052513123,-0.4325817823410034,38.869140625,100.9368743896484,-15.84181213378906
244906,1.391281127929688,3.366073608398438,-0.681182861328125,-2.65877366065979,0.8218736052513123,-0.4325817823410034,38.869140625,100.9368743896484,-15.84181213378906
244907,0.876800537109375,2.39593505859375,-0.6557769775390625,3.63400936126709,-0.3631417155265808,0.3901142179965973,36.89263916015625,100.4003753662109,-12.04966735839844
244908,0.3889923095703125,1.66876220703125,-0.31866455078125,4.074355125427246,-0.9212505221366882,0.1571267694234848,37.01426696777344,100.2528839111328,-11.71040344238281
244909,0.0767364501953125,1.335525512695312,-0.1974639892578125,3.420336961746216,-1.320025324821472,0.1882292926311493,37.48994445800781,100.1130523681641,-12.79336547851562
244910,0.0767364501953125,1.335525512695312,-0.1974639892578125,3.420336961746216,-1.320025324821472,0.1882292926311493,37.48994445800781,100.1130523681641,-12.79336547851562
244911,-0.1243743896484375,0.79498291015625,0.1967620849609375,2.119183540344238,-1.072456240653992,0.2317501455545425,37.97006225585938,99.96403503417967,-16.34544372558594
244912,-0.2092742919921875,0.502838134765625,0.1319580078125,1.793023824691772,-0.891229510307312,0.2133157402276993,38.13377380371094,99.79013061523438,-17.7694091796875
244913,-0.436187744140625,0.103759765625,0.0889892578125,1.363280415534973,0.3923361003398895,0.0981627851724624,38.4952392578125,99.4853057861328,-19.65847778320312
244914,-0.436187744140625,0.103759765625,0.0889892578125,1.363280415534973,0.3923361003398895,0.0981627851724624,38.4952392578125,99.4853057861328,-19.65847778320312
244915,-0.65130615234375,-0.13787841796875,0.0312042236328125,1.363280415534973,0.3923361003398895,0.0981627851724624,38.56193542480469,99.6029052734375,-20.42559814453125
244916,-0.786651611328125,-0.3614349365234375,-0.2767181396484375,1.041327714920044,1.168200373649597,0.2785264253616333,38.49676513671875,99.57546997070312,-21.09303283691406
244917,-0.6363677978515625,-0.4089508056640625,-0.5099945068359375,0.907282531261444,1.074823021888733,0.4106879234313965,38.5814208984375,99.48867797851562,-21.85322570800781
244918,-0.6363677978515625,-0.4089508056640625,-0.5099945068359375,0.907282531261444,1.074823021888733,0.4106879234313965,38.5814208984375,99.48867797851562,-21.85322570800781
244919,-0.1133575439453125,0.004241943359375,0.0451507568359375,0.986044704914093,1.107259273529053,0.1864306032657623,38.91481018066406,99.57652282714844,-23.13609313964844
244920,-0.0914154052734375,0.0774993896484375,0.1840057373046875,0.9626946449279784,1.199860334396362,0.0304071735590696,39.18357849121094,99.4687042236328,-23.76300048828125
244921,-0.1097412109375,0.1504058837890625,0.2642822265625,0.811808168888092,1.439050793647766,-0.0961454436182975,39.29412841796875,99.28854370117188,-24.41995239257812
244922,-0.1097412109375,0.1504058837890625,0.2642822265625,0.811808168888092,1.439050793647766,-0.0961454436182975,39.29412841796875,99.28854370117188,-24.41995239257812
244923,-0.1076812744140625,0.04864501953125,0.20562744140625,0.421934187412262,2.168191432952881,-0.2574847936630249,39.54058837890625,99.23088073730467,-25.70960998535156
244924,-0.1079559326171875,-0.0175628662109375,0.1021728515625,0.2493278086185455,2.321715831756592,-0.2568142116069794,39.58816528320312,99.2327117919922,-26.28961181640625
244925,-0.127288818359375,-0.066925048828125,-0.0189056396484375,0.1046523749828339,2.279379844665527,-0.2642114162445068,39.70571899414062,99.3393096923828,-26.75572204589844
244926,-0.127288818359375,-0.066925048828125,-0.0189056396484375,0.1046523749828339,2.279379844665527,-0.2642114162445068,39.70571899414062,99.3393096923828,-26.75572204589844
244927,-0.12969970703125,-0.1583099365234375,-0.197235107421875,-0.1743084192276001,1.597999215126038,-0.2809448540210724,40.01231384277344,99.29161071777344,-27.49160766601562
244928,-0.104522705078125,-0.15667724609375,-0.11724853515625,-0.3050893247127533,1.323920965194702,-0.2808162271976471,40.2410888671875,99.34024047851562,-27.66294860839844
244929,-0.07574462890625,-0.1280364990234375,0.0001220703125,-0.5555079579353333,1.436444640159607,-0.311345100402832,40.48251342773438,99.31639099121094,-27.66850280761719
244930,-0.0458984375,-0.0950927734375,0.0623321533203125,-0.5555079579353333,1.436444640159607,-0.311345100402832,40.53700256347656,99.35501098632812,-27.71275329589844
244931,-0.01800537109375,-0.07177734375,0.080474853515625,-0.6554780006408691,1.570712208747864,-0.3585885167121887,40.65676879882812,99.3878936767578,-27.54904174804688
244932,0.0042266845703125,-0.0624847412109375,0.05999755859375,-0.7375035881996155,1.627585768699646,-0.405604213476181,40.83937072753906,99.47328186035156,-27.41374206542969
244933,0.0201263427734375,-0.0622406005859375,0.0425567626953125,-0.8109173774719238,1.590229988098145,-0.4485522210597992,40.99163818359375,99.37741088867188,-27.16981506347656
244934,0.0201263427734375,-0.0622406005859375,0.0425567626953125,-0.8109173774719238,1.590229988098145,-0.4485522210597992,40.99163818359375,99.37741088867188,-27.16981506347656
244935,0.0303955078125,-0.07598876953125,0.02880859375,-1.067024230957031,1.21136462688446,-0.5102304816246033,41.10762023925781,99.361572265625,-26.28787231445312
244936,0.030914306640625,-0.0849456787109375,0.03271484375,-1.335100650787354,0.7589673399925232,-0.5480449795722961,41.1298828125,99.40325927734376,-25.83415222167969
244937,0.029327392578125,-0.0387725830078125,0.099578857421875,-1.703669905662537,0.1373296231031418,-0.5549508333206177,41.08273315429688,99.26719665527344,-25.31768798828125
244938,0.029327392578125,-0.0387725830078125,0.099578857421875,-1.703669905662537,0.1373296231031418,-0.5549508333206177,41.08273315429688,99.26719665527344,-25.31768798828125
244939,-0.0103302001953125,0.1901702880859375,0.3911895751953125,-2.272406816482544,-0.1958198398351669,-0.5956332683563232,40.69534301757812,99.12017822265624,-24.05645751953125
244940,0.0033111572265625,0.2636566162109375,0.557342529296875,-2.463018894195557,0.1734932214021683,-0.6768056154251099,40.36238098144531,99.26397705078124,-23.33482360839844
244941,0.0026702880859375,0.5407562255859375,0.772552490234375,-2.551695108413696,0.7077457308769226,-0.7508758902549744,39.35630798339844,99.7203369140625,-21.62135314941406
244942,0.0026702880859375,0.5407562255859375,0.772552490234375,-2.551695108413696,0.7077457308769226,-0.7508758902549744,39.35630798339844,99.7203369140625,-21.62135314941406
244943,-0.1184539794921875,4.155899047851562,1.504104614257812,-1.488201022148132,2.003681182861328,0.3395271897315979,38.29454040527344,100.4195404052734,-20.71380615234375
244944,-0.6479949951171875,6.657989501953125,2.02130126953125,-0.1271078884601593,2.48691987991333,1.232726335525513,38.3099365234375,100.7859191894531,-20.75186157226562
244945,-1.35107421875,8.062225341796875,1.94287109375,1.202493071556091,5.161544799804688,1.035663962364197,38.94358825683594,100.9686584472656,-21.21492004394531
244946,-0.8517608642578125,5.40350341796875,0.216064453125,1.73558497428894,6.131935596466064,-0.9731563329696656,39.78623962402344,101.10107421875,-22.005859375
244947,-0.2408294677734375,1.9716796875,-2.087371826171875,0.608654260635376,1.767279863357544,-1.285742163658142,40.42967224121094,101.0055389404297,-23.01791381835938
244948,-0.42913818359375,0.796051025390625,-2.242111206054688,-1.348895907402039,-4.504457950592041,-1.659913182258606,40.21844482421875,100.7520599365234,-23.5882568359375
244949,-0.417266845703125,0.7006378173828125,-0.002044677734375,-2.824540138244629,-2.937898397445679,-1.473540306091309,39.02926635742188,100.8936004638672,-23.26716613769531
244950,-0.417266845703125,0.7006378173828125,-0.002044677734375,-2.824540138244629,-2.937898397445679,-1.473540306091309,39.02926635742188,100.8936004638672,-23.26716613769531
244951,0.4824676513671875,2.146697998046875,-0.9069976806640624,-1.179787516593933,0.0041249701753258,0.7360553741455078,36.86216735839844,101.1011810302734,-20.30174255371094
244952,0.4974822998046875,2.498184204101562,-0.7400054931640625,1.24747097492218,-0.4074596464633942,1.005479693412781,36.75015258789062,100.8844757080078,-19.19003295898438
244953,0.3853607177734375,2.2911376953125,-0.3106842041015625,2.492701530456543,0.4718641936779022,1.044748187065125,37.11605834960938,100.8504180908203,-18.96585083007812
244954,0.3853607177734375,2.2911376953125,-0.3106842041015625,2.492701530456543,0.4718641936779022,1.044748187065125,37.11605834960938,100.8504180908203,-18.96585083007812
244955,0.0341949462890625,1.638580322265625,-0.24505615234375,2.131505250930786,1.100224494934082,0.8006535172462463,38.07083129882812,100.7027740478516,-20.89431762695312
244956,-0.032684326171875,1.343292236328125,-0.2070465087890625,1.866459608078003,0.8860997557640076,0.7407574653625488,38.68032836914062,100.4503173828125,-22.061279296875
244957,0.12713623046875,0.77886962890625,-0.32879638671875,1.90533971786499,0.2406038194894791,0.868357241153717,39.79812622070312,99.9821319580078,-24.172607421875
244958,0.12713623046875,0.77886962890625,-0.32879638671875,1.90533971786499,0.2406038194894791,0.868357241153717,39.79812622070312,99.9821319580078,-24.172607421875
244959,0.1702880859375,0.5600738525390625,-0.4220123291015625,1.941686987876892,-0.1151076778769493,0.96780526638031,40.21505737304688,99.89463806152344,-25.23330688476562
244960,0.18170166015625,0.3842010498046875,-0.42718505859375,1.898242592811584,-0.4100493192672729,1.016214370727539,40.61225891113281,99.87274169921876,-26.10092163085938
244961,0.2836456298828125,0.0981597900390625,-0.170745849609375,1.600581884384155,-0.1444083154201508,0.9391773343086244,41.08995056152344,99.7198486328125,-27.74342346191406
244962,0.2836456298828125,0.0981597900390625,-0.170745849609375,1.600581884384155,-0.1444083154201508,0.9391773343086244,41.08995056152344,99.7198486328125,-27.74342346191406
244963,0.3231658935546875,-0.02020263671875,-0.0420684814453125,1.377713918685913,0.5082757472991943,0.8373620510101318,41.34455871582031,99.62515258789062,-28.44624328613281
244964,0.2925262451171875,-0.049713134765625,0.06439208984375,1.209426641464233,1.144954204559326,0.7492098212242126,41.7562255859375,99.50372314453124,-28.98194885253906
244965,0.2060089111328125,-0.001556396484375,0.142242431640625,1.069124102592468,1.769081473350525,0.5470314025878906,42.120849609375,99.48497009277344,-29.62940979003906
244966,0.2060089111328125,-0.001556396484375,0.142242431640625,1.069124102592468,1.769081473350525,0.5470314025878906,42.120849609375,99.48497009277344,-29.62940979003906
244967,0.0509033203125,1.52587890625e-05,0.096435546875,0.973495066165924,1.76371967792511,0.4530404508113861,43.13937377929688,99.21456909179688,-30.784423828125
244968,0.0509033203125,1.52587890625e-05,0.096435546875,0.973495066165924,1.76371967792511,0.4530404508113861,43.13937377929688,99.21456909179688,-30.784423828125
244969,-0.03436279296875,-0.1229095458984375,-0.0334014892578125,0.7493525147438049,1.209368348121643,0.3543972373008728,44.39541625976562,98.72843933105467,-31.81182861328125
244970,-0.0493927001953125,-0.1720733642578125,-0.02532958984375,0.6448602080345154,0.6827961206436157,0.2946563959121704,44.96125793457031,98.57144165039062,-32.26823425292969
244971,-0.0528411865234375,-0.195556640625,0.048370361328125,0.6448602080345154,0.6827961206436157,0.2946563959121704,45.31172180175781,98.5143585205078,-32.48956298828125
244972,-0.0543365478515625,-0.1840667724609375,0.1566314697265625,0.60498046875,0.7438387274742126,0.2507129013538361,45.6728515625,98.48786926269533,-32.92291259765625
244973,-0.0752716064453125,-0.1420440673828125,0.27325439453125,0.3752923905849457,1.386454939842224,0.05331302434206,46.14903259277344,98.42201232910156,-33.70297241210938
244974,-0.0752716064453125,-0.1420440673828125,0.27325439453125,0.3752923905849457,1.386454939842224,0.05331302434206,46.14903259277344,98.42201232910156,-33.70297241210938
244975,-0.083038330078125,-0.1273040771484375,0.2609405517578125,0.1530974060297012,1.727895140647888,-0.0861519277095794,46.47479248046875,98.50277709960938,-34.09213256835938
244976,-0.08599853515625,-0.1252899169921875,0.213104248046875,-0.1232609450817108,1.966456055641174,-0.2246717214584351,46.80424499511719,98.51025390625,-34.28492736816406
244977,-0.0945281982421875,-0.1332855224609375,0.1605377197265625,-0.4378772079944611,2.098691463470459,-0.3587083518505096,47.20980834960938,98.4508819580078,-34.3505859375
244978,-0.0945281982421875,-0.1332855224609375,0.1605377197265625,-0.4378772079944611,2.098691463470459,-0.3587083518505096,47.20980834960938,98.4508819580078,-34.3505859375
244979,-0.1275482177734375,-0.1479034423828125,0.0549163818359375,-1.008889317512512,2.209532976150513,-0.5890874862670898,47.8369140625,98.66651916503906,-33.94917297363281
244980,-0.1240692138671875,-0.158416748046875,-0.023956298828125,-1.197691917419434,2.212121248245239,-0.681574821472168,48.09138488769531,98.97647094726562,-33.35566711425781
244981,-0.098724365234375,-0.21087646484375,-0.3224945068359375,-1.313228130340576,0.6865613460540771,-0.6565365791320801,48.29240417480469,99.31976318359376,-32.62557983398438
244982,-0.098724365234375,-0.21087646484375,-0.3224945068359375,-1.313228130340576,0.6865613460540771,-0.6565365791320801,48.29240417480469,99.31976318359376,-32.62557983398438
244983,0.058990478515625,-0.2480316162109375,-0.8381805419921875,-1.196776390075684,-0.8954857587814331,-0.5348775386810303,48.59100341796875,99.71037292480467,-31.038818359375
244984,0.1044769287109375,0.0341949462890625,-0.4381866455078125,-1.082138180732727,-1.79549515247345,-0.5641661882400513,48.43438720703125,99.90982055664062,-30.34501647949219
244985,0.031402587890625,0.15252685546875,-0.010467529296875,-1.034385561943054,-1.750099182128906,-0.629798948764801,47.88980102539062,100.0475921630859,-29.50437927246094
244986,0.031402587890625,0.15252685546875,-0.010467529296875,-1.034385561943054,-1.750099182128906,-0.629798948764801,47.88980102539062,100.0475921630859,-29.50437927246094
244987,-0.046417236328125,0.2153472900390625,0.379486083984375,-1.065291047096252,0.1587947010993958,-0.6830976009368896,46.470947265625,100.6856842041016,-28.71510314941406
244988,-0.074676513671875,0.56854248046875,0.5565643310546875,-1.379549384117126,1.499040126800537,-0.7917668223381042,45.72132873535156,100.83642578125,-28.38735961914062
244989,-0.0797271728515625,2.706130981445312,0.8177642822265625,-1.609788417816162,2.888387203216553,-1.202868103981018,45.09030151367188,101.1183471679688,-28.33039855957031
244990,-0.0797271728515625,2.706130981445312,0.8177642822265625,-1.609788417816162,2.888387203216553,-1.202868103981018,45.09030151367188,101.1183471679688,-28.33039855957031
244991,-0.2123260498046875,7.104202270507812,0.509979248046875,-0.6852292418479919,2.882576704025269,0.7954491972923279,44.44157409667969,101.9081268310547,-28.48103332519531
244992,-0.8409576416015625,8.05426025390625,0.57745361328125,0.922017514705658,1.814905405044556,1.521786451339722,44.78878784179688,102.2879486083984,-28.732666015625
244993,-0.418243408203125,5.739578247070312,0.3653411865234375,2.146630525588989,1.128429532051086,0.1736969649791718,45.68218994140625,102.4031982421875,-29.09991455078125
244994,0.09002685546875,2.745040893554688,-0.04296875,1.762634515762329,-0.6027742624282837,-0.2990876436233521,46.4443359375,102.2072448730469,-29.64627075195312
244995,0.0379486083984375,1.590301513671875,-0.157257080078125,0.264467865228653,-2.951335668563843,-0.5463895797729492,46.62995910644531,101.7503662109375,-30.1553955078125
244996,0.089874267578125,1.57086181640625,-0.037200927734375,-1.132914304733276,-3.837637901306152,-1.106510162353516,46.10885620117188,101.3746643066406,-30.29595947265625
244997,0.4495849609375,2.168136596679688,-0.5312347412109375,-2.095677614212036,-3.574113845825195,-1.351021885871887,45.05821228027344,101.2994079589844,-30.06411743164062
244998,0.4495849609375,2.168136596679688,-0.5312347412109375,-2.095677614212036,-3.574113845825195,-1.351021885871887,45.05821228027344,101.2994079589844,-30.06411743164062
244999,1.0665283203125,2.227767944335938,-2.221832275390625,-0.3745158016681671,-0.0960125476121902,-0.3321052491664886,42.64601135253906,101.5299072265625,-27.83198547363281
245000,0.6064605712890625,1.489761352539062,-1.035476684570312,2.635658979415894,-1.233364462852478,-0.0256260018795728,42.14152526855469,101.3872375488281,-26.64779663085938
245001,0.2679901123046875,1.213470458984375,-0.1655426025390625,3.726800918579102,-1.319242358207703,0.0979795604944229,42.1783447265625,101.0834045410156,-26.44552612304688
245002,0.2679901123046875,1.213470458984375,-0.1655426025390625,3.726800918579102,-1.319242358207703,0.0979795604944229,42.1783447265625,101.0834045410156,-26.44552612304688
245003,-0.08026123046875,0.7641448974609375,-0.09527587890625,2.269223690032959,-0.7026566863059998,0.3077125549316406,42.19694519042969,100.0982055664062,-29.03564453125
245004,-0.2022247314453125,0.6613311767578125,-0.017730712890625,1.371850728988647,-0.4242761731147766,0.2631442844867706,42.3468017578125,99.60581970214844,-30.67135620117188
245005,-0.2949066162109375,0.5463714599609375,-0.038421630859375,0.8751807808876038,-0.211150586605072,0.0533311329782009,42.46160888671875,99.18408203125,-31.88461303710938
245006,-0.2949066162109375,0.5463714599609375,-0.038421630859375,0.8751807808876038,-0.211150586605072,0.0533311329782009,42.46160888671875,99.18408203125,-31.88461303710938
245007,-0.466278076171875,0.141387939453125,-0.228515625,0.8769733309745789,-0.233736053109169,-0.3258058130741119,42.54789733886719,98.80615234375,-32.84532165527344
245008,-0.60015869140625,-0.0608367919921875,-0.0977020263671875,1.106792449951172,0.2622555792331696,-0.329691082239151,42.55169677734375,98.72036743164062,-33.18109130859375
245009,-0.6497650146484375,-0.1768341064453125,0.0631256103515625,1.274744391441345,2.096056938171387,0.0197460073977708,42.37669372558594,98.60186767578124,-33.502197265625
245010,-0.6497650146484375,-0.1768341064453125,0.0631256103515625,1.274744391441345,2.096056938171387,0.0197460073977708,42.37669372558594,98.60186767578124,-33.502197265625
245011,-0.2787933349609375,0.1131744384765625,0.279998779296875,1.152159690856934,2.520295858383179,0.0274476036429405,42.23396301269531,98.10812377929688,-34.83799743652344
245012,-0.164886474609375,0.1934814453125,0.39593505859375,0.9340744614601136,2.971740961074829,-0.0849311351776123,42.59169006347656,97.88363647460938,-35.72103881835938
245013,-0.0733795166015625,0.1110382080078125,0.1956787109375,0.537889838218689,3.262890577316284,-0.1543536186218262,43.73286437988281,97.63833618164062,-37.15122985839844
245014,-0.0733795166015625,0.1110382080078125,0.1956787109375,0.537889838218689,3.262890577316284,-0.1543536186218262,43.73286437988281,97.63833618164062,-37.15122985839844
245015,-0.0386810302734375,0.018585205078125,0.0970306396484375,0.3963470757007599,2.993273258209229,-0.1530686467885971,44.35464477539062,97.45700073242188,-37.63967895507812
245016,-0.035186767578125,-0.0543365478515625,0.0271453857421875,0.2602723240852356,2.500767707824707,-0.1654928177595139,45.04167175292969,97.25613403320312,-38.11593627929688
245017,-0.0530548095703125,-0.1071319580078125,-0.0109405517578125,0.0952604711055755,1.855959057807922,-0.214551717042923,45.71092224121094,97.16798400878906,-38.401611328125
245018,-0.0530548095703125,-0.1071319580078125,-0.0109405517578125,0.0952604711055755,1.855959057807922,-0.214551717042923,45.71092224121094,97.16798400878906,-38.401611328125
245019,-0.05633544921875,-0.128631591796875,-0.0107421875,-0.0866051986813545,1.253369331359863,-0.2932276129722595,46.203369140625,96.98109436035156,-38.60720825195312
245020,-0.0202789306640625,-0.146575927734375,-0.04376220703125,-0.5141085982322693,0.5570355653762817,-0.4161578118801117,46.7744140625,96.78459167480467,-38.64724731445312
