time_idx,accelerometerAccelerationX(G),accelerometerAccelerationY(G),accelerometerAccelerationZ(G),gyroRotationX(rad/s),gyroRotationY(rad/s),gyroRotationZ(rad/s),magnetometerX(µT),magnetometerY(µT),magnetometerZ(µT)
216038,0.0239105224609375,1.264190673828125,-0.330810546875,1.048260450363159,0.8310372829437256,0.5095210075378418,34.36390686035156,97.488525390625,0.8206634521484375
216039,0.0383453369140625,1.132705688476562,-0.2573089599609375,1.052123546600342,0.7393568754196167,0.4276533424854279,34.66973876953125,97.66641235351562,0.182281494140625
216040,0.0293121337890625,1.007949829101562,-0.1748809814453125,0.925450086593628,0.4545267522335052,0.3152607381343842,34.92343139648438,97.875732421875,-0.3126373291015625
216041,-0.0023651123046875,0.9249267578125,-0.1151580810546875,0.925450086593628,0.4545267522335052,0.3152607381343842,35.1602783203125,98.06649780273438,-1.10223388671875
216042,-0.0023651123046875,0.9249267578125,-0.1151580810546875,0.925450086593628,0.4545267522335052,0.3152607381343842,35.1602783203125,98.06649780273438,-1.10223388671875
216043,-0.068206787109375,0.87774658203125,-0.0284881591796875,0.7456169128417969,0.0706166476011276,0.374406635761261,35.55116271972656,98.32662963867188,-2.26727294921875
216044,-0.068206787109375,0.87774658203125,-0.0284881591796875,0.7456169128417969,0.0706166476011276,0.374406635761261,35.55116271972656,98.32662963867188,-2.26727294921875
216045,-0.07763671875,0.8800811767578125,0.0073089599609375,0.506739616394043,-0.1430876553058624,0.5364541411399841,36.02761840820312,98.4957275390625,-3.101821899414062
216046,-0.0441436767578125,0.891510009765625,-0.029541015625,0.4168017506599426,-0.3621979057788849,0.5987185835838318,36.60887145996094,98.61611938476562,-3.763442993164062
216047,-0.0250244140625,0.898834228515625,0.002777099609375,0.4042726457118988,-0.5916576981544495,0.6096497774124146,36.97990417480469,98.6931610107422,-3.946121215820312
216048,-0.0136566162109375,0.8923797607421875,0.0811614990234375,0.4675847589969635,-0.6985015869140625,0.5921189785003662,37.36573791503906,98.61087036132812,-4.01214599609375
216049,-0.0150146484375,0.8651885986328125,0.15704345703125,0.5766699910163879,-0.6097562909126282,0.5716778635978699,37.77000427246094,98.59555053710938,-4.043609619140625
216050,-0.0150146484375,0.8651885986328125,0.15704345703125,0.5766699910163879,-0.6097562909126282,0.5716778635978699,37.77000427246094,98.59555053710938,-4.043609619140625
216051,-0.05841064453125,0.7872467041015625,0.2821044921875,0.6465425491333008,-0.0360171236097812,0.4587713181972504,38.48959350585938,98.73733520507812,-4.245407104492188
216052,-0.0879974365234375,0.763885498046875,0.3161773681640625,0.5521417260169983,0.3477689027786255,0.4151114523410797,38.70416259765625,98.95413208007812,-4.580413818359375
216053,-0.103515625,0.7534027099609375,0.3174591064453125,0.4025565087795258,0.682847797870636,0.3685383498668671,38.96482849121094,98.95632934570312,-4.893173217773438
216054,-0.103515625,0.7534027099609375,0.3174591064453125,0.4025565087795258,0.682847797870636,0.3685383498668671,38.96482849121094,98.95632934570312,-4.893173217773438
216055,-0.085601806640625,0.6460113525390625,0.31201171875,0.1297353655099869,1.034611940383911,0.3144993484020233,39.40547180175781,99.03521728515624,-5.364181518554688
216056,-0.085601806640625,0.6460113525390625,0.31201171875,0.1297353655099869,1.034611940383911,0.3144993484020233,39.40547180175781,99.03521728515624,-5.364181518554688
216057,-0.069183349609375,0.5729217529296875,0.304840087890625,0.1402148902416229,0.8640817999839783,0.2601008117198944,39.71833801269531,98.7434539794922,-5.615676879882812
216058,-0.082916259765625,0.5152587890625,0.293731689453125,0.1437854021787643,0.6296218633651733,0.2845403850078583,39.95912170410156,98.79437255859376,-5.840118408203125
216059,-0.077911376953125,0.5399169921875,0.232666015625,0.0904079303145408,0.3181657195091248,0.2911415696144104,39.95301818847656,98.90748596191406,-5.92230224609375
216060,-0.0570068359375,0.680084228515625,0.1663818359375,-0.0430297590792179,-0.0637177228927612,0.2188236862421036,40.02455139160156,98.9081573486328,-5.98602294921875
216061,-0.0433197021484375,0.7499847412109375,0.1024322509765625,-0.1994084417819977,-0.4074396789073944,0.1141004711389542,40.0587158203125,99.06494140625,-6.060775756835938
216062,-0.0433197021484375,0.7499847412109375,0.1024322509765625,-0.1994084417819977,-0.4074396789073944,0.1141004711389542,40.0587158203125,99.06494140625,-6.060775756835938
216063,-0.0240020751953125,0.8328704833984375,0.122283935546875,-0.3642706274986267,-0.764579713344574,-0.1069144681096077,40.17587280273438,99.03854370117188,-5.812713623046875
216064,-0.01055908203125,0.9006195068359375,0.1748504638671875,-0.3569778203964233,-0.530486524105072,-0.185333639383316,40.16921997070312,99.21339416503906,-5.70147705078125
216065,-0.0207977294921875,0.9486083984375,0.1465606689453125,-0.3053756356239319,-0.1383991539478302,-0.2378346621990204,40.02029418945312,99.2205047607422,-5.609161376953125
216066,-0.0207977294921875,0.9486083984375,0.1465606689453125,-0.3053756356239319,-0.1383991539478302,-0.2378346621990204,40.02029418945312,99.2205047607422,-5.609161376953125
216067,-0.0750885009765625,0.9438018798828124,0.0959320068359375,-0.1672862023115158,0.1292290985584259,-0.2915572822093964,39.837158203125,99.08004760742188,-5.28253173828125
216068,-0.0994873046875,0.9401397705078124,0.12249755859375,-0.097026415169239,0.0713570043444633,-0.3231322467327118,39.73703002929688,99.0116729736328,-5.08355712890625
216069,-0.1112213134765625,0.936431884765625,0.1194610595703125,-0.0406100116670131,-0.0306223575025796,-0.363911896944046,39.54226684570312,98.98492431640624,-4.944961547851562
216070,-0.1112213134765625,0.936431884765625,0.1194610595703125,-0.0406100116670131,-0.0306223575025796,-0.363911896944046,39.54226684570312,98.98492431640624,-4.944961547851562
216071,-0.1238861083984375,0.8715667724609375,0.0926666259765625,0.0628881528973579,-0.1753576993942261,-0.4602243304252625,39.29592895507812,98.9972686767578,-4.93475341796875
216072,-0.1522979736328125,0.8000335693359375,0.107147216796875,0.1165250167250633,-0.1555943936109543,-0.4794177412986755,39.12184143066406,98.965087890625,-4.941741943359375
216073,-0.1848907470703125,0.736846923828125,0.139801025390625,0.1422087997198105,-0.0870874971151351,-0.4830335080623627,38.83375549316406,99.04728698730467,-4.967330932617188
216074,-0.1848907470703125,0.736846923828125,0.139801025390625,0.1422087997198105,-0.0870874971151351,-0.4830335080623627,38.83375549316406,99.04728698730467,-4.967330932617188
216075,-0.2234649658203125,0.675537109375,0.182708740234375,0.0213827863335609,-0.0628833547234535,-0.5293692946434021,38.38929748535156,98.83358764648438,-4.981521606445312
216076,-0.2234649658203125,0.675537109375,0.182708740234375,0.0213827863335609,-0.0628833547234535,-0.5293692946434021,38.38929748535156,98.83358764648438,-4.981521606445312
216077,-0.251556396484375,0.7132568359375,0.1861114501953125,-0.2609929740428925,-0.1386614739894867,-0.556117832660675,37.85911560058594,98.68807983398438,-5.005599975585938
216078,-0.2662506103515625,0.8033599853515625,0.133941650390625,-0.4089899063110352,-0.2187840044498444,-0.5748422741889954,37.64854431152344,98.65371704101562,-4.901962280273438
216079,-0.2747039794921875,0.9471435546875,0.010986328125,-0.4963676929473877,-0.4151199758052826,-0.603865385055542,37.359619140625,98.62440490722656,-4.743087768554688
216080,-0.254364013671875,1.1165771484375,-0.12994384765625,-0.4807921946048737,-0.6464783549308777,-0.5979536771774292,36.989501953125,98.64328002929688,-4.56341552734375
216081,-0.1785888671875,1.26275634765625,-0.299652099609375,-0.329501211643219,-0.6793204545974731,-0.4987325668334961,36.5794677734375,98.60498046875,-4.27191162109375
216082,-0.1785888671875,1.26275634765625,-0.299652099609375,-0.329501211643219,-0.6793204545974731,-0.4987325668334961,36.5794677734375,98.60498046875,-4.27191162109375
216083,0.044158935546875,1.34136962890625,-0.3259124755859375,0.0435099266469478,-0.4787343740463257,-0.2906603217124939,35.99365234375,98.6771240234375,-3.486968994140625
216084,0.044158935546875,1.34136962890625,-0.3259124755859375,0.0435099266469478,-0.4787343740463257,-0.2906603217124939,35.99365234375,98.6771240234375,-3.486968994140625
216085,0.105560302734375,1.295166015625,-0.3130035400390625,-0.1342182606458664,-0.0868861600756645,-0.3098065853118896,35.6533203125,98.55308532714844,-3.14501953125
216086,0.1198577880859375,1.3336181640625,-0.4163360595703125,-0.2989661991596222,-0.1510158777236938,-0.4392854869365692,35.47053527832031,98.48867797851562,-3.01043701171875
216087,0.1245574951171875,1.357986450195312,-0.509002685546875,-0.342170387506485,-0.3181169927120209,-0.4919218122959137,35.28987121582031,98.34626770019533,-2.800048828125
216088,0.1245574951171875,1.357986450195312,-0.509002685546875,-0.342170387506485,-0.3181169927120209,-0.4919218122959137,35.28987121582031,98.34626770019533,-2.800048828125
216089,0.2278289794921875,1.363525390625,-0.6557159423828125,0.1835799515247345,-0.4581790268421173,-0.3209002614021301,34.71896362304688,98.19613647460938,-2.351654052734375
216090,0.2700958251953125,1.291900634765625,-0.702117919921875,0.5341912508010864,-0.3859847187995911,-0.2070730179548264,34.622802734375,98.11988830566406,-2.175765991210938
216091,0.2597503662109375,1.203536987304688,-0.7510528564453125,1.017583727836609,-0.3240891396999359,-0.0160783026367425,34.52743530273438,98.042236328125,-2.094818115234375
216092,0.215484619140625,1.10784912109375,-0.772918701171875,1.017583727836609,-0.3240891396999359,-0.0160783026367425,34.628173828125,98.04563903808594,-2.172592163085938
216093,0.215484619140625,1.10784912109375,-0.772918701171875,1.017583727836609,-0.3240891396999359,-0.0160783026367425,34.628173828125,98.04563903808594,-2.172592163085938
216094,0.1048736572265625,0.9586029052734376,-0.7462005615234375,1.076267838478088,-0.3677862584590912,0.0655236169695854,34.81167602539062,98.2441864013672,-2.73065185546875
216095,0.088714599609375,0.9343414306640624,-0.7138214111328125,0.9971365332603456,-0.4266967177391052,0.0940074548125267,34.8765869140625,98.2781982421875,-3.116043090820312
216096,0.0911865234375,0.95892333984375,-0.656768798828125,0.8752785325050354,-0.4725545048713684,0.1196768656373024,34.95225524902344,98.35569763183594,-3.605499267578125
216097,0.1027069091796875,1.012298583984375,-0.5840301513671875,0.7257574796676636,-0.4971056580543518,0.1396692097187042,34.99850463867188,98.5711669921875,-4.274688720703125
216098,0.1027069091796875,1.012298583984375,-0.5840301513671875,0.7257574796676636,-0.4971056580543518,0.1396692097187042,34.99850463867188,98.5711669921875,-4.274688720703125
216099,0.1033477783203125,1.168807983398438,-0.3692474365234375,0.3686099946498871,-0.5281775593757629,0.1298543959856033,35.28364562988281,98.78459167480467,-5.05029296875
216100,0.0827789306640625,1.2540283203125,-0.2316741943359375,0.2136837840080261,-0.5688333511352539,0.0714195892214775,35.50456237792969,98.84553527832033,-5.340667724609375
216101,0.0827789306640625,1.2540283203125,-0.2316741943359375,0.2136837840080261,-0.5688333511352539,0.0714195892214775,35.50456237792969,98.84553527832033,-5.340667724609375
216102,0.0157470703125,1.42742919921875,0.0144195556640625,0.1679717004299164,-0.5390363335609436,-0.0783643126487731,35.774658203125,98.88058471679688,-5.464385986328125
216103,-0.017303466796875,1.541275024414062,0.088531494140625,0.2696317434310913,-0.4999187290668488,-0.1736953556537628,35.90205383300781,98.92263793945312,-5.459548950195312
216104,-0.0575103759765625,1.612808227539062,0.1476287841796875,0.4274860918521881,-0.4315465986728668,-0.287739634513855,35.85931396484375,98.97744750976562,-5.46051025390625
216105,-0.1123504638671875,1.61883544921875,0.1714324951171875,0.6433438062667847,-0.3654368221759796,-0.3955143094062805,35.96235656738281,99.04957580566406,-5.466567993164062
216106,-0.1123504638671875,1.61883544921875,0.1714324951171875,0.6433438062667847,-0.3654368221759796,-0.3955143094062805,35.96235656738281,99.04957580566406,-5.466567993164062
216107,-0.2236328125,1.299850463867188,0.0710906982421875,1.124305367469788,-0.4516529440879822,-0.4723917841911316,35.89665222167969,99.00933837890624,-5.861968994140625
216108,-0.259490966796875,1.092742919921875,0.016937255859375,1.247896552085876,-0.591152012348175,-0.4412903189659119,35.77360534667969,99.0150146484375,-6.254806518554688
216109,-0.2999267578125,0.9300994873046876,-0.01678466796875,1.238365054130554,-0.696515679359436,-0.3719280064105988,35.60722351074219,99.02774047851562,-6.832672119140625
216110,-0.2999267578125,0.9300994873046876,-0.01678466796875,1.238365054130554,-0.696515679359436,-0.3719280064105988,35.60722351074219,99.02774047851562,-6.832672119140625
216111,-0.317474365234375,0.776092529296875,-0.074859619140625,1.003568887710571,-0.9193027019500732,-0.1832102984189987,35.505126953125,99.04794311523438,-7.7703857421875
216112,-0.2607421875,0.7361297607421875,-0.078399658203125,0.8400148153305054,-1.050707340240479,-0.1036438345909119,35.55613708496094,99.06849670410156,-8.13885498046875
216113,-0.2052459716796875,0.698638916015625,-0.07476806640625,0.7057166695594788,-1.166245102882385,-0.0672980770468711,35.6744384765625,99.1923370361328,-8.437393188476562
216114,-0.1690521240234375,0.658416748046875,-0.0587615966796875,0.6265326142311096,-1.201381206512451,-0.0569516979157924,35.70663452148438,99.15080261230467,-8.604827880859375
216115,-0.145355224609375,0.6002044677734375,-0.0351409912109375,0.5855910181999207,-1.134726881980896,-0.0324892327189445,35.85455322265625,98.95765686035156,-8.6767578125
216116,-0.1507720947265625,0.582672119140625,0.01678466796875,0.5471994280815125,-0.925226092338562,-0.0383985228836536,35.89408874511719,98.96842956542967,-8.849777221679688
216117,-0.1658172607421875,0.598724365234375,0.068817138671875,0.4524958431720734,-0.6468045711517334,-0.0546853505074977,36.01429748535156,99.05865478515624,-8.939193725585938
216118,-0.2108306884765625,0.6129150390625,0.1275787353515625,0.3192078173160553,-0.3916204869747162,-0.0366437658667564,36.1524658203125,98.98887634277344,-9.03875732421875
216119,-0.2343292236328125,0.626678466796875,0.2075958251953125,0.1645615100860596,-0.161522313952446,-0.0125125963240861,36.26925659179688,98.95915222167967,-9.020538330078123
216120,-0.2360076904296875,0.6429595947265625,0.302825927734375,-0.0272380132228136,0.0997172743082046,0.0070512513630092,36.28416442871094,98.83192443847656,-9.11944580078125
216121,-0.24261474609375,0.6751708984375,0.380889892578125,-0.2279388904571533,0.3714750111103058,0.0366514883935451,36.42301940917969,98.8813018798828,-9.202835083007812
216122,-0.24261474609375,0.6751708984375,0.380889892578125,-0.2279388904571533,0.3714750111103058,0.0366514883935451,36.42301940917969,98.8813018798828,-9.202835083007812
216123,-0.3040618896484375,0.864013671875,0.488739013671875,-0.5674687623977661,0.7158859372138977,0.0747099220752716,36.62434387207031,98.92512512207033,-9.415679931640623
216124,-0.3040618896484375,0.864013671875,0.488739013671875,-0.5674687623977661,0.7158859372138977,0.0747099220752716,36.62434387207031,98.92512512207033,-9.415679931640623
216125,-0.3618316650390625,0.894989013671875,0.471160888671875,-0.6233429312705994,0.6392579674720764,0.0779925361275672,36.70396423339844,98.89039611816406,-9.2684326171875
216126,-0.4198455810546875,0.8537445068359375,0.3534088134765625,-0.5747607350349426,0.3913578987121582,0.0909608006477356,36.8382568359375,98.67581176757812,-8.700729370117188
216127,-0.376617431640625,0.8347320556640625,0.330078125,-0.555891215801239,0.1572660505771637,0.1098471358418465,36.86569213867188,98.67112731933594,-8.532180786132812
216128,-0.2974700927734375,0.8384552001953125,0.3272705078125,-0.6274255514144897,0.0505955331027507,0.1002307310700417,36.74037170410156,98.78121948242188,-8.36016845703125
216129,-0.21893310546875,0.8645172119140625,0.2980499267578125,-0.78199303150177,0.0451637506484985,0.0679111406207084,36.73590087890625,98.62515258789062,-8.253829956054688
216130,-0.1584625244140625,0.8828125,0.25506591796875,-0.9613705277442932,0.0349132418632507,0.0149991894140839,36.63423156738281,98.59713745117188,-7.98345947265625
216131,-0.116668701171875,0.8875885009765625,0.21844482421875,-1.097022652626038,-0.0274489354342222,-0.0260076317936182,36.64482116699219,98.62823486328124,-7.601119995117188
216132,-0.116668701171875,0.8875885009765625,0.21844482421875,-1.097022652626038,-0.0274489354342222,-0.0260076317936182,36.64482116699219,98.62823486328124,-7.601119995117188
216133,-0.0880126953125,0.974029541015625,0.1950531005859375,-1.084632039070129,-0.015580290928483,-0.1418788433074951,36.64033508300781,98.43931579589844,-6.56158447265625
216134,-0.1077728271484375,1.0140380859375,0.1676483154296875,-1.084632039070129,-0.015580290928483,-0.1418788433074951,36.5421142578125,98.24142456054688,-6.205978393554688
216135,-0.1432342529296875,1.009048461914062,0.1407470703125,-0.9572980403900146,0.1257227808237076,-0.2007807791233063,36.41722106933594,98.26429748535156,-5.777969360351562
216136,-0.167816162109375,0.989837646484375,0.0890350341796875,-0.8362061977386475,0.2749513983726501,-0.2396408170461655,36.20735168457031,98.17214965820312,-5.201385498046875
216137,-0.190399169921875,0.9661407470703124,0.016693115234375,-0.6770833730697632,0.2565242052078247,-0.2191299498081207,36.027099609375,98.06988525390624,-4.675949096679688
216138,-0.19940185546875,0.959625244140625,-0.0836334228515625,-0.6770833730697632,0.2565242052078247,-0.2191299498081207,35.86863708496094,97.93229675292967,-4.240020751953125
216139,-0.1956024169921875,1.010711669921875,-0.2017059326171875,-0.5965132117271423,0.0921831876039505,-0.1938746571540833,35.5419921875,97.98492431640624,-3.881271362304688
216140,-0.1956024169921875,1.010711669921875,-0.2017059326171875,-0.5965132117271423,0.0921831876039505,-0.1938746571540833,35.5419921875,97.98492431640624,-3.881271362304688
216141,-0.1475372314453125,1.05975341796875,-0.3439483642578125,-0.4991917014122009,-0.1174933388829231,-0.1663767248392105,35.29071044921875,97.94540405273438,-3.690048217773438
216142,0.0387420654296875,1.14056396484375,-0.592529296875,-0.2155573219060898,0.0139991724863648,-0.1180115938186646,34.84640502929688,97.949951171875,-3.084930419921875
216143,0.1265716552734375,1.2510986328125,-0.812408447265625,-0.0297123547643423,0.173795223236084,-0.1410165131092072,34.64732360839844,98.0065460205078,-2.7415771484375
216144,0.1265716552734375,1.2510986328125,-0.812408447265625,-0.0297123547643423,0.173795223236084,-0.1410165131092072,34.64732360839844,98.0065460205078,-2.7415771484375
216145,0.0885467529296875,1.425613403320312,-0.5355224609375,-0.2990301251411438,0.1130562499165535,-0.1772099286317825,34.06709289550781,97.6677703857422,-2.323043823242188
216146,0.0885467529296875,1.425613403320312,-0.5355224609375,-0.2990301251411438,0.1130562499165535,-0.1772099286317825,34.06709289550781,97.6677703857422,-2.323043823242188
216147,0.0569305419921875,1.33514404296875,-0.5695648193359375,-0.2401130050420761,0.052351888269186,-0.1387759894132614,33.92523193359375,97.75186157226562,-2.24224853515625
216148,0.079559326171875,1.172470092773438,-0.6322174072265625,-0.0212070178240537,0.0106430565938353,0.0166860353201627,33.91567993164062,97.6693115234375,-2.04461669921875
216149,0.0968780517578125,1.046340942382812,-0.6792755126953125,0.2014167308807373,0.0323235839605331,0.1897483617067337,33.87049865722656,97.67042541503906,-2.022079467773438
216150,0.1136932373046875,0.978271484375,-0.7264251708984375,0.3245184123516083,0.1075203344225883,0.3483393490314484,33.89212036132812,97.650390625,-1.990249633789062
216151,0.151336669921875,0.94000244140625,-0.7371673583984375,0.3681303560733795,0.2204831093549728,0.4838540256023407,33.96769714355469,97.56466674804688,-1.898223876953125
216152,0.174591064453125,0.9537353515625,-0.703887939453125,0.3658751845359802,0.3305382430553436,0.5786164999008179,34.21517944335938,97.53239440917967,-1.932083129882812
216153,0.161865234375,0.992034912109375,-0.63201904296875,0.3526754975318909,0.4624693691730499,0.6178541779518127,34.39584350585938,97.71714782714844,-2.218246459960938
216154,0.141021728515625,1.020492553710938,-0.56500244140625,0.3375287652015686,0.5803052186965942,0.6042518019676208,34.65516662597656,97.74284362792967,-2.50872802734375
216155,0.1110382080078125,1.05419921875,-0.519622802734375,0.3225676715373993,0.6511122584342957,0.5443200469017029,34.943115234375,97.95782470703124,-2.779190063476562
216156,0.0382232666015625,1.110992431640625,-0.4423065185546875,0.3049524426460266,0.7406322956085205,0.3799467980861664,35.46554565429688,98.13670349121094,-3.308456420898438
216157,0.0382232666015625,1.110992431640625,-0.4423065185546875,0.3049524426460266,0.7406322956085205,0.3799467980861664,35.46554565429688,98.13670349121094,-3.308456420898438
216158,0.009185791015625,1.145599365234375,-0.39764404296875,0.2999859154224396,0.7732748985290527,0.29924076795578,35.66998291015625,98.25111389160156,-3.556625366210938
216159,-0.0196533203125,1.148757934570312,-0.34136962890625,0.3101599812507629,0.7847430109977722,0.2173957079648972,35.85208129882812,98.3502197265625,-3.890899658203125
216160,-0.062042236328125,1.117584228515625,-0.2553253173828125,0.2870046198368073,0.7813557386398315,0.1717453896999359,35.93170166015625,98.52619934082033,-4.232879638671875
216161,-0.1065521240234375,1.104721069335938,-0.162200927734375,0.2410640120506287,0.7304206490516663,0.1441923230886459,36.06449890136719,98.5719757080078,-4.54986572265625
216162,-0.134124755859375,1.097442626953125,-0.0821075439453125,0.1744280010461807,0.5908291935920715,0.1511272042989731,36.1070556640625,98.68218994140624,-4.768936157226562
216163,-0.1390533447265625,1.073928833007812,-0.01593017578125,0.1056774258613586,0.3493140637874603,0.2066032439470291,36.12045288085938,98.82730102539062,-5.021636962890625
216164,-0.1390533447265625,1.073928833007812,-0.01593017578125,0.1056774258613586,0.3493140637874603,0.2066032439470291,36.12045288085938,98.82730102539062,-5.021636962890625
216165,-0.13226318359375,1.0577392578125,0.03497314453125,0.013463344424963,0.0925847962498664,0.2994405031204224,36.153564453125,98.99031066894533,-5.3232421875
216166,-0.1160125732421875,1.116851806640625,0.119781494140625,-0.1357980519533157,-0.338018536567688,0.5633445978164673,36.30708312988281,99.0050811767578,-5.678146362304688
216167,-0.1289520263671875,1.164321899414062,0.1829986572265625,-0.0676978230476379,-0.4149670898914337,0.6224324107170105,36.46261596679688,99.10189819335938,-5.592926025390625
216168,-0.1289520263671875,1.164321899414062,0.1829986572265625,-0.0676978230476379,-0.4149670898914337,0.6224324107170105,36.46261596679688,99.10189819335938,-5.592926025390625
216169,-0.1663055419921875,1.179428100585938,0.1924591064453125,0.2558378875255585,-0.3909472525119781,0.5997127294540405,36.77566528320312,99.10769653320312,-5.491653442382812
216170,-0.206268310546875,1.190963745117188,0.3155670166015625,0.4219491183757782,-0.2079254984855652,0.5101588368415833,37.5167236328125,99.0596160888672,-5.54443359375
216171,-0.206146240234375,1.115066528320312,0.36199951171875,0.5051838159561157,0.0777539163827896,0.4305860102176666,37.85879516601562,99.05239868164062,-5.570388793945312
216172,-0.2026824951171875,0.9967498779296876,0.3395843505859375,0.4822912812232971,0.300324410200119,0.3869400024414062,38.23329162597656,99.08250427246094,-5.665298461914062
216173,-0.2026824951171875,0.9967498779296876,0.3395843505859375,0.4822912812232971,0.300324410200119,0.3869400024414062,38.23329162597656,99.08250427246094,-5.665298461914062
216174,-0.177947998046875,0.8470001220703125,0.29150390625,0.3689317107200623,0.4692748188972473,0.3609454035758972,38.48602294921875,99.134033203125,-5.922637939453125
216175,-0.0914459228515625,0.5445404052734375,0.1515960693359375,0.1471524387598038,0.4948416948318481,0.4077139794826508,38.88072204589844,99.25593566894533,-6.268096923828125
216176,-0.0732421875,0.5267333984375,0.1311492919921875,0.1054055169224739,0.378670871257782,0.41632479429245,39.12895202636719,99.27033996582033,-6.44207763671875
216177,-0.0732421875,0.5267333984375,0.1311492919921875,0.1054055169224739,0.378670871257782,0.41632479429245,39.12895202636719,99.27033996582033,-6.44207763671875
216178,-0.034820556640625,0.6666259765625,0.2352142333984375,0.0161456800997257,0.2463360130786896,0.3225871026515961,39.52684020996094,99.14279174804688,-6.550369262695312
216179,-0.097259521484375,0.9435577392578124,0.2903900146484375,-0.0699204951524734,0.2448510229587555,0.2442086786031723,39.772216796875,99.13246154785156,-6.645111083984375
216180,-0.1648712158203125,1.048416137695312,0.2878875732421875,-0.1823152154684067,0.267413318157196,0.1180675178766251,39.87223815917969,99.2930908203125,-6.701629638671875
216181,-0.206573486328125,1.081649780273438,0.229278564453125,-0.2760347723960876,0.235809326171875,-0.0361729189753532,39.96798706054688,99.28135681152344,-6.598007202148438
216182,-0.2195892333984375,1.062225341796875,0.1616973876953125,-0.3296926915645599,0.130906343460083,-0.1886649876832962,40.052001953125,99.31837463378906,-6.729873657226562
216183,-0.218292236328125,1.028182983398438,0.0871124267578125,-0.3429722785949707,-0.0660181641578674,-0.3039364516735077,39.95660400390625,99.45466613769533,-6.527236938476562
216184,-0.1849822998046875,0.944091796875,0.0472412109375,-0.1920914053916931,-0.3261144459247589,-0.4328568875789642,39.65858459472656,99.49537658691406,-6.323898315429688
216185,-0.1849822998046875,0.944091796875,0.0472412109375,-0.1920914053916931,-0.3261144459247589,-0.4328568875789642,39.65858459472656,99.49537658691406,-6.323898315429688
216186,-0.1566162109375,0.8852996826171875,0.0394744873046875,-0.1920914053916931,-0.3261144459247589,-0.4328568875789642,39.52316284179688,99.33251953125,-6.283950805664062
216187,-0.126312255859375,0.8361358642578125,0.0181732177734375,-0.1145366951823235,-0.2029323428869247,-0.3972474932670593,39.35200500488281,99.18667602539062,-6.051223754882812
216188,-0.118896484375,0.7850799560546875,-0.0070953369140625,-0.0101676825433969,-0.0689138174057006,-0.3762479424476624,39.27676391601562,99.20315551757812,-5.84625244140625
216189,-0.154296875,0.7063140869140625,-0.01544189453125,0.1325788199901581,-0.0272619817405939,-0.3620751202106476,39.09683227539062,98.98405456542967,-5.81207275390625
216190,-0.2019805908203125,0.6362457275390625,0.0070343017578125,0.1325788199901581,-0.0272619817405939,-0.3620751202106476,38.86027526855469,99.03375244140624,-5.879653930664062
216191,-0.2351531982421875,0.592864990234375,0.0453033447265625,-0.0025403893087059,-0.2175775915384293,-0.4798387885093689,38.76214599609375,98.8794403076172,-5.931396484375
216192,-0.2351531982421875,0.592864990234375,0.0453033447265625,-0.0025403893087059,-0.2175775915384293,-0.4798387885093689,38.76214599609375,98.8794403076172,-5.931396484375
216193,-0.2558746337890625,0.5570526123046875,0.06878662109375,-0.0025403893087059,-0.2175775915384293,-0.4798387885093689,38.603515625,98.89973449707033,-5.92218017578125
216194,-0.2482147216796875,0.5695953369140625,0.11798095703125,-0.3953675627708435,-0.3750772178173065,-0.5549697279930115,38.21501159667969,98.75807189941406,-5.868698120117188
216195,-0.227020263671875,0.65997314453125,0.1564483642578125,-0.6791031360626221,-0.3499856889247894,-0.5109450221061707,38.08514404296875,98.72691345214844,-5.715011596679688
216196,-0.227020263671875,0.65997314453125,0.1564483642578125,-0.6791031360626221,-0.3499856889247894,-0.5109450221061707,38.08514404296875,98.72691345214844,-5.715011596679688
216197,-0.179046630859375,0.8917388916015625,0.063812255859375,-1.220843315124512,-0.2747836410999298,-0.4235352873802185,37.53773498535156,98.55929565429688,-5.289810180664062
216198,-0.1856231689453125,0.9822845458984376,-0.1280975341796875,-1.220843315124512,-0.2747836410999298,-0.4235352873802185,37.24897766113281,98.43556213378906,-4.98138427734375
216199,-0.1775054931640625,1.020721435546875,-0.2173919677734375,-1.160441756248474,-0.5397484302520752,-0.3817971646785736,36.91432189941406,98.41680908203124,-4.527114868164062
216200,-0.1325531005859375,1.040451049804688,-0.132965087890625,-1.034684419631958,-0.5858496427536011,-0.2868141829967499,36.63114929199219,98.44802856445312,-4.028106689453125
216201,-0.0706939697265625,1.061767578125,-0.129669189453125,-0.9083653688430786,-0.4822851419448853,-0.1904381215572357,36.22767639160156,98.33047485351562,-3.354873657226562
216202,-0.0706939697265625,1.061767578125,-0.129669189453125,-0.9083653688430786,-0.4822851419448853,-0.1904381215572357,36.22767639160156,98.33047485351562,-3.354873657226562
216203,0.063690185546875,1.218170166015625,-0.35064697265625,-0.7503767609596252,-0.5302180647850037,-0.0694824084639549,35.87759399414062,98.25732421875,-2.139678955078125
216204,0.063690185546875,1.218170166015625,-0.35064697265625,-0.7503767609596252,-0.5302180647850037,-0.0694824084639549,35.87759399414062,98.25732421875,-2.139678955078125
216205,0.257476806640625,1.38818359375,-0.3883819580078125,-0.6578670740127563,-0.7761743068695068,-0.1066612005233765,35.67778015136719,98.26051330566406,-1.067398071289062
216206,0.325531005859375,1.424789428710938,-0.374755859375,-0.6578670740127563,-0.7761743068695068,-0.1066612005233765,35.59384155273438,98.14382934570312,-0.68927001953125
216207,0.3873443603515625,1.43145751953125,-0.4168701171875,-0.5210219025611877,-0.8633904457092285,-0.1303281784057617,35.53346252441406,98.12167358398438,-0.111480712890625
216208,0.4569549560546875,1.408172607421875,-0.5008544921875,-0.2509917318820953,-0.9623787999153136,-0.0979055240750312,35.55484008789062,97.97772216796876,0.2931671142578125
216209,0.4954833984375,1.3575439453125,-0.595703125,0.4329889714717865,-0.994486927986145,0.0366072803735733,35.60263061523438,97.74098205566406,0.7783355712890625
216210,0.4954833984375,1.3575439453125,-0.595703125,0.4329889714717865,-0.994486927986145,0.0366072803735733,35.60263061523438,97.74098205566406,0.7783355712890625
216211,0.4199981689453125,1.285980224609375,-0.7046356201171875,0.6485111713409424,-0.9068740010261536,0.083280511200428,35.81796264648438,97.61888122558594,1.306427001953125
216212,0.4199981689453125,1.285980224609375,-0.7046356201171875,0.6485111713409424,-0.9068740010261536,0.083280511200428,35.81796264648438,97.61888122558594,1.306427001953125
216213,0.2998504638671875,1.245452880859375,-0.679443359375,0.754560112953186,-0.7465524673461914,0.1085738837718964,36.10140991210938,97.4443817138672,1.567642211914062
216214,0.1333770751953125,1.1964111328125,-0.5404205322265625,0.7885425686836243,-0.5136513113975525,0.1692612022161484,36.795654296875,97.49813842773438,0.8606109619140625
216215,0.098114013671875,1.1478271484375,-0.469512939453125,0.8283440470695496,-0.4448671936988831,0.1906082928180695,37.05934143066406,97.70513916015624,0.5565338134765625
216216,0.06988525390625,1.128021240234375,-0.4033355712890625,0.8733895421028137,-0.3895688056945801,0.2123338282108307,37.22305297851562,97.79881286621094,0.191925048828125
216217,0.0584564208984375,1.12176513671875,-0.371978759765625,0.8800541162490845,-0.3587325811386108,0.2293261289596558,37.46182250976562,98.02595520019533,-0.217376708984375
216218,0.0584564208984375,1.12176513671875,-0.371978759765625,0.8800541162490845,-0.3587325811386108,0.2293261289596558,37.46182250976562,98.02595520019533,-0.217376708984375
216219,0.025482177734375,1.151336669921875,-0.195953369140625,0.8253077268600464,-0.3448037207126617,0.2971368730068207,37.90673828125,98.31407165527344,-0.97662353515625
216220,0.0009765625,1.200271606445312,-0.074310302734375,0.7860554456710815,-0.246284082531929,0.3940958976745605,38.16996765136719,98.39836120605467,-1.423187255859375
216221,-0.0140380859375,1.265518188476562,0.0055999755859375,0.7698490023612976,-0.166822537779808,0.4758586883544922,38.4302978515625,98.6781768798828,-1.840255737304688
216222,-0.0140380859375,1.265518188476562,0.0055999755859375,0.7698490023612976,-0.166822537779808,0.4758586883544922,38.4302978515625,98.6781768798828,-1.840255737304688
216223,-0.0928192138671875,1.451507568359375,0.214385986328125,0.735815167427063,-0.0431527979671955,0.3580265939235687,39.03582763671875,98.9866180419922,-2.5155029296875
216224,-0.0928192138671875,1.451507568359375,0.214385986328125,0.735815167427063,-0.0431527979671955,0.3580265939235687,39.03582763671875,98.9866180419922,-2.5155029296875
216225,-0.2310791015625,1.577346801757812,0.3862762451171875,0.7437468767166138,0.1002653539180756,0.1414878815412521,39.49542236328125,99.283447265625,-3.106430053710938
216226,-0.2520904541015625,1.473617553710938,0.321014404296875,0.8025936484336853,-0.0079905483871698,0.067861869931221,39.71107482910156,99.42453002929688,-3.322860717773438
216227,-0.213836669921875,1.291107177734375,0.2071990966796875,0.8920404314994812,-0.3001366555690765,0.0502895340323448,39.97541809082031,99.4748077392578,-3.763870239257812
216228,-0.213836669921875,1.291107177734375,0.2071990966796875,0.8920404314994812,-0.3001366555690765,0.0502895340323448,39.97541809082031,99.4748077392578,-3.763870239257812
216229,-0.06561279296875,0.9684600830078124,0.056427001953125,0.9751233458518982,-0.9357082843780518,0.1447670459747314,40.26628112792969,99.6971435546875,-4.387527465820312
216230,-0.0084228515625,0.8434600830078125,-0.0350341796875,0.928220808506012,-1.174676895141602,0.2585921287536621,40.5369873046875,99.72134399414062,-4.5733642578125
216231,0.0280609130859375,0.7366180419921875,-0.1004486083984375,0.8079463243484497,-1.445635199546814,0.339032918214798,40.76939392089844,99.82699584960938,-4.8399658203125
216232,0.0280609130859375,0.7366180419921875,-0.1004486083984375,0.8079463243484497,-1.445635199546814,0.339032918214798,40.76939392089844,99.82699584960938,-4.8399658203125
216233,0.0167999267578125,0.6905059814453125,0.0868377685546875,0.5381766557693481,-1.504624247550964,0.3720353543758392,41.29669189453125,99.98500061035156,-5.523422241210938
216234,-0.0316619873046875,0.679290771484375,0.185455322265625,0.4040641188621521,-1.232770323753357,0.289415568113327,41.74850463867188,99.95010375976562,-5.577011108398438
216235,-0.1303863525390625,0.640380859375,0.2037506103515625,0.3039976954460144,-0.940769374370575,0.1884503364562988,42.17317199707031,99.8791046142578,-5.509414672851562
216236,-0.2223968505859375,0.58856201171875,0.1627044677734375,0.2499632388353348,-0.7096152305603027,0.0997566878795623,42.52577209472656,99.91287231445312,-5.735641479492188
216237,-0.275848388671875,0.5047607421875,0.1014862060546875,0.2313498705625534,-0.6397208571434021,-0.0300316680222749,42.78651428222656,99.7802734375,-5.836151123046875
216238,-0.275848388671875,0.5047607421875,0.1014862060546875,0.2313498705625534,-0.6397208571434021,-0.0300316680222749,42.78651428222656,99.7802734375,-5.836151123046875
216239,-0.350311279296875,0.4044036865234375,0.1653900146484375,0.2870706617832184,-0.4220100939273834,-0.2037115842103958,43.12791442871094,99.9111785888672,-5.715805053710938
216240,-0.350311279296875,0.4044036865234375,0.1653900146484375,0.2870706617832184,-0.4220100939273834,-0.2037115842103958,43.12791442871094,99.9111785888672,-5.715805053710938
216241,-0.41168212890625,0.473114013671875,0.2704010009765625,0.3754460513591766,0.521002471446991,0.0855186283588409,43.13032531738281,100.1303558349609,-5.986572265625
216242,-0.345245361328125,0.7050933837890625,0.2325286865234375,0.4594653248786926,0.745764970779419,0.2710751891136169,43.12892150878906,100.1685791015625,-6.176376342773438
216243,-0.2790679931640625,0.9163818359375,0.2173614501953125,0.5509734153747559,0.6631526947021484,0.2697950005531311,43.08305358886719,100.3020324707031,-6.553314208984375
216244,-0.2790679931640625,0.9163818359375,0.2173614501953125,0.5509734153747559,0.6631526947021484,0.2697950005531311,43.08305358886719,100.3020324707031,-6.553314208984375
216245,-0.2598724365234375,1.0091552734375,0.2492218017578125,0.5788233876228333,0.4197498857975006,0.1949487179517746,43.14697265625,100.453857421875,-6.885116577148438
216246,-0.3018798828125,0.9697113037109376,0.39306640625,0.1440881937742233,-0.2216309309005737,0.0002697782183531,43.17658996582031,100.7246246337891,-7.50201416015625
216247,-0.2737274169921875,0.956085205078125,0.450225830078125,-0.3132753670215607,-0.6053045392036438,-0.0241114608943462,43.13124084472656,100.6000213623047,-7.708084106445312
216248,-0.192047119140625,0.9276275634765624,0.4837493896484375,-0.8010650277137756,-1.057523131370544,-0.0641307830810546,43.22227478027344,100.5212249755859,-7.962112426757812
216249,-0.100616455078125,0.8723297119140625,0.52679443359375,-1.537537693977356,-1.606281638145447,-0.1264612674713135,43.15013122558594,100.4496765136719,-7.886474609375
216250,-0.100616455078125,0.8723297119140625,0.52679443359375,-1.537537693977356,-1.606281638145447,-0.1264612674713135,43.15013122558594,100.4496765136719,-7.886474609375
216251,0.07061767578125,0.824462890625,0.6608734130859375,-1.658430337905884,-1.318464517593384,-0.0892707556486129,43.20973205566406,100.0276336669922,-6.677337646484375
216252,0.12506103515625,0.8192291259765625,0.6713714599609375,-1.691820740699768,-0.617918074131012,0.0077063892967998,43.13072204589844,99.82804870605467,-5.883697509765625
216253,0.11859130859375,0.857086181640625,0.60205078125,-1.724737167358398,0.456342488527298,0.1030584722757339,43.01614379882812,99.81332397460938,-5.00958251953125
216254,0.0716705322265625,0.96337890625,0.3722686767578125,-1.754822134971619,1.366529703140259,0.0481691285967826,42.78330993652344,99.8660125732422,-4.274093627929688
216255,-0.001373291015625,1.146774291992188,-0.20611572265625,-1.653159856796265,1.400026679039001,-0.2466145753860474,42.61526489257812,99.89566040039062,-3.327346801757812
216256,-0.1124267578125,1.413619995117188,-1.16845703125,-1.33664858341217,-0.5623903870582581,-0.7049187421798706,42.39054870605469,99.7194366455078,-2.4854736328125
216257,-0.1223602294921875,1.408416748046875,-0.6130523681640625,-0.5154172778129578,-0.6519964337348938,-0.5720685720443726,42.10304260253906,99.614013671875,-1.749725341796875
216258,-0.1223602294921875,1.408416748046875,-0.6130523681640625,-0.5154172778129578,-0.6519964337348938,-0.5720685720443726,42.10304260253906,99.614013671875,-1.749725341796875
216259,-0.0078277587890625,1.237136840820312,-0.36395263671875,-0.3531753718852997,-0.5722672343254089,-0.3217290341854095,41.4327392578125,99.28556823730467,-0.49365234375
216260,-0.0078277587890625,1.237136840820312,-0.36395263671875,-0.3531753718852997,-0.5722672343254089,-0.3217290341854095,41.4327392578125,99.28556823730467,-0.49365234375
216261,0.0661773681640625,1.406204223632812,-0.5159454345703125,-0.2336617559194565,-0.3151121437549591,-0.3207457959651947,41.11697387695312,99.10679626464844,0.1959686279296875
216262,0.127227783203125,1.423507690429688,-0.55780029296875,-0.1705741286277771,-0.1439369320869446,-0.3632312119007111,40.85676574707031,99.08328247070312,0.4771728515625
216263,0.1480560302734375,1.392349243164062,-0.5536651611328125,-0.1820235997438431,-0.1279816627502441,-0.3569477498531342,40.53773498535156,99.04429626464844,0.6798248291015625
216264,0.1024169921875,1.35400390625,-0.6136627197265625,-0.2195485979318619,-0.1858809143304825,-0.3224520683288574,40.33079528808594,99.0220184326172,0.73077392578125
216265,0.1024169921875,1.35400390625,-0.6136627197265625,-0.2195485979318619,-0.1858809143304825,-0.3224520683288574,40.33079528808594,99.0220184326172,0.73077392578125
216266,0.0960693359375,1.187973022460938,-0.82086181640625,-0.0290415044873952,-0.2861334979534149,0.0143669545650482,40.01309204101562,98.8951416015625,1.024398803710938
216267,0.152069091796875,1.165985107421875,-0.8429107666015625,0.1174009293317795,-0.1827221512794495,0.2057225406169891,39.97561645507812,98.73851013183594,1.156539916992188
216268,0.152069091796875,1.165985107421875,-0.8429107666015625,0.1174009293317795,-0.1827221512794495,0.2057225406169891,39.97561645507812,98.73851013183594,1.156539916992188
216269,0.2346343994140625,1.176864624023438,-0.7325439453125,0.2101258039474487,0.1427310556173325,0.4351820945739746,40.20744323730469,98.79411315917967,1.163406372070312
216270,0.220733642578125,1.188140869140625,-0.6258697509765625,0.2614116370677948,0.2440624684095383,0.5040088295936584,40.41761779785156,98.85073852539062,1.048843383789062
216271,0.1879730224609375,1.182571411132812,-0.5159759521484375,0.3945675492286682,0.3128931820392609,0.5507073402404785,40.67335510253906,98.77293395996094,1.059524536132812
216272,0.1879730224609375,1.182571411132812,-0.5159759521484375,0.3945675492286682,0.3128931820392609,0.5507073402404785,40.67335510253906,98.77293395996094,1.059524536132812
216273,0.1432037353515625,1.15362548828125,-0.4300994873046875,0.5508484840393066,0.3724875450134277,0.5595775246620178,40.95512390136719,98.8489990234375,0.84906005859375
216274,0.07220458984375,1.101608276367188,-0.3031463623046875,0.6851101517677307,0.4177943170070648,0.497947484254837,41.63157653808594,98.87370300292967,0.1202850341796875
216275,0.0513763427734375,1.084274291992188,-0.2501373291015625,0.6728849411010742,0.401571124792099,0.4379957318305969,41.82926940917969,99.076171875,-0.1656036376953125
216276,0.0513763427734375,1.084274291992188,-0.2501373291015625,0.6728849411010742,0.401571124792099,0.4379957318305969,41.82926940917969,99.076171875,-0.1656036376953125
216277,0.0276031494140625,1.016326904296875,-0.1753997802734375,0.5219420194625854,0.22215236723423,0.3534166514873505,42.28990173339844,99.31411743164062,-0.9614105224609376
216278,0.0276031494140625,1.016326904296875,-0.1753997802734375,0.5219420194625854,0.22215236723423,0.3534166514873505,42.28990173339844,99.31411743164062,-0.9614105224609376
216279,-0.0333251953125,1.060836791992188,-0.0247955322265625,0.2986021339893341,-0.290910392999649,0.4257196187973022,42.75230407714844,99.52354431152344,-1.68438720703125
216280,-0.0333251953125,1.060836791992188,-0.0247955322265625,0.2986021339893341,-0.290910392999649,0.4257196187973022,42.75230407714844,99.52354431152344,-1.68438720703125
216281,-0.029144287109375,1.091156005859375,0.2548065185546875,0.473488986492157,-0.4222194254398346,0.6215815544128418,43.44279479980469,99.57666015625,-2.154098510742188
216282,-0.0015106201171875,1.042648315429688,0.3549652099609375,0.645026683807373,-0.3974152803421021,0.7121444344520569,43.79234313964844,99.5304718017578,-2.271499633789062
216283,0.0349578857421875,1.001632690429688,0.419708251953125,0.7576866149902344,-0.4018225371837616,0.822413444519043,44.22010803222656,99.49241638183594,-2.399993896484375
216284,0.0349578857421875,1.001632690429688,0.419708251953125,0.7576866149902344,-0.4018225371837616,0.822413444519043,44.22010803222656,99.49241638183594,-2.399993896484375
216285,0.06475830078125,0.943115234375,0.45050048828125,0.7761122584342957,-0.3284434080123901,0.8963009715080261,44.57408142089844,99.4701690673828,-2.658538818359375
216286,0.0940093994140625,0.88232421875,0.437774658203125,0.5959073305130005,-0.0737860724329948,0.8819654583930969,44.99688720703125,99.54501342773438,-2.9248046875
216287,0.1420135498046875,0.809814453125,0.2961883544921875,0.4384841322898865,-0.0721144080162048,0.7917671203613281,45.94367980957031,99.62635803222656,-3.470977783203125
216288,0.1420135498046875,0.809814453125,0.2961883544921875,0.4384841322898865,-0.0721144080162048,0.7917671203613281,45.94367980957031,99.62635803222656,-3.470977783203125
216289,0.1114044189453125,0.802001953125,0.166534423828125,0.1897877752780914,-0.2556394934654236,0.5007975697517395,46.72821044921875,99.74838256835938,-3.926773071289062
216290,0.1114044189453125,0.802001953125,0.166534423828125,0.1897877752780914,-0.2556394934654236,0.5007975697517395,46.72821044921875,99.74838256835938,-3.926773071289062
216291,0.0956573486328125,0.800872802734375,0.0046234130859375,0.1898767203092575,-0.4799154698848724,0.2620041966438293,47.29660034179688,99.779052734375,-4.081832885742188
216292,0.101165771484375,0.7876434326171875,0.061004638671875,0.1898767203092575,-0.4799154698848724,0.2620041966438293,47.50637817382812,99.90032958984376,-4.066131591796875
216293,0.101165771484375,0.7876434326171875,0.061004638671875,0.1898767203092575,-0.4799154698848724,0.2620041966438293,47.50637817382812,99.90032958984376,-4.066131591796875
216294,-0.0406951904296875,0.88043212890625,0.1060791015625,0.1052995249629021,-0.173938512802124,0.1341487467288971,47.82913208007812,99.80979919433594,-4.046432495117188
216295,-0.128173828125,0.92529296875,0.131378173828125,-0.047180563211441,-0.1278996467590332,0.0443687960505485,48.0372314453125,99.81843566894533,-4.094482421875
216296,-0.128173828125,0.92529296875,0.131378173828125,-0.047180563211441,-0.1278996467590332,0.0443687960505485,48.0372314453125,99.81843566894533,-4.094482421875
216297,-0.180999755859375,0.9408721923828124,0.1449737548828125,-0.171141117811203,-0.1344044059514999,-0.051800612360239,48.07827758789062,99.9263916015625,-4.134307861328125
216298,-0.219573974609375,0.9488372802734376,0.133087158203125,-0.201741635799408,-0.3054374158382416,-0.2590693831443787,48.21736145019531,99.99122619628906,-4.251296997070312
216299,-0.2454681396484375,0.9176483154296876,0.1556243896484375,-0.1639545857906342,-0.364359587430954,-0.3276439011096954,48.11289978027344,100.0633544921875,-4.1490478515625
216300,-0.2454681396484375,0.9176483154296876,0.1556243896484375,-0.1639545857906342,-0.364359587430954,-0.3276439011096954,48.11289978027344,100.0633544921875,-4.1490478515625
216301,-0.232666015625,0.8838043212890625,0.16546630859375,-0.1497189253568649,-0.3361633718013763,-0.3651979565620422,47.99496459960938,99.98684692382812,-4.100341796875
216302,-0.1895751953125,0.8233184814453125,0.16748046875,-0.1868535131216049,-0.2735194265842438,-0.3581365644931793,47.82402038574219,99.92266845703124,-4.143157958984375
216303,-0.1771392822265625,0.8060150146484375,0.18072509765625,-0.2471022009849548,-0.174095094203949,-0.3462602198123932,47.65155029296875,99.95997619628906,-4.039077758789062
216304,-0.1771392822265625,0.8060150146484375,0.18072509765625,-0.2471022009849548,-0.174095094203949,-0.3462602198123932,47.65155029296875,99.95997619628906,-4.039077758789062
216305,-0.175506591796875,0.7945556640625,0.18829345703125,-0.3236773908138275,-0.044059868901968,-0.331000030040741,47.45408630371094,99.92376708984376,-3.918258666992188
216306,-0.179931640625,0.7803497314453125,0.1903839111328125,-0.4129899740219116,0.0688307285308837,-0.3315781950950623,47.27755737304688,100.0501251220703,-3.8634033203125
216307,-0.203521728515625,0.780548095703125,0.199554443359375,-0.614771842956543,0.1331604570150375,-0.3671503067016602,46.8541259765625,100.0776214599609,-3.582000732421875
216308,-0.203521728515625,0.780548095703125,0.199554443359375,-0.614771842956543,0.1331604570150375,-0.3671503067016602,46.8541259765625,100.0776214599609,-3.582000732421875
216309,-0.2112884521484375,0.7954559326171875,0.206512451171875,-0.7391470670700073,0.1109185293316841,-0.3963412046432495,46.69425964355469,100.0592956542969,-3.2945556640625
216310,-0.201934814453125,0.812469482421875,0.1952667236328125,-0.979250967502594,-0.0144689539447426,-0.4153670966625214,46.43315124511719,99.88351440429688,-3.0836181640625
216311,-0.1524658203125,0.905364990234375,0.0828094482421875,-1.033765077590942,-0.1348145455121994,-0.3785856664180756,46.01570129394531,99.73406982421876,-2.279541015625
216312,-0.120208740234375,0.97332763671875,-0.0090484619140625,-1.021831750869751,-0.3251021802425385,-0.3240369260311127,45.78785705566406,99.6704559326172,-1.803619384765625
216313,-0.120208740234375,0.97332763671875,-0.0090484619140625,-1.021831750869751,-0.3251021802425385,-0.3240369260311127,45.78785705566406,99.6704559326172,-1.803619384765625
216314,-0.038482666015625,1.025360107421875,0.000885009765625,-0.9513620734214784,-0.3312333226203918,-0.1735070794820786,45.3818359375,99.5080108642578,-0.7994842529296875
216315,-0.006866455078125,1.051986694335938,-0.0701904296875,-0.8721626400947571,-0.1899110823869705,-0.1648946702480316,45.18768310546875,99.41853332519533,-0.296539306640625
216316,-0.006866455078125,1.051986694335938,-0.0701904296875,-0.8721626400947571,-0.1899110823869705,-0.1648946702480316,45.18768310546875,99.41853332519533,-0.296539306640625
216317,0.023468017578125,1.117645263671875,-0.1959381103515625,-0.568372368812561,-0.1788807958364487,-0.2520886957645416,45.02952575683594,99.26377868652344,0.2485198974609375
216318,0.1720733642578125,1.342056274414062,-0.4435882568359375,-0.3774263858795166,-0.2790393531322479,-0.2907300889492035,44.57781982421875,99.18728637695312,1.080001831054688
216319,0.2735748291015625,1.430877685546875,-0.491180419921875,-0.1833812743425369,-0.420134961605072,-0.30152627825737,44.4344482421875,99.15855407714844,1.414581298828125
216320,0.2735748291015625,1.430877685546875,-0.491180419921875,-0.1833812743425369,-0.420134961605072,-0.30152627825737,44.4344482421875,99.15855407714844,1.414581298828125
216321,0.37811279296875,1.488555908203125,-0.458709716796875,0.1371554583311081,-0.5500229001045227,-0.2262195497751236,44.04937744140625,99.0566864013672,1.848098754882812
216322,0.3795013427734375,1.427642822265625,-0.5000152587890625,0.3314205408096313,-0.6133928298950195,-0.1660550236701965,43.9185791015625,99.0483856201172,1.86224365234375
216323,0.355377197265625,1.2508544921875,-0.5794525146484375,0.5972439646720886,-0.6250820159912109,-0.0461235530674457,43.8983154296875,99.10110473632812,2.003097534179688
216324,0.355377197265625,1.2508544921875,-0.5794525146484375,0.5972439646720886,-0.6250820159912109,-0.0461235530674457,43.8983154296875,99.10110473632812,2.003097534179688
216325,0.30120849609375,1.070266723632812,-0.6675262451171875,0.8732411861419678,-0.6197170615196228,0.0934625715017318,43.90322875976562,99.13714599609376,2.044265747070312
216326,0.1891021728515625,0.936920166015625,-0.66802978515625,1.06573474407196,-0.5900997519493103,0.2188913375139236,44.07666015625,99.2469482421875,1.721542358398438
216327,0.16064453125,0.9185638427734376,-0.6330413818359375,0.9838481545448304,-0.5924239158630371,0.210108757019043,44.3380126953125,99.24127197265624,1.243423461914062
216328,0.16064453125,0.9185638427734376,-0.6330413818359375,0.9838481545448304,-0.5924239158630371,0.210108757019043,44.3380126953125,99.24127197265624,1.243423461914062
216329,0.175994873046875,0.9033966064453124,-0.536865234375,0.5872171521186829,-0.7547744512557983,0.1636437922716141,44.78138732910156,99.55470275878906,-0.0231170654296875
216330,0.19091796875,0.9329071044921876,-0.447662353515625,0.5872171521186829,-0.7547744512557983,0.1636437922716141,44.96807861328125,99.6309051513672,-0.3557586669921875
216331,0.2052764892578125,0.9832916259765624,-0.3682403564453125,0.4756480157375336,-0.7847036123275757,0.1129278838634491,45.24835205078125,99.64190673828124,-0.739593505859375
216332,0.2052764892578125,0.9832916259765624,-0.3682403564453125,0.4756480157375336,-0.7847036123275757,0.1129278838634491,45.24835205078125,99.64190673828124,-0.739593505859375
216333,0.2247161865234375,1.060958862304688,-0.2819061279296875,0.3988326191902161,-0.844685971736908,0.0804048255085945,45.50888061523438,99.76820373535156,-1.015213012695312
216334,0.216461181640625,1.287338256835938,-0.0658721923828125,0.2666399478912354,-0.8958077430725098,0.0592510737478733,45.94792175292969,99.88215637207033,-1.446212768554688
216335,0.206573486328125,1.426300048828125,0.0080718994140625,0.2056146711111069,-0.968715488910675,0.0162143893539905,46.112060546875,99.90859985351562,-1.570449829101562
216336,0.206573486328125,1.426300048828125,0.0080718994140625,0.2056146711111069,-0.968715488910675,0.0162143893539905,46.112060546875,99.90859985351562,-1.570449829101562
216337,0.204559326171875,1.557754516601562,0.0821990966796875,0.1891467571258545,-1.019322276115417,-0.0563732609152793,46.23757934570312,99.96026611328124,-1.742889404296875
216338,0.12432861328125,1.6793212890625,0.1899261474609375,0.4122101962566376,-0.8645973801612854,-0.2793078124523163,46.54080200195312,100.0812225341797,-1.878768920898438
216339,0.0445098876953125,1.575271606445312,0.1807403564453125,0.6416242122650146,-0.7845579385757446,-0.3837870657444,46.77412414550781,100.1243133544922,-2.068466186523438
216340,0.0445098876953125,1.575271606445312,0.1807403564453125,0.6416242122650146,-0.7845579385757446,-0.3837870657444,46.77412414550781,100.1243133544922,-2.068466186523438
216341,-0.0975189208984375,1.180374145507812,0.1070556640625,1.010378003120422,-0.6981855034828186,-0.3973393738269806,46.862060546875,100.193359375,-2.297027587890625
216342,-0.1315765380859375,1.017120361328125,0.0518341064453125,1.035736918449402,-0.7933370471000671,-0.360772579908371,46.91717529296875,100.2473754882812,-2.655303955078125
216343,-0.1690673828125,0.902252197265625,0.0422821044921875,0.9700217843055724,-0.9194363951683044,-0.3191452324390411,46.89640808105469,100.400634765625,-3.029830932617188
216344,-0.1690673828125,0.902252197265625,0.0422821044921875,0.9700217843055724,-0.9194363951683044,-0.3191452324390411,46.89640808105469,100.400634765625,-3.029830932617188
216345,-0.197540283203125,0.8187713623046875,0.0426483154296875,0.8604114055633545,-1.073925018310547,-0.2774776816368103,46.90089416503906,100.3564300537109,-3.460128784179688
216346,-0.2210845947265625,0.758819580078125,0.043975830078125,0.6744990944862366,-1.425811171531677,-0.148986279964447,46.91011047363281,100.4334106445312,-3.836746215820312
216347,-0.2353363037109375,0.662384033203125,0.0055084228515625,0.6477507948875427,-1.619084239006042,-0.077600784599781,47.17715454101562,100.5990295410156,-4.557754516601562
216348,-0.2353363037109375,0.662384033203125,0.0055084228515625,0.6477507948875427,-1.619084239006042,-0.077600784599781,47.17715454101562,100.5990295410156,-4.557754516601562
216349,-0.174072265625,0.5441741943359375,0.000885009765625,0.7263053059577942,-1.400560140609741,-0.0269716959446668,47.59326171875,100.6114959716797,-5.090728759765625
216350,-0.162445068359375,0.5155487060546875,-0.003326416015625,0.6603102684020996,-1.052728891372681,-0.0459853336215019,47.76263427734375,100.4437561035156,-5.389511108398438
216351,-0.1605682373046875,0.516357421875,0.0177459716796875,0.6603102684020996,-1.052728891372681,-0.0459853336215019,48.13235473632812,100.4766693115234,-5.690963745117188
216352,-0.1605682373046875,0.516357421875,0.0177459716796875,0.6603102684020996,-1.052728891372681,-0.0459853336215019,48.13235473632812,100.4766693115234,-5.690963745117188
216353,-0.1670074462890625,0.655242919921875,0.1623992919921875,-0.201940044760704,-0.3066475391387939,0.0352509319782257,48.30744934082031,100.6153564453125,-6.085052490234375
216354,-0.1682281494140625,0.7669219970703125,0.2763671875,-0.201940044760704,-0.3066475391387939,0.0352509319782257,48.45556640625,100.7493286132812,-6.393096923828125
216355,-0.2001190185546875,0.8800506591796875,0.3534698486328125,-0.4984809160232544,-0.0620649680495262,0.050848800688982,48.5291748046875,100.6353302001953,-6.485382080078125
216356,-0.2435455322265625,0.930328369140625,0.3354949951171875,-0.7012348175048828,0.118840366601944,0.0349595807492733,48.67683410644531,100.6287689208984,-6.417510986328125
216357,-0.2435455322265625,0.930328369140625,0.3354949951171875,-0.7012348175048828,0.118840366601944,0.0349595807492733,48.67683410644531,100.6287689208984,-6.417510986328125
216358,-0.3034210205078125,0.88629150390625,0.273468017578125,-0.6434362530708313,0.0404385030269622,0.05856504291296,48.85125732421875,100.5055847167969,-6.02899169921875
216359,-0.3041229248046875,0.841552734375,0.3258209228515625,-0.5916768908500671,0.0402598045766353,0.1579057425260544,48.84965515136719,100.4282379150391,-5.650360107421875
216360,-0.3041229248046875,0.841552734375,0.3258209228515625,-0.5916768908500671,0.0402598045766353,0.1579057425260544,48.84965515136719,100.4282379150391,-5.650360107421875
216361,-0.15887451171875,0.8462677001953125,0.3403778076171875,-0.7127953171730042,0.1347048133611679,0.2439977526664734,48.99795532226562,100.3536529541016,-4.903701782226562
216362,-0.1112518310546875,0.85595703125,0.3554534912109375,-0.7127953171730042,0.1347048133611679,0.2439977526664734,49.0576171875,100.4042816162109,-4.757965087890625
216363,-0.10333251953125,0.8665618896484375,0.391998291015625,-0.8273032903671265,0.1323212832212448,0.1567251682281494,49.05607604980469,100.3189849853516,-4.466537475585938
216364,-0.10333251953125,0.8665618896484375,0.391998291015625,-0.8273032903671265,0.1323212832212448,0.1567251682281494,49.05607604980469,100.3189849853516,-4.466537475585938
216365,-0.106842041015625,0.895294189453125,0.4019775390625,-0.9748855233192444,0.1180273070931435,0.0405183993279933,49.12333679199219,100.2774505615234,-4.148849487304688
216366,-0.124420166015625,0.9461517333984376,0.3656005859375,-1.151514053344727,-0.1343530118465424,-0.2363544851541519,49.14692687988281,100.1959686279297,-3.808456420898438
216367,-0.1460418701171875,1.03790283203125,0.2409820556640625,-1.184246182441711,-0.3189958333969116,-0.3439291417598724,49.10038757324219,99.92976379394533,-2.97698974609375
216368,-0.1204376220703125,1.077804565429688,0.1218414306640625,-1.119043231010437,-0.5478079915046692,-0.3911752104759216,49.00714111328125,99.86808776855467,-2.475799560546875
216369,-0.1204376220703125,1.077804565429688,0.1218414306640625,-1.119043231010437,-0.5478079915046692,-0.3911752104759216,49.00714111328125,99.86808776855467,-2.475799560546875
216370,-0.0852813720703125,1.130615234375,0.0142669677734375,-0.8944799304008484,-0.6548817157745361,-0.3712270855903625,48.74905395507812,99.7287139892578,-1.935577392578125
216371,-0.0479888916015625,1.185745239257812,-0.1494293212890625,-0.2022764086723328,-0.0775336697697639,-0.3065364956855774,48.39137268066406,99.45823669433594,-0.8407440185546875
216372,-0.0479888916015625,1.185745239257812,-0.1494293212890625,-0.2022764086723328,-0.0775336697697639,-0.3065364956855774,48.39137268066406,99.45823669433594,-0.8407440185546875
216373,-0.0187530517578125,1.152450561523438,-0.297393798828125,0.008470450527966,0.3732779622077942,-0.2635970115661621,48.12594604492188,99.41354370117188,-0.4578704833984375
216374,0.0576171875,1.17626953125,-0.589019775390625,-0.036352414637804,0.2694858014583588,-0.211112767457962,47.56498718261719,99.62521362304688,-0.0907135009765625
216375,0.068511962890625,1.19940185546875,-0.615692138671875,-0.1413376927375793,0.0005816344055347,-0.2194356769323349,47.34495544433594,99.68133544921876,0.026641845703125
216376,0.029083251953125,1.238433837890625,-0.591644287109375,-0.2235121876001358,-0.0852267444133758,-0.1597483903169632,46.989013671875,99.7870635986328,0.041229248046875
216377,0.029083251953125,1.238433837890625,-0.591644287109375,-0.2235121876001358,-0.0852267444133758,-0.1597483903169632,46.989013671875,99.7870635986328,0.041229248046875
216378,-0.0450592041015625,1.250930786132812,-0.5912017822265625,-0.1117161437869072,-0.0488301217555999,-0.1111353114247322,46.65176391601562,99.87754821777344,0.331085205078125
216379,-0.0118408203125,1.17950439453125,-0.63671875,0.0789265036582946,0.0240062661468982,-0.0201694499701261,46.5208740234375,99.6979522705078,0.5226287841796875
216380,-0.0118408203125,1.17950439453125,-0.63671875,0.0789265036582946,0.0240062661468982,-0.0201694499701261,46.5208740234375,99.6979522705078,0.5226287841796875
216381,0.0411529541015625,1.106201171875,-0.708709716796875,0.2627749145030975,0.1410170346498489,0.1042776703834534,46.49720764160156,99.70123291015624,0.519073486328125
216382,0.1177520751953125,1.0804443359375,-0.717315673828125,0.4682700037956238,0.3975526988506317,0.3376129269599915,46.52238464355469,99.7392578125,0.4118804931640625
216383,0.114288330078125,1.10479736328125,-0.6374359130859375,0.460597962141037,0.5333840250968933,0.390431135892868,46.65414428710938,99.7568817138672,0.2214202880859375
216384,0.114288330078125,1.10479736328125,-0.6374359130859375,0.460597962141037,0.5333840250968933,0.390431135892868,46.65414428710938,99.7568817138672,0.2214202880859375
216385,0.0689544677734375,1.080642700195312,-0.4482421875,0.4015881717205048,0.6413996815681458,0.399737536907196,46.85163879394531,99.85452270507812,-0.2464752197265625
216386,0.0482177734375,1.08380126953125,-0.3884429931640625,0.3896055519580841,0.6198398470878601,0.3830738961696625,47.08930969238281,99.90255737304688,-0.526214599609375
216387,0.021697998046875,1.113235473632812,-0.3377838134765625,0.3443009257316589,0.5716941356658936,0.3661604225635529,47.30625915527344,100.1061553955078,-0.722076416015625
216388,0.021697998046875,1.113235473632812,-0.3377838134765625,0.3443009257316589,0.5716941356658936,0.3661604225635529,47.30625915527344,100.1061553955078,-0.722076416015625
216389,-0.0245819091796875,1.181732177734375,-0.1864013671875,0.1159764006733894,0.3174320161342621,0.2932380139827728,47.52334594726562,100.3689575195312,-1.164840698242188
216390,-0.0376739501953125,1.201629638671875,-0.0777435302734375,-0.0302250143140554,0.1955679059028625,0.2660210430622101,47.73117065429688,100.3375091552734,-1.39111328125
216391,-0.032684326171875,1.232696533203125,0.0071868896484375,-0.0835734531283378,0.155415952205658,0.2783149778842926,47.88731384277344,100.306396484375,-1.40032958984375
216392,-0.032684326171875,1.232696533203125,0.0071868896484375,-0.0835734531283378,0.155415952205658,0.2783149778842926,47.88731384277344,100.306396484375,-1.40032958984375
216393,-0.00653076171875,1.242385864257812,0.0571136474609375,0.0285919643938541,0.0730494409799575,0.3554188311100006,47.97718811035156,100.3129119873047,-1.294937133789062
216394,0.0712432861328125,1.232025146484375,0.15234375,0.1895323842763901,-0.0689857229590416,0.4795516729354858,48.4423828125,100.0207824707031,-1.171417236328125
216395,0.0891571044921875,1.229583740234375,0.23675537109375,0.3531884253025055,-0.2049949616193771,0.6584618091583252,48.66294860839844,99.91551208496094,-1.064437866210938
216396,0.0891571044921875,1.229583740234375,0.23675537109375,0.3531884253025055,-0.2049949616193771,0.6584618091583252,48.66294860839844,99.91551208496094,-1.064437866210938
216397,0.0925140380859375,1.210739135742188,0.310577392578125,0.5212602615356445,-0.2913540899753571,0.7858234643936157,48.99455261230469,99.94879150390624,-1.358795166015625
216398,0.0881195068359375,1.134750366210938,0.3237152099609375,0.7639700770378113,-0.5057837963104248,0.6970635056495667,49.32139587402344,99.93934631347656,-1.716262817382812
216399,0.0416717529296875,0.897125244140625,0.2166595458984375,0.7682745456695557,-0.7016460299491882,0.5661832690238953,50.26185607910156,100.0850067138672,-2.220230102539062
216400,0.0416717529296875,0.897125244140625,0.2166595458984375,0.7682745456695557,-0.7016460299491882,0.5661832690238953,50.26185607910156,100.0850067138672,-2.220230102539062
216401,0.0299835205078125,0.795562744140625,0.1623382568359375,0.6581438183784485,-0.9341346621513368,0.4809399843215942,50.66441345214844,100.1002502441406,-2.628128051757812
216402,0.066070556640625,0.7555694580078125,0.118865966796875,0.2294481098651886,-1.176024556159973,0.3620146811008453,51.37528991699219,100.0987243652344,-3.359344482421875
216403,0.079010009765625,0.7706298828125,0.117767333984375,0.0559391640126705,-1.013206601142883,0.3392055034637451,51.7354736328125,99.91877746582033,-3.375885009765625
216404,0.079010009765625,0.7706298828125,0.117767333984375,0.0559391640126705,-1.013206601142883,0.3392055034637451,51.7354736328125,99.91877746582033,-3.375885009765625
216405,0.08056640625,0.74774169921875,0.08270263671875,0.0042280345223844,-0.7853566408157349,0.3425142168998718,52.06309509277344,99.85736083984376,-3.361343383789062
216406,0.002044677734375,0.69512939453125,0.0560302734375,0.145159050822258,-0.4059320688247681,0.2984639108181,52.608642578125,99.7934112548828,-3.550796508789062
216407,-0.0959014892578125,0.6951446533203125,0.02301025390625,0.1476536393165588,-0.3001821935176849,0.2723290026187897,52.83012390136719,99.68276977539062,-3.453811645507812
216408,-0.0959014892578125,0.6951446533203125,0.02301025390625,0.1476536393165588,-0.3001821935176849,0.2723290026187897,52.83012390136719,99.68276977539062,-3.453811645507812
216409,-0.226959228515625,0.715362548828125,0.075958251953125,-0.0879602134227752,-0.0474625900387764,0.151154637336731,53.31564331054688,99.71168518066406,-3.53814697265625
216410,-0.2606048583984375,0.7330474853515625,0.0753021240234375,-0.1787889152765274,0.0897298827767372,0.0813449248671531,53.43621826171875,99.7543487548828,-3.610687255859375
216411,-0.277191162109375,0.768951416015625,0.0550994873046875,-0.1882450133562088,0.1615390926599503,0.010095776990056,53.47108459472656,99.7266845703125,-3.557571411132812
216412,-0.2694549560546875,0.8076324462890625,0.0531463623046875,-0.1445103138685226,0.2324880957603455,-0.0529692098498344,53.53224182128906,99.76203918457033,-3.570022583007812
216413,-0.2694549560546875,0.8076324462890625,0.0531463623046875,-0.1445103138685226,0.2324880957603455,-0.0529692098498344,53.53224182128906,99.76203918457033,-3.570022583007812
216414,-0.1887359619140625,0.86810302734375,0.0613250732421875,-0.1088564395904541,0.4165279865264893,-0.1256309002637863,53.46653747558594,99.7364501953125,-3.541885375976562
216415,-0.151092529296875,0.86297607421875,0.07708740234375,-0.1375386863946915,0.4153034687042236,-0.1684284210205078,53.3663330078125,99.76834106445312,-3.3638916015625
216416,-0.151092529296875,0.86297607421875,0.07708740234375,-0.1375386863946915,0.4153034687042236,-0.1684284210205078,53.3663330078125,99.76834106445312,-3.3638916015625
216417,-0.1173095703125,0.803375244140625,0.1486053466796875,-0.1736399680376053,0.4085771143436432,-0.2613093554973602,53.20845031738281,99.7727508544922,-3.291717529296875
216418,-0.128875732421875,0.77532958984375,0.160614013671875,-0.19144506752491,0.403813511133194,-0.3121933043003082,53.08320617675781,99.77137756347656,-3.259780883789062
216419,-0.1524658203125,0.7464599609375,0.1683502197265625,-0.2366213351488113,0.4043168425559998,-0.364584356546402,52.87040710449219,99.74359130859376,-3.174301147460938
216420,-0.1524658203125,0.7464599609375,0.1683502197265625,-0.2366213351488113,0.4043168425559998,-0.364584356546402,52.87040710449219,99.74359130859376,-3.174301147460938
216421,-0.1766510009765625,0.7208709716796875,0.18310546875,-0.3138167858123779,0.427010178565979,-0.4178409278392792,52.60664367675781,99.80079650878906,-3.093963623046875
216422,-0.2239532470703125,0.715911865234375,0.2121429443359375,-0.5807960033416748,0.5071731805801392,-0.4979687631130219,52.04493713378906,99.81475830078124,-2.820053100585938
216423,-0.22918701171875,0.740447998046875,0.2116546630859375,-0.7740903496742249,0.4976380169391632,-0.5218836665153503,51.71138000488281,99.926025390625,-2.607650756835938
216424,-0.22918701171875,0.740447998046875,0.2116546630859375,-0.7740903496742249,0.4976380169391632,-0.5218836665153503,51.71138000488281,99.926025390625,-2.607650756835938
216425,-0.188232421875,0.8414154052734375,0.1620635986328125,-1.141251564025879,0.2421164959669113,-0.5589895248413086,51.0618896484375,99.85690307617188,-1.917724609375
216426,-0.155029296875,0.915863037109375,0.1171112060546875,-1.231472253799438,-0.0140881221741437,-0.5676400065422058,50.6871337890625,99.74142456054688,-1.392822265625
216427,-0.104095458984375,0.98126220703125,0.074371337890625,-1.259630680084229,-0.2629221677780151,-0.5530821084976196,50.33224487304688,99.68275451660156,-0.8769378662109375
216428,-0.104095458984375,0.98126220703125,0.074371337890625,-1.259630680084229,-0.2629221677780151,-0.5530821084976196,50.33224487304688,99.68275451660156,-0.8769378662109375
216429,0.0064697265625,1.16912841796875,-0.109832763671875,-1.159536600112915,-0.4868868291378021,-0.4937503337860107,49.52314758300781,99.55825805664062,0.196380615234375
216430,0.0730743408203125,1.28912353515625,-0.277313232421875,-1.038417339324951,-0.6084015369415283,-0.4772706925868988,49.22152709960938,99.4480438232422,0.8121337890625
216431,0.136871337890625,1.39697265625,-0.3590240478515625,-0.8811113834381104,-0.6393378973007202,-0.4452522993087769,48.83551025390625,99.30223083496094,1.532699584960938
216432,0.136871337890625,1.39697265625,-0.3590240478515625,-0.8811113834381104,-0.6393378973007202,-0.4452522993087769,48.83551025390625,99.30223083496094,1.532699584960938
216433,0.215789794921875,1.499374389648438,-0.3627777099609375,-0.537135899066925,-0.4805394411087036,-0.3997274339199066,48.34799194335938,99.2169189453125,2.34722900390625
216434,0.2476043701171875,1.477630615234375,-0.3152313232421875,-0.3956195116043091,-0.5451586842536926,-0.3504965007305145,48.08482360839844,99.20053100585938,2.747604370117188
216435,0.268402099609375,1.447708129882812,-0.318389892578125,-0.2167906314134598,-0.7156544923782349,-0.2753109335899353,47.90667724609375,99.0422821044922,3.035675048828125
216436,0.268402099609375,1.447708129882812,-0.318389892578125,-0.2167906314134598,-0.7156544923782349,-0.2753109335899353,47.90667724609375,99.0422821044922,3.035675048828125
216437,0.277587890625,1.34820556640625,-0.3994903564453125,0.0487041547894477,-0.8684858679771423,-0.1964065283536911,47.86497497558594,98.93682861328124,3.362060546875
216438,0.2754364013671875,1.188751220703125,-0.51416015625,0.6721816062927246,-0.8331281542778015,0.036629382520914,47.82414245605469,98.97862243652344,3.601058959960938
216439,0.1909637451171875,1.053619384765625,-0.6323394775390625,0.8025052547454834,-0.7227246761322021,0.111752100288868,48.08786010742188,98.9813232421875,3.53173828125
216440,0.1909637451171875,1.053619384765625,-0.6323394775390625,0.8025052547454834,-0.7227246761322021,0.111752100288868,48.08786010742188,98.9813232421875,3.53173828125
216441,0.125885009765625,1.06781005859375,-0.6146392822265625,0.811802327632904,-0.5844069719314575,0.1540526896715164,48.26261901855469,99.06155395507812,3.291656494140625
216442,0.0206756591796875,1.16290283203125,-0.475555419921875,0.674031674861908,-0.3260366916656494,0.1503980308771133,48.70608520507812,99.41307067871094,2.538864135742188
216443,0.0187835693359375,1.218231201171875,-0.4403839111328125,0.6042760610580444,-0.3518999814987183,0.1380247175693512,48.90066528320312,99.47688293457033,2.1268310546875
216444,0.0187835693359375,1.218231201171875,-0.4403839111328125,0.6042760610580444,-0.3518999814987183,0.1380247175693512,48.90066528320312,99.47688293457033,2.1268310546875
216445,0.0513763427734375,1.266754150390625,-0.3084259033203125,0.5515377521514893,-0.3039750754833221,0.2150089740753174,49.25785827636719,99.77796936035156,1.329498291015625
216446,0.064300537109375,1.29541015625,-0.2215728759765625,0.5515377521514893,-0.3039750754833221,0.2150089740753174,49.47477722167969,99.67955017089844,1.2708740234375
216447,0.082977294921875,1.312469482421875,-0.1288909912109375,0.527655839920044,-0.2783306837081909,0.2336503118276596,49.73165893554688,99.63099670410156,0.854583740234375
216448,0.0967864990234375,1.327011108398438,-0.0252532958984375,0.5222448110580444,-0.2184915989637375,0.2006180584430695,49.93643188476562,99.64097595214844,0.5352325439453125
216449,0.0967864990234375,1.327011108398438,-0.0252532958984375,0.5222448110580444,-0.2184915989637375,0.2006180584430695,49.93643188476562,99.64097595214844,0.5352325439453125
216450,0.0829620361328125,1.39996337890625,0.1621856689453125,0.5712512731552124,-0.0843934416770935,0.068334050476551,50.23829650878906,99.94676208496094,0.010589599609375
216451,0.0355987548828125,1.440048217773438,0.216705322265625,0.5712512731552124,-0.0843934416770935,0.068334050476551,50.44935607910156,100.0653991699219,-0.2572784423828125
216452,0.0355987548828125,1.440048217773438,0.216705322265625,0.5712512731552124,-0.0843934416770935,0.068334050476551,50.44935607910156,100.0653991699219,-0.2572784423828125
216453,-0.033538818359375,1.4580078125,0.213623046875,0.724761962890625,-0.1649881601333618,-0.1249533891677856,50.64643859863281,100.0308227539062,-0.6121368408203125
216454,-0.10626220703125,1.439178466796875,0.204010009765625,0.7869430780410767,-0.2981395423412323,-0.18185955286026,50.74256896972656,100.0351715087891,-0.8407745361328125
216455,-0.17633056640625,1.235183715820312,0.1607666015625,0.835780918598175,-0.4866412878036499,-0.1706340610980988,51.07484436035156,100.0414428710938,-1.517562866210938
216456,-0.17633056640625,1.235183715820312,0.1607666015625,0.835780918598175,-0.4866412878036499,-0.1706340610980988,51.07484436035156,100.0414428710938,-1.517562866210938
216457,-0.183746337890625,1.100234985351562,0.13299560546875,0.887933611869812,-0.6908226609230042,-0.1351586133241653,51.12957763671875,100.2445220947266,-2.093475341796875
216458,-0.1339111328125,0.8525543212890625,0.0568084716796875,0.9032747149467468,-1.071516990661621,-0.0411847196519374,51.32435607910156,100.2714233398438,-2.897933959960938
216459,-0.1075286865234375,0.7711029052734375,0.03424072265625,0.8757986426353455,-1.227942824363708,-0.037480529397726,51.44891357421875,100.3875885009766,-3.265731811523438
216460,-0.1075286865234375,0.7711029052734375,0.03424072265625,0.8757986426353455,-1.227942824363708,-0.037480529397726,51.44891357421875,100.3875885009766,-3.265731811523438
216461,-0.0853271484375,0.705169677734375,0.0228729248046875,0.7187634706497192,-1.399819016456604,-0.0783070549368858,51.64163208007812,100.5012969970703,-3.641616821289062
216462,-0.06201171875,0.58905029296875,-0.000244140625,0.6122404932975769,-1.395870089530945,-0.1046156212687492,51.97257995605469,100.6143493652344,-4.2593994140625
216463,-0.070343017578125,0.523956298828125,-0.03741455078125,0.5417602062225342,-1.37246298789978,-0.1309849172830582,52.08779907226562,100.6608581542969,-4.691680908203125
216464,-0.070343017578125,0.523956298828125,-0.03741455078125,0.5417602062225342,-1.37246298789978,-0.1309849172830582,52.08779907226562,100.6608581542969,-4.691680908203125
216465,-0.1080780029296875,0.423828125,0.03460693359375,0.4594844877719879,-1.112696647644043,-0.2357968091964722,52.47921752929688,100.7512512207031,-5.297927856445312
216466,-0.146728515625,0.4207916259765625,0.1105499267578125,0.3482045829296112,-0.7614251971244812,-0.2595404982566833,52.59391784667969,100.7228698730469,-5.546585083007812
216467,-0.2002410888671875,0.4708709716796875,0.1914520263671875,0.1664566248655319,-0.3940705955028534,-0.224339634180069,52.60821533203125,100.8090515136719,-5.729522705078125
216468,-0.2002410888671875,0.4708709716796875,0.1914520263671875,0.1664566248655319,-0.3940705955028534,-0.224339634180069,52.60821533203125,100.8090515136719,-5.729522705078125
216469,-0.223236083984375,0.56280517578125,0.2754974365234375,-0.0807438492774963,-0.0362365655601024,-0.2154214978218079,52.66239929199219,100.8778228759766,-6.01385498046875
216470,-0.2558441162109375,0.8583984375,0.443939208984375,-0.6299044489860535,0.3732819855213165,-0.2020279318094254,52.64134216308594,100.8952026367188,-6.034698486328125
216471,-0.3300933837890625,0.870880126953125,0.4661712646484375,-0.8049601316452026,0.410238653421402,-0.1949761509895325,52.5950927734375,100.81494140625,-5.873397827148438
216472,-0.39813232421875,0.816375732421875,0.4588623046875,-0.8939611315727234,0.252809077501297,-0.1515272110700607,52.56288146972656,100.53759765625,-5.610626220703125
216473,-0.39813232421875,0.816375732421875,0.4588623046875,-0.8939611315727234,0.252809077501297,-0.1515272110700607,52.56288146972656,100.53759765625,-5.610626220703125
216474,-0.4130096435546875,0.753326416015625,0.4818572998046875,-0.8261104226112366,-0.1741126775741577,0.0781075879931449,52.43009948730469,100.5163116455078,-4.956024169921875
216475,-0.2937164306640625,0.7968902587890625,0.4603729248046875,-0.8106915354728699,-0.1558332741260529,0.1715187579393387,52.36241149902344,100.3412933349609,-4.536392211914062
216476,-0.170745849609375,0.8434600830078125,0.3682403564453125,-0.8201401829719543,-0.1175593882799149,0.1893092095851898,52.34243774414062,100.1717224121094,-4.251846313476562
216477,-0.170745849609375,0.8434600830078125,0.3682403564453125,-0.8201401829719543,-0.1175593882799149,0.1893092095851898,52.34243774414062,100.1717224121094,-4.251846313476562
216478,-0.0378570556640625,0.837921142578125,0.248931884765625,-0.8468231558799744,-0.1921257674694061,0.1791061013936996,52.37950134277344,100.1461486816406,-3.437774658203125
216479,-0.0318145751953125,0.8592071533203125,0.20220947265625,-0.8395388722419739,-0.2991707324981689,0.1327401995658875,52.39732360839844,100.0508880615234,-2.869171142578125
216480,-0.0318145751953125,0.8592071533203125,0.20220947265625,-0.8395388722419739,-0.2991707324981689,0.1327401995658875,52.39732360839844,100.0508880615234,-2.869171142578125
216481,-0.042510986328125,0.8944854736328125,0.1405029296875,-0.8169829845428467,-0.4669906198978424,0.0487129427492618,52.343505859375,99.9600830078125,-2.514892578125
216482,-0.038116455078125,0.946533203125,0.0764923095703125,-0.7960396409034729,-0.71556556224823,-0.0423000529408454,52.37545776367188,99.86911010742188,-2.13165283203125
216483,0.016571044921875,1.068634033203125,0.0003204345703125,-0.6719144582748413,-1.082098484039307,-0.197910413146019,52.42449951171875,99.72901916503906,-1.414520263671875
216484,0.016571044921875,1.068634033203125,0.0003204345703125,-0.6719144582748413,-1.082098484039307,-0.197910413146019,52.42449951171875,99.72901916503906,-1.414520263671875
216485,0.0618438720703125,1.149795532226562,-0.080413818359375,-0.2368634045124054,-0.8831361532211304,-0.334437370300293,52.26327514648438,99.81561279296876,-1.028671264648438
216486,0.0962066650390625,1.265960693359375,-0.19512939453125,-0.2368634045124054,-0.8831361532211304,-0.334437370300293,52.22384643554688,99.75958251953124,-0.75579833984375
216487,0.0835418701171875,1.368667602539062,-0.354217529296875,0.1497357040643692,-0.218550980091095,-0.3698672652244568,51.84303283691406,99.93104553222656,-0.0428466796875
216488,0.0835418701171875,1.368667602539062,-0.354217529296875,0.1497357040643692,-0.218550980091095,-0.3698672652244568,51.84303283691406,99.93104553222656,-0.0428466796875
216489,-0.0599365234375,1.30645751953125,-0.44805908203125,-0.2928750216960907,-0.3679391443729401,-0.0504711642861366,51.37423706054688,100.0278015136719,-0.2440032958984375
216490,-0.1250152587890625,1.265594482421875,-0.4610137939453125,-0.1859272569417953,-0.2698306739330292,0.044136568903923,51.14828491210938,100.0202484130859,-0.1812591552734375
216491,-0.1675262451171875,1.199539184570312,-0.48095703125,0.0188690293580293,-0.1317039728164673,0.1373466700315475,51.02392578125,100.0395812988281,-0.033416748046875
216492,-0.1675262451171875,1.199539184570312,-0.48095703125,0.0188690293580293,-0.1317039728164673,0.1373466700315475,51.02392578125,100.0395812988281,-0.033416748046875
216493,-0.1944122314453125,1.08038330078125,-0.50738525390625,0.3383961617946625,0.2056415677070618,0.3541064262390137,51.02052307128906,100.0711669921875,0.2318115234375
216494,-0.1610260009765625,1.067047119140625,-0.5558624267578125,0.3383961617946625,0.2056415677070618,0.3541064262390137,51.19361877441406,100.0893859863281,0.36419677734375
216495,-0.0909576416015625,1.050216674804688,-0.5913848876953125,0.4274852871894836,0.3379556834697723,0.4410487711429596,51.29421997070312,100.0213623046875,0.4496307373046875
216496,-0.0909576416015625,1.050216674804688,-0.5913848876953125,0.4274852871894836,0.3379556834697723,0.4410487711429596,51.29421997070312,100.0213623046875,0.4496307373046875
216497,0.0792083740234375,1.100143432617188,-0.5459136962890625,0.3598250150680542,0.5655648708343506,0.4692479074001312,51.54261779785156,100.1156921386719,-0.2509307861328125
216498,0.109375,1.12933349609375,-0.4349822998046875,0.263937383890152,0.5633946657180786,0.4288893043994904,51.7689208984375,100.1696014404297,-0.548492431640625
216499,0.1165008544921875,1.142822265625,-0.32159423828125,0.263937383890152,0.5633946657180786,0.4288893043994904,51.94898986816406,100.3131561279297,-0.7370147705078125
216500,0.1165008544921875,1.142822265625,-0.32159423828125,0.263937383890152,0.5633946657180786,0.4288893043994904,51.94898986816406,100.3131561279297,-0.7370147705078125
216501,0.108642578125,1.192092895507812,-0.2305145263671875,0.1742522269487381,0.4319942891597748,0.3219900131225586,52.12940979003906,100.1797332763672,-0.81939697265625
216502,0.057891845703125,1.287582397460938,-0.100799560546875,0.1903105527162552,0.3588995635509491,0.2783456146717072,52.40321350097656,100.3269348144531,-0.983062744140625
216503,0.0087127685546875,1.364395141601562,-0.0338592529296875,0.2337139546871185,0.3608253002166748,0.2526295781135559,52.57783508300781,100.2399291992188,-1.06903076171875
216504,0.0087127685546875,1.364395141601562,-0.0338592529296875,0.2337139546871185,0.3608253002166748,0.2526295781135559,52.57783508300781,100.2399291992188,-1.06903076171875
216505,-0.0475921630859375,1.404891967773438,0.02203369140625,0.2665842771530151,0.5467584133148193,0.2058021575212479,52.678466796875,100.2822570800781,-1.067428588867188
216506,-0.118011474609375,1.366912841796875,0.067169189453125,0.2350119799375534,0.5358868837356567,0.164791613817215,52.90800476074219,100.3854827880859,-1.477294921875
216507,-0.11358642578125,1.272964477539062,0.0797882080078125,0.2139485031366348,0.4615822732448578,0.1693490743637085,53.08444213867188,100.3468170166016,-1.56768798828125
216508,-0.11358642578125,1.272964477539062,0.0797882080078125,0.2139485031366348,0.4615822732448578,0.1693490743637085,53.08444213867188,100.3468170166016,-1.56768798828125
216509,-0.0770111083984375,1.150100708007812,0.0745849609375,0.2180697470903397,0.2990854978561401,0.2333541661500931,53.14436340332031,100.3464508056641,-1.692337036132812
216510,-0.0081329345703125,1.029434204101562,0.0743865966796875,0.2034260928630829,-0.2295287996530533,0.4907643795013428,53.16133117675781,100.3594055175781,-1.880950927734375
216511,0.1416168212890625,0.8490447998046875,0.121612548828125,0.1484560519456863,-0.4908586740493774,0.607151448726654,53.52239990234375,100.2007598876953,-1.956069946289062
216512,0.1416168212890625,0.8490447998046875,0.121612548828125,0.1484560519456863,-0.4908586740493774,0.607151448726654,53.52239990234375,100.2007598876953,-1.956069946289062
216513,0.2009124755859375,0.7666473388671875,0.1472320556640625,0.0992975607514381,-0.6468315124511719,0.7430278062820435,53.79840087890625,100.1738891601562,-2.086898803710938
216514,0.274566650390625,0.748931884765625,0.1261444091796875,0.1462813168764114,-0.753072202205658,0.896977961063385,54.62100219726562,99.89241027832033,-2.387344360351562
216515,0.292510986328125,0.80072021484375,0.1212615966796875,0.2369574159383774,-0.7194896936416626,0.8724963068962097,55.06846618652344,99.67449951171876,-2.417495727539062
216516,0.292510986328125,0.80072021484375,0.1212615966796875,0.2369574159383774,-0.7194896936416626,0.8724963068962097,55.06846618652344,99.67449951171876,-2.417495727539062
216517,0.26910400390625,0.968475341796875,0.1239166259765625,0.3340410888195038,-0.4578897953033447,0.5117239952087402,56.13188171386719,99.52157592773438,-2.514572143554688
216518,0.1973876953125,0.994659423828125,0.1201324462890625,0.284192830324173,-0.3453704416751862,0.2823611199855804,56.5693359375,99.50289916992188,-2.60247802734375
216519,0.0571746826171875,0.947052001953125,0.120025634765625,0.1324794739484787,-0.2479051351547241,0.1910692900419235,56.87242126464844,99.4845733642578,-2.741775512695312
216520,0.0571746826171875,0.947052001953125,0.120025634765625,0.1324794739484787,-0.2479051351547241,0.1910692900419235,56.87242126464844,99.4845733642578,-2.741775512695312
216521,-0.0559234619140625,0.8607025146484375,0.1150360107421875,0.0824559926986694,-0.2224415987730026,0.1989248096942902,57.33590698242188,99.44696044921876,-3.123779296875
216522,-0.0896759033203125,0.8111572265625,0.10369873046875,0.0615648254752159,-0.193948432803154,0.2143929898738861,57.52508544921875,99.37889099121094,-3.250991821289062
216523,-0.1182861328125,0.781280517578125,0.0906829833984375,0.047748614102602,-0.1875528544187546,0.1998393386602402,57.66204833984375,99.32072448730467,-3.323989868164062
216524,-0.1182861328125,0.781280517578125,0.0906829833984375,0.047748614102602,-0.1875528544187546,0.1998393386602402,57.66204833984375,99.32072448730467,-3.323989868164062
216525,-0.1441802978515625,0.774078369140625,0.0859832763671875,0.0392286293208599,-0.2002470791339874,0.1619888991117477,57.8851318359375,99.29450988769533,-3.3236083984375
216526,-0.18359375,0.7594757080078125,0.101226806640625,0.0653814002871513,-0.2226820737123489,0.0167163964360952,58.17655944824219,99.24928283691406,-3.352554321289062
216527,-0.18792724609375,0.748565673828125,0.1148223876953125,0.0673955529928207,-0.1634456515312195,-0.1537307053804398,58.33290100097656,99.27151489257812,-3.462478637695312
216528,-0.18792724609375,0.748565673828125,0.1148223876953125,0.0673955529928207,-0.1634456515312195,-0.1537307053804398,58.33290100097656,99.27151489257812,-3.462478637695312
216529,-0.1701812744140625,0.7689666748046875,0.1500244140625,-0.0010860371403396,-0.0871325060725212,-0.2337965071201324,58.34336853027344,99.246337890625,-3.5540771484375
216530,-0.149017333984375,0.782623291015625,0.1490478515625,-0.1124445199966431,-0.0229900050908327,-0.2903609871864319,58.33708190917969,99.34861755371094,-3.610641479492188
216531,-0.1418609619140625,0.787445068359375,0.1574249267578125,-0.2339701503515244,0.0110103068873286,-0.3416388332843781,58.3397216796875,99.39453125,-3.612442016601562
216532,-0.1418609619140625,0.787445068359375,0.1574249267578125,-0.2339701503515244,0.0110103068873286,-0.3416388332843781,58.3397216796875,99.39453125,-3.612442016601562
216533,-0.14593505859375,0.7728424072265625,0.170989990234375,-0.3282995820045471,0.0278785023838281,-0.3980176746845245,58.21473693847656,99.45321655273438,-3.6522216796875
216534,-0.166656494140625,0.7048187255859375,0.18426513671875,-0.3938556909561157,0.0326815135776996,-0.4903558492660522,57.94453430175781,99.37950134277344,-3.600540161132812
216535,-0.176177978515625,0.669586181640625,0.184814453125,-0.4084950983524323,0.0136550916358828,-0.520999014377594,57.64649963378906,99.37777709960938,-3.417022705078125
216536,-0.176177978515625,0.669586181640625,0.184814453125,-0.4084950983524323,0.0136550916358828,-0.520999014377594,57.64649963378906,99.37777709960938,-3.417022705078125
216537,-0.1853485107421875,0.63653564453125,0.1612548828125,-0.4847730696201324,-0.121636688709259,-0.5279994010925293,57.12875366210938,99.37458801269533,-3.065139770507812
216538,-0.1795196533203125,0.6461181640625,0.149627685546875,-0.5671103000640869,-0.2254110127687454,-0.5134097933769226,56.88555908203125,99.45774841308594,-2.924636840820312
216539,-0.1618804931640625,0.6766815185546875,0.1464385986328125,-0.6880177855491638,-0.2829579412937164,-0.4902805089950562,56.59613037109375,99.4280242919922,-2.693084716796875
216540,-0.14117431640625,0.730377197265625,0.13812255859375,-0.8246126770973206,-0.2780249714851379,-0.4550732374191284,56.32328796386719,99.45199584960938,-2.550155639648438
216541,-0.14117431640625,0.730377197265625,0.13812255859375,-0.8246126770973206,-0.2780249714851379,-0.4550732374191284,56.32328796386719,99.45199584960938,-2.550155639648438
216542,-0.11279296875,0.8884124755859375,0.058349609375,-1.036319851875305,-0.1167697608470917,-0.3920370042324066,55.74893188476562,99.48443603515624,-1.925567626953125
216543,-0.117919921875,0.9967041015625,-0.00872802734375,-1.053601622581482,-0.0521119385957717,-0.3850081264972687,55.47508239746094,99.48971557617188,-1.395278930664062
216544,-0.119476318359375,1.1136474609375,-0.066802978515625,-0.8567138910293579,-0.0002479403046891,-0.3792349398136139,55.22799682617188,99.41667175292967,-0.8753204345703125
216545,-0.1089935302734375,1.244140625,-0.103973388671875,-0.8567138910293579,-0.0002479403046891,-0.3792349398136139,54.951171875,99.37277221679688,-0.4718780517578125
216546,-0.07647705078125,1.369949340820312,-0.1453399658203125,-0.6753606200218201,0.0291179381310939,-0.366644561290741,54.72587585449219,99.36044311523438,-0.0300445556640625
216547,-0.0442962646484375,1.488189697265625,-0.20257568359375,-0.4552106559276581,0.0125179225578904,-0.3372550010681152,54.42474365234375,99.48753356933594,0.399932861328125
216548,-0.0442962646484375,1.488189697265625,-0.20257568359375,-0.4552106559276581,0.0125179225578904,-0.3372550010681152,54.42474365234375,99.48753356933594,0.399932861328125
216549,-0.0112762451171875,1.590087890625,-0.2336273193359375,-0.1216870173811913,-0.1088716238737106,-0.1417707204818726,54.13705444335938,99.35467529296876,0.88037109375
216550,0.015228271484375,1.626602172851562,-0.2548675537109375,-0.1216870173811913,-0.1088716238737106,-0.1417707204818726,53.66426086425781,99.32672119140624,1.288101196289062
216551,0.1534881591796875,1.3707275390625,-0.257843017578125,0.1536228507757187,-0.3089501261711121,-0.052870936691761,53.41629028320312,99.38587951660156,1.643356323242188
216552,0.2210235595703125,1.2484130859375,-0.3670654296875,0.3866965770721436,-0.4061056971549988,-0.0172658059746027,53.40974426269531,99.34542846679688,1.639938354492188
216553,0.2210235595703125,1.2484130859375,-0.3670654296875,0.3866965770721436,-0.4061056971549988,-0.0172658059746027,53.40974426269531,99.34542846679688,1.639938354492188
216554,0.29046630859375,1.12115478515625,-0.5546875,0.7100128531455994,-0.6841719150543213,0.0554145239293575,53.5665283203125,99.42106628417967,1.318756103515625
216555,0.2757720947265625,1.10858154296875,-0.6037139892578125,0.7630054950714111,-0.7618041634559631,0.0646658092737197,53.67514038085938,99.3836669921875,0.9911651611328124
216556,0.2487030029296875,1.113113403320312,-0.5947418212890625,0.7776334285736084,-0.7283202409744263,0.0661585107445716,53.83773803710938,99.38983154296876,0.69012451171875
216557,0.2487030029296875,1.113113403320312,-0.5947418212890625,0.7776334285736084,-0.7283202409744263,0.0661585107445716,53.83773803710938,99.38983154296876,0.69012451171875
216558,0.19390869140625,1.144256591796875,-0.507843017578125,0.7498268485069275,-0.6118106842041016,0.0912039428949356,54.09158325195312,99.634521484375,-0.035003662109375
216559,0.1936492919921875,1.151870727539062,-0.4654083251953125,0.729245126247406,-0.5908057689666748,0.1462221890687943,54.32418823242188,99.66633605957033,-0.36968994140625
216560,0.1936492919921875,1.151870727539062,-0.4654083251953125,0.729245126247406,-0.5908057689666748,0.1462221890687943,54.32418823242188,99.66633605957033,-0.36968994140625
216561,0.194122314453125,1.195632934570312,-0.3361968994140625,0.6548492312431335,-0.6030219793319702,0.2747040092945099,54.79679870605469,99.70204162597656,-1.17578125
216562,0.20123291015625,1.247146606445312,-0.2464141845703125,0.5731136202812195,-0.6038779020309448,0.3024599850177765,55.00509643554688,99.74488830566406,-1.490921020507812
216563,0.203369140625,1.317184448242188,-0.1681060791015625,0.4732058942317963,-0.6668280959129333,0.3067016005516052,55.24343872070312,99.9074249267578,-1.953750610351562
216564,0.203369140625,1.317184448242188,-0.1681060791015625,0.4732058942317963,-0.6668280959129333,0.3067016005516052,55.24343872070312,99.9074249267578,-1.953750610351562
216565,0.1949920654296875,1.408905029296875,-0.0579986572265625,0.3898284435272217,-0.7630177736282349,0.2709119319915771,55.448974609375,99.98709106445312,-2.2718505859375
216566,0.181488037109375,1.4979248046875,0.061676025390625,0.376385897397995,-0.7729920744895935,0.2103561758995056,55.77639770507812,99.94255065917967,-2.594894409179688
216567,0.1399688720703125,1.583938598632812,0.1255645751953125,0.5487432479858398,-0.756507933139801,0.0230070482939481,56.32942199707031,99.975830078125,-3.02044677734375
216568,0.1399688720703125,1.583938598632812,0.1255645751953125,0.5487432479858398,-0.756507933139801,0.0230070482939481,56.32942199707031,99.975830078125,-3.02044677734375
216569,0.0305328369140625,1.44561767578125,0.010284423828125,0.9084314107894896,-1.009923458099365,-0.1580759137868881,56.83731079101562,100.0216217041016,-3.807891845703125
216570,-0.0028076171875,1.293045043945312,-0.0133209228515625,1.077705383300781,-1.173233270645142,-0.2012561410665512,56.9769287109375,100.1845855712891,-4.228363037109375
216571,-0.0273590087890625,1.136016845703125,-0.0201873779296875,1.151326894760132,-1.245561242103577,-0.1752351969480515,57.06062316894531,100.1560821533203,-4.655624389648438
216572,-0.04473876953125,1.0133056640625,-0.0042572021484375,1.131471991539001,-1.251787662506104,-0.1166049093008041,57.17320251464844,100.2560882568359,-5.196121215820312
216573,-0.04473876953125,1.0133056640625,-0.0042572021484375,1.131471991539001,-1.251787662506104,-0.1166049093008041,57.17320251464844,100.2560882568359,-5.196121215820312
216574,-0.021240234375,0.863555908203125,0.087158203125,0.8847399353981018,-1.170799851417542,0.0009361011325381,57.52154541015625,100.5219268798828,-6.429153442382812
216575,-0.0140380859375,0.8520965576171875,0.1353607177734375,0.7292124032974243,-1.122545838356018,0.0358181856572628,57.69837951660156,100.6112670898438,-6.929656982421875
216576,-0.0140380859375,0.8520965576171875,0.1353607177734375,0.7292124032974243,-1.122545838356018,0.0358181856572628,57.69837951660156,100.6112670898438,-6.929656982421875
216577,-0.0875091552734375,0.79595947265625,0.1929168701171875,0.4641945660114288,-1.171226501464844,-0.1370979398488998,58.25706481933594,100.4507293701172,-7.825302124023438
216578,-0.1738739013671875,0.69793701171875,0.16595458984375,0.4641945660114288,-1.171226501464844,-0.1370979398488998,58.50157165527344,100.4352264404297,-8.036727905273438
216579,-0.248809814453125,0.6047515869140625,0.10675048828125,0.4813660979270935,-1.310052394866943,-0.2402821034193039,58.78495788574219,100.3548278808594,-8.450881958007812
216580,-0.248809814453125,0.6047515869140625,0.10675048828125,0.4813660979270935,-1.310052394866943,-0.2402821034193039,58.78495788574219,100.3548278808594,-8.450881958007812
216581,-0.349639892578125,0.427581787109375,0.1658782958984375,0.5326766967773438,-1.338285803794861,-0.4369917213916779,58.9163818359375,100.2499389648438,-8.937973022460938
216582,-0.456085205078125,0.343475341796875,0.218292236328125,0.5016330480575562,-0.7461029291152954,-0.3430731892585754,58.8360595703125,100.3871917724609,-9.38677978515625
216583,-0.5103302001953125,0.300933837890625,0.171905517578125,0.4155716300010681,-0.0471701733767986,-0.0679854452610015,58.73893737792969,100.4985504150391,-9.696563720703123
216584,-0.5103302001953125,0.300933837890625,0.171905517578125,0.4155716300010681,-0.0471701733767986,-0.0679854452610015,58.73893737792969,100.4985504150391,-9.696563720703123
216585,-0.332916259765625,0.4324798583984375,0.133453369140625,0.2685712575912476,0.2344881296157837,0.1650810986757278,58.71888732910156,100.5731964111328,-9.982864379882812
216586,-0.135406494140625,0.7226409912109375,0.3443145751953125,-0.156461238861084,0.3043942451477051,0.2277122586965561,58.76762390136719,100.7131652832031,-10.30032348632812
216587,-0.1396484375,0.7897491455078125,0.3634185791015625,-0.3730992674827576,0.2308148443698883,0.2236200422048569,58.92062377929688,100.7000274658203,-10.31915283203125
216588,-0.1396484375,0.7897491455078125,0.3634185791015625,-0.3730992674827576,0.2308148443698883,0.2236200422048569,58.92062377929688,100.7000274658203,-10.31915283203125
216589,-0.1619415283203125,0.8377227783203125,0.365020751953125,-0.6445547342300415,-0.2258128821849823,0.0859226286411285,59.20170593261719,100.5443267822266,-10.13351440429688
216590,-0.1236114501953125,0.8565521240234375,0.3869476318359375,-0.6445547342300415,-0.2258128821849823,0.0859226286411285,59.2296142578125,100.4488067626953,-9.852005004882812
216591,-0.078277587890625,0.880767822265625,0.403717041015625,-0.846703052520752,0.0742856785655021,-0.0175845865160226,59.17573547363281,100.5347442626953,-9.584274291992188
216592,-0.0437164306640625,0.900634765625,0.3906097412109375,-0.846703052520752,0.0742856785655021,-0.0175845865160226,59.207275390625,100.5992736816406,-9.211105346679688
216593,-0.0437164306640625,0.900634765625,0.3906097412109375,-0.846703052520752,0.0742856785655021,-0.0175845865160226,59.207275390625,100.5992736816406,-9.211105346679688
216594,-0.0507354736328125,0.93341064453125,0.270233154296875,-0.8927406072616577,0.1743092238903046,-0.1794576346874237,59.0164794921875,100.4810638427734,-8.30889892578125
216595,-0.10650634765625,0.9424896240234376,0.2544708251953125,-0.8829824924468994,0.0227423310279846,-0.291397750377655,58.96351623535156,100.4161224365234,-7.624359130859375
216596,-0.10650634765625,0.9424896240234376,0.2544708251953125,-0.8829824924468994,0.0227423310279846,-0.291397750377655,58.96351623535156,100.4161224365234,-7.624359130859375
216597,-0.152191162109375,0.9541168212890624,0.25640869140625,-0.90781170129776,-0.0895658358931541,-0.3987963795661926,58.72682189941406,100.451904296875,-7.349365234375
216598,-0.1659088134765625,0.965728759765625,0.2265625,-0.9567145109176636,-0.1702154129743576,-0.4853227436542511,58.56538391113281,100.4784545898438,-7.210433959960938
216599,-0.160491943359375,0.9943695068359376,0.060546875,-0.9786648154258728,-0.3851543366909027,-0.6058406233787537,58.0789794921875,100.5966339111328,-6.346420288085938
216600,-0.147369384765625,1.014251708984375,-0.0687408447265625,-0.8778210282325745,-0.5170841217041016,-0.6122660636901855,57.66683959960938,100.5143737792969,-5.855300903320312
216601,-0.147369384765625,1.014251708984375,-0.0687408447265625,-0.8778210282325745,-0.5170841217041016,-0.6122660636901855,57.66683959960938,100.5143737792969,-5.855300903320312
216602,-0.0735626220703125,1.1121826171875,-0.2470855712890625,-0.5640276670455933,-0.4922203421592712,-0.5790910720825195,57.03108215332031,100.5243072509766,-4.939437866210938
216603,-0.0204925537109375,1.161605834960938,-0.3089752197265625,-0.4019511640071869,-0.2824836373329163,-0.5600228309631348,56.62684631347656,100.6902465820312,-4.658355712890625
216604,-0.0204925537109375,1.161605834960938,-0.3089752197265625,-0.4019511640071869,-0.2824836373329163,-0.5600228309631348,56.62684631347656,100.6902465820312,-4.658355712890625
216605,0.020233154296875,1.186080932617188,-0.3500518798828125,-0.3024243116378784,-0.0580864734947681,-0.5053737163543701,56.18336486816406,100.8173522949219,-4.4554443359375
216606,-0.040618896484375,1.284591674804688,-0.379364013671875,-0.3382512927055359,0.0395183824002742,-0.3690310418605804,55.48281860351562,100.9494934082031,-4.046005249023438
216607,-0.1023406982421875,1.326522827148438,-0.381011962890625,-0.3609049320220947,-0.0096726007759571,-0.2866344153881073,55.17488098144531,100.9895324707031,-3.782302856445312
216608,-0.1023406982421875,1.326522827148438,-0.381011962890625,-0.3609049320220947,-0.0096726007759571,-0.2866344153881073,55.17488098144531,100.9895324707031,-3.782302856445312
216609,-0.1510009765625,1.347625732421875,-0.4386138916015625,-0.0187483876943588,0.1258886903524399,-0.0569871179759502,54.96466064453125,101.0535125732422,-3.525894165039062
216610,-0.075408935546875,1.23876953125,-0.6119384765625,0.2302515804767609,0.2594757676124573,0.088096834719181,54.6676025390625,101.0617218017578,-3.01605224609375
216611,-0.000579833984375,1.217132568359375,-0.6703338623046875,0.4018819332122803,0.3838054537773132,0.2168177962303162,54.53378295898438,101.0914459228516,-2.99981689453125
216612,-0.000579833984375,1.217132568359375,-0.6703338623046875,0.4018819332122803,0.3838054537773132,0.2168177962303162,54.53378295898438,101.0914459228516,-2.99981689453125
216613,0.045989990234375,1.2330322265625,-0.677642822265625,0.4884223937988281,0.6303737163543701,0.33689945936203,54.60195922851562,101.0216369628906,-2.957183837890625
216614,0.055938720703125,1.265472412109375,-0.643280029296875,0.4884223937988281,0.6303737163543701,0.33689945936203,54.66818237304688,101.0785980224609,-3.32525634765625
216615,-0.0216217041015625,1.312698364257812,-0.5617828369140625,0.5843127369880676,0.7821448445320129,0.3133121132850647,54.97714233398438,101.0721282958984,-3.69268798828125
216616,-0.0369720458984375,1.283554077148438,-0.4911346435546875,0.6343188881874084,0.8182564973831177,0.2990040183067322,55.06245422363281,101.1283416748047,-3.96441650390625
216617,-0.0369720458984375,1.283554077148438,-0.4911346435546875,0.6343188881874084,0.8182564973831177,0.2990040183067322,55.06245422363281,101.1283416748047,-3.96441650390625
216618,-0.0395660400390625,1.180374145507812,-0.2677764892578125,0.5232799649238586,0.7864828705787659,0.2948452234268188,55.22682189941406,101.1340484619141,-4.616653442382812
216619,-0.02288818359375,1.128433227539062,-0.1595916748046875,0.3432164788246155,0.6750575304031372,0.2989459633827209,55.40982055664062,101.1367950439453,-4.935775756835938
216620,-0.02288818359375,1.128433227539062,-0.1595916748046875,0.3432164788246155,0.6750575304031372,0.2989459633827209,55.40982055664062,101.1367950439453,-4.935775756835938
216621,0.001129150390625,1.0841064453125,-0.0659637451171875,0.1497444808483124,0.4881877899169922,0.3208203613758087,55.52044677734375,101.2562866210938,-5.151397705078125
216622,0.07574462890625,1.098922729492188,0.0807647705078125,-0.047062050551176,0.0965347960591316,0.4189621210098267,55.88116455078125,101.2005462646484,-5.369354248046875
216623,0.1094512939453125,1.126739501953125,0.110748291015625,-0.0216349884867668,-0.0902505367994308,0.5127708911895752,56.18557739257812,101.0746002197266,-5.439849853515625
216624,0.1094512939453125,1.126739501953125,0.110748291015625,-0.0216349884867668,-0.0902505367994308,0.5127708911895752,56.18557739257812,101.0746002197266,-5.439849853515625
216625,0.133758544921875,1.14324951171875,0.13427734375,0.1512513011693954,-0.2259449809789658,0.5815960168838501,56.42924499511719,100.8412170410156,-5.39715576171875
216626,0.1551513671875,1.10430908203125,0.1384735107421875,0.3582950234413147,-0.3299856185913086,0.6404209733009338,56.67840576171875,100.866455078125,-5.52081298828125
216627,0.125152587890625,0.986175537109375,0.1160125732421875,0.6060827374458313,-0.3422628045082092,0.6265869140625,57.27780151367188,100.6514434814453,-5.388931274414062
216628,0.125152587890625,0.986175537109375,0.1160125732421875,0.6060827374458313,-0.3422628045082092,0.6265869140625,57.27780151367188,100.6514434814453,-5.388931274414062
216629,0.10638427734375,0.925445556640625,0.083526611328125,0.5858283042907715,-0.4921233952045441,0.5440241694450378,57.64805603027344,100.5631408691406,-5.695297241210938
216630,0.0471343994140625,0.7940521240234375,0.1934967041015625,0.4330747425556183,-0.5994570255279541,0.3628045618534088,58.35546875,100.5546569824219,-6.408050537109375
216631,0.055267333984375,0.7377777099609375,0.173858642578125,0.3505865037441254,-0.577198326587677,0.354794830083847,58.70744323730469,100.4917297363281,-6.62640380859375
216632,0.055267333984375,0.7377777099609375,0.173858642578125,0.3505865037441254,-0.577198326587677,0.354794830083847,58.70744323730469,100.4917297363281,-6.62640380859375
216633,0.08270263671875,0.72796630859375,0.101470947265625,0.2588509917259216,-0.9312840104103088,0.3536302447319031,59.01666259765625,100.4698333740234,-6.733108520507812
216634,0.1457977294921875,0.8319091796875,0.0326690673828125,0.2763833999633789,-1.131412506103516,0.349001407623291,59.59811401367188,100.1923828125,-7.262451171875
216635,0.149688720703125,0.8396148681640625,0.02423095703125,0.2947522699832916,-1.18961226940155,0.3435768187046051,59.86859130859375,100.0096588134766,-7.50482177734375
216636,0.149688720703125,0.8396148681640625,0.02423095703125,0.2947522699832916,-1.18961226940155,0.3435768187046051,59.86859130859375,100.0096588134766,-7.50482177734375
216637,0.000885009765625,0.81103515625,0.0101165771484375,0.0996168702840805,-0.6977372765541077,0.1585238575935364,60.35791015625,99.94053649902344,-7.888885498046875
216638,-0.1509246826171875,0.8297576904296875,0.09130859375,0.0996168702840805,-0.6977372765541077,0.1585238575935364,60.627197265625,100.0041351318359,-8.223526000976562
216639,-0.2579345703125,0.8559112548828125,0.1920013427734375,-0.0884377211332321,-0.4152701795101166,0.0256552956998348,60.92765808105469,100.0273132324219,-8.428085327148438
216640,-0.32183837890625,0.858734130859375,0.2379302978515625,-0.3673266172409058,0.0039049931801855,-0.3512861132621765,61.13581848144531,100.0197296142578,-8.558563232421875
216641,-0.32183837890625,0.858734130859375,0.2379302978515625,-0.3673266172409058,0.0039049931801855,-0.3512861132621765,61.13581848144531,100.0197296142578,-8.558563232421875
216642,-0.4190826416015625,0.83349609375,0.2771759033203125,-0.3870811462402344,0.079133965075016,-0.5223255157470703,61.19720458984375,100.0276031494141,-8.392807006835938
216643,-0.44793701171875,0.8196868896484375,0.3365936279296875,-0.3164066970348358,0.197104275226593,-0.5967376828193665,61.16844177246094,100.0188293457031,-8.131301879882812
216644,-0.44793701171875,0.8196868896484375,0.3365936279296875,-0.3164066970348358,0.197104275226593,-0.5967376828193665,61.16844177246094,100.0188293457031,-8.131301879882812
216645,-0.4821014404296875,0.7842559814453125,0.3558502197265625,-0.0742151066660881,0.3433839976787567,-0.3317728638648987,60.97434997558594,100.0473785400391,-7.905517578125
216646,-0.478179931640625,0.754913330078125,0.3294525146484375,-0.0742151066660881,0.3433839976787567,-0.3317728638648987,60.84530639648438,99.93582153320312,-7.805526733398438
216647,-0.369110107421875,0.756988525390625,0.331817626953125,-0.117228090763092,0.1042861938476562,-0.3443610966205597,60.53608703613281,100.1135406494141,-7.529052734375
216648,-0.369110107421875,0.756988525390625,0.331817626953125,-0.117228090763092,0.1042861938476562,-0.3443610966205597,60.53608703613281,100.1135406494141,-7.529052734375
216649,-0.3544769287109375,0.7215423583984375,0.3133087158203125,-0.2180987745523453,0.1395504325628281,-0.3823084831237793,60.37322998046875,100.0946502685547,-7.516311645507812
216650,-0.3666839599609375,0.7017669677734375,0.2183685302734375,-0.4104921817779541,0.099290631711483,-0.4655176401138306,59.94314575195312,100.2648468017578,-7.58734130859375
216651,-0.3741607666015625,0.71160888671875,0.196197509765625,-0.4932307600975037,0.0268103089183569,-0.488946259021759,59.74101257324219,100.2611236572266,-7.410980224609375
216652,-0.3741607666015625,0.71160888671875,0.196197509765625,-0.4932307600975037,0.0268103089183569,-0.488946259021759,59.74101257324219,100.2611236572266,-7.410980224609375
216653,-0.336181640625,0.766082763671875,0.1160736083984375,-0.6902825832366943,-0.1977112144231796,-0.510323703289032,59.1556396484375,100.4230499267578,-7.0997314453125
216654,-0.2943878173828125,0.79473876953125,0.0619659423828125,-0.7794044613838196,-0.3959137797355652,-0.4856985211372375,58.86680603027344,100.4660797119141,-6.794830322265625
216655,-0.2404632568359375,0.816680908203125,0.041351318359375,-0.8553937673568726,-0.6172618865966797,-0.4408258497714996,58.6072998046875,100.3898773193359,-6.408416748046875
216656,-0.096466064453125,0.8649749755859375,0.0669708251953125,-1.00166916847229,-0.8766945004463196,-0.3124769330024719,58.16804504394531,100.3726501464844,-5.817825317382812
216657,-0.096466064453125,0.8649749755859375,0.0669708251953125,-1.00166916847229,-0.8766945004463196,-0.3124769330024719,58.16804504394531,100.3726501464844,-5.817825317382812
216658,-0.0323333740234375,0.9584197998046876,0.0943145751953125,-1.017533183097839,-0.7448397874832153,-0.2660000026226044,57.88417053222656,100.5319061279297,-5.484115600585938
216659,-0.0066070556640625,1.064239501953125,0.0471343994140625,-0.9364835619926452,-0.4396130442619324,-0.2839813828468323,57.64558410644531,100.5321197509766,-5.0
216660,-0.0066070556640625,1.064239501953125,0.0471343994140625,-0.9364835619926452,-0.4396130442619324,-0.2839813828468323,57.64558410644531,100.5321197509766,-5.0
216661,-0.0030517578125,1.154312133789062,-0.07470703125,-0.780422031879425,-0.1933606714010239,-0.3262862265110016,57.41510009765625,100.4710998535156,-4.3685302734375
216662,4.57763671875e-05,1.36328125,-0.269744873046875,-0.4808595776557922,-0.2664564549922943,-0.4292027652263641,57.01832580566406,100.4160461425781,-3.424148559570312
216663,-0.021331787109375,1.516204833984375,-0.3131256103515625,-0.3875013887882233,-0.317284494638443,-0.3981588184833527,56.7523193359375,100.4779205322266,-2.928375244140625
216664,-0.008392333984375,1.627044677734375,-0.378326416015625,-0.2954204678535461,-0.3287882804870605,-0.305032342672348,56.44364929199219,100.5438232421875,-2.609344482421875
216665,-0.008392333984375,1.627044677734375,-0.378326416015625,-0.2954204678535461,-0.3287882804870605,-0.305032342672348,56.44364929199219,100.5438232421875,-2.609344482421875
216666,0.1665191650390625,1.381576538085938,-0.4610137939453125,0.1405424624681473,-0.5521792769432068,-0.1540356427431107,55.93592834472656,100.6825714111328,-2.204254150390625
216667,0.1870880126953125,1.328292846679688,-0.5146636962890625,0.450583428144455,-0.5830474495887756,-0.0484069474041461,55.81698608398438,100.6826019287109,-2.124008178710938
216668,0.1870880126953125,1.328292846679688,-0.5146636962890625,0.450583428144455,-0.5830474495887756,-0.0484069474041461,55.81698608398438,100.6826019287109,-2.124008178710938
216669,0.191436767578125,1.111419677734375,-0.6276702880859375,1.235254526138306,-0.5966074466705322,0.2639096677303314,55.85469055175781,100.6262512207031,-2.292160034179688
216670,0.1632843017578125,1.024658203125,-0.6400299072265625,1.235254526138306,-0.5966074466705322,0.2639096677303314,55.96983337402344,100.6893615722656,-2.6588134765625
216671,0.122039794921875,0.9835357666015624,-0.6436004638671875,1.278706431388855,-0.5193965435028076,0.3114140629768372,56.07229614257812,100.6872253417969,-3.036651611328125
216672,0.122039794921875,0.9835357666015624,-0.6436004638671875,1.278706431388855,-0.5193965435028076,0.3114140629768372,56.07229614257812,100.6872253417969,-3.036651611328125
216673,0.091278076171875,0.996734619140625,-0.6269683837890625,1.147493839263916,-0.5083093047142029,0.2961094081401825,56.27896118164062,100.797119140625,-3.565292358398438
216674,0.0886688232421875,1.095382690429688,-0.563201904296875,0.7055347561836243,-0.61118483543396,0.226520761847496,56.66488647460938,101.0272521972656,-5.036453247070312
216675,0.0989532470703125,1.164398193359375,-0.4614715576171875,0.5757530331611633,-0.6218406558036804,0.2226051092147827,56.92329406738281,100.9962463378906,-5.541595458984375
216676,0.1008758544921875,1.245513916015625,-0.3319091796875,0.5151528120040894,-0.5674660801887512,0.2216644883155823,57.09181213378906,101.0811614990234,-6.000701904296875
216677,0.1008758544921875,1.245513916015625,-0.3319091796875,0.5151528120040894,-0.5674660801887512,0.2216644883155823,57.09181213378906,101.0811614990234,-6.000701904296875
216678,0.0644989013671875,1.42974853515625,-0.027191162109375,0.5295525193214417,-0.4028894007205963,0.1839951276779175,57.53160095214844,101.1032562255859,-6.786865234375
216679,0.03802490234375,1.535125732421875,0.09564208984375,0.5367302894592285,-0.2968106269836426,0.1447803527116776,57.67779541015625,101.2674560546875,-7.117996215820312
216680,0.03802490234375,1.535125732421875,0.09564208984375,0.5367302894592285,-0.2968106269836426,0.1447803527116776,57.67779541015625,101.2674560546875,-7.117996215820312
216681,0.0071563720703125,1.629592895507812,0.17816162109375,0.5072402954101562,-0.2343091666698456,0.0712848305702209,57.86604309082031,101.1354675292969,-7.442794799804688
216682,-0.091461181640625,1.72882080078125,0.21014404296875,0.5270209312438965,-0.3140966892242432,-0.167588472366333,58.17465209960938,101.1072692871094,-8.05816650390625
216683,-0.159576416015625,1.579421997070312,0.20379638671875,0.7020649313926697,-0.4924786686897278,-0.2638444304466248,58.30184936523438,101.1629638671875,-8.366790771484375
216684,-0.20941162109375,1.352981567382812,0.2147064208984375,0.9729142785072328,-0.5997769236564636,-0.2739846706390381,58.32113647460938,101.2705535888672,-8.71337890625
216685,-0.20941162109375,1.352981567382812,0.2147064208984375,0.9729142785072328,-0.5997769236564636,-0.2739846706390381,58.32113647460938,101.2705535888672,-8.71337890625
216686,-0.2220458984375,1.150833129882812,0.1593017578125,1.251376748085022,-0.6913065314292908,-0.2292491644620895,58.44110107421875,101.2625579833984,-9.190277099609377
216687,-0.2006072998046875,0.8344573974609375,-0.03021240234375,1.451538681983948,-1.146308660507202,-0.1585909724235535,58.45182800292969,101.3676452636719,-10.19754028320312
216688,-0.2006072998046875,0.8344573974609375,-0.03021240234375,1.451538681983948,-1.146308660507202,-0.1585909724235535,58.45182800292969,101.3676452636719,-10.19754028320312
216689,-0.2216644287109375,0.735595703125,-0.062042236328125,1.388257622718811,-1.403497338294983,-0.1193828508257866,58.47076416015625,101.3717346191406,-10.83895874023438
216690,-0.2208709716796875,0.60662841796875,-0.10015869140625,0.7667466998100281,-1.654417395591736,0.0495076328516006,58.52099609375,101.4620971679688,-12.13856506347656
216691,-0.202484130859375,0.6002349853515625,-0.1403961181640625,0.644661545753479,-1.684384107589722,0.0360621288418769,58.64161682128906,101.4720001220703,-12.98049926757812
216692,-0.193359375,0.6036224365234375,-0.137939453125,0.644661545753479,-1.684384107589722,0.0360621288418769,58.73446655273438,101.4751892089844,-13.71571350097656
216693,-0.193359375,0.6036224365234375,-0.137939453125,0.644661545753479,-1.684384107589722,0.0360621288418769,58.73446655273438,101.4751892089844,-13.71571350097656
216694,-0.2508087158203125,0.6342620849609375,0.0179901123046875,0.5282608866691589,-1.188565015792847,-0.0719154700636863,58.90373229980469,101.344970703125,-14.57292175292969
216695,-0.2958831787109375,0.6214447021484375,0.056488037109375,0.4362708032131195,-0.9121223092079164,-0.1056249663233757,58.97685241699219,101.2972564697266,-14.92669677734375
216696,-0.2958831787109375,0.6214447021484375,0.056488037109375,0.4362708032131195,-0.9121223092079164,-0.1056249663233757,58.97685241699219,101.2972564697266,-14.92669677734375
216697,-0.321990966796875,0.6032867431640625,0.1390533447265625,0.1483569741249084,-0.4484334588050842,-0.0666882172226905,59.014404296875,101.2001495361328,-15.2984619140625
216698,-0.2759857177734375,0.5946197509765625,0.3109588623046875,-0.0576704852283,-0.1639657616615295,0.0232928059995174,59.13955688476562,101.3180389404297,-16.26376342773438
216699,-0.25030517578125,0.63653564453125,0.3670501708984375,-0.2839928269386292,0.096539057791233,0.1471042335033417,59.20155334472656,101.3592224121094,-16.43540954589844
216700,-0.25982666015625,0.7645111083984375,0.437744140625,-0.5143901109695435,0.3378584682941437,0.2293365150690079,59.27061462402344,101.2761688232422,-16.35836791992188
216701,-0.25982666015625,0.7645111083984375,0.437744140625,-0.5143901109695435,0.3378584682941437,0.2293365150690079,59.27061462402344,101.2761688232422,-16.35836791992188
216702,-0.3365631103515625,0.8535614013671875,0.41351318359375,-0.8105599880218506,0.5202929973602295,0.2494729459285736,59.54298400878906,101.2846984863281,-16.07012939453125
216703,-0.3756256103515625,0.804168701171875,0.3668975830078125,-0.7859651446342468,0.3624697923660278,0.2679805755615234,59.76956176757812,101.1867065429688,-15.74745178222656
216704,-0.373199462890625,0.734619140625,0.344757080078125,-0.7049016952514648,0.144578754901886,0.3058411478996277,59.94802856445312,101.1670074462891,-15.23094177246094
216705,-0.373199462890625,0.734619140625,0.344757080078125,-0.7049016952514648,0.144578754901886,0.3058411478996277,59.94802856445312,101.1670074462891,-15.23094177246094
216706,-0.2270050048828125,0.7075958251953125,0.3651275634765625,-0.6682283878326416,-0.0554813668131828,0.3249892592430115,60.09597778320312,101.1119079589844,-14.57809448242188
216707,-0.1654052734375,0.731475830078125,0.337188720703125,-0.7714900374412537,-0.0944370254874229,0.268719345331192,60.24751281738281,101.1460266113281,-14.26101684570312
216708,-0.1654052734375,0.731475830078125,0.337188720703125,-0.7714900374412537,-0.0944370254874229,0.268719345331192,60.24751281738281,101.1460266113281,-14.26101684570312
216709,-0.121185302734375,0.7454071044921875,0.292083740234375,-0.9168432950973512,-0.1988638341426849,0.2054016292095184,60.37216186523438,101.1826782226562,-13.91497802734375
216710,-0.0789337158203125,0.7694854736328125,0.2385101318359375,-1.114303112030029,-0.6615675687789917,0.0794817730784416,60.48129272460938,100.9377593994141,-13.44223022460938
216711,-0.03436279296875,0.8989105224609375,0.1173858642578125,-1.112010836601257,-0.8761682510375977,0.0129083413630724,60.58917236328125,100.8908386230469,-12.69371032714844
216712,-0.03436279296875,0.8989105224609375,0.1173858642578125,-1.112010836601257,-0.8761682510375977,0.0129083413630724,60.58917236328125,100.8908386230469,-12.69371032714844
216713,-0.0236663818359375,0.96185302734375,0.0273284912109375,-1.031390070915222,-1.052220821380615,-0.0659526512026786,60.49795532226562,100.9269561767578,-12.22506713867188
216714,-0.0028533935546875,0.9908447265625,-0.108489990234375,-0.5367342829704285,-1.112082242965698,-0.168656662106514,60.38853454589844,100.9008483886719,-11.34892272949219
216715,0.0025634765625,0.9859161376953124,-0.12841796875,-0.2443205267190933,-0.868733823299408,-0.193085566163063,60.20712280273438,101.0209197998047,-10.9327392578125
216716,0.004364013671875,1.024337768554688,-0.1577301025390625,-0.0932308807969093,-0.4334981739521027,-0.2368988245725632,60.07054138183594,101.0127410888672,-10.58946228027344
216717,0.004364013671875,1.024337768554688,-0.1577301025390625,-0.0932308807969093,-0.4334981739521027,-0.2368988245725632,60.07054138183594,101.0127410888672,-10.58946228027344
216718,-0.0583343505859375,1.22137451171875,-0.37689208984375,-0.1786472350358963,0.0189595762640237,-0.3558188378810883,59.29507446289062,101.4605102539062,-10.17765808105469
216719,-0.1249542236328125,1.295166015625,-0.361083984375,-0.2668234407901764,-0.1093427389860153,-0.343101441860199,59.04620361328125,101.6112823486328,-10.06924438476562
216720,-0.1249542236328125,1.295166015625,-0.361083984375,-0.2668234407901764,-0.1093427389860153,-0.343101441860199,59.04620361328125,101.6112823486328,-10.06924438476562
216721,-0.1691436767578125,1.35595703125,-0.301605224609375,-0.2872469425201416,-0.2228852808475494,-0.2850205600261688,58.81507873535156,101.7095031738281,-9.9306640625
216722,-0.1909332275390625,1.39996337890625,-0.2698974609375,-0.0074030552059412,-0.1163231506943703,-0.0553093291819095,58.54121398925781,101.8061676025391,-9.612350463867188
216723,-0.165069580078125,1.31817626953125,-0.3272705078125,0.180310919880867,0.042213499546051,0.0640884414315223,58.39753723144531,101.758544921875,-9.39385986328125
216724,-0.165069580078125,1.31817626953125,-0.3272705078125,0.180310919880867,0.042213499546051,0.0640884414315223,58.39753723144531,101.758544921875,-9.39385986328125
216725,-0.1240692138671875,1.201980590820312,-0.399993896484375,0.304512232542038,0.2134662121534348,0.1903936415910721,58.39712524414062,101.8242797851562,-9.59466552734375
216726,-0.0579071044921875,1.110488891601562,-0.511260986328125,0.4452994465827942,0.5309426784515381,0.4043887555599213,58.50675964355469,101.8089447021484,-9.56805419921875
