time_idx,accelerometerAccelerationX(G),accelerometerAccelerationY(G),accelerometerAccelerationZ(G),gyroRotationX(rad/s),gyroRotationY(rad/s),gyroRotationZ(rad/s),magnetometerX(µT),magnetometerY(µT),magnetometerZ(µT)
43504,0.2509307861328125,-0.8233795166015625,0.460845947265625,0.0132715972140431,-0.1347538232803345,-0.0226637665182352,76.60395812988281,22.83732604980469,21.74989318847656
43505,0.2851409912109375,-0.7990264892578125,0.4579925537109375,0.0437951497733593,-0.1320307403802872,-0.0322876311838626,76.60203552246094,22.81329345703125,21.68174743652344
43506,0.3013916015625,-0.800537109375,0.45404052734375,0.0747357532382011,-0.104846253991127,-0.0915783867239952,76.7979736328125,22.87002563476562,21.51091003417969
43507,0.300384521484375,-0.8176422119140625,0.451873779296875,0.0934196934103965,-0.1031317114830017,-0.1192534267902374,76.89797973632812,22.95048522949219,21.48985290527344
43508,0.300384521484375,-0.8176422119140625,0.451873779296875,0.0934196934103965,-0.1031317114830017,-0.1192534267902374,76.89797973632812,22.95048522949219,21.48985290527344
43509,0.3020477294921875,-0.831634521484375,0.4552154541015625,0.125879630446434,-0.1042347922921181,-0.1207003220915794,76.97808837890625,23.05686950683594,21.36984252929688
43510,0.28997802734375,-0.8493804931640625,0.47186279296875,0.1515738070011139,-0.1090838760137558,-0.1237792000174522,77.09674072265625,23.16737365722656,21.399169921875
43511,0.28997802734375,-0.8493804931640625,0.47186279296875,0.1515738070011139,-0.1090838760137558,-0.1237792000174522,77.09674072265625,23.16737365722656,21.399169921875
43512,0.28533935546875,-0.8470458984375,0.48590087890625,0.1378630548715591,-0.1126599684357643,-0.1188116073608398,77.22921752929688,23.28813171386719,21.347900390625
43513,0.2986297607421875,-0.849945068359375,0.500457763671875,0.1173282265663147,-0.0997268632054328,-0.1250686943531036,77.33961486816406,23.45132446289062,21.30435180664062
43514,0.30255126953125,-0.8527374267578125,0.510345458984375,0.1272770017385483,-0.0776239559054374,-0.078478030860424,77.519775390625,23.64501953125,21.1844482421875
43515,0.30255126953125,-0.8527374267578125,0.510345458984375,0.1272770017385483,-0.0776239559054374,-0.078478030860424,77.519775390625,23.64501953125,21.1844482421875
43516,0.2937469482421875,-0.841552734375,0.5126190185546875,0.1578463613986969,-0.0858592465519905,-0.0560504868626594,77.61683654785156,23.728271484375,21.06838989257812
43517,0.2958526611328125,-0.834503173828125,0.5194091796875,0.1844470798969269,-0.0753213837742805,-0.0576385296881198,77.75408935546875,23.95899963378906,20.99021911621094
43518,0.2982330322265625,-0.8465423583984375,0.52435302734375,0.2558706700801849,-0.0169922988861799,-0.0700549855828285,78.04815673828125,23.98448181152344,21.279541015625
43519,0.2982330322265625,-0.8465423583984375,0.52435302734375,0.2558706700801849,-0.0169922988861799,-0.0700549855828285,78.04815673828125,23.98448181152344,21.279541015625
43520,0.3036041259765625,-0.8609161376953125,0.5240631103515625,0.2680104076862335,-0.0105911251157522,-0.073484867811203,78.10197448730469,24.20452880859375,21.27981567382812
43521,0.3165283203125,-0.89019775390625,0.5255584716796875,0.2680104076862335,-0.0105911251157522,-0.073484867811203,78.05633544921875,24.51310729980469,20.99684143066406
43522,0.3153228759765625,-0.8867950439453125,0.5118865966796875,0.2329893112182617,-0.0121903531253337,-0.0287389699369669,78.30616760253906,25.11798095703125,21.19725036621094
43523,0.3153228759765625,-0.8867950439453125,0.5118865966796875,0.2329893112182617,-0.0121903531253337,-0.0287389699369669,78.30616760253906,25.11798095703125,21.19725036621094
43524,0.3030548095703125,-0.872039794921875,0.517486572265625,0.2421402037143707,-0.0198967419564724,-0.0058589545078575,78.34849548339844,25.25968933105469,21.26930236816406
43525,0.2923431396484375,-0.8581695556640625,0.5316925048828125,0.269537478685379,-0.0182642247527837,-0.0212397743016481,78.3319091796875,25.40176391601562,21.45242309570312
43526,0.27508544921875,-0.8526153564453125,0.56005859375,0.2589559257030487,-0.0419495813548564,-0.0527593530714511,78.33564758300781,25.74797058105469,21.79586791992188
43527,0.27508544921875,-0.8526153564453125,0.56005859375,0.2589559257030487,-0.0419495813548564,-0.0527593530714511,78.33564758300781,25.74797058105469,21.79586791992188
43528,0.2791290283203125,-0.853729248046875,0.5705413818359375,0.1532089859247208,-0.0797353088855743,-0.0676653310656547,78.32713317871094,25.81761169433594,21.82627868652344
43529,0.3011932373046875,-0.850830078125,0.5703887939453125,0.1532089859247208,-0.0797353088855743,-0.0676653310656547,78.16806030273438,26.07411193847656,22.1090087890625
43530,0.341766357421875,-0.8248291015625,0.5742645263671875,0.1066811755299568,-0.0648487731814384,-0.0063356603495776,77.92457580566406,26.32667541503906,22.37898254394531
43531,0.341766357421875,-0.8248291015625,0.5742645263671875,0.1066811755299568,-0.0648487731814384,-0.0063356603495776,77.92457580566406,26.32667541503906,22.37898254394531
43532,0.3385162353515625,-0.7996826171875,0.5464324951171875,0.1579792499542236,-0.03323944658041,0.0092225270345807,77.89430236816406,26.22267150878906,22.68411254882812
43533,0.335662841796875,-0.7900543212890625,0.5427703857421875,0.187018096446991,-0.0044602621346712,0.015476694330573,77.90582275390625,26.23619079589844,22.80616760253906
43534,0.3305511474609375,-0.7801971435546875,0.53765869140625,0.2022716104984283,0.0134598826989531,0.0241234451532363,77.74958801269531,26.25868225097656,22.97309875488281
43535,0.3256988525390625,-0.771240234375,0.534454345703125,0.1869219541549683,0.0224927924573421,0.019857594743371,77.67880249023438,26.23348999023438,22.9830322265625
43536,0.3256988525390625,-0.771240234375,0.534454345703125,0.1869219541549683,0.0224927924573421,0.019857594743371,77.67880249023438,26.23348999023438,22.9830322265625
43537,0.3274688720703125,-0.75958251953125,0.531005859375,0.1496137231588364,0.0259437169879674,0.0108768828213214,77.66105651855469,26.17691040039062,23.02427673339844
43538,0.3108673095703125,-0.73388671875,0.496795654296875,0.0558890998363494,0.017133180052042,-0.000883636821527,77.57099914550781,26.28785705566406,23.20393371582031
43539,0.3108673095703125,-0.73388671875,0.496795654296875,0.0558890998363494,0.017133180052042,-0.000883636821527,77.57099914550781,26.28785705566406,23.20393371582031
43540,0.2883758544921875,-0.7271575927734375,0.479339599609375,0.057513628154993,-0.0095588844269514,-0.0019811254460364,77.57269287109375,26.35543823242188,23.118408203125
43541,0.270355224609375,-0.72607421875,0.4696197509765625,0.0732262730598449,-0.0503659695386886,-0.0147576406598091,77.52593994140625,26.40858459472656,23.11567687988281
43542,0.291900634765625,-0.7447509765625,0.511962890625,0.1008872017264366,-0.0836773216724395,-0.0602257885038852,77.54879760742188,26.35420227050781,23.10842895507812
43543,0.291900634765625,-0.7447509765625,0.511962890625,0.1008872017264366,-0.0836773216724395,-0.0602257885038852,77.54879760742188,26.35420227050781,23.10842895507812
43544,0.30657958984375,-0.7788848876953125,0.5380706787109375,0.0975784882903099,-0.0894004553556442,-0.0729852616786956,77.53851318359375,26.51779174804688,22.91532897949219
43545,0.3105010986328125,-0.802978515625,0.56500244140625,0.0948048084974288,-0.0661720931529998,-0.073297381401062,77.62240600585938,26.53953552246094,22.75975036621094
43546,0.3262939453125,-0.820281982421875,0.5675506591796875,0.094566985964775,-0.0621603094041347,-0.0572020374238491,77.74095153808594,26.84054565429688,22.73687744140625
43547,0.3262939453125,-0.820281982421875,0.5675506591796875,0.094566985964775,-0.0621603094041347,-0.0572020374238491,77.74095153808594,26.84054565429688,22.73687744140625
43548,0.3149261474609375,-0.8226165771484375,0.5648956298828125,0.1163857281208038,-0.0686909109354019,-0.027492344379425,77.85737609863281,27.01774597167969,22.76069641113281
43549,0.2942657470703125,-0.8075714111328125,0.561737060546875,0.0938207656145095,-0.08918047696352,-0.0339587666094303,78.01167297363281,27.21638488769531,22.83787536621094
43550,0.2894134521484375,-0.775238037109375,0.5718994140625,0.0460087694227695,-0.0947787091135978,-0.0422246865928173,78.32704162597656,27.76823425292969,22.92437744140625
43551,0.2894134521484375,-0.775238037109375,0.5718994140625,0.0460087694227695,-0.0947787091135978,-0.0422246865928173,78.32704162597656,27.76823425292969,22.92437744140625
43552,0.2714691162109375,-0.7780914306640625,0.560943603515625,0.0496604964137077,-0.0984482765197753,-0.0613155551254749,78.66410827636719,28.32183837890625,22.43122863769531
43553,0.259613037109375,-0.790008544921875,0.549163818359375,0.0924617573618888,-0.1096386164426804,-0.085668034851551,79.0908203125,28.87403869628906,21.85833740234375
43554,0.2782440185546875,-0.2440948486328125,0.9029388427734376,0.0140742734074592,0.4705262184143066,-0.5159123539924622,81.15803527832031,30.66836547851562,19.67695617675781
43555,0.2782440185546875,-0.2440948486328125,0.9029388427734376,0.0140742734074592,0.4705262184143066,-0.5159123539924622,81.15803527832031,30.66836547851562,19.67695617675781
43556,0.3720703125,-0.4722137451171875,0.212738037109375,0.2655278146266937,0.1064076647162437,-0.9972137212753296,82.94537353515625,31.97735595703125,18.10893249511719
43557,0.346038818359375,-1.001220703125,0.6424560546875,0.1121017709374428,-0.1283260136842728,-0.9299143552780152,84.80131530761719,33.74919128417969,17.57734680175781
43558,0.267181396484375,-1.105209350585938,0.33526611328125,0.2799397706985474,-0.4341951310634613,-0.1005140915513039,86.40435791015625,36.19526672363281,17.81648254394531
43559,0.267181396484375,-1.105209350585938,0.33526611328125,0.2799397706985474,-0.4341951310634613,-0.1005140915513039,86.40435791015625,36.19526672363281,17.81648254394531
43560,0.233551025390625,-0.8875579833984375,0.47528076171875,0.2850804626941681,-0.5060408115386963,0.1500840336084366,86.37236022949219,36.51213073730469,17.46316528320312
43561,0.2517242431640625,-0.6954345703125,0.5364532470703125,0.358421266078949,-0.4025421142578125,0.0574193522334098,86.18582153320312,36.24072265625,17.16633605957031
43562,0.389892578125,-0.7680511474609375,0.6593475341796875,-0.0323659293353557,-0.0949227809906005,0.0142042357474565,85.34587097167969,34.85743713378906,16.80545043945312
43563,0.389892578125,-0.7680511474609375,0.6593475341796875,-0.0323659293353557,-0.0949227809906005,0.0142042357474565,85.34587097167969,34.85743713378906,16.80545043945312
43564,0.3821563720703125,-0.785675048828125,0.612548828125,-0.0323659293353557,-0.0949227809906005,0.0142042357474565,84.58270263671875,34.24777221679688,17.74607849121094
43565,0.3937835693359375,-0.757049560546875,0.593231201171875,-0.0011377023765817,0.0530160814523696,0.0319086648523807,83.66464233398438,34.01502990722656,19.34516906738281
43566,0.419158935546875,-0.7214508056640625,0.5592803955078125,-0.0126801086589694,0.1043498441576958,0.0373202078044414,81.74365234375,32.68675231933594,21.62307739257812
43567,0.41070556640625,-0.7188262939453125,0.5429534912109375,-0.0359960831701755,0.1366207003593445,0.0403381027281284,80.97874450683594,31.95103454589844,21.98045349121094
43568,0.41070556640625,-0.7188262939453125,0.5429534912109375,-0.0359960831701755,0.1366207003593445,0.0403381027281284,80.97874450683594,31.95103454589844,21.98045349121094
43569,0.4002227783203125,-0.7147369384765625,0.5322113037109375,-0.0462255515158176,0.1557136923074722,0.035632561892271,80.461181640625,31.43243408203125,22.31251525878906
43570,0.369110107421875,-0.7235107421875,0.5105743408203125,-0.1263598054647446,0.1061605215072632,0.0612305998802185,79.808837890625,30.45223999023438,22.84797668457031
43571,0.369110107421875,-0.7235107421875,0.5105743408203125,-0.1263598054647446,0.1061605215072632,0.0612305998802185,79.808837890625,30.45223999023438,22.84797668457031
43572,0.358978271484375,-0.7272186279296875,0.493743896484375,-0.1263598054647446,0.1061605215072632,0.0612305998802185,79.61680603027344,30.19157409667969,22.95381164550781
43573,0.3479156494140625,-0.7279510498046875,0.4836883544921875,-0.1199879199266434,0.0762822553515434,0.064502827823162,79.5047607421875,30.07929992675781,23.05245971679688
43574,0.337432861328125,-0.7328948974609375,0.4714508056640625,-0.0883485078811645,0.0545484647154808,0.0471049286425113,79.44049072265625,30.08233642578125,23.13070678710938
43575,0.352752685546875,-0.684539794921875,0.4988861083984375,-0.0228672325611114,0.0075641763396561,0.0308710969984531,79.48344421386719,30.18977355957031,23.16616821289062
43576,0.3839874267578125,-0.514984130859375,0.4253692626953125,0.3587051630020142,-0.0636966899037361,-0.1922141760587692,79.81396484375,30.78330993652344,23.05648803710938
43577,0.195831298828125,-0.86798095703125,0.4225311279296875,0.3587051630020142,-0.0636966899037361,-0.1922141760587692,80.48013305664062,31.60459899902344,23.01513671875
43578,0.2698974609375,-0.5800933837890625,0.7673492431640625,-1.166247725486755,-0.287737250328064,-0.8471108078956604,83.43666076660156,34.3212890625,20.72695922851562
43579,0.2698974609375,-0.5800933837890625,0.7673492431640625,-1.166247725486755,-0.287737250328064,-0.8471108078956604,83.43666076660156,34.3212890625,20.72695922851562
43580,0.8170318603515625,-1.093048095703125,0.943084716796875,-1.224320411682129,0.1354504972696304,-0.0822898149490356,85.61027526855469,36.04904174804688,18.21688842773438
43581,0.348968505859375,-1.04779052734375,0.5622100830078125,-0.8363747596740723,0.5812865495681763,-0.0433543995022773,87.42257690429688,37.91841125488281,17.30337524414062
43582,0.1620025634765625,-0.7050018310546875,0.202239990234375,1.002038836479187,-0.3368086516857147,-0.0446758568286895,88.44822692871094,39.04367065429688,17.79286193847656
43583,0.1620025634765625,-0.7050018310546875,0.202239990234375,1.002038836479187,-0.3368086516857147,-0.0446758568286895,88.44822692871094,39.04367065429688,17.79286193847656
43584,0.3270263671875,-0.6492156982421875,0.3630828857421875,1.002038836479187,-0.3368086516857147,-0.0446758568286895,87.911865234375,38.34272766113281,17.2611083984375
43585,0.4730224609375,-0.641937255859375,0.5315093994140625,0.7572038173675537,-0.2110544443130493,-0.0519763827323913,87.07136535644531,37.42558288574219,16.67927551269531
43586,0.3694915771484375,-0.806549072265625,0.6170806884765625,0.3506754636764526,-0.1151340454816818,-0.0847950503230094,85.67353820800781,35.96871948242188,16.83073425292969
43587,0.3694915771484375,-0.806549072265625,0.6170806884765625,0.3506754636764526,-0.1151340454816818,-0.0847950503230094,85.67353820800781,35.96871948242188,16.83073425292969
43588,0.370758056640625,-0.8118438720703125,0.657257080078125,0.2905356884002686,-0.1014517918229103,-0.072214275598526,84.85128784179688,35.64151000976562,17.97206115722656
43589,0.3588409423828125,-0.79644775390625,0.67132568359375,0.1880873441696167,-0.1020446121692657,-0.0313898809254169,84.11711120605469,35.19953918457031,19.35868835449219
43590,0.3495330810546875,-0.7500457763671875,0.6113128662109375,0.0228698961436748,-0.0945339649915695,0.0153667060658335,82.92829895019531,34.26957702636719,20.87486267089844
43591,0.3495330810546875,-0.7500457763671875,0.6113128662109375,0.0228698961436748,-0.0945339649915695,0.0153667060658335,82.92829895019531,34.26957702636719,20.87486267089844
43592,0.346221923828125,-0.73291015625,0.5739288330078125,0.0400118641555309,-0.0752492174506187,0.0123719815164804,82.4403076171875,33.72381591796875,21.31716918945312
43593,0.3536529541015625,-0.7281646728515625,0.5585784912109375,0.1025213152170181,-0.0405311807990074,-0.0148993209004402,82.05609130859375,33.32949829101562,21.60722351074219
43594,0.37603759765625,-0.7659912109375,0.5640411376953125,0.1721712350845337,-0.0192948691546917,-0.0170082785189151,81.57374572753906,32.53176879882812,22.07466125488281
43595,0.37603759765625,-0.7659912109375,0.5640411376953125,0.1721712350845337,-0.0192948691546917,-0.0170082785189151,81.57374572753906,32.53176879882812,22.07466125488281
43596,0.3867950439453125,-0.784210205078125,0.5746002197265625,0.1721712350845337,-0.0192948691546917,-0.0170082785189151,81.33645629882812,32.19473266601562,22.13612365722656
43597,0.3889617919921875,-0.7911376953125,0.5752410888671875,0.1064343005418777,-0.0262846015393734,-0.0073543190956115,81.13925170898438,31.95329284667969,22.18559265136719
43598,0.38226318359375,-0.77423095703125,0.558837890625,-0.0178122855722904,-0.0155920088291168,0.00962386559695,80.78216552734375,31.39395141601562,22.4432373046875
43599,0.38226318359375,-0.77423095703125,0.558837890625,-0.0178122855722904,-0.0155920088291168,0.00962386559695,80.78216552734375,31.39395141601562,22.4432373046875
43600,0.3805084228515625,-0.7599945068359375,0.55072021484375,-0.0178122855722904,-0.0155920088291168,0.00962386559695,80.6522216796875,31.13323974609375,22.42666625976562
43601,0.376922607421875,-0.75531005859375,0.5480804443359375,-0.0080382190644741,-0.0047492152079939,0.0088254492729902,80.57083129882812,30.813232421875,22.42617797851562
43602,0.372802734375,-0.7460784912109375,0.55987548828125,0.0144066363573074,0.0179196111857891,-0.0027896612882614,80.44992065429688,30.47695922851562,22.35005187988281
43603,0.372802734375,-0.7460784912109375,0.55987548828125,0.0144066363573074,0.0179196111857891,-0.0027896612882614,80.44992065429688,30.47695922851562,22.35005187988281
43604,0.3712615966796875,-0.76092529296875,0.555145263671875,0.0126265790313482,0.0139648178592324,-0.0070858728140592,80.32139587402344,30.31553649902344,22.27934265136719
43605,0.3720550537109375,-0.77911376953125,0.55059814453125,-0.040605217218399,0.0061582936905324,0.0152990613132715,80.28001403808594,30.1741943359375,22.33367919921875
43606,0.3731689453125,-0.7747039794921875,0.5310211181640625,-0.0411463715136051,0.0066073024645447,0.0182831324636936,80.31877136230469,29.77580261230469,22.14312744140625
43607,0.3731689453125,-0.7747039794921875,0.5310211181640625,-0.0411463715136051,0.0066073024645447,0.0182831324636936,80.31877136230469,29.77580261230469,22.14312744140625
43608,0.374267578125,-0.7745819091796875,0.5252685546875,-0.0268545169383287,0.0103471800684928,0.0216805282980203,80.14671325683594,29.54501342773438,22.10954284667969
43609,0.3750457763671875,-0.774993896484375,0.5252532958984375,-0.0101421158760786,0.0157030634582042,0.0259112250059843,80.03314208984375,29.42820739746094,22.20970153808594
43610,0.3718414306640625,-0.77777099609375,0.536041259765625,0.009253685362637,0.030304642394185,0.0116318883374333,79.87918090820312,29.08258056640625,22.28378295898438
43611,0.3718414306640625,-0.77777099609375,0.536041259765625,0.009253685362637,0.030304642394185,0.0116318883374333,79.87918090820312,29.08258056640625,22.28378295898438
43612,0.3721771240234375,-0.78240966796875,0.5281219482421875,0.0082928175106644,0.0379934534430503,0.0033499903511255,79.84223937988281,28.93222045898438,22.291015625
43613,0.3666229248046875,-0.7827911376953125,0.5157470703125,-0.0001067927587428,0.0427748933434486,0.0012945625931024,79.7386474609375,28.74600219726562,22.4344482421875
43614,0.348175048828125,-0.7581939697265625,0.5009918212890625,-0.0213638786226511,-0.0094496943056583,0.0223436541855335,79.70132446289062,28.55337524414062,22.74554443359375
43615,0.348175048828125,-0.7581939697265625,0.5009918212890625,-0.0213638786226511,-0.0094496943056583,0.0223436541855335,79.70132446289062,28.55337524414062,22.74554443359375
43616,0.357513427734375,-0.735748291015625,0.5155029296875,-0.0310849491506815,-0.0396928191184997,0.0143211483955383,79.58198547363281,28.53208923339844,22.62208557128906
43617,0.3646240234375,-0.7215118408203125,0.532745361328125,-0.0310918726027011,-0.0491555631160736,0.0013598100049421,79.50532531738281,28.50091552734375,22.54472351074219
43618,0.365631103515625,-0.730316162109375,0.537445068359375,-0.0424033813178539,-0.0307842772454023,-0.0162799041718244,79.39570617675781,28.53955078125,22.38963317871094
43619,0.365631103515625,-0.730316162109375,0.537445068359375,-0.0424033813178539,-0.0307842772454023,-0.0162799041718244,79.39570617675781,28.53955078125,22.38963317871094
43620,0.3712615966796875,-0.73846435546875,0.5320892333984375,-0.0539724193513393,-0.0347681008279323,-0.0072920015081763,79.36346435546875,28.4193115234375,22.33143615722656
43621,0.373321533203125,-0.7329254150390625,0.5275421142578125,-0.0437629260122776,-0.0417381264269352,-0.0049034119583666,79.31631469726562,28.28402709960938,22.32191467285156
43622,0.3766937255859375,-0.7452850341796875,0.5154571533203125,0.0008005462004803,-0.0346615724265575,-0.000484429008793,79.28971862792969,28.35867309570312,22.2464599609375
43623,0.3766937255859375,-0.7452850341796875,0.5154571533203125,0.0008005462004803,-0.0346615724265575,-0.000484429008793,79.28971862792969,28.35867309570312,22.2464599609375
43624,0.3766937255859375,-0.7452850341796875,0.5154571533203125,0.0008005462004803,-0.0346615724265575,-0.000484429008793,79.28971862792969,28.35867309570312,22.2464599609375
43625,0.3810882568359375,-0.7536773681640625,0.5229339599609375,0.0084824347868561,-0.0287781190127134,0.0107431914657354,79.22785949707031,28.23551940917969,22.24702453613281
43626,0.3939971923828125,-0.760345458984375,0.53839111328125,-0.0077609838917851,-0.0351161770522594,0.0425035171210765,79.25238037109375,28.14677429199219,22.12445068359375
43627,0.3939971923828125,-0.760345458984375,0.53839111328125,-0.0077609838917851,-0.0351161770522594,0.0425035171210765,79.25238037109375,28.14677429199219,22.12445068359375
43628,0.3804473876953125,-0.7612762451171875,0.54168701171875,-0.0420100353658199,-0.0523196645081043,0.0595107302069664,79.13375854492188,28.22486877441406,22.19953918457031
43629,0.370269775390625,-0.7533111572265625,0.53619384765625,-0.0658325403928756,-0.0664317533373832,0.0543822832405567,79.15219116210938,28.10588073730469,22.26313781738281
43630,0.3549346923828125,-0.7502593994140625,0.518157958984375,-0.0622215643525123,-0.0826125890016555,0.0447128750383853,79.19964599609375,27.97789001464844,22.3092041015625
43631,0.34112548828125,-0.76312255859375,0.5017547607421875,-0.0098414458334445,-0.1159785315394402,-0.018743859604001,79.27180480957031,27.94926452636719,22.2081298828125
43632,0.332427978515625,-0.7916259765625,0.5304412841796875,-0.0098414458334445,-0.1159785315394402,-0.018743859604001,79.22169494628906,27.88455200195312,22.19281005859375
43633,0.3270111083984375,-0.8245391845703125,0.5563507080078125,0.0494045689702034,-0.1016858816146851,-0.0563801862299442,79.35801696777344,27.69149780273438,22.17826843261719
43634,0.3189544677734375,-0.8626861572265625,0.5619354248046875,-0.0377838648855686,-0.1749054938554764,-0.0270257592201232,79.31121826171875,27.88824462890625,22.20025634765625
43635,0.3356781005859375,-0.863494873046875,0.5424041748046875,-0.0425341427326202,-0.1975828558206558,0.0168141331523656,79.34945678710938,27.84255981445312,22.12214660644531
43636,0.3356781005859375,-0.863494873046875,0.5424041748046875,-0.0425341427326202,-0.1975828558206558,0.0168141331523656,79.34945678710938,27.84255981445312,22.12214660644531
43637,0.3593597412109375,-0.863677978515625,0.537567138671875,-0.0214522946625948,-0.1953109055757523,0.0624822862446308,79.45405578613281,27.78762817382812,22.04885864257812
43638,0.416961669921875,-0.853607177734375,0.534881591796875,0.2201070636510849,-0.0805816650390625,0.0478948205709457,79.44374084472656,27.67327880859375,21.92146301269531
43639,0.416961669921875,-0.853607177734375,0.534881591796875,0.2201070636510849,-0.0805816650390625,0.0478948205709457,79.44374084472656,27.67327880859375,21.92146301269531
43640,0.416961669921875,-0.853607177734375,0.534881591796875,0.2201070636510849,-0.0805816650390625,0.0478948205709457,79.44374084472656,27.67327880859375,21.92146301269531
43641,0.4535064697265625,-0.8694305419921875,0.5505218505859375,0.241837665438652,-0.0431804917752742,0.0755040794610977,79.46995544433594,27.69459533691406,21.91458129882812
43642,0.447906494140625,-0.870880126953125,0.552001953125,0.2704123258590698,0.0946612581610679,0.1919731646776199,79.4056396484375,27.87998962402344,21.85118103027344
43643,0.447906494140625,-0.870880126953125,0.552001953125,0.2704123258590698,0.0946612581610679,0.1919731646776199,79.4056396484375,27.87998962402344,21.85118103027344
43644,0.378265380859375,-0.8294830322265625,0.51763916015625,0.247295543551445,0.069266952574253,0.2606896460056305,79.42691040039062,27.83018493652344,21.94181823730469
43645,0.378265380859375,-0.8294830322265625,0.51763916015625,0.247295543551445,0.069266952574253,0.2606896460056305,79.42691040039062,27.83018493652344,21.94181823730469
43646,0.341949462890625,-0.813232421875,0.4948883056640625,0.2134672701358795,0.0451632179319858,0.2801347076892853,79.31718444824219,27.84414672851562,22.37001037597656
43647,0.341949462890625,-0.813232421875,0.4948883056640625,0.2134672701358795,0.0451632179319858,0.2801347076892853,79.31718444824219,27.84414672851562,22.37001037597656
43648,0.33245849609375,-0.7974700927734375,0.48858642578125,0.1551243364810944,0.0295408479869365,0.3580252528190613,79.15972900390625,27.87673950195312,22.47950744628906
43649,0.3300628662109375,-0.7766876220703125,0.472320556640625,0.1551243364810944,0.0295408479869365,0.3580252528190613,79.16004943847656,27.87136840820312,22.59536743164062
43650,0.33837890625,-0.7682342529296875,0.4908599853515625,-0.0731690153479576,-0.0895397365093231,0.3089618384838104,79.02276611328125,27.5693359375,22.99502563476562
43651,0.33837890625,-0.7682342529296875,0.4908599853515625,-0.0731690153479576,-0.0895397365093231,0.3089618384838104,79.02276611328125,27.5693359375,22.99502563476562
43652,0.3437347412109375,-0.7690582275390625,0.493988037109375,-0.0731690153479576,-0.0895397365093231,0.3089618384838104,78.99519348144531,27.60433959960938,22.99372863769531
43653,0.322601318359375,-0.7566070556640625,0.5139007568359375,-0.1699656099081039,-0.1496925503015518,0.3194235265254974,78.88694763183594,27.60560607910156,22.70494079589844
43654,0.368743896484375,-0.7247161865234375,0.5780487060546875,-0.2508420646190643,-0.0762875825166702,0.1273425072431564,78.73320007324219,27.39616394042969,22.55865478515625
43655,0.368743896484375,-0.7247161865234375,0.5780487060546875,-0.2508420646190643,-0.0762875825166702,0.1273425072431564,78.73320007324219,27.39616394042969,22.55865478515625
43656,0.3843231201171875,-0.7487030029296875,0.5991668701171875,-0.2508420646190643,-0.0762875825166702,0.1273425072431564,78.66360473632812,27.23432922363281,22.47865295410156
43657,0.389404296875,-0.7720947265625,0.6051483154296875,-0.3190677464008331,-0.0474711135029792,0.1183090656995773,78.66204833984375,27.03868103027344,22.3955078125
43658,0.3317718505859375,-0.7733001708984375,0.57818603515625,-0.4519253969192505,-0.0089221224188804,0.1470304578542709,78.76435852050781,26.89399719238281,22.12155151367188
43659,0.3317718505859375,-0.7733001708984375,0.57818603515625,-0.4519253969192505,-0.0089221224188804,0.1470304578542709,78.76435852050781,26.89399719238281,22.12155151367188
43660,0.2898101806640625,-0.76983642578125,0.5867767333984375,-0.4881206750869751,-0.0426491945981979,0.2224679589271545,78.62181091308594,26.79148864746094,22.11196899414062
43661,0.2626953125,-0.747222900390625,0.603302001953125,-0.4940376877784729,-0.0693822726607322,0.2842564880847931,78.61918640136719,26.61088562011719,22.08677673339844
43662,0.29193115234375,-0.6905059814453125,0.642425537109375,-0.4002142548561096,-0.1109113395214081,0.2417452484369278,78.50054931640625,26.07194519042969,21.91481018066406
43663,0.32293701171875,-0.7015533447265625,0.6589813232421875,-0.3624988198280334,-0.0957310497760772,0.1826347857713699,78.49783325195312,25.72561645507812,21.65309143066406
43664,0.3598480224609375,-0.715728759765625,0.6548919677734375,-0.3461968302726746,-0.0685170069336891,0.1348417103290558,78.46885681152344,25.53701782226562,21.4688720703125
43665,0.3598480224609375,-0.715728759765625,0.6548919677734375,-0.3461968302726746,-0.0685170069336891,0.1348417103290558,78.46885681152344,25.53701782226562,21.4688720703125
43666,0.3594818115234375,-0.7215576171875,0.6160430908203125,-0.348446398973465,0.0359137915074825,0.1262564659118652,78.39671325683594,25.2081298828125,21.21969604492188
43667,0.3594818115234375,-0.7215576171875,0.6160430908203125,-0.348446398973465,0.0359137915074825,0.1262564659118652,78.39671325683594,25.2081298828125,21.21969604492188
43668,0.3472900390625,-0.7171783447265625,0.5911865234375,-0.348446398973465,0.0359137915074825,0.1262564659118652,78.36512756347656,24.97816467285156,21.1375732421875
43669,0.3180694580078125,-0.709320068359375,0.569671630859375,-0.3146301209926605,0.0610519014298915,0.1131507903337479,78.35173034667969,24.88436889648438,20.94924926757812
43670,0.2971343994140625,-0.7142333984375,0.5511627197265625,-0.2654023766517639,0.0674493461847305,0.0685122162103653,78.25247192382812,24.73835754394531,20.91557312011719
43671,0.2956390380859375,-0.732025146484375,0.535064697265625,-0.2493586987257004,0.0689345896244049,0.0142870601266622,78.16899108886719,24.65083312988281,20.90650939941406
43672,0.29779052734375,-0.761962890625,0.5177154541015625,-0.2580898702144623,0.0387585796415805,-0.0299746766686439,78.05342102050781,24.45590209960938,20.70857238769531
43673,0.303497314453125,-0.79949951171875,0.51177978515625,-0.2683925628662109,-0.0366272516548633,-0.1185380965471268,78.05075073242188,24.3319091796875,20.69215393066406
43674,0.3019561767578125,-0.802764892578125,0.51507568359375,-0.2683925628662109,-0.0366272516548633,-0.1185380965471268,77.89387512207031,24.18331909179688,20.78292846679688
43675,0.319793701171875,-0.8532257080078125,0.5182037353515625,-0.2645437717437744,-0.0569615513086319,-0.1136432066559792,78.0274658203125,24.10993957519531,20.67666625976562
43676,0.34649658203125,-0.864898681640625,0.5580596923828125,-0.2169040888547897,0.024892034009099,-0.0203273762017488,77.91580200195312,24.15966796875,20.71583557128906
43677,0.3499755859375,-0.8460845947265625,0.5859527587890625,-0.2169040888547897,0.024892034009099,-0.0203273762017488,78.00765991210938,24.06170654296875,20.79246520996094
43678,0.297760009765625,-0.8118743896484375,0.5852203369140625,-0.1436623632907867,0.1649455428123474,0.0217202082276344,77.97813415527344,23.83729553222656,20.82054138183594
43679,0.297760009765625,-0.8118743896484375,0.5852203369140625,-0.1436623632907867,0.1649455428123474,0.0217202082276344,77.97813415527344,23.83729553222656,20.82054138183594
43680,0.30303955078125,-0.82342529296875,0.5615692138671875,-0.1805130541324615,0.1449100524187088,0.0553934834897518,78.03140258789062,23.62397766113281,20.67323303222656
43681,0.3098602294921875,-0.8192901611328125,0.5485687255859375,-0.220362201333046,0.1545118093490601,0.0597892962396144,78.21392822265625,23.5423583984375,20.47061157226562
43682,0.321380615234375,-0.7949066162109375,0.540435791015625,-0.220362201333046,0.1545118093490601,0.0597892962396144,78.15126037597656,23.57347106933594,20.35676574707031
43683,0.3448333740234375,-0.775665283203125,0.52825927734375,-0.2660439312458038,0.2261841297149658,0.10059504956007,78.05815124511719,23.42448425292969,20.38496398925781
43684,0.3520660400390625,-0.7435455322265625,0.5245361328125,-0.2660439312458038,0.2261841297149658,0.10059504956007,78.00857543945312,23.25799560546875,20.33108520507812
43685,0.35540771484375,-0.7180938720703125,0.5030670166015625,-0.2732296586036682,0.2773391902446747,0.1313516348600388,77.77189636230469,23.2862548828125,20.33473205566406
43686,0.3563079833984375,-0.690155029296875,0.4470977783203125,-0.2711595892906189,0.3339169919490814,0.1845932751893997,77.83082580566406,23.24626159667969,20.38946533203125
43687,0.347991943359375,-0.6607208251953125,0.45330810546875,-0.2223372012376785,0.2855502665042877,0.1892048120498657,77.69938659667969,23.16215515136719,20.45687866210938
43688,0.3483734130859375,-0.705657958984375,0.442840576171875,-0.3479100465774536,0.2813882529735565,0.2763761878013611,77.501708984375,22.95144653320312,20.51547241210938
43689,0.3420562744140625,-0.668975830078125,0.398956298828125,-0.4216548204421997,0.1920812875032425,0.351726621389389,77.33937072753906,22.91192626953125,20.48916625976562
43690,0.3008270263671875,-0.6273040771484375,0.3756866455078125,-0.4216548204421997,0.1920812875032425,0.351726621389389,77.03562927246094,22.665771484375,20.27082824707031
43691,0.2837371826171875,-0.6101837158203125,0.3636627197265625,-0.3906891942024231,0.1370308250188828,0.2783333659172058,76.79560852050781,22.48127746582031,20.31288146972656
43692,0.275787353515625,-0.616180419921875,0.3772735595703125,-0.3380467593669891,0.1059986054897308,0.1976603418588638,76.75003051757812,22.16281127929688,20.17048645019531
43693,0.27130126953125,-0.6443023681640625,0.4368438720703125,-0.340490996837616,0.0257959105074405,0.1222585365176201,76.62055969238281,21.93565368652344,20.21617126464844
43694,0.2843780517578125,-0.6707611083984375,0.432342529296875,-0.3041678667068481,0.0306673645973205,0.055309060961008,76.54426574707031,21.68112182617188,20.18405151367188
43695,0.2630157470703125,-0.7019500732421875,0.419342041015625,-0.2163727879524231,-0.0462284795939922,0.0030344056431204,76.57196044921875,21.57308959960938,20.09983825683594
43696,0.2485504150390625,-0.7197418212890625,0.4317626953125,-0.1461106091737747,-0.1024661883711815,-0.0659992545843124,76.61001586914062,21.59150695800781,20.02072143554688
43697,0.2514495849609375,-0.732269287109375,0.4519500732421875,-0.1173319518566132,-0.1578953564167023,-0.149436354637146,76.57427978515625,21.51385498046875,20.01588439941406
43698,0.242340087890625,-0.7687835693359375,0.475250244140625,-0.1066143289208412,-0.2121266424655914,-0.2237769067287445,76.73309326171875,21.59361267089844,19.83334350585938
43699,0.24151611328125,-0.8307342529296875,0.5115966796875,-0.126963272690773,-0.2769370675086975,-0.2872988879680634,76.792236328125,21.59764099121094,19.75579833984375
43700,0.243804931640625,-0.9069061279296876,0.5174560546875,-0.1764352172613144,-0.3157177567481995,-0.3581658601760864,76.92549133300781,21.539306640625,19.74365234375
43701,0.2537841796875,-0.959991455078125,0.51171875,-0.2586075961589813,-0.2882397770881653,-0.3491113781929016,77.0960693359375,21.60136413574219,19.57121276855469
43702,0.272064208984375,-0.994049072265625,0.507232666015625,-0.2659203708171844,-0.2897364795207977,-0.2280832380056381,77.28807067871094,21.56997680664062,19.42880249023438
43703,0.3129425048828125,-1.00244140625,0.5120391845703125,-0.2659203708171844,-0.2897364795207977,-0.2280832380056381,77.49481201171875,21.54057312011719,19.22639465332031
43704,0.3382720947265625,-0.9918975830078124,0.5022735595703125,-0.131260022521019,-0.2344340682029724,-0.227273628115654,77.55082702636719,21.54020690917969,19.06948852539062
43705,0.338775634765625,-0.9944610595703124,0.47637939453125,0.0042802323587238,-0.2108872085809708,-0.2235531955957413,77.64753723144531,21.4932861328125,19.03509521484375
43706,0.33917236328125,-1.02099609375,0.4123687744140625,0.2534943222999573,-0.2605959177017212,-0.1604096442461014,77.84881591796875,21.63410949707031,18.88385009765625
43707,0.33917236328125,-1.02099609375,0.4123687744140625,0.2534943222999573,-0.2605959177017212,-0.1604096442461014,77.84881591796875,21.63410949707031,18.88385009765625
43708,0.3640899658203125,-1.019622802734375,0.4156494140625,0.3674813508987427,-0.2749066650867462,-0.1346901655197144,77.95362854003906,21.87455749511719,18.82987976074219
43709,0.389984130859375,-1.03948974609375,0.40948486328125,0.4480630159378052,-0.2489203363656998,-0.0850427225232124,78.16923522949219,22.013671875,19.01065063476562
43710,0.3680267333984375,-1.023712158203125,0.38507080078125,0.4598051309585571,-0.2272192984819412,0.045566152781248,78.30448913574219,22.15788269042969,19.37867736816406
43711,0.3680267333984375,-1.023712158203125,0.38507080078125,0.4598051309585571,-0.2272192984819412,0.045566152781248,78.30448913574219,22.15788269042969,19.37867736816406
43712,0.349822998046875,-1.005218505859375,0.376922607421875,0.4192092418670654,-0.1794871985912323,0.0614835992455482,78.44003295898438,22.23193359375,19.28305053710938
43713,0.3526763916015625,-0.9530792236328124,0.3815765380859375,0.3565522730350494,-0.124189592897892,0.0538778789341449,78.4317626953125,22.33988952636719,19.37994384765625
43714,0.3530120849609375,-0.9045257568359376,0.3859405517578125,0.3196520209312439,-0.0893812775611877,0.0602585449814796,78.44816589355469,22.42022705078125,19.487060546875
43715,0.3243865966796875,-0.8628692626953125,0.4204864501953125,0.2326843738555908,-0.0831239148974418,0.0608985051512718,78.48162841796875,22.53044128417969,19.46217346191406
43716,0.3060302734375,-0.85784912109375,0.4408111572265625,0.0631326287984848,-0.1443185657262802,0.0659566447138786,78.46014404296875,22.5130615234375,19.53068542480469
43717,0.284088134765625,-0.838470458984375,0.441986083984375,-0.1184531450271606,-0.2275013327598572,0.0688477754592895,78.51808166503906,22.603759765625,19.49665832519531
43718,0.2762908935546875,-0.8608551025390625,0.46112060546875,-0.3021129965782166,-0.3167952597141266,0.0804932415485382,78.54351806640625,22.60749816894531,19.36856079101562
43719,0.2869110107421875,-0.8739776611328125,0.501800537109375,-0.4894085824489594,-0.3286372721195221,0.0705588534474372,78.51937866210938,22.56074523925781,19.41943359375
43720,0.2833404541015625,-0.8640289306640625,0.4811859130859375,-0.6390268206596375,-0.2870970070362091,0.0501723550260067,78.61285400390625,22.48481750488281,19.08767700195312
43721,0.33050537109375,-0.87017822265625,0.4274444580078125,-0.7323234677314758,-0.2306641042232513,0.0756276473402977,78.6605224609375,22.30519104003906,19.03659057617188
43722,0.371734619140625,-0.918304443359375,0.375732421875,-0.7029986381530762,-0.1918059140443802,0.2109500467777252,78.68879699707031,22.07972717285156,18.85182189941406
43723,0.3673248291015625,-0.938507080078125,0.3514251708984375,-0.6155816912651062,-0.1313625574111938,0.5809637904167175,78.73835754394531,21.85687255859375,18.5975341796875
43724,0.3660888671875,-0.9326324462890624,0.3244781494140625,-0.6155816912651062,-0.1313625574111938,0.5809637904167175,78.66796875,21.53756713867188,18.36204528808594
43725,0.3472747802734375,-0.9268341064453124,0.2918701171875,-0.5722786784172058,-0.1596192270517349,0.7233068346977234,78.67819213867188,21.15093994140625,18.13491821289062
43726,0.3819427490234375,-0.9151153564453124,0.2374725341796875,-0.4574343860149384,-0.2980564534664154,0.7446635365486145,78.4788818359375,20.29417419433594,17.50592041015625
43727,0.3819427490234375,-0.9151153564453124,0.2374725341796875,-0.4574343860149384,-0.2980564534664154,0.7446635365486145,78.4788818359375,20.29417419433594,17.50592041015625
43728,0.3558349609375,-0.9575958251953124,0.2424163818359375,-0.2146390676498413,-0.2980276942253113,0.6611158847808838,78.28291320800781,19.93843078613281,17.24101257324219
43729,0.2404022216796875,-0.9495391845703124,0.2526702880859375,-0.031908132135868,-0.352220356464386,0.6377620697021484,78.18470764160156,19.60591125488281,17.09898376464844
43730,0.2550201416015625,-0.863433837890625,0.3431396484375,-0.1881296932697296,-0.3663148880004883,0.3342834413051605,78.05575561523438,19.23454284667969,16.65353393554688
43731,0.2550201416015625,-0.863433837890625,0.3431396484375,-0.1881296932697296,-0.3663148880004883,0.3342834413051605,78.05575561523438,19.23454284667969,16.65353393554688
43732,0.2991790771484375,-0.8685150146484375,0.3099517822265625,-0.2658223509788513,-0.2950415015220642,0.1340323686599731,78.13969421386719,18.91172790527344,16.54568481445312
43733,0.353240966796875,-0.8808135986328125,0.28265380859375,-0.299510270357132,-0.2330636084079742,0.0010839065071195,78.26435852050781,18.70964050292969,16.41532897949219
43734,0.4030914306640625,-0.8833465576171875,0.254302978515625,-0.2982535362243652,-0.1796805411577225,-0.0463869385421276,78.38641357421875,18.55982971191406,16.19778442382812
43735,0.450103759765625,-0.889007568359375,0.229888916015625,-0.3093120455741882,-0.0954988226294517,0.1121843308210373,78.45018005371094,18.47566223144531,16.09291076660156
43736,0.45745849609375,-0.90557861328125,0.2193450927734375,-0.3093120455741882,-0.0954988226294517,0.1121843308210373,78.52842712402344,18.29383850097656,15.98764038085938
43737,0.4027099609375,-0.9089202880859376,0.173065185546875,-0.4120674431324005,-0.1040877848863602,0.2551910281181335,78.60923767089844,18.31074523925781,15.80979919433594
43738,0.3193511962890625,-0.9091949462890624,0.13275146484375,-0.5755583643913269,-0.2527211904525757,0.39312544465065,78.67301940917969,18.15931701660156,15.48052978515625
43739,0.282440185546875,-0.81951904296875,0.1693267822265625,-0.758005678653717,-0.3182450830936432,0.3145507574081421,78.66484069824219,17.88214111328125,15.16355895996094
43740,0.2879791259765625,-0.835784912109375,0.1742401123046875,-0.9517743587493896,-0.3342727720737457,0.112283930182457,78.57011413574219,17.57528686523438,14.71775817871094
43741,0.302337646484375,-0.9180145263671876,0.2203369140625,-1.150038957595825,-0.3270463049411774,-0.0273748990148305,78.62236022949219,17.21537780761719,14.36152648925781
43742,0.3858184814453125,-0.98297119140625,0.156768798828125,-1.441904067993164,-0.2898121178150177,-0.0256036296486854,78.77401733398438,16.54267883300781,13.495361328125
43743,0.3858184814453125,-0.98297119140625,0.156768798828125,-1.441904067993164,-0.2898121178150177,-0.0256036296486854,78.77401733398438,16.54267883300781,13.495361328125
43744,0.383331298828125,-0.9455413818359376,0.096710205078125,-1.474531292915344,-0.3140285015106201,0.0218112897127866,78.91792297363281,16.16268920898438,12.93870544433594
43745,0.3587799072265625,-0.9141082763671876,0.0743255615234375,-1.50907564163208,-0.5326012969017029,0.0855878740549087,78.97384643554688,15.75747680664062,12.31466674804688
43746,0.312469482421875,-0.880767822265625,0.08685302734375,-1.593954682350159,-0.7223100066184998,0.0313824228942394,78.98332214355469,15.34782409667969,11.63595581054688
43747,0.2986602783203125,-0.8537750244140625,0.128692626953125,-1.728096485137939,-0.7209744453430176,-0.140061229467392,79.03118896484375,15.01371765136719,10.97079467773438
43748,0.372650146484375,-0.8438720703125,0.2678680419921875,-1.728096485137939,-0.7209744453430176,-0.140061229467392,79.15554809570312,14.64968872070312,10.4205322265625
43749,0.48272705078125,-0.8376617431640625,0.3376922607421875,-1.850812196731567,-0.5512934923171997,-0.357783168554306,79.33537292480469,14.25422668457031,9.802780151367188
43750,0.4942779541015625,-0.8251953125,0.2151947021484375,-1.588680744171143,-0.2882056832313538,-0.6289821863174438,79.72885131835938,13.50735473632812,8.271530151367188
43751,0.4942779541015625,-0.8251953125,0.2151947021484375,-1.588680744171143,-0.2882056832313538,-0.6289821863174438,79.72885131835938,13.50735473632812,8.271530151367188
43752,0.480133056640625,-0.869476318359375,0.1849822998046875,-1.361493110656738,-0.2314745038747787,-0.6651798486709595,79.93510437011719,13.32612609863281,7.33245849609375
43753,0.456787109375,-0.9244384765625,0.2217559814453125,-1.325546622276306,-0.1886103898286819,-0.6565017104148865,80.12440490722656,13.22091674804688,6.69873046875
43754,0.440032958984375,-0.962890625,0.2249908447265625,-1.438747763633728,-0.1166299432516098,-0.6569347381591797,80.41213989257812,13.14370727539062,6.11083984375
43755,0.446075439453125,-1.008865356445312,0.184234619140625,-1.540912508964539,-0.0832709223031997,-0.618798017501831,80.54649353027344,13.1121826171875,5.474411010742188
43756,0.4278106689453125,-1.034988403320312,0.15032958984375,-1.594369292259216,-0.1439350694417953,-0.5377167463302612,80.80239868164062,13.142333984375,4.963714599609375
43757,0.43341064453125,-0.982757568359375,0.131072998046875,-1.498877644538879,-0.1842859536409378,-0.4972132444381714,81.05000305175781,13.08450317382812,4.283889770507812
43758,0.4409942626953125,-0.960235595703125,0.2106781005859375,-1.29947555065155,-0.1627039611339569,-0.5139304399490356,81.31455993652344,13.00323486328125,3.869949340820312
43759,0.47564697265625,-0.9866790771484376,0.27081298828125,-1.277515411376953,-0.0184091012924909,-0.6585017442703247,81.463134765625,12.98042297363281,3.331817626953125
43760,0.446624755859375,-1.075271606445312,0.2575531005859375,-1.404065132141113,0.1546686738729477,-0.8408747315406799,81.62092590332031,12.94459533691406,2.619842529296875
43761,0.347808837890625,-1.158370971679688,0.18218994140625,-1.591118335723877,0.270136684179306,-1.008265852928162,81.83552551269531,13.07707214355469,2.145538330078125
43762,0.27423095703125,-1.095321655273438,0.1660614013671875,-1.975356578826904,0.2424326092004776,-1.151554346084595,82.29521179199219,13.35211181640625,1.3160400390625
43763,0.27423095703125,-1.095321655273438,0.1660614013671875,-1.975356578826904,0.2424326092004776,-1.151554346084595,82.29521179199219,13.35211181640625,1.3160400390625
43764,0.282867431640625,-1.032958984375,0.1514739990234375,-2.109133243560791,0.0887197479605674,-1.18732750415802,82.64552307128906,13.48832702636719,0.67022705078125
43765,0.3446044921875,-0.9538116455078124,0.1326904296875,-2.079418897628784,0.0169254541397094,-1.151979088783264,82.90907287597656,13.64784240722656,0.2177276611328125
43766,0.5069580078125,-0.981353759765625,0.1234130859375,-1.644845485687256,-0.1584503650665283,-0.6868801116943359,83.71527099609375,13.78413391113281,-1.161819458007812
43767,0.5069580078125,-0.981353759765625,0.1234130859375,-1.644845485687256,-0.1584503650665283,-0.6868801116943359,83.71527099609375,13.78413391113281,-1.161819458007812
43768,0.4185791015625,-0.9228668212890624,0.0920257568359375,-1.425322413444519,-0.1112455651164055,-0.688149094581604,84.06105041503906,13.84986877441406,-1.910018920898438
43769,0.388031005859375,-0.9270477294921876,0.0847930908203125,-1.371786832809448,-0.0354975387454032,-0.8513492345809937,84.28347778320312,13.92698669433594,-2.60552978515625
43770,0.44781494140625,-0.9382476806640624,0.1209259033203125,-1.674702167510986,0.4807485044002533,-0.9839423894882202,84.7239990234375,14.3663330078125,-3.663864135742188
43771,0.44781494140625,-0.9382476806640624,0.1209259033203125,-1.674702167510986,0.4807485044002533,-0.9839423894882202,84.7239990234375,14.3663330078125,-3.663864135742188
43772,0.4239654541015625,-0.9085693359375,0.0464630126953125,-1.674702167510986,0.4807485044002533,-0.9839423894882202,84.98756408691406,14.57598876953125,-4.054534912109375
43773,0.47003173828125,-0.931732177734375,0.0414581298828125,-1.722408771514893,0.6790525317192078,-0.8534839749336243,85.31117248535156,14.82063293457031,-4.518508911132812
43774,0.475433349609375,-0.8892059326171875,-0.04876708984375,-1.117339849472046,1.100478053092957,-1.051903605461121,85.80577087402344,15.14112854003906,-5.103363037109375
43775,0.475433349609375,-0.8892059326171875,-0.04876708984375,-1.117339849472046,1.100478053092957,-1.051903605461121,85.80577087402344,15.14112854003906,-5.103363037109375
43776,0.515380859375,-0.9048309326171876,-0.1217498779296875,-0.5501036047935486,1.040822148323059,-1.149756193161011,86.01531982421875,15.45707702636719,-5.409210205078125
43777,0.6063385009765625,-0.913543701171875,-0.1770477294921875,0.0819246917963028,1.035489201545715,-1.154967427253723,86.24922180175781,15.81585693359375,-5.516921997070312
43778,0.7148284912109375,-0.9337158203125,-0.1961212158203125,0.6803870797157288,1.009369254112244,-1.053183317184448,86.58030700683594,16.23622131347656,-5.157806396484375
43779,0.725128173828125,-0.932464599609375,-0.1875457763671875,1.130673289299011,0.8175364136695862,-0.8351438641548157,86.71739196777344,16.55503845214844,-4.806503295898438
43780,0.65545654296875,-0.8204498291015625,-0.030609130859375,1.426930546760559,0.7200183272361755,-0.7077776789665222,87.06195068359375,16.94699096679688,-4.353775024414062
43781,0.6014556884765625,-0.721710205078125,0.1109619140625,1.54185950756073,0.6488128900527954,-0.7591199278831482,87.26748657226562,17.30752563476562,-3.554931640625
43782,0.5928497314453125,-0.6855010986328125,0.14630126953125,1.52802836894989,0.6617241501808167,-0.8837156891822815,87.493408203125,17.69735717773438,-2.792449951171875
43783,0.613555908203125,-0.73272705078125,0.108795166015625,1.029772520065308,0.2290648818016052,-0.7808949947357178,87.65390014648438,17.99569702148438,-2.061126708984375
43784,0.6393585205078125,-0.7669525146484375,0.0603485107421875,0.8990895748138428,0.053515687584877,-0.5866333842277527,87.94488525390625,18.46879577636719,-1.523147583007812
43785,0.6213226318359375,-0.7224884033203125,-0.0164794921875,0.7865763306617737,0.1047863364219666,-0.5614433288574219,88.0872802734375,18.98941040039062,-1.054840087890625
43786,0.583160400390625,-0.67877197265625,0.0123138427734375,0.7865763306617737,0.1047863364219666,-0.5614433288574219,88.22779846191406,19.43115234375,-0.520599365234375
43787,0.560760498046875,-0.728759765625,-0.0160064697265625,0.6409128904342651,0.2256677448749542,-0.5122310519218445,88.37966918945312,19.740478515625,-0.2228546142578125
43788,0.53594970703125,-0.7684783935546875,-0.048095703125,0.4812726080417633,0.1692662537097931,-0.5287796854972839,88.45085144042969,19.99127197265625,0.0123443603515625
43789,0.4952545166015625,-0.8173980712890625,-0.016357421875,0.328456699848175,0.2031030505895615,-0.6023942232131958,88.52870178222656,20.32060241699219,0.2787628173828125
43790,0.544036865234375,-0.8460845947265625,-0.0733184814453125,-0.6397972702980042,0.4266194999217987,-0.131187841296196,88.94770812988281,20.98399353027344,0.802459716796875
43791,0.5148468017578125,-0.7269744873046875,-0.0746612548828125,-0.6397972702980042,0.4266194999217987,-0.131187841296196,89.11904907226562,21.16671752929688,0.8014373779296875
43792,0.5148468017578125,-0.7269744873046875,-0.0746612548828125,-0.6397972702980042,0.4266194999217987,-0.131187841296196,89.11904907226562,21.16671752929688,0.8014373779296875
43793,0.50714111328125,-0.6680755615234375,-0.12921142578125,-0.9213557243347168,0.5719559192657471,0.0540571101009845,89.15029907226562,21.41838073730469,0.661163330078125
43794,0.55963134765625,-0.7441864013671875,-0.1884307861328125,-2.220345735549927,-0.4829986095428467,1.099433541297913,89.10258483886719,21.36572265625,0.47064208984375
43795,0.55963134765625,-0.7441864013671875,-0.1884307861328125,-2.220345735549927,-0.4829986095428467,1.099433541297913,89.10258483886719,21.36572265625,0.47064208984375
43796,0.4971923828125,-0.75103759765625,-0.298919677734375,-2.220345735549927,-0.4829986095428467,1.099433541297913,89.01519775390625,21.030517578125,0.3717803955078125
43797,0.6155242919921875,-0.5290374755859375,0.140594482421875,-2.498711347579956,-0.5730968117713928,1.136128425598145,88.95445251464844,20.61827087402344,-0.1403961181640625
43798,0.657867431640625,-0.782470703125,-0.078582763671875,-1.37318229675293,0.6702877879142761,-0.9595305323600768,88.45790100097656,19.29475402832031,-1.736083984375
43799,0.657867431640625,-0.782470703125,-0.078582763671875,-1.37318229675293,0.6702877879142761,-0.9595305323600768,88.45790100097656,19.29475402832031,-1.736083984375
43800,0.5406036376953125,-0.69207763671875,-0.27490234375,-1.37318229675293,0.6702877879142761,-0.9595305323600768,88.32830810546875,19.03623962402344,-2.32720947265625
43801,0.5653076171875,-0.673431396484375,-0.3433837890625,-1.3995521068573,-0.1301516145467758,-1.072380423545837,88.38774108886719,19.0838623046875,-2.541046142578125
43802,0.553863525390625,-0.7772369384765625,-0.3015289306640625,-1.517064332962036,-1.342966556549072,-1.051280975341797,88.84904479980469,19.51531982421875,-3.057754516601562
43803,0.553863525390625,-0.7772369384765625,-0.3015289306640625,-1.517064332962036,-1.342966556549072,-1.051280975341797,88.84904479980469,19.51531982421875,-3.057754516601562
43804,0.4893341064453125,-0.8682403564453125,-0.3883209228515625,-2.456493854522705,-2.483248472213745,-0.7734506726264954,89.18753051757812,19.80276489257812,-3.749069213867188
43805,0.403900146484375,-0.885467529296875,-0.474365234375,-2.456493854522705,-2.483248472213745,-0.7734506726264954,89.58659362792969,20.09306335449219,-4.604568481445312
43806,0.4670257568359375,-0.6690673828125,-0.415435791015625,-4.02701997756958,-3.195268154144287,0.4592818319797516,90.2270965576172,20.38056945800781,-7.177719116210938
43807,0.4670257568359375,-0.6690673828125,-0.415435791015625,-4.02701997756958,-3.195268154144287,0.4592818319797516,90.2270965576172,20.38056945800781,-7.177719116210938
43808,0.5984344482421875,-0.7546844482421875,0.0737762451171875,-1.558119177818298,-0.373322457075119,0.2648963630199432,90.33001708984376,20.57212829589844,-9.295913696289062
43809,0.584991455078125,-0.7436370849609375,-0.0823516845703125,-1.558119177818298,-0.373322457075119,0.2648963630199432,90.25621032714844,20.63908386230469,-11.48664855957031
43810,0.520538330078125,-0.806549072265625,-0.4826507568359375,-0.9264748692512512,0.6378473043441772,-0.2901806831359863,89.81608581542969,20.38845825195312,-14.20167541503906
43811,0.520538330078125,-0.806549072265625,-0.4826507568359375,-0.9264748692512512,0.6378473043441772,-0.2901806831359863,89.81608581542969,20.38845825195312,-14.20167541503906
43812,0.5055389404296875,-0.823272705078125,-0.5600738525390625,-1.309109807014465,0.365478903055191,-0.2338148951530457,89.88410949707031,20.38172912597656,-14.70306396484375
43813,0.5764923095703125,-0.768707275390625,-0.5466461181640625,-1.532110691070557,0.1457207202911377,-0.1413464695215225,89.96994018554688,20.36097717285156,-14.75700378417969
43814,0.6845703125,-0.72113037109375,-0.37701416015625,-1.527176976203918,-0.3428502976894379,0.269200325012207,90.14222717285156,20.4791259765625,-15.18009948730469
43815,0.6845703125,-0.72113037109375,-0.37701416015625,-1.527176976203918,-0.3428502976894379,0.269200325012207,90.14222717285156,20.4791259765625,-15.18009948730469
43816,0.642547607421875,-0.7303924560546875,-0.356201171875,-0.8591607809066772,-0.2571231424808502,0.5512325167655945,90.17344665527344,20.63569641113281,-15.691162109375
43817,0.572540283203125,-0.7859954833984375,-0.360260009765625,-0.8591607809066772,-0.2571231424808502,0.5512325167655945,89.96263122558594,20.66165161132812,-16.11001586914062
43818,0.5009307861328125,-0.7636260986328125,-0.4003448486328125,-0.591544508934021,-0.1538236439228058,0.5928446650505066,89.96070861816406,20.52877807617188,-16.55838012695312
43819,0.4508209228515625,-0.7411041259765625,-0.529754638671875,-0.8411218523979187,-0.4226804077625275,0.6186155676841736,89.4781494140625,20.32090759277344,-17.32814025878906
43820,0.4508209228515625,-0.7411041259765625,-0.529754638671875,-0.8411218523979187,-0.4226804077625275,0.6186155676841736,89.4781494140625,20.32090759277344,-17.32814025878906
43821,0.4505462646484375,-0.70025634765625,-0.5187835693359375,-1.170796990394592,-0.7379643321037292,0.5301892757415771,89.28292846679688,20.08805847167969,-17.68167114257812
43822,0.576904296875,-0.69171142578125,-0.3863067626953125,-1.619869589805603,-0.8508296012878418,0.2534184157848358,88.94442749023438,19.63749694824219,-18.51333618164062
43823,0.576904296875,-0.69171142578125,-0.3863067626953125,-1.619869589805603,-0.8508296012878418,0.2534184157848358,88.94442749023438,19.63749694824219,-18.51333618164062
43824,0.649871826171875,-0.691131591796875,-0.398193359375,-2.305241346359253,-0.8612817525863647,0.1513080298900604,88.85438537597656,19.552490234375,-19.16928100585938
43825,0.6483306884765625,-0.673370361328125,-0.479644775390625,-2.305241346359253,-0.8612817525863647,0.1513080298900604,88.72477722167969,19.58293151855469,-19.92976379394531
43826,0.593475341796875,-0.7082977294921875,-0.680755615234375,-3.117812633514404,-1.503826379776001,0.0725186765193939,88.27149963378906,19.92263793945312,-21.70785522460938
43827,0.593475341796875,-0.7082977294921875,-0.680755615234375,-3.117812633514404,-1.503826379776001,0.0725186765193939,88.27149963378906,19.92263793945312,-21.70785522460938
43828,0.566741943359375,-0.7309417724609375,-0.6540069580078125,-3.308769464492798,-1.670892000198364,0.1118367835879326,88.19107055664062,20.24273681640625,-23.057861328125
43829,0.602325439453125,-0.7422943115234375,-0.733795166015625,-3.190262794494629,-1.737928867340088,0.0842219367623329,87.96214294433594,20.54301452636719,-24.32505798339844
43830,0.545928955078125,-0.5650482177734375,-0.6425323486328125,-1.755553364753723,-1.226441860198975,-0.2635312378406525,87.43159484863281,21.28269958496094,-27.31932067871094
43831,0.545928955078125,-0.5650482177734375,-0.6425323486328125,-1.755553364753723,-1.226441860198975,-0.2635312378406525,87.43159484863281,21.28269958496094,-27.31932067871094
43832,0.467041015625,-0.49871826171875,-0.6106414794921875,-1.755553364753723,-1.226441860198975,-0.2635312378406525,87.2066650390625,21.56755065917969,-28.64801025390625
43833,0.4259796142578125,-0.55224609375,-0.6383209228515625,-1.419581532478333,-1.211969971656799,-0.3603557944297791,86.97235107421875,21.97019958496094,-29.84715270996094
43834,0.4414825439453125,-0.5987548828125,-0.6461181640625,-0.6630914211273193,-0.9694385528564452,-0.2590656578540802,86.77706909179688,22.30967712402344,-30.90022277832031
43835,0.47406005859375,-0.590667724609375,-0.682342529296875,-0.3363135755062103,-0.996066153049469,-0.285306304693222,86.57208251953125,22.818359375,-31.94670104980469
43836,0.4774627685546875,-0.5384368896484375,-0.7725830078125,-0.1736623346805573,-1.243691444396973,-0.3898209929466248,86.38809204101562,23.16825866699219,-32.61793518066406
43837,0.468780517578125,-0.521453857421875,-0.793212890625,-0.157744362950325,-1.554241299629211,-0.456299364566803,86.23548889160156,23.48165893554688,-33.23410034179688
43838,0.523773193359375,-0.680694580078125,-0.6082611083984375,-0.2613288164138794,-1.682287931442261,-0.4096953868865967,86.00384521484375,23.715087890625,-33.8841552734375
43839,0.523773193359375,-0.680694580078125,-0.6082611083984375,-0.2613288164138794,-1.682287931442261,-0.4096953868865967,86.00384521484375,23.715087890625,-33.8841552734375
43840,0.5665435791015625,-0.756988525390625,-0.523193359375,-0.4065046310424805,-1.504127502441406,-0.2357395589351654,85.81178283691406,24.01593017578125,-34.49539184570312
43841,0.5770721435546875,-0.7432098388671875,-0.5614776611328125,-0.5366684794425964,-1.247331380844116,0.0744239017367363,85.62995910644531,24.31829833984375,-35.29319763183594
43842,0.5782318115234375,-0.7021331787109375,-0.6100311279296875,-0.653709352016449,-1.00718891620636,0.3930463492870331,85.33351135253906,24.53202819824219,-35.92845153808594
43843,0.542633056640625,-0.6622314453125,-0.6630706787109375,-0.6788703799247742,-0.907439112663269,0.6112732291221619,84.95594787597656,24.75627136230469,-36.64253234863281
43844,0.477203369140625,-0.5828857421875,-0.67449951171875,-0.672309398651123,-0.8749157786369324,0.6909052133560181,84.5435791015625,24.81803894042969,-37.36567687988281
43845,0.4273223876953125,-0.5228729248046875,-0.6786346435546875,-0.7576778531074524,-1.005044221878052,0.5215526819229126,84.20870971679688,24.83872985839844,-37.9307861328125
43846,0.3672332763671875,-0.5296478271484375,-0.6729583740234375,-0.7716469168663025,-1.046980738639832,0.4316877424716949,83.59376525878906,24.68385314941406,-38.74903869628906
43847,0.346832275390625,-0.5418701171875,-0.604888916015625,-0.7604840397834778,-0.759208083152771,0.4109342694282532,83.21139526367188,24.68833923339844,-39.19125366210938
43848,0.346832275390625,-0.5418701171875,-0.604888916015625,-0.7604840397834778,-0.759208083152771,0.4109342694282532,83.21139526367188,24.68833923339844,-39.19125366210938
43849,0.3287811279296875,-0.499969482421875,-0.6805572509765625,-0.7235691547393799,-0.4439817070960999,0.3858947157859802,82.62239074707031,24.80909729003906,-39.97779846191406
43850,0.2862548828125,-0.486480712890625,-0.77838134765625,-0.4852151572704315,-0.1053043156862259,0.3333598673343658,82.14614868164062,24.9268798828125,-40.56941223144531
43851,0.2862548828125,-0.486480712890625,-0.77838134765625,-0.4852151572704315,-0.1053043156862259,0.3333598673343658,82.14614868164062,24.9268798828125,-40.56941223144531
43852,0.2536773681640625,-0.473724365234375,-0.7809906005859375,-0.3811452090740204,0.0260443836450576,0.2990998923778534,81.95523071289062,25.0623779296875,-40.89732360839844
43853,0.2361907958984375,-0.463897705078125,-0.7991943359375,-0.3476240038871765,0.1282205581665039,0.2318430840969086,81.87028503417969,25.11479187011719,-41.12918090820312
43854,0.2366485595703125,-0.4474029541015625,-0.8887176513671875,-0.3758644461631775,-0.0341134965419769,0.0881298556923866,81.85969543457031,25.21441650390625,-41.35630798339844
43855,0.2403564453125,-0.4483489990234375,-0.8953094482421875,-0.3947100341320038,-0.2136390507221222,-0.0012825783342123,81.87289428710938,25.24224853515625,-41.44010925292969
43856,0.2403564453125,-0.4483489990234375,-0.8953094482421875,-0.3947100341320038,-0.2136390507221222,-0.0012825783342123,81.87289428710938,25.24224853515625,-41.44010925292969
43857,0.2424163818359375,-0.46307373046875,-0.885009765625,-0.3966743648052216,-0.3681740164756775,-0.0557229183614254,81.750732421875,25.39927673339844,-41.53857421875
43858,0.227935791015625,-0.4769744873046875,-0.853363037109375,-0.305891215801239,-0.5459898114204407,-0.0488487668335437,81.58526611328125,25.72616577148438,-42.11744689941406
43859,0.2165069580078125,-0.475189208984375,-0.82623291015625,-0.2373864501714706,-0.5257508754730225,-0.0527154095470905,81.44769287109375,25.87289428710938,-42.32672119140625
43860,0.2165069580078125,-0.475189208984375,-0.82623291015625,-0.2373864501714706,-0.5257508754730225,-0.0527154095470905,81.44769287109375,25.87289428710938,-42.32672119140625
43861,0.2002410888671875,-0.47808837890625,-0.8109130859375,-0.1844774335622787,-0.4665384292602539,-0.0674043372273445,81.35964965820312,26.003173828125,-42.57414245605469
43862,0.19232177734375,-0.477020263671875,-0.8641357421875,-0.4681866466999054,-0.6244335174560547,-0.2631991505622864,81.16935729980469,26.20162963867188,-42.9974365234375
43863,0.19232177734375,-0.477020263671875,-0.8641357421875,-0.4681866466999054,-0.6244335174560547,-0.2631991505622864,81.16935729980469,26.20162963867188,-42.9974365234375
43864,0.19091796875,-0.4931640625,-0.891510009765625,-0.4681866466999054,-0.6244335174560547,-0.2631991505622864,81.04869079589844,26.28569030761719,-43.12550354003906
43865,0.198822021484375,-0.502685546875,-0.90570068359375,-0.5743423700332642,-0.6684760451316833,-0.2679558098316193,80.92787170410156,26.50898742675781,-43.42497253417969
43866,0.212127685546875,-0.488555908203125,-0.9389801025390624,-0.2419154196977615,-0.2003048658370972,-0.2233907431364059,80.68891906738281,26.9061279296875,-43.94891357421875
43867,0.212127685546875,-0.488555908203125,-0.9389801025390624,-0.2419154196977615,-0.2003048658370972,-0.2233907431364059,80.68891906738281,26.9061279296875,-43.94891357421875
43868,0.208465576171875,-0.4583282470703125,-0.978057861328125,-0.2419154196977615,-0.2003048658370972,-0.2233907431364059,80.49404907226562,27.07670593261719,-44.01832580566406
43869,0.2105712890625,-0.444732666015625,-1.024612426757812,-0.0467757619917392,-0.1154962331056595,-0.243280291557312,80.56695556640625,27.24234008789062,-44.07942199707031
43870,0.231231689453125,-0.4443206787109375,-1.033096313476562,0.0732888579368591,-0.1274556964635849,-0.2660226225852966,80.61953735351562,27.19432067871094,-44.02821350097656
43871,0.231231689453125,-0.4443206787109375,-1.033096313476562,0.0732888579368591,-0.1274556964635849,-0.2660226225852966,80.61953735351562,27.19432067871094,-44.02821350097656
43872,0.308135986328125,-0.483734130859375,-1.05419921875,0.0361273773014545,-0.3611012101173401,-0.2562355101108551,80.83056640625,27.03947448730469,-43.31459045410156
43873,0.330718994140625,-0.4842987060546875,-1.06219482421875,-0.0240981448441743,-0.5591431856155396,-0.2049765884876251,81.00682067871094,26.80889892578125,-41.91050720214844
43874,0.3303070068359375,-0.463531494140625,-1.060333251953125,-0.0506016574800014,-0.7389523386955261,-0.1528617143630981,80.98170471191406,26.78074645996094,-41.38331604003906
43875,0.31390380859375,-0.4402313232421875,-1.030685424804688,-0.0130835780873894,-0.857313871383667,-0.1394092887639999,80.77357482910156,26.91790771484375,-41.85337829589844
43876,0.2980804443359375,-0.4322662353515625,-0.967803955078125,0.0639763176441192,-0.865459144115448,-0.1215133816003799,80.58387756347656,27.16398620605469,-42.52983093261719
43877,0.278594970703125,-0.4417724609375,-0.89349365234375,0.1352797895669937,-0.7328822016716003,-0.0973169654607772,80.22052001953125,27.40361022949219,-43.18765258789062
43878,0.271636962890625,-0.42919921875,-0.876861572265625,0.1213919445872307,-0.3809713125228882,-0.0525992959737777,79.66339111328125,27.55429077148438,-44.53839111328125
43879,0.271636962890625,-0.42919921875,-0.876861572265625,0.1213919445872307,-0.3809713125228882,-0.0525992959737777,79.66339111328125,27.55429077148438,-44.53839111328125
43880,0.2801361083984375,-0.4073486328125,-0.9280548095703124,0.0758702605962753,-0.309325635433197,-0.0436561331152916,79.53019714355469,27.53172302246094,-44.69674682617188
43881,0.294219970703125,-0.385284423828125,-0.9872283935546876,0.0573786050081253,-0.3789531588554382,-0.0532504394650459,79.37127685546875,27.59965515136719,-44.95887756347656
43882,0.3076934814453125,-0.375732421875,-1.012496948242188,0.0443173982203006,-0.5464503169059753,-0.0681289881467819,79.11820983886719,27.72193908691406,-45.41899108886719
43883,0.31170654296875,-0.3639678955078125,-1.006622314453125,0.0467264913022518,-0.7403278946876526,-0.0877500921487808,79.01689147949219,27.88758850097656,-45.59451293945312
43884,0.3096771240234375,-0.353302001953125,-0.9893951416015624,0.0592010058462619,-0.9207780957221984,-0.1000054255127907,79.05961608886719,27.46119689941406,-44.53167724609375
43885,0.30657958984375,-0.3515167236328125,-0.958709716796875,0.0925288647413253,-1.064178347587585,-0.0950261130928993,79.06488037109375,26.95233154296875,-43.04623413085938
43886,0.3014678955078125,-0.39111328125,-0.8711700439453125,0.2487821280956268,-1.143669724464417,-0.0290164705365896,78.30149841308594,27.14071655273438,-44.4874267578125
43887,0.3014678955078125,-0.39111328125,-0.8711700439453125,0.2487821280956268,-1.143669724464417,-0.0290164705365896,78.30149841308594,27.14071655273438,-44.4874267578125
43888,0.29931640625,-0.408935546875,-0.8510589599609375,0.2740176916122437,-1.128644943237305,0.0405940301716327,78.03831481933594,26.99952697753906,-44.06048583984375
43889,0.298248291015625,-0.4124755859375,-0.8754730224609375,0.2297927141189575,-1.198582053184509,0.1016707047820091,77.81793212890625,26.67240905761719,-43.48382568359375
43890,0.253875732421875,-0.393157958984375,-0.8444061279296875,0.0005635248962789,-1.543209195137024,0.1429150700569153,76.83804321289062,26.60313415527344,-44.29049682617188
43891,0.253875732421875,-0.393157958984375,-0.8444061279296875,0.0005635248962789,-1.543209195137024,0.1429150700569153,76.83804321289062,26.60313415527344,-44.29049682617188
43892,0.1680755615234375,-0.3631744384765625,-0.800750732421875,-0.2341334074735641,-1.489199757575989,0.1061248406767845,75.78593444824219,26.71296691894531,-45.94984436035156
43893,0.1680755615234375,-0.3631744384765625,-0.800750732421875,-0.2341334074735641,-1.489199757575989,0.1061248406767845,75.78593444824219,26.71296691894531,-45.94984436035156
43894,0.1360931396484375,-0.3527069091796875,-0.8665618896484375,-0.1727781742811203,-1.292253136634827,0.0299464464187622,74.8349609375,26.78427124023438,-46.38296508789062
43895,0.1360931396484375,-0.3527069091796875,-0.8665618896484375,-0.1727781742811203,-1.292253136634827,0.0299464464187622,74.8349609375,26.78427124023438,-46.38296508789062
43896,0.12957763671875,-0.3559722900390625,-0.8497161865234375,-0.115241102874279,-1.170936584472656,0.0115964682772755,74.32545471191406,26.82991027832031,-46.75567626953125
43897,0.11871337890625,-0.3684844970703125,-0.8489837646484375,-0.0804706066846847,-1.016036748886108,0.0252137444913387,73.7867431640625,26.93397521972656,-47.35226440429688
43898,0.0699920654296875,-0.342681884765625,-0.8546142578125,-0.065721221268177,-0.8417245745658875,0.0449549593031406,72.97074890136719,27.04632568359375,-48.12605285644531
43899,0.0699920654296875,-0.342681884765625,-0.8546142578125,-0.065721221268177,-0.8417245745658875,0.0449549593031406,72.97074890136719,27.04632568359375,-48.12605285644531
43900,0.05645751953125,-0.331573486328125,-0.883056640625,-0.1783569604158401,-0.8115831613540649,0.0169169325381517,72.69371032714844,26.8743896484375,-47.74739074707031
43901,0.0479888916015625,-0.3150634765625,-0.95660400390625,-0.3654240369796753,-0.911702573299408,-0.0148029141128063,72.36766052246094,26.699462890625,-47.71739196777344
43902,0.0529022216796875,-0.3055267333984375,-0.9781341552734376,-0.6389309763908386,-1.206716060638428,-0.1514656841754913,71.69366455078125,27.21751403808594,-49.19248962402344
43903,0.0529022216796875,-0.3055267333984375,-0.9781341552734376,-0.6389309763908386,-1.206716060638428,-0.1514656841754913,71.69366455078125,27.21751403808594,-49.19248962402344
43904,0.045684814453125,-0.3393707275390625,-0.944061279296875,-0.6270670890808105,-1.124289393424988,-0.1701022237539291,71.36070251464844,27.27326965332031,-48.90834045410156
43905,0.034698486328125,-0.3547210693359375,-0.886322021484375,-0.4626254439353943,-0.8747120499610901,-0.1389349848031998,71.12684631347656,27.08609008789062,-48.00233459472656
43906,0.0138092041015625,-0.337371826171875,-0.8358154296875,-0.0571128204464912,-0.0923038274049758,-0.0450239330530166,70.68545532226562,27.20928955078125,-47.23324584960938
43907,0.0138092041015625,-0.337371826171875,-0.8358154296875,-0.0571128204464912,-0.0923038274049758,-0.0450239330530166,70.68545532226562,27.20928955078125,-47.23324584960938
43908,0.01513671875,-0.320831298828125,-0.8842620849609375,0.030972296372056,0.1458757072687149,-0.0298305992037057,70.42283630371094,27.3826904296875,-47.94744873046875
43909,0.0161590576171875,-0.3070068359375,-0.9086151123046876,0.0363012813031673,0.2064564973115921,-0.0335390530526638,70.38198852539062,27.62808227539062,-48.260498046875
43910,0.0313568115234375,-0.304046630859375,-0.924774169921875,-0.0324479527771472,0.2582179605960846,-0.0439765118062496,70.52874755859375,27.56275939941406,-47.4525146484375
43911,0.0313568115234375,-0.304046630859375,-0.924774169921875,-0.0324479527771472,0.2582179605960846,-0.0439765118062496,70.52874755859375,27.56275939941406,-47.4525146484375
43912,0.04254150390625,-0.32183837890625,-0.9396514892578124,0.0191414710134267,0.2489826530218124,-0.0265980549156665,70.71224975585938,27.39024353027344,-47.25599670410156
43913,0.04498291015625,-0.3325347900390625,-0.90606689453125,0.1471090167760849,0.2259308695793152,0.0095599489286541,70.87330627441406,27.35191345214844,-47.04985046386719
43914,-0.037109375,-0.3441009521484375,-0.7082977294921875,0.4175551533699036,0.7239140272140503,0.0529484339058399,70.84844970703125,27.78134155273438,-49.1485595703125
43915,-0.037109375,-0.3441009521484375,-0.7082977294921875,0.4175551533699036,0.7239140272140503,0.0529484339058399,70.84844970703125,27.78134155273438,-49.1485595703125
43916,-0.037109375,-0.3441009521484375,-0.7082977294921875,0.4175551533699036,0.7239140272140503,0.0529484339058399,70.84844970703125,27.78134155273438,-49.1485595703125
43917,-0.046539306640625,-0.3530426025390625,-0.6824951171875,0.3863599598407745,1.024884819984436,0.0121171167120337,70.95863342285156,27.64932250976562,-49.15742492675781
43918,0.0249481201171875,-0.3896484375,-0.7917633056640625,0.1924591958522797,1.476775527000427,0.0051260525360703,71.64840698242188,27.38436889648438,-48.86976623535156
43919,0.0249481201171875,-0.3896484375,-0.7917633056640625,0.1924591958522797,1.476775527000427,0.0051260525360703,71.64840698242188,27.38436889648438,-48.86976623535156
43920,0.050262451171875,-0.3872833251953125,-0.8739013671875,0.120733343064785,1.481958627700806,0.0423935279250145,72.0255126953125,27.2689208984375,-48.5826416015625
43921,0.0559539794921875,-0.3651580810546875,-0.9449462890625,0.0969017818570137,1.344656348228455,0.0661401376128196,72.52806091308594,27.08984375,-48.17819213867188
43922,0.049957275390625,-0.3343505859375,-0.98992919921875,0.1187908351421356,0.7710133790969849,-0.0360173881053924,73.488037109375,27.10694885253906,-47.78898620605469
43923,0.049957275390625,-0.3343505859375,-0.98992919921875,0.1187908351421356,0.7710133790969849,-0.0360173881053924,73.488037109375,27.10694885253906,-47.78898620605469
43924,0.053985595703125,-0.343475341796875,-0.95660400390625,0.0933541804552078,0.5091404914855957,-0.1010645627975464,73.80615234375,27.11508178710938,-47.52729797363281
43925,0.0531005859375,-0.3595428466796875,-0.8876495361328125,0.0594787746667861,0.385841429233551,-0.1352158784866333,74.18426513671875,27.13623046875,-47.41737365722656
43926,0.074249267578125,-0.356475830078125,-0.83563232421875,0.1508619487285614,0.7766592502593994,-0.152556523680687,74.67085266113281,27.15159606933594,-47.24310302734375
43927,0.074249267578125,-0.356475830078125,-0.83563232421875,0.1508619487285614,0.7766592502593994,-0.152556523680687,74.67085266113281,27.15159606933594,-47.24310302734375
43928,0.074249267578125,-0.356475830078125,-0.83563232421875,0.1508619487285614,0.7766592502593994,-0.152556523680687,74.67085266113281,27.15159606933594,-47.24310302734375
43929,0.086395263671875,-0.3562469482421875,-0.849609375,0.2735260725021362,0.9192198514938354,-0.1502454280853271,74.92286682128906,27.08328247070312,-47.08616638183594
43930,0.1714935302734375,-0.3785858154296875,-0.9377899169921876,0.2912733852863312,0.6407762765884399,-0.1957489997148514,75.87518310546875,27.03042602539062,-46.50801086425781
43931,0.1714935302734375,-0.3785858154296875,-0.9377899169921876,0.2912733852863312,0.6407762765884399,-0.1957489997148514,75.87518310546875,27.03042602539062,-46.50801086425781
43932,0.1714935302734375,-0.3785858154296875,-0.9377899169921876,0.2912733852863312,0.6407762765884399,-0.1957489997148514,75.87518310546875,27.03042602539062,-46.50801086425781
43933,0.18353271484375,-0.3906402587890625,-0.92840576171875,0.1774842441082001,0.3550230860710144,-0.2080274969339371,76.2535400390625,26.94381713867188,-46.21505737304688
43934,0.1852264404296875,-0.41278076171875,-0.8378143310546875,-0.0436412207782268,-0.0043851612135767,-0.2324657291173935,76.51760864257812,26.94444274902344,-45.89141845703125
43935,0.1852264404296875,-0.41278076171875,-0.8378143310546875,-0.0436412207782268,-0.0043851612135767,-0.2324657291173935,76.51760864257812,26.94444274902344,-45.89141845703125
43936,0.193023681640625,-0.42303466796875,-0.806976318359375,-0.1084865257143974,-0.0246089398860931,-0.2234506607055664,76.59507751464844,27.14424133300781,-46.19871520996094
43937,0.2089385986328125,-0.4261016845703125,-0.8050689697265625,-0.1391509622335434,-0.0379870645701885,-0.2107018530368805,76.55818176269531,27.23222351074219,-46.22579956054688
43938,0.230133056640625,-0.4423980712890625,-0.798065185546875,-0.2362876385450363,-0.1564109176397324,-0.1412982642650604,76.66105651855469,27.47050476074219,-46.21224975585938
43939,0.230133056640625,-0.4423980712890625,-0.798065185546875,-0.2362876385450363,-0.1564109176397324,-0.1412982642650604,76.66105651855469,27.47050476074219,-46.21224975585938
43940,0.2354736328125,-0.4303436279296875,-0.8090972900390625,-0.3531056046485901,-0.2637331187725067,-0.121936023235321,76.64495849609375,27.57342529296875,-46.19001770019531
43941,0.2465057373046875,-0.4272308349609375,-0.82843017578125,-0.5003001093864441,-0.3568673133850098,-0.104157030582428,76.63179016113281,27.65028381347656,-45.97140502929688
43942,0.252471923828125,-0.400970458984375,-0.9261016845703124,-0.6452801823616028,-0.5886406302452087,-0.0424073785543441,76.56529235839844,27.98146057128906,-46.39991760253906
43943,0.252471923828125,-0.400970458984375,-0.9261016845703124,-0.6452801823616028,-0.5886406302452087,-0.0424073785543441,76.56529235839844,27.98146057128906,-46.39991760253906
43944,0.24859619140625,-0.39300537109375,-0.9630126953125,-0.6223253607749939,-0.775570809841156,-0.0275352206081152,76.3134765625,28.14389038085938,-46.36961364746094
43945,0.2458648681640625,-0.3910675048828125,-0.9736785888671876,-0.6109829545021057,-1.003497719764709,-0.0091468933969736,76.254150390625,28.1385498046875,-45.72209167480469
43946,0.1521759033203125,-0.3794403076171875,-0.9357147216796876,-0.873820424079895,-1.354755401611328,0.1741576790809631,74.84593200683594,28.87762451171875,-47.39933776855469
43947,0.1521759033203125,-0.3794403076171875,-0.9357147216796876,-0.873820424079895,-1.354755401611328,0.1741576790809631,74.84593200683594,28.87762451171875,-47.39933776855469
43948,0.1521759033203125,-0.3794403076171875,-0.9357147216796876,-0.873820424079895,-1.354755401611328,0.1741576790809631,74.84593200683594,28.87762451171875,-47.39933776855469
43949,0.1521759033203125,-0.3794403076171875,-0.9357147216796876,-0.873820424079895,-1.354755401611328,0.1741576790809631,74.84593200683594,28.87762451171875,-47.39933776855469
43950,0.0879669189453125,-0.33795166015625,-1.021652221679688,-0.8467946648597717,-1.391695857048035,0.2203062772750854,73.70957946777344,29.64218139648438,-49.05531311035156
43951,0.0879669189453125,-0.33795166015625,-1.021652221679688,-0.8467946648597717,-1.391695857048035,0.2203062772750854,73.70957946777344,29.64218139648438,-49.05531311035156
43952,0.06158447265625,-0.3231353759765625,-1.047012329101562,-0.7552064061164856,-1.429578185081482,0.2191291600465775,73.09101867675781,29.97843933105469,-49.72407531738281
43953,0.037872314453125,-0.3028411865234375,-1.043502807617188,-0.6644091606140137,-1.484719276428223,0.2010079473257065,72.48170471191406,30.35404968261719,-50.11325073242188
43954,-0.005096435546875,-0.2725830078125,-0.9527587890625,-0.5273527503013611,-1.296407103538513,0.1447875499725342,71.2781982421875,30.9412841796875,-51.0997314453125
43955,-0.005096435546875,-0.2725830078125,-0.9527587890625,-0.5273527503013611,-1.296407103538513,0.1447875499725342,71.2781982421875,30.9412841796875,-51.0997314453125
43956,-0.01214599609375,-0.2761077880859375,-0.960418701171875,-0.4669458866119385,-1.094740271568298,0.1265254467725754,70.66748046875,31.14842224121094,-51.36509704589844
43957,-0.014923095703125,-0.271392822265625,-0.967620849609375,-0.3966336250305176,-0.9127952456474304,0.130007266998291,70.16532897949219,31.33193969726562,-51.68576049804688
43958,-0.042144775390625,-0.2730255126953125,-0.9564056396484376,-0.1700090169906616,-0.469112902879715,0.1374015361070633,69.41633605957031,31.48614501953125,-52.06105041503906
43959,-0.042144775390625,-0.2730255126953125,-0.9564056396484376,-0.1700090169906616,-0.469112902879715,0.1374015361070633,69.41633605957031,31.48614501953125,-52.06105041503906
43960,-0.0491790771484375,-0.2649688720703125,-0.9639434814453124,-0.0424973927438259,-0.2620555758476257,0.1175460740923882,69.02864074707031,31.62997436523438,-52.32675170898438
43961,-0.0482940673828125,-0.2575836181640625,-0.9674835205078124,0.0531473755836486,-0.113644540309906,0.0748385563492775,68.69113159179688,31.63470458984375,-52.49095153808594
43962,-0.038482666015625,-0.2625732421875,-0.966552734375,0.1202678233385086,-0.0098347878083586,0.0297797340899705,68.62977600097656,31.60659790039062,-52.54740905761719
43963,-0.0217437744140625,-0.2732086181640625,-0.972015380859375,0.158081516623497,0.0373899824917316,-0.0079500684514641,68.4822998046875,31.60911560058594,-52.62455749511719
43964,-0.0074310302734375,-0.28863525390625,-0.963348388671875,0.1810395568609238,0.0334751345217227,-0.0366629399359226,68.48292541503906,31.56117248535156,-52.35025024414062
43965,0.0,-0.302490234375,-0.93231201171875,0.1955817490816116,0.0222541727125644,-0.049214418977499,68.53916931152344,31.43232727050781,-51.79632568359375
43966,0.001678466796875,-0.325897216796875,-0.8537750244140625,0.1324011832475662,0.1056015267968178,-0.0324125327169895,68.70843505859375,31.19972229003906,-51.20356750488281
43967,0.001678466796875,-0.325897216796875,-0.8537750244140625,0.1324011832475662,0.1056015267968178,-0.0324125327169895,68.70843505859375,31.19972229003906,-51.20356750488281
43968,0.006317138671875,-0.34185791015625,-0.8345184326171875,0.0819135084748268,0.2377901971340179,-0.0063662864267826,68.58305358886719,31.41297912597656,-52.26304626464844
43969,0.0155029296875,-0.358734130859375,-0.8479461669921875,0.0380656272172927,0.3839695155620575,0.0449019595980644,68.64442443847656,31.347412109375,-52.29464721679688
43970,0.025146484375,-0.3660125732421875,-0.946075439453125,0.0511321611702442,0.4769407212734222,0.1612216532230377,68.80319213867188,31.31826782226562,-52.03408813476562
43971,0.025146484375,-0.3660125732421875,-0.946075439453125,0.0511321611702442,0.4769407212734222,0.1612216532230377,68.80319213867188,31.31826782226562,-52.03408813476562
43972,0.015838623046875,-0.357940673828125,-0.96380615234375,0.0704597830772399,0.3842946887016296,0.1994758248329163,69.10781860351562,31.02322387695312,-51.45343017578125
43973,-0.0062713623046875,-0.33441162109375,-0.9485015869140624,0.0637819096446037,0.2985211908817291,0.2127213180065155,69.33544921875,30.83834838867188,-50.65447998046875
43974,-0.05218505859375,-0.2995452880859375,-0.881561279296875,0.0409735329449176,0.2789389491081238,0.1357442438602448,69.38597106933594,31.11700439453125,-51.82423400878906
43975,-0.05218505859375,-0.2995452880859375,-0.881561279296875,0.0409735329449176,0.2789389491081238,0.1357442438602448,69.38597106933594,31.11700439453125,-51.82423400878906
43976,-0.0581817626953125,-0.3072052001953125,-0.8518829345703125,0.0457903929054737,0.3786996304988861,0.0738627687096595,69.42660522460938,31.00555419921875,-51.77049255371094
43977,-0.0440673828125,-0.3361358642578125,-0.8468475341796875,0.0478713847696781,0.5189344882965088,0.0180815327912569,69.56497192382812,30.87858581542969,-51.51727294921875
43978,0.02801513671875,-0.4408111572265625,-0.9493408203125,-0.0393037311732769,0.6409506797790527,0.046754989773035,70.25318908691406,30.46705627441406,-50.44241333007812
43979,0.02801513671875,-0.4408111572265625,-0.9493408203125,-0.0393037311732769,0.6409506797790527,0.046754989773035,70.25318908691406,30.46705627441406,-50.44241333007812
43980,0.02801513671875,-0.4408111572265625,-0.9493408203125,-0.0393037311732769,0.6409506797790527,0.046754989773035,70.25318908691406,30.46705627441406,-50.44241333007812
43981,0.02447509765625,-0.457763671875,-0.9572296142578124,-0.0837958306074142,0.5709875822067261,0.087909884750843,70.5006103515625,30.22160339355469,-49.55879211425781
43982,-0.001983642578125,-0.428680419921875,-0.942535400390625,-0.0941291600465774,0.5108198523521423,0.1158240735530853,70.77407836914062,30.80697631835938,-50.465087890625
43983,-0.0079193115234375,-0.4128875732421875,-0.9345703125,-0.077150709927082,0.5592318773269653,0.0875551477074623,70.85690307617188,31.09074401855469,-51.26092529296875
43984,-0.0079193115234375,-0.4128875732421875,-0.9345703125,-0.077150709927082,0.5592318773269653,0.0875551477074623,70.85690307617188,31.09074401855469,-51.26092529296875
43985,-0.0025482177734375,-0.405731201171875,-0.9597015380859376,-0.1007468476891518,0.6527077555656433,0.0636133328080177,70.94621276855469,31.31443786621094,-51.983642578125
43986,0.00726318359375,-0.38812255859375,-1.032791137695312,-0.1165958568453789,0.700322151184082,0.0471715070307254,71.15415954589844,31.19570922851562,-51.79647827148438
43987,0.0068817138671875,-0.3501434326171875,-1.116378784179688,-0.0726321265101432,0.5919775366783142,0.0067708208225667,71.35389709472656,31.18998718261719,-51.92987060546875
43988,-0.0012969970703125,-0.30267333984375,-1.155792236328125,0.0156244998797774,0.4018185436725616,-0.0837550833821296,71.54792785644531,31.38327026367188,-51.99127197265625
43989,-7.62939453125e-05,-0.2816314697265625,-1.139404296875,0.1377940773963928,0.1973716616630554,-0.243858203291893,71.74957275390625,31.40202331542969,-51.91297912597656
43990,0.0074462890625,-0.3081512451171875,-1.03582763671875,0.3688267767429352,0.1756506562232971,-0.4301223456859589,72.10777282714844,31.47297668457031,-51.53504943847656
43991,0.0074462890625,-0.3081512451171875,-1.03582763671875,0.3688267767429352,0.1756506562232971,-0.4301223456859589,72.10777282714844,31.47297668457031,-51.53504943847656
43992,0.010162353515625,-0.2986602783203125,-1.016677856445312,0.4344188272953033,0.3029148578643799,-0.4580325484275818,72.22975158691406,31.33453369140625,-51.17874145507812
43993,0.0185699462890625,-0.2764892578125,-1.032394409179688,0.4655565023422241,0.4237645864486694,-0.4809035062789917,72.32633972167969,31.28659057617188,-50.87019348144531
43994,0.0442352294921875,-0.23809814453125,-1.06500244140625,0.4703182280063629,0.4342955350875854,-0.5402059555053711,72.68211364746094,31.21275329589844,-51.33476257324219
43995,0.0442352294921875,-0.23809814453125,-1.06500244140625,0.4703182280063629,0.4342955350875854,-0.5402059555053711,72.68211364746094,31.21275329589844,-51.33476257324219
43996,0.0504150390625,-0.23089599609375,-1.068252563476562,0.4619314074516296,0.3580092787742615,-0.580704391002655,72.7989501953125,31.20834350585938,-51.40245056152344
43997,0.0441436767578125,-0.201751708984375,-1.0648193359375,0.4472536742687225,0.188586950302124,-0.5873521566390991,73.08966064453125,31.11677551269531,-51.28219604492188
43998,0.0722198486328125,-0.193450927734375,-0.963104248046875,0.3686033189296722,-0.09208545088768,-0.7559784650802612,73.4676513671875,30.91856384277344,-50.850341796875
43999,0.0722198486328125,-0.193450927734375,-0.963104248046875,0.3686033189296722,-0.09208545088768,-0.7559784650802612,73.4676513671875,30.91856384277344,-50.850341796875
44000,0.1064453125,-0.241058349609375,-0.946929931640625,0.3081769943237305,-0.1231533586978912,-0.757037878036499,73.49485778808594,31.01434326171875,-51.01226806640625
44001,0.1459197998046875,-0.2761383056640625,-0.94451904296875,0.2502582967281342,-0.1521152257919312,-0.6840276122093201,73.64004516601562,31.09341430664062,-51.18592834472656
44002,0.1730804443359375,-0.2889556884765625,-0.9569549560546876,0.1212281584739685,-0.3645851612091064,-0.4713467657566071,73.65980529785156,31.33309936523438,-51.32723999023438
44003,0.1730804443359375,-0.2889556884765625,-0.9569549560546876,0.1212281584739685,-0.3645851612091064,-0.4713467657566071,73.65980529785156,31.33309936523438,-51.32723999023438
44004,0.1716156005859375,-0.27410888671875,-0.937774658203125,0.0561330430209636,-0.5100778937339783,-0.3890380263328552,73.58056640625,31.37506103515625,-51.39430236816406
44005,0.1705780029296875,-0.2824859619140625,-0.9086151123046876,0.0046645267866551,-0.638009250164032,-0.36226686835289,73.57754516601562,31.32200622558594,-51.35841369628906
44006,0.166229248046875,-0.3267669677734375,-0.8624267578125,-0.0326761864125728,-0.6865695714950562,-0.3194445669651031,73.57954406738281,31.32223510742188,-51.41511535644531
44007,0.152679443359375,-0.379547119140625,-0.804229736328125,-0.0529260635375976,-0.600726306438446,-0.2231617122888565,73.41464233398438,31.34683227539062,-51.54145812988281
44008,0.1494598388671875,-0.3965606689453125,-0.779571533203125,-0.08186636865139,-0.3519391417503357,-0.0932423323392868,73.28266906738281,31.27989196777344,-51.68008422851562
44009,0.1560211181640625,-0.368865966796875,-0.81378173828125,-0.069001168012619,-0.1327947974205017,0.015073224902153,73.12811279296875,31.32774353027344,-51.67399597167969
44010,0.1569366455078125,-0.3272552490234375,-0.9067840576171876,-0.0496320016682148,-0.0340980477631092,0.1102370247244835,73.03012084960938,31.56742858886719,-51.80091857910156
44011,0.1569366455078125,-0.3272552490234375,-0.9067840576171876,-0.0496320016682148,-0.0340980477631092,0.1102370247244835,73.03012084960938,31.56742858886719,-51.80091857910156
44012,0.1488037109375,-0.3166961669921875,-0.913238525390625,-0.046454582363367,-0.0603309832513332,0.1523605138063431,72.90925598144531,31.60481262207031,-51.92805480957031
44013,0.1419677734375,-0.3056793212890625,-0.9003448486328125,-0.0492506362497806,-0.0476743131875991,0.1602685004472733,72.97622680664062,31.65988159179688,-52.00126647949219
44014,0.1454620361328125,-0.2797698974609375,-0.9172821044921876,-0.0011792477453127,0.0518847703933715,0.1271531581878662,73.17118835449219,31.03097534179688,-50.27635192871094
44015,0.1454620361328125,-0.2797698974609375,-0.9172821044921876,-0.0011792477453127,0.0518847703933715,0.1271531581878662,73.17118835449219,31.03097534179688,-50.27635192871094
44016,0.1454620361328125,-0.2797698974609375,-0.9172821044921876,-0.0011792477453127,0.0518847703933715,0.1271531581878662,73.17118835449219,31.03097534179688,-50.27635192871094
44017,0.1432952880859375,-0.2952880859375,-0.9272003173828124,-0.0119402827695012,0.0110771525651216,0.1052273511886597,73.30537414550781,30.85798645019531,-49.94862365722656
44018,0.1224822998046875,-0.3029632568359375,-0.9440460205078124,-0.1191498264670372,-0.1009242162108421,0.1137625202536583,73.28204345703125,31.01824951171875,-50.79074096679688
44019,0.1224822998046875,-0.3029632568359375,-0.9440460205078124,-0.1191498264670372,-0.1009242162108421,0.1137625202536583,73.28204345703125,31.01824951171875,-50.79074096679688
44020,0.10723876953125,-0.29425048828125,-0.943939208984375,-0.1536340266466141,-0.1475244760513306,0.1035213321447372,73.06698608398438,31.33613586425781,-51.67034912109375
44021,0.0930633544921875,-0.28741455078125,-0.9330596923828124,-0.1632195562124252,-0.1465247273445129,0.0816117748618125,72.87654113769531,31.41111755371094,-51.891845703125
44022,0.0896453857421875,-0.2952728271484375,-0.9433441162109376,-0.1305305808782578,-0.0321845673024654,0.0286910329014062,72.80839538574219,31.44924926757812,-51.86581420898438
44023,0.0896453857421875,-0.2952728271484375,-0.9433441162109376,-0.1305305808782578,-0.0321845673024654,0.0286910329014062,72.80839538574219,31.44924926757812,-51.86581420898438
44024,0.1096343994140625,-0.3003082275390625,-0.980865478515625,-0.101333811879158,-0.036842968314886,0.0262534413486719,72.8489990234375,31.5087890625,-51.92317199707031
44025,0.1155853271484375,-0.3024749755859375,-0.99273681640625,-0.0510192401707172,-0.1083038374781609,0.0333566255867481,72.70671081542969,31.78280639648438,-52.13206481933594
44026,0.0932464599609375,-0.3025360107421875,-0.954376220703125,0.0250736605376005,-0.1809096038341522,0.0334735363721847,72.68922424316406,31.82843017578125,-52.16024780273438
44027,0.0932464599609375,-0.3025360107421875,-0.954376220703125,0.0250736605376005,-0.1809096038341522,0.0334735363721847,72.68922424316406,31.82843017578125,-52.16024780273438
44028,0.0786590576171875,-0.296844482421875,-0.93212890625,0.0469523295760154,-0.1339940130710602,0.0257431808859109,72.56777954101562,31.73820495605469,-52.16459655761719
44029,0.0764923095703125,-0.3031158447265625,-0.914794921875,0.0670946165919303,0.0158932134509086,-0.0249010883271694,72.50958251953125,31.61279296875,-52.06271362304688
44030,0.0764923095703125,-0.3031158447265625,-0.914794921875,0.0670946165919303,0.0158932134509086,-0.0249010883271694,72.50958251953125,31.61279296875,-52.06271362304688
44031,0.0956573486328125,-0.3216705322265625,-0.9375152587890624,0.0433003343641758,0.0409074872732162,-0.0266795475035905,72.47367858886719,31.65756225585938,-52.21133422851562
44032,0.1148681640625,-0.3388519287109375,-0.9596405029296876,0.0109280152246356,-0.0084400903433561,-0.0077181071974337,72.48439025878906,31.68873596191406,-52.2874755859375
44033,0.12005615234375,-0.3475799560546875,-0.946685791015625,-0.0894414633512496,-0.1674779504537582,0.0727325230836868,72.50138854980469,31.69129943847656,-52.07548522949219
44034,0.057708740234375,-0.2999725341796875,-0.907958984375,0.023182550445199,0.023207850754261,0.1089408621191978,72.10868835449219,31.89314270019531,-52.37535095214844
44035,0.057708740234375,-0.2999725341796875,-0.907958984375,0.023182550445199,0.023207850754261,0.1089408621191978,72.10868835449219,31.89314270019531,-52.37535095214844
44036,0.057708740234375,-0.2999725341796875,-0.907958984375,0.023182550445199,0.023207850754261,0.1089408621191978,72.10868835449219,31.89314270019531,-52.37535095214844
44037,0.05975341796875,-0.3018951416015625,-0.9083709716796876,0.0666282922029495,0.0504067130386829,0.0803590193390846,72.107421875,31.8485107421875,-52.41105651855469
44038,0.0649871826171875,-0.31121826171875,-0.9044036865234376,0.0514570660889148,0.0380014441907405,0.0541668310761451,72.13374328613281,31.83622741699219,-52.48188781738281
44039,0.0707244873046875,-0.3206024169921875,-0.8944854736328125,0.004563592839986,-0.0076488647609949,0.0296303294599056,72.1708984375,31.83869934082031,-52.37783813476562
44040,0.088836669921875,-0.3392791748046875,-0.8814697265625,-0.1351575553417206,-0.0607538931071758,0.0401338376104831,72.22805786132812,31.83912658691406,-52.47917175292969
44041,0.088836669921875,-0.3392791748046875,-0.8814697265625,-0.1351575553417206,-0.0607538931071758,0.0401338376104831,72.22805786132812,31.83912658691406,-52.47917175292969
44042,0.0969696044921875,-0.3248291015625,-0.881103515625,-0.1976150721311569,-0.0438694544136524,0.0780420675873756,72.20486450195312,31.79939270019531,-52.46099853515625
44043,0.190521240234375,-0.340362548828125,-0.9685211181640624,-0.1955836117267609,-0.0313398130238056,0.1301372349262238,72.21083068847656,31.88395690917969,-52.36259460449219
44044,0.1713409423828125,-0.364990234375,-1.024490356445312,-0.1227091401815414,-0.1118929758667946,0.2292811274528503,72.22276306152344,31.93238830566406,-52.39573669433594
44045,0.1656646728515625,-0.317840576171875,-1.0604248046875,-0.069305308163166,-0.2636068761348724,0.2622726261615753,72.07783508300781,31.91374206542969,-52.50857543945312
44046,0.0681915283203125,-0.295440673828125,-1.073272705078125,-0.054029680788517,-0.5317009091377258,0.2210117429494858,72.00379943847656,31.94622802734375,-52.455078125
44047,-0.070556640625,-0.2393646240234375,-0.9950103759765624,-0.0819542557001113,-0.4454858601093292,0.1211557164788246,71.812744140625,31.88768005371094,-52.30479431152344
44048,-0.013153076171875,-0.3428955078125,-0.8701019287109375,0.374034583568573,0.2785168588161469,-0.0310822855681181,71.34541320800781,31.83277893066406,-52.7259521484375
44049,-0.013153076171875,-0.3428955078125,-0.8701019287109375,0.374034583568573,0.2785168588161469,-0.0310822855681181,71.34541320800781,31.83277893066406,-52.7259521484375
44050,-0.013153076171875,-0.3428955078125,-0.8701019287109375,0.374034583568573,0.2785168588161469,-0.0310822855681181,71.34541320800781,31.83277893066406,-52.7259521484375
44051,0.0404815673828125,-0.413238525390625,-0.831787109375,0.365479975938797,0.6113530993461609,0.0593552030622959,71.36956787109375,31.7366943359375,-52.56773376464844
44052,0.1078948974609375,-0.3657989501953125,-1.115982055664062,0.4397046566009521,0.6024661660194397,0.2294797897338867,71.99058532714844,31.19145202636719,-52.37997436523438
44053,0.1078948974609375,-0.3657989501953125,-1.115982055664062,0.4397046566009521,0.6024661660194397,0.2294797897338867,71.99058532714844,31.19145202636719,-52.37997436523438
44054,0.1078948974609375,-0.3657989501953125,-1.115982055664062,0.4397046566009521,0.6024661660194397,0.2294797897338867,71.99058532714844,31.19145202636719,-52.37997436523438
44055,0.0966949462890625,-0.4794921875,-1.101409912109375,0.5884512662887573,-0.0134769268333911,0.2647381722927094,72.32305908203125,30.97630310058594,-51.950927734375
44056,0.0966949462890625,-0.4794921875,-1.101409912109375,0.5884512662887573,-0.0134769268333911,0.2647381722927094,72.32305908203125,30.97630310058594,-51.950927734375
44057,0.113037109375,-0.44677734375,-0.9743804931640624,0.6820821762084961,-0.0519066080451011,0.3269546926021576,72.36050415039062,30.71588134765625,-51.86001586914062
44058,0.127227783203125,-0.4054107666015625,-0.937896728515625,0.7505661249160767,0.0259032361209392,0.4105294644832611,72.36758422851562,30.42466735839844,-51.75140380859375
44059,0.146759033203125,-0.38275146484375,-0.933929443359375,0.7947085499763489,0.1872889399528503,0.5008364915847778,72.42135620117188,30.03155517578125,-51.50355529785156
44060,0.1316986083984375,-0.42919921875,-1.000198364257812,1.714735388755798,0.7776228189468384,0.3212182521820068,72.45030212402344,28.15286254882812,-50.62579345703125
44061,0.1316986083984375,-0.42919921875,-1.000198364257812,1.714735388755798,0.7776228189468384,0.3212182521820068,72.45030212402344,28.15286254882812,-50.62579345703125
44062,0.1316986083984375,-0.42919921875,-1.000198364257812,1.714735388755798,0.7776228189468384,0.3212182521820068,72.45030212402344,28.15286254882812,-50.62579345703125
44063,0.1316986083984375,-0.42919921875,-1.000198364257812,1.714735388755798,0.7776228189468384,0.3212182521820068,72.45030212402344,28.15286254882812,-50.62579345703125
44064,0.05157470703125,-0.70343017578125,-1.025833129882812,2.011640548706055,0.9959561824798584,-0.1890756487846375,72.87359619140625,26.8812255859375,-49.77934265136719
44065,0.05157470703125,-0.70343017578125,-1.025833129882812,2.011640548706055,0.9959561824798584,-0.1890756487846375,72.87359619140625,26.8812255859375,-49.77934265136719
44066,0.067108154296875,-0.719940185546875,-1.10491943359375,2.092403411865234,0.9146426916122437,-0.3121179640293121,73.10256958007812,26.32243347167969,-49.08546447753906
44067,0.088836669921875,-0.7274627685546875,-1.095077514648438,2.101882219314575,0.8568060398101807,-0.4298086166381836,73.52067565917969,25.6572265625,-48.38789367675781
44068,0.0760650634765625,-0.72113037109375,-0.93402099609375,1.873700499534607,0.9454932808876038,-0.653022289276123,74.30921936035156,24.49166870117188,-47.07279968261719
44069,0.0760650634765625,-0.72113037109375,-0.93402099609375,1.873700499534607,0.9454932808876038,-0.653022289276123,74.30921936035156,24.49166870117188,-47.07279968261719
44070,0.047119140625,-0.704132080078125,-0.8942413330078125,1.608483552932739,1.22832179069519,-0.7048476338386536,74.65512084960938,23.92219543457031,-46.30426025390625
44071,0.0583038330078125,-0.73406982421875,-0.86474609375,1.13702380657196,1.571012020111084,-0.7140930891036987,75.1279296875,23.44938659667969,-45.570556640625
44072,0.0796966552734375,-0.9161376953125,-0.8067169189453125,0.0133363120257854,2.295652389526367,-0.4894818067550659,76.46353149414062,22.95932006835938,-44.04426574707031
44073,0.0645599365234375,-0.970611572265625,-0.8847808837890625,-0.3468796610832214,2.302518129348755,-0.0273261629045009,77.15602111816406,23.09300231933594,-43.37319946289062
44074,0.0645599365234375,-0.970611572265625,-0.8847808837890625,-0.3468796610832214,2.302518129348755,-0.0273261629045009,77.15602111816406,23.09300231933594,-43.37319946289062
44075,0.0555267333984375,-0.9539337158203124,-0.87548828125,-0.6305822134017944,2.147797107696533,0.5097295641899109,77.93278503417969,23.25914001464844,-42.87139892578125
44076,0.15362548828125,-0.6408538818359375,-1.040496826171875,-0.8801318407058716,1.601404547691345,1.223631739616394,79.32215881347656,23.37924194335938,-41.94453430175781
44077,0.2386016845703125,-0.46527099609375,-1.088836669921875,-0.8227766752243042,1.082067370414734,1.344364285469055,79.6802978515625,23.47750854492188,-41.72647094726562
44078,0.2386016845703125,-0.46527099609375,-1.088836669921875,-0.8227766752243042,1.082067370414734,1.344364285469055,79.6802978515625,23.47750854492188,-41.72647094726562
44079,0.2977294921875,-0.391937255859375,-0.9654541015625,-0.6938402652740479,0.7466206550598145,1.426674604415894,79.909423828125,23.54423522949219,-41.43777465820312
44080,0.258209228515625,-0.3856048583984375,-0.838897705078125,-0.5239518880844116,0.5700176954269409,1.599849224090576,79.55410766601562,24.09693908691406,-43.63664245605469
44081,0.1299896240234375,-0.43017578125,-0.6816864013671875,-0.2556706666946411,0.4243131875991821,2.053486108779907,79.41653442382812,23.87574768066406,-43.43574523925781
44082,0.2365875244140625,-0.41552734375,-0.6019134521484375,0.0433173812925815,0.540495753288269,2.513227224349976,79.12167358398438,23.56741333007812,-43.31608581542969
44083,0.2725982666015625,-0.340789794921875,-0.600982666015625,0.372617244720459,0.5396595001220703,2.815508842468262,78.82258605957031,22.95904541015625,-43.17266845703125
44084,0.1772918701171875,-0.210540771484375,-0.52496337890625,1.072057843208313,0.9076756238937378,2.784650325775146,77.89881896972656,21.46360778808594,-42.69381713867188
44085,0.1772918701171875,-0.210540771484375,-0.52496337890625,1.072057843208313,0.9076756238937378,2.784650325775146,77.89881896972656,21.46360778808594,-42.69381713867188
44086,0.18426513671875,-0.2192230224609375,-0.6779632568359375,1.406017541885376,0.996722936630249,2.600963592529297,77.33421325683594,20.63580322265625,-42.5697021484375
44087,0.2406768798828125,-0.283447265625,-0.6991729736328125,1.734314918518066,0.886598527431488,2.423389196395874,76.810302734375,19.677490234375,-42.03323364257812
44088,0.342620849609375,-0.40380859375,-0.5596466064453125,2.249840974807739,1.015100359916687,2.439924240112305,75.83503723144531,17.77818298339844,-40.64677429199219
44089,0.342620849609375,-0.40380859375,-0.5596466064453125,2.249840974807739,1.015100359916687,2.439924240112305,75.83503723144531,17.77818298339844,-40.64677429199219
44090,0.3244781494140625,-0.389190673828125,-0.58111572265625,2.233635902404785,0.926719069480896,2.62131142616272,75.40992736816406,16.67890930175781,-39.77557373046875
44091,0.240478515625,-0.441650390625,-0.45855712890625,1.985469102859497,1.095005869865417,2.965031862258911,75.02447509765625,15.51771545410156,-38.66679382324219
44092,0.2756195068359375,-0.4307708740234375,-0.5555877685546875,0.4348414838314056,1.720247864723206,3.736829042434692,73.60874938964844,13.10725402832031,-36.57925415039062
44093,0.2756195068359375,-0.4307708740234375,-0.5555877685546875,0.4348414838314056,1.720247864723206,3.736829042434692,73.60874938964844,13.10725402832031,-36.57925415039062
44094,0.217498779296875,-0.4707183837890625,-0.6265716552734375,-0.4946395456790924,1.657684564590454,3.775514602661133,72.58599853515625,12.15312194824219,-35.91983032226562
44095,0.17364501953125,-0.4601593017578125,-0.68133544921875,-1.317731261253357,1.480851531028748,3.528126001358032,71.56637573242188,11.41268920898438,-35.45657348632812
44096,0.2215576171875,-0.36785888671875,-0.70501708984375,-2.124730348587036,1.276936173439026,2.430418729782104,69.58984375,10.36114501953125,-35.24981689453125
44097,0.2215576171875,-0.36785888671875,-0.70501708984375,-2.124730348587036,1.276936173439026,2.430418729782104,69.58984375,10.36114501953125,-35.24981689453125
44098,0.23583984375,-0.4967803955078125,-0.621307373046875,-2.113822937011719,1.207261204719543,2.060701370239258,68.73837280273438,10.0870361328125,-35.62939453125
44099,0.2151641845703125,-0.64605712890625,-0.5342864990234375,-1.731710910797119,0.8652570247650146,2.050072431564331,68.09793090820312,10.16935729980469,-36.25025939941406
44100,0.1696624755859375,-0.6649322509765625,-0.5394287109375,-1.135082602500916,0.8048610687255859,2.305869340896606,67.5067138671875,10.2822265625,-36.92486572265625
44101,0.0514984130859375,-0.5579986572265625,-0.700897216796875,-0.4767215549945831,0.659382700920105,2.51557445526123,66.8465576171875,10.38189697265625,-37.23973083496094
44102,-0.01171875,-0.4717864990234375,-0.764739990234375,0.0477028079330921,0.451109915971756,2.506109476089478,66.12210083007812,10.30819702148438,-37.57794189453125
44103,-0.0540618896484375,-0.43231201171875,-0.881561279296875,0.3652802407741547,0.1018869504332542,2.306505680084229,65.3045654296875,10.15029907226562,-37.50813293457031
44104,-0.0103912353515625,-0.46746826171875,-0.956695556640625,0.6679404973983765,-1.130214929580688,1.729310274124146,63.496337890625,9.54998779296875,-37.30088806152344
44105,-0.0103912353515625,-0.46746826171875,-0.956695556640625,0.6679404973983765,-1.130214929580688,1.729310274124146,63.496337890625,9.54998779296875,-37.30088806152344
44106,-0.00830078125,-0.58941650390625,-0.8238525390625,0.7354282140731812,-1.486878275871277,1.709135055541992,62.60539245605469,9.096755981445312,-36.99502563476562
44107,0.0304718017578125,-0.7266693115234375,-0.6670684814453125,0.7647472023963928,-1.534583449363708,1.895736575126648,61.69459533691406,8.790451049804688,-36.65904235839844
44108,0.0493011474609375,-0.75909423828125,-0.397003173828125,0.6441174745559692,-0.5366461277008057,2.374510049819946,59.43324279785156,8.118621826171875,-36.11463928222656
44109,0.0493011474609375,-0.75909423828125,-0.397003173828125,0.6441174745559692,-0.5366461277008057,2.374510049819946,59.43324279785156,8.118621826171875,-36.11463928222656
44110,0.0299224853515625,-0.6739654541015625,-0.3963623046875,0.4962369203567505,0.2457429170608521,2.390832185745239,58.22727966308594,7.732009887695312,-35.68708801269531
44111,0.06622314453125,-0.621429443359375,-0.492828369140625,0.3108753263950348,0.9295327067375184,2.26935601234436,57.06787109375,7.420684814453125,-35.33555603027344
44112,-0.083526611328125,-0.441253662109375,-0.822052001953125,-0.0147451236844062,1.064933657646179,1.455819606781006,55.07978820800781,6.779434204101562,-34.72532653808594
44113,-0.083526611328125,-0.441253662109375,-0.822052001953125,-0.0147451236844062,1.064933657646179,1.455819606781006,55.07978820800781,6.779434204101562,-34.72532653808594
44114,-0.097442626953125,-0.566864013671875,-0.7902984619140625,-0.1451840847730637,1.043123126029968,1.041480779647827,54.37725830078125,6.675003051757812,-34.60940551757812
44115,-0.05633544921875,-0.7355804443359375,-0.763275146484375,-0.1934741288423538,1.06337571144104,1.017968058586121,53.73493957519531,6.662841796875,-34.43290710449219
44116,-0.0734100341796875,-0.76837158203125,-0.89202880859375,-0.042722962796688,0.7152158617973328,1.478852510452271,52.88505554199219,6.602630615234375,-34.2967529296875
44117,-0.0734100341796875,-0.76837158203125,-0.89202880859375,-0.042722962796688,0.7152158617973328,1.478852510452271,52.88505554199219,6.602630615234375,-34.2967529296875
44118,-0.1513824462890625,-0.725555419921875,-0.8872833251953125,-0.0067228837870061,0.4113643765449524,1.691856741905212,52.49305725097656,6.501480102539062,-34.35888671875
44119,-0.2369384765625,-0.6118316650390625,-0.8915557861328125,-0.021793445572257,0.1311151385307312,1.726024508476257,51.90240478515625,6.5068359375,-34.32778930664062
44120,-0.283416748046875,-0.53094482421875,-0.8833160400390625,-0.0278188474476337,-0.1842990070581436,1.625561833381653,51.2457275390625,6.460968017578125,-34.37522888183594
44121,-0.3109283447265625,-0.534149169921875,-0.8431549072265625,-0.0332285277545452,-0.5000524520874023,1.478410243988037,50.4566650390625,6.442596435546875,-34.4130859375
44122,-0.301483154296875,-0.5748443603515625,-0.7940673828125,-0.0635227859020233,-0.7700982689857483,1.347608208656311,49.73152160644531,6.511978149414062,-34.38600158691406
44123,-0.311676025390625,-0.60992431640625,-0.73193359375,-0.0969923287630081,-0.90056973695755,1.247980237007141,48.9886474609375,6.35906982421875,-34.21238708496094
44124,-0.2808685302734375,-0.630950927734375,-0.68017578125,-0.137651339173317,-0.6311284303665161,1.078123807907104,47.50152587890625,6.366348266601562,-34.02174377441406
44125,-0.2646484375,-0.6311492919921875,-0.6549530029296875,-0.1315311342477798,-0.3448585867881775,0.9965402483940125,46.73457336425781,6.49749755859375,-34.13385009765625
44126,-0.2646484375,-0.6311492919921875,-0.6549530029296875,-0.1315311342477798,-0.3448585867881775,0.9965402483940125,46.73457336425781,6.49749755859375,-34.13385009765625
44127,-0.2432708740234375,-0.6445465087890625,-0.64239501953125,-0.1283180266618729,-0.0191390737891197,0.956307291984558,45.99885559082031,6.515335083007812,-34.02848815917969
44128,-0.2776031494140625,-0.54266357421875,-0.7269439697265625,-0.2543944716453552,0.2330308556556702,0.8354602456092834,45.02046203613281,6.534530639648438,-33.90397644042969
44129,-0.2776031494140625,-0.54266357421875,-0.7269439697265625,-0.2543944716453552,0.2330308556556702,0.8354602456092834,45.02046203613281,6.534530639648438,-33.90397644042969
44130,-0.2776031494140625,-0.5273895263671875,-0.8153228759765625,-0.3639007210731506,0.0960149466991424,0.687110185623169,44.46269226074219,6.61077880859375,-33.98576354980469
44131,-0.212432861328125,-0.56982421875,-0.797760009765625,-0.4486145377159119,-0.1341921538114548,0.5493177175521851,44.03392028808594,6.674301147460938,-34.13713073730469
44132,-0.2096710205078125,-0.6277923583984375,-0.768524169921875,-0.4644302427768707,-0.2564533650875092,0.4463982582092285,43.37055969238281,6.657028198242188,-34.28366088867188
44133,-0.2096710205078125,-0.6277923583984375,-0.768524169921875,-0.4644302427768707,-0.2564533650875092,0.4463982582092285,43.37055969238281,6.657028198242188,-34.28366088867188
44134,-0.210723876953125,-0.6645965576171875,-0.80218505859375,-0.4653210937976837,-0.1083999797701836,0.4455130100250244,43.05734252929688,6.801422119140625,-34.39295959472656
44135,-0.19366455078125,-0.6976470947265625,-0.8668670654296875,-0.4779857397079468,0.0216488372534513,0.5095173120498657,42.77215576171875,6.970779418945312,-34.6060791015625
44136,-0.1905364990234375,-0.744049072265625,-0.8845062255859375,-0.4438935518264771,0.0801414400339126,0.5845987200737,42.57157897949219,7.061614990234375,-34.73521423339844
44137,-0.1905364990234375,-0.744049072265625,-0.8845062255859375,-0.4438935518264771,0.0801414400339126,0.5845987200737,42.57157897949219,7.061614990234375,-34.73521423339844
44138,-0.2374114990234375,-0.67498779296875,-0.7607574462890625,-0.181580975651741,0.2763298451900482,0.7065262198448181,42.07107543945312,7.245101928710938,-35.21611022949219
44139,-0.267181396484375,-0.61846923828125,-0.7223663330078125,-0.0373697429895401,0.4019873738288879,0.6809271574020386,41.8526611328125,7.229385375976562,-35.34567260742188
44140,-0.2625732421875,-0.498291015625,-0.717681884765625,0.0437581315636634,0.5166969299316406,0.4745398759841919,41.36764526367188,7.361175537109375,-35.43002319335938
44141,-0.2625732421875,-0.498291015625,-0.717681884765625,0.0437581315636634,0.5166969299316406,0.4745398759841919,41.36764526367188,7.361175537109375,-35.43002319335938
44142,-0.2568817138671875,-0.494384765625,-0.727325439453125,-0.0644295886158943,0.4877627491950989,0.4030856788158417,41.20761108398438,7.412887573242188,-35.64176940917969
44143,-0.2744903564453125,-0.5008392333984375,-0.769073486328125,-0.2009546756744385,0.4295598864555359,0.3361218273639679,41.04655456542969,7.395111083984375,-35.65122985839844
44144,-0.3021087646484375,-0.6494903564453125,-0.8910980224609375,-0.2820673584938049,0.1562436670064926,0.3710664808750153,40.69859313964844,7.428939819335938,-36.07218933105469
44145,-0.3021087646484375,-0.6494903564453125,-0.8910980224609375,-0.2820673584938049,0.1562436670064926,0.3710664808750153,40.69859313964844,7.428939819335938,-36.07218933105469
44146,-0.31622314453125,-0.628448486328125,-0.89630126953125,-0.1867403239011765,-0.020485833287239,0.4644334614276886,40.66581726074219,7.571807861328125,-36.08099365234375
44147,-0.31622314453125,-0.628448486328125,-0.89630126953125,-0.1867403239011765,-0.020485833287239,0.4644334614276886,40.66581726074219,7.571807861328125,-36.08099365234375
44148,-0.27032470703125,-0.539581298828125,-0.742279052734375,-0.1727640479803085,-0.3146455585956573,0.6024054288864136,40.30363464355469,7.601425170898438,-35.99098205566406
44149,-0.27032470703125,-0.539581298828125,-0.742279052734375,-0.1727640479803085,-0.3146455585956573,0.6024054288864136,40.30363464355469,7.601425170898438,-35.99098205566406
44150,-0.27032470703125,-0.539581298828125,-0.742279052734375,-0.1727640479803085,-0.3146455585956573,0.6024054288864136,40.30363464355469,7.601425170898438,-35.99098205566406
44151,-0.247344970703125,-0.555511474609375,-0.679962158203125,-0.2938036620616913,-0.1781937032938004,0.5649789571762085,39.92913818359375,7.685958862304688,-36.2020263671875
44152,-0.2319183349609375,-0.537750244140625,-0.68255615234375,-0.3646847605705261,-0.0240712482482194,0.4939087927341461,39.68984985351562,7.656845092773438,-36.25210571289062
44153,-0.23114013671875,-0.5388031005859375,-0.7091522216796875,-0.363012284040451,0.1462304443120956,0.4382708370685577,39.33195495605469,7.878280639648438,-36.338623046875
44154,-0.22760009765625,-0.54547119140625,-0.7889404296875,-0.2977659106254578,0.2710152566432953,0.4013514220714569,39.00746154785156,8.091278076171875,-36.49789428710938
44155,-0.220703125,-0.5589599609375,-0.8307647705078125,-0.2339054346084595,0.326513409614563,0.3876419961452484,38.81922912597656,8.183074951171875,-36.79730224609375
44156,-0.229736328125,-0.55706787109375,-0.8408050537109375,-0.1512134820222855,0.3898865282535553,0.3977713286876678,38.6983642578125,8.31304931640625,-36.85697937011719
44157,-0.2462615966796875,-0.54840087890625,-0.854248046875,-0.0968266800045967,0.4356177747249603,0.4106112420558929,38.6129150390625,8.317596435546875,-36.81016540527344
44158,-0.2556610107421875,-0.55267333984375,-0.87103271484375,-0.1099099889397621,0.4445271193981171,0.4161785840988159,38.45994567871094,8.405746459960938,-36.95462036132812
44159,-0.2705078125,-0.5451202392578125,-0.8912811279296875,-0.1906096339225769,0.3765121102333069,0.4101409316062927,38.46018981933594,8.635162353515625,-37.28364562988281
44160,-0.26336669921875,-0.535858154296875,-0.8917694091796875,-0.3057572543621063,0.2564432322978973,0.3908527195453644,38.37078857421875,8.7467041015625,-37.34553527832031
44161,-0.2525634765625,-0.5541839599609375,-0.865386962890625,-0.3827369809150696,0.1345503479242325,0.3840920031070709,38.21098327636719,8.835311889648438,-37.59208679199219
44162,-0.2624359130859375,-0.553802490234375,-0.83392333984375,-0.3803603947162628,0.0766332596540451,0.4000712335109711,38.16786193847656,8.999755859375,-37.77574157714844
44163,-0.2730560302734375,-0.535858154296875,-0.779510498046875,-0.3282425999641418,0.1060731709003448,0.4034960567951202,38.02890014648438,9.188812255859377,-37.778076171875
44164,-0.2628326416015625,-0.51873779296875,-0.7321319580078125,-0.2810724079608917,0.2790516018867493,0.3690949380397797,37.97296142578125,9.294052124023438,-37.92892456054688
44165,-0.2342376708984375,-0.49468994140625,-0.770660400390625,-0.2446696609258652,0.4736455976963043,0.3108265697956085,37.867431640625,9.3865966796875,-38.12014770507812
44166,-0.2242431640625,-0.4897613525390625,-0.843963623046875,-0.1909877955913544,0.6488874554634094,0.2395494729280472,37.83671569824219,9.444961547851562,-38.24223327636719
44167,-0.2323455810546875,-0.504669189453125,-0.8934478759765625,-0.1400396674871445,0.7683579325675964,0.1962906867265701,37.75967407226562,9.458724975585938,-38.3787841796875
44168,-0.2311553955078125,-0.5292510986328125,-0.93341064453125,-0.1185902953147888,0.806053876876831,0.2048642039299011,37.76918029785156,9.567306518554688,-38.50723266601562
44169,-0.2311553955078125,-0.5292510986328125,-0.93341064453125,-0.1185902953147888,0.806053876876831,0.2048642039299011,37.76918029785156,9.567306518554688,-38.50723266601562
44170,-0.222869873046875,-0.56964111328125,-0.9604949951171876,-0.1298253685235977,0.5427817702293396,0.3603411316871643,37.90934753417969,9.672698974609377,-38.710693359375
44171,-0.2305908203125,-0.5606842041015625,-0.9278717041015624,-0.1182241141796112,0.3376315534114838,0.4407928287982941,38.02200317382812,9.6805419921875,-38.62701416015625
44172,-0.2111358642578125,-0.529144287109375,-0.8314971923828125,-0.0242337007075548,0.1397099643945694,0.549328625202179,38.064453125,9.679550170898438,-38.73812866210938
44173,-0.2111358642578125,-0.529144287109375,-0.8314971923828125,-0.0242337007075548,0.1397099643945694,0.549328625202179,38.064453125,9.679550170898438,-38.73812866210938
44174,-0.20111083984375,-0.5130615234375,-0.8054962158203125,0.0401692576706409,0.1717448532581329,0.5873221158981323,37.92971801757812,9.791152954101562,-38.89656066894531
44175,-0.185089111328125,-0.4905242919921875,-0.7845306396484375,0.0988112688064575,0.3021785020828247,0.5860637426376343,37.81343078613281,9.956497192382812,-39.07844543457031
44176,-0.177581787109375,-0.4422760009765625,-0.799560546875,0.0731794014573097,0.6950471997261047,0.4425784945487976,37.44476318359375,10.07760620117188,-39.245361328125
44177,-0.177581787109375,-0.4422760009765625,-0.799560546875,0.0731794014573097,0.6950471997261047,0.4425784945487976,37.44476318359375,10.07760620117188,-39.245361328125
44178,-0.185028076171875,-0.4349212646484375,-0.8357086181640625,0.0136138126254081,0.824651837348938,0.3509236574172974,37.468017578125,10.13813781738281,-39.34576416015625
44179,-0.1990966796875,-0.4384918212890625,-0.8727874755859375,-0.0327116064727306,0.8784822821617126,0.2859734296798706,37.53521728515625,10.20477294921875,-39.40811157226562
44180,-0.2121429443359375,-0.47015380859375,-0.9040985107421876,-0.0397114604711532,0.8532962203025818,0.2626912891864777,38.03511047363281,9.830291748046877,-38.28370666503906
44181,-0.218719482421875,-0.5161285400390625,-0.9305572509765624,-0.0177654139697551,0.748447060585022,0.3207652270793915,38.18434143066406,9.961212158203123,-38.38145446777344
44182,-0.2219085693359375,-0.5330657958984375,-0.964111328125,0.0105434544384479,0.5736033320426941,0.4430687725543976,38.35850524902344,10.00672912597656,-38.45140075683594
44183,-0.2209625244140625,-0.5242156982421875,-0.9832916259765624,0.0297067631036043,0.3260079324245453,0.5618047714233398,38.53457641601562,10.01510620117188,-38.48658752441406
44184,-0.22607421875,-0.5127105712890625,-0.9530487060546876,0.0567013621330261,0.1049080416560173,0.6654509902000427,38.5662841796875,10.04592895507812,-38.6551513671875
44185,-0.2230072021484375,-0.4862060546875,-0.9012908935546876,0.0992008820176124,-0.013801566325128,0.7166672945022583,38.47840881347656,10.14520263671875,-38.77207946777344
44186,-0.2144317626953125,-0.447479248046875,-0.8540496826171875,0.1277015060186386,-0.0163821689784526,0.7065216898918152,38.31283569335938,10.23515319824219,-38.88563537597656
44187,-0.21917724609375,-0.4151153564453125,-0.8226470947265625,0.1001721397042274,0.0699615105986595,0.6490600109100342,38.15647888183594,10.1671142578125,-38.71391296386719
44188,-0.2381744384765625,-0.4070281982421875,-0.8242340087890625,-0.0602779872715473,0.2582962512969971,0.4404309093952179,37.73956298828125,10.26582336425781,-38.85385131835938
44189,-0.2381744384765625,-0.4070281982421875,-0.8242340087890625,-0.0602779872715473,0.2582962512969971,0.4404309093952179,37.73956298828125,10.26582336425781,-38.85385131835938
44190,-0.241668701171875,-0.433807373046875,-0.830230712890625,-0.1149167343974113,0.3202533721923828,0.3575879633426666,37.72152709960938,10.3289794921875,-38.96780395507812
44191,-0.233917236328125,-0.4730987548828125,-0.8720855712890625,-0.1028531417250633,0.3421845138072968,0.3193545639514923,37.67196655273438,10.43115234375,-38.98141479492188
44192,-0.2307891845703125,-0.5532379150390625,-0.967742919921875,0.0243141278624534,0.1447579860687256,0.4176094830036163,37.6011962890625,10.53822326660156,-39.05125427246094
44193,-0.2307891845703125,-0.5532379150390625,-0.967742919921875,0.0243141278624534,0.1447579860687256,0.4176094830036163,37.6011962890625,10.53822326660156,-39.05125427246094
