time_idx,accelerometerAccelerationX(G),accelerometerAccelerationY(G),accelerometerAccelerationZ(G),gyroRotationX(rad/s),gyroRotationY(rad/s),gyroRotationZ(rad/s),magnetometerX(µT),magnetometerY(µT),magnetometerZ(µT)
184817,0.2359619140625,1.48974609375,-0.1729583740234375,-0.898624837398529,0.2962388396263123,-0.1576511412858963,59.54820251464844,99.2079620361328,-2.536636352539062
184818,0.1780853271484375,1.627548217773438,-0.12994384765625,-0.5254286527633667,0.2844589054584503,-0.2423567175865173,59.39231872558594,99.17732238769533,-2.076034545898438
184819,0.11572265625,1.7388916015625,-0.1320648193359375,-0.290650486946106,0.3279775977134705,-0.2269609719514847,59.21458435058594,99.16146850585938,-1.60382080078125
184820,0.11572265625,1.7388916015625,-0.1320648193359375,-0.290650486946106,0.3279775977134705,-0.2269609719514847,59.21458435058594,99.16146850585938,-1.60382080078125
184821,0.0367431640625,1.764434814453125,-0.1291046142578125,-0.0901647806167602,0.3928101360797882,-0.131049633026123,59.00326538085938,99.03089904785156,-1.21142578125
184822,-0.0268707275390625,1.564712524414062,-0.2402496337890625,0.0888382568955421,0.3956162929534912,0.0413871221244335,58.60411071777344,98.9143524169922,-0.52886962890625
184823,-0.021331787109375,1.476181030273438,-0.3031768798828125,0.2405279129743576,0.3925515413284302,0.1742530316114426,58.55314636230469,98.78190612792967,-0.301300048828125
184824,-0.04571533203125,1.469863891601562,-0.3164215087890625,0.3195178210735321,0.4426722228527069,0.2332953065633774,58.51698303222656,98.6966552734375,-0.329193115234375
184825,-0.07244873046875,1.525558471679688,-0.340545654296875,0.3197548389434814,0.4967423975467682,0.222692996263504,58.44094848632812,98.8524169921875,-0.7648468017578125
184826,-0.07244873046875,1.525558471679688,-0.340545654296875,0.3197548389434814,0.4967423975467682,0.222692996263504,58.44094848632812,98.8524169921875,-0.7648468017578125
184827,-0.0337982177734375,1.592239379882812,-0.41552734375,0.2815432548522949,0.6169569492340088,0.1249105110764503,58.35501098632812,99.07852172851562,-1.152069091796875
184828,0.013275146484375,1.555831909179688,-0.4420928955078125,0.3157971203327179,0.6144229769706726,0.0879026874899864,58.44842529296875,98.97108459472656,-1.125747680664062
184829,0.055755615234375,1.47491455078125,-0.4087982177734375,0.3765717744827271,0.6055176258087158,0.0819356143474578,58.47640991210938,99.09054565429688,-1.28076171875
184830,0.055755615234375,1.47491455078125,-0.4087982177734375,0.3765717744827271,0.6055176258087158,0.0819356143474578,58.47640991210938,99.09054565429688,-1.28076171875
184831,0.0740814208984375,1.269241333007812,-0.288818359375,0.4975780844688416,0.5149664282798767,0.1404934674501419,58.41085815429688,99.08544921875,-1.504531860351562
184832,0.0631561279296875,1.163360595703125,-0.240631103515625,0.5221111178398132,0.4086468815803528,0.1768147200345993,58.50531005859375,99.122314453125,-1.586013793945312
184833,0.0436553955078125,1.054977416992188,-0.215667724609375,0.5280500054359436,0.2575644254684448,0.2027728110551834,58.5380859375,99.31329345703124,-1.978057861328125
184834,0.0436553955078125,1.054977416992188,-0.215667724609375,0.5280500054359436,0.2575644254684448,0.2027728110551834,58.5380859375,99.31329345703124,-1.978057861328125
184835,0.0300750732421875,0.9077606201171876,-0.1628875732421875,0.522715151309967,-0.0229955967515707,0.2630375027656555,58.67453002929688,99.56329345703124,-2.420852661132812
184836,0.0217132568359375,0.843902587890625,-0.1181182861328125,0.4716969728469849,-0.0888007059693336,0.2956396341323853,58.85041809082031,99.48538208007812,-2.590118408203125
184837,0.00335693359375,0.777313232421875,-0.09674072265625,0.2787099182605743,-0.2854826152324677,0.3059713840484619,58.95579528808594,99.56584167480467,-2.967819213867188
184838,0.00335693359375,0.777313232421875,-0.09674072265625,0.2787099182605743,-0.2854826152324677,0.3059713840484619,58.95579528808594,99.56584167480467,-2.967819213867188
184839,-0.01336669921875,0.668212890625,-0.0224609375,0.2191414088010788,-0.3673556447029114,0.2709470689296722,59.50494384765625,99.51741027832033,-3.376312255859375
184840,-0.01336669921875,0.668212890625,-0.0224609375,0.2191414088010788,-0.3673556447029114,0.2709470689296722,59.50494384765625,99.51741027832033,-3.376312255859375
184841,-0.029449462890625,0.6377716064453125,0.15032958984375,-0.0262403916567564,-0.1592671573162079,0.1226942241191864,60.02400207519531,99.47796630859376,-3.742599487304688
184842,-0.034820556640625,0.625244140625,0.2103729248046875,-0.0262403916567564,-0.1592671573162079,0.1226942241191864,60.15666198730469,99.41116333007812,-3.826065063476562
184843,-0.0383758544921875,0.597625732421875,0.216156005859375,-0.1018789634108543,-0.0613251440227031,0.0863655135035514,60.26486206054688,99.46942138671876,-4.008956909179688
184844,-0.047576904296875,0.5601959228515625,0.185455322265625,-0.1441563814878464,-0.046486809849739,0.0906342938542366,60.53269958496094,99.38343811035156,-4.072250366210938
184845,-0.0638275146484375,0.5355377197265625,0.152740478515625,-0.1456549316644669,-0.1162403225898743,0.1429374516010284,60.65702819824219,99.36544799804688,-3.962890625
184846,-0.0638275146484375,0.5355377197265625,0.152740478515625,-0.1456549316644669,-0.1162403225898743,0.1429374516010284,60.65702819824219,99.36544799804688,-3.962890625
184847,-0.053466796875,0.52996826171875,0.1615142822265625,-0.1125324070453644,-0.2521558105945587,0.2592321038246155,60.94122314453125,99.2523193359375,-3.727279663085938
184848,-0.045196533203125,0.527099609375,0.15966796875,-0.1179527342319489,-0.3082403838634491,0.2880706787109375,61.150146484375,99.12562561035156,-3.6868896484375
184849,-0.0605010986328125,0.5158233642578125,0.1404266357421875,-0.1037572845816612,-0.3230803310871124,0.3812884986400604,61.36985778808594,98.98223876953124,-3.628158569335938
184850,-0.1000518798828125,0.5468597412109375,0.114990234375,-0.1037572845816612,-0.3230803310871124,0.3812884986400604,61.58932495117188,98.97052001953124,-3.741546630859375
184851,-0.1258392333984375,0.6371612548828125,0.10137939453125,-0.0935336798429489,-0.2382442653179169,0.4414583742618561,61.82579040527344,98.91473388671876,-3.728607177734375
184852,-0.125244140625,0.7393341064453125,0.12109375,-0.0933118388056755,-0.0645177364349365,0.4672910273075104,62.02798461914062,98.9874267578125,-3.604461669921875
184853,-0.1114044189453125,0.8223419189453125,0.1683502197265625,-0.0969606339931488,0.1510252058506012,0.4691970348358154,62.26390075683594,98.97291564941406,-3.556503295898438
184854,-0.109588623046875,0.9026031494140624,0.2392120361328125,-0.1037311851978302,0.3825622797012329,0.4279319047927856,62.3809814453125,98.8668212890625,-3.372207641601562
184855,-0.1305084228515625,0.9875030517578124,0.315216064453125,-0.1234984993934631,0.5798601508140564,0.3473022878170013,62.54278564453125,98.82786560058594,-3.316146850585938
184856,-0.165252685546875,1.058013916015625,0.36419677734375,-0.176613911986351,0.6867722272872925,0.2322795838117599,62.74931335449219,98.76611328125,-3.344879150390625
184857,-0.2103729248046875,1.128829956054688,0.3839874267578125,-0.3773307800292969,0.5962654948234558,-0.0231479294598102,62.80729675292969,98.79891967773438,-3.210968017578125
184858,-0.2103729248046875,1.128829956054688,0.3839874267578125,-0.3773307800292969,0.5962654948234558,-0.0231479294598102,62.80729675292969,98.79891967773438,-3.210968017578125
184859,-0.1828460693359375,1.280471801757812,0.2607421875,-0.4582876861095428,0.418683797121048,-0.1211658418178558,62.79803466796875,98.73152160644533,-2.827072143554688
184860,-0.0947113037109375,1.292617797851562,0.1208038330078125,-0.4037458598613739,0.2116315513849258,-0.1363362669944763,62.70645141601562,98.54820251464844,-2.595504760742188
184861,-0.0947113037109375,1.292617797851562,0.1208038330078125,-0.4037458598613739,0.2116315513849258,-0.1363362669944763,62.70645141601562,98.54820251464844,-2.595504760742188
184862,0.0063934326171875,1.27056884765625,0.0350189208984375,0.2148489207029343,0.1906003057956696,0.0961422473192215,62.48696899414062,98.50901794433594,-2.330764770507812
184863,0.053955078125,1.168426513671875,-0.0393218994140625,0.5287426710128784,0.2694916725158691,0.160030409693718,62.20414733886719,98.56721496582033,-2.101593017578125
184864,0.0132904052734375,1.040969848632812,-0.0104217529296875,0.6425203680992126,0.2402456253767014,0.1617883592844009,62.16473388671875,98.56613159179688,-2.1602783203125
184865,-0.0075225830078125,0.9752349853515624,0.0141448974609375,0.5859013199806213,0.2096387147903442,0.1301803737878799,62.03485107421875,98.69631958007812,-2.299224853515625
184866,-0.023712158203125,0.953765869140625,-0.0109405517578125,0.4908576011657715,0.1537935584783554,0.0858174338936805,62.08714294433594,98.75114440917967,-2.515335083007812
184867,-0.0393218994140625,0.9561309814453124,-0.0298919677734375,0.429555356502533,0.1164741516113281,0.0386320799589157,62.09732055664062,98.8575439453125,-2.914016723632812
184868,-0.03887939453125,0.962310791015625,-0.044708251953125,0.4103712737560272,0.1058966070413589,-0.0103820674121379,61.9356689453125,98.82196044921876,-3.14093017578125
184869,-0.0285186767578125,0.9513092041015624,-0.067230224609375,0.4269270896911621,0.1029447540640831,-0.0911096706986427,61.92373657226562,99.02215576171876,-3.376907348632812
184870,-0.0285186767578125,0.9513092041015624,-0.067230224609375,0.4269270896911621,0.1029447540640831,-0.0911096706986427,61.92373657226562,99.02215576171876,-3.376907348632812
184871,0.0188140869140625,0.8876800537109375,-0.1458587646484375,0.4242636561393738,0.0964937806129455,-0.1140480116009712,61.88179016113281,99.02081298828124,-3.64178466796875
184872,0.0462493896484375,0.83355712890625,-0.2026519775390625,0.4094588756561279,0.0676227211952209,-0.1300187259912491,61.77912902832031,99.15402221679688,-3.7613525390625
184873,0.05804443359375,0.776397705078125,-0.2295989990234375,0.4057326018810272,0.0564454309642314,-0.1377008706331253,61.64129638671875,99.25051879882812,-3.899917602539062
184874,0.05804443359375,0.776397705078125,-0.2295989990234375,0.4057326018810272,0.0564454309642314,-0.1377008706331253,61.64129638671875,99.25051879882812,-3.899917602539062
184875,0.065948486328125,0.73553466796875,-0.2726287841796875,0.3857927024364471,0.0118063259869813,-0.153867319226265,61.45578002929688,99.43089294433594,-4.156875610351562
184876,0.061767578125,0.7588653564453125,-0.2711181640625,0.3490101993083954,-0.0099833915010094,-0.1712050437927246,61.43562316894531,99.47312927246094,-4.280868530273438
184877,0.04620361328125,0.8043975830078125,-0.277435302734375,0.2834151983261108,-0.0309877432882785,-0.1895712614059448,61.28875732421875,99.61930847167967,-4.4912109375
184878,0.0320281982421875,0.8545684814453125,-0.269256591796875,0.2091593444347382,-0.0338194817304611,-0.2131335735321045,61.20774841308594,99.71617126464844,-4.689651489257812
184879,0.0156097412109375,0.9248504638671876,-0.2551422119140625,0.1210662350058556,-0.0075077172368764,-0.2239582687616348,61.05714416503906,99.76316833496094,-4.677047729492188
184880,0.0025177001953125,0.990966796875,-0.24884033203125,0.0132297854870557,0.0167201235890388,-0.239900216460228,60.84593200683594,99.98745727539062,-4.742523193359375
184881,-0.006744384765625,1.063720703125,-0.24407958984375,-0.1230902373790741,0.0237087905406951,-0.2591442167758942,60.61705017089844,100.0183410644531,-4.855392456054688
184882,-0.006744384765625,1.063720703125,-0.24407958984375,-0.1230902373790741,0.0237087905406951,-0.2591442167758942,60.61705017089844,100.0183410644531,-4.855392456054688
184883,-0.0184173583984375,1.166091918945312,-0.21044921875,-0.3938024342060089,0.0063867927528917,-0.2920172214508057,60.37190246582031,100.0296173095703,-4.84381103515625
184884,-0.0212249755859375,1.205230712890625,-0.197723388671875,-0.4660526514053345,-0.0632932186126709,-0.312017023563385,60.24461364746094,99.97004699707033,-4.720108032226562
184885,-0.0255126953125,1.23486328125,-0.18463134765625,-0.4713712632656097,-0.1399035751819611,-0.337909072637558,60.08854675292969,100.1172943115234,-4.6649169921875
184886,-0.01678466796875,1.247833251953125,-0.2080535888671875,-0.4139284789562225,-0.236353412270546,-0.3590095639228821,59.95484924316406,100.2232055664062,-4.474365234375
184887,-0.000732421875,1.238311767578125,-0.245513916015625,-0.3208230137825012,-0.3206480443477631,-0.3840786814689636,59.75971984863281,100.1087493896484,-4.16046142578125
184888,0.04669189453125,1.2103271484375,-0.3076171875,-0.2248690575361252,-0.3829154372215271,-0.3847159743309021,59.48246765136719,100.1559143066406,-3.9765625
184889,0.107269287109375,1.1790771484375,-0.3861541748046875,-0.1305625438690186,-0.4069312810897827,-0.3631121516227722,59.39051818847656,100.1657257080078,-3.802825927734375
184890,0.107269287109375,1.1790771484375,-0.3861541748046875,-0.1305625438690186,-0.4069312810897827,-0.3631121516227722,59.39051818847656,100.1657257080078,-3.802825927734375
184891,0.2143707275390625,1.175704956054688,-0.51202392578125,0.080776073038578,-0.471772313117981,-0.2169807851314545,59.17709350585938,100.0507659912109,-3.454360961914062
184892,0.269989013671875,1.191024780273438,-0.50653076171875,0.1478158235549927,-0.4859046638011932,-0.1289097815752029,59.06356811523438,100.0235137939453,-3.525680541992188
184893,0.3101043701171875,1.199020385742188,-0.4627227783203125,0.1680667698383331,-0.4953594207763672,-0.0416590310633182,59.05105590820312,100.0914916992188,-3.46820068359375
184894,0.3101043701171875,1.199020385742188,-0.4627227783203125,0.1680667698383331,-0.4953594207763672,-0.0416590310633182,59.05105590820312,100.0914916992188,-3.46820068359375
184895,0.3187713623046875,1.189193725585938,-0.4141845703125,0.1590418517589569,-0.5682299137115479,0.1178185120224953,59.08433532714844,100.17529296875,-3.812286376953125
184896,0.298126220703125,1.180252075195312,-0.387908935546875,0.1595116257667542,-0.6125369071960449,0.1826038956642151,59.22866821289062,100.1674957275391,-3.903366088867188
184897,0.2670745849609375,1.179702758789062,-0.323272705078125,0.139217272400856,-0.6270495057106018,0.2342260777950287,59.35050964355469,100.0621948242188,-3.961807250976562
184898,0.2332763671875,1.181381225585938,-0.2330780029296875,0.0890728831291198,-0.587882399559021,0.2624883353710175,59.52314758300781,99.8944091796875,-4.182144165039062
184899,0.192413330078125,1.178726196289062,-0.1389923095703125,0.0284726545214653,-0.4917345941066742,0.2528551518917084,59.81910705566406,99.74119567871094,-4.277236938476562
184900,0.192413330078125,1.178726196289062,-0.1389923095703125,0.0284726545214653,-0.4917345941066742,0.2528551518917084,59.81910705566406,99.74119567871094,-4.277236938476562
184901,0.104400634765625,1.165054321289062,0.047760009765625,0.0176548939198255,-0.1624256670475006,0.065192587673664,60.21905517578125,99.73880004882812,-4.645111083984375
184902,0.04827880859375,1.168655395507812,0.110443115234375,0.0176548939198255,-0.1624256670475006,0.065192587673664,60.520263671875,99.7904815673828,-4.712936401367188
184903,0.00244140625,1.177719116210938,0.1796417236328125,0.1577992141246796,-0.0539122335612773,-0.2217814028263092,60.65878295898438,99.877197265625,-4.705795288085938
184904,0.00244140625,1.177719116210938,0.1796417236328125,0.1577992141246796,-0.0539122335612773,-0.2217814028263092,60.65878295898438,99.877197265625,-4.705795288085938
184905,-0.1328582763671875,1.162063598632812,0.2425994873046875,0.2589306235313416,-0.0655209496617317,-0.349007785320282,60.87852478027344,100.0016326904297,-4.7061767578125
184906,-0.197662353515625,1.161651611328125,0.2104034423828125,0.3888886272907257,-0.1975831091403961,-0.4594887495040894,60.89436340332031,99.95094299316406,-4.870941162109375
184907,-0.2442626953125,1.153961181640625,0.1829681396484375,0.6328104734420776,-0.5149903893470764,-0.508294403553009,60.79597473144531,100.0010375976562,-4.911834716796875
184908,-0.2704620361328125,1.118881225585938,0.155975341796875,0.6328104734420776,-0.5149903893470764,-0.508294403553009,60.60435485839844,100.1012420654297,-5.172882080078125
184909,-0.2908172607421875,1.063812255859375,0.097564697265625,0.6205862760543823,-0.5386949181556702,-0.4282892942428589,60.54112243652344,100.3011474609375,-5.476791381835938
184910,-0.2908172607421875,1.063812255859375,0.097564697265625,0.6205862760543823,-0.5386949181556702,-0.4282892942428589,60.54112243652344,100.3011474609375,-5.476791381835938
184911,-0.263885498046875,0.949127197265625,-0.019561767578125,0.5632617473602295,-0.645710825920105,-0.2788545489311218,60.53462219238281,100.4051666259766,-6.12933349609375
184912,-0.24188232421875,0.8743896484375,-0.0354461669921875,0.6190760135650635,-0.7461043000221252,-0.2211068123579025,60.35281372070312,100.5450897216797,-6.364532470703125
184913,-0.22637939453125,0.8221435546875,-0.0427093505859375,0.676719605922699,-0.7713925838470459,-0.1649053245782852,60.27284240722656,100.5974426269531,-6.726516723632812
184914,-0.2206573486328125,0.772308349609375,-0.0555267333984375,0.6682430505752563,-0.7441937327384949,-0.1014997288584709,60.23353576660156,100.7175903320312,-7.032943725585938
184915,-0.2331085205078125,0.744415283203125,-0.03924560546875,0.5812045335769653,-0.6672805547714233,-0.0601248554885387,60.31657409667969,100.8451690673828,-7.4515380859375
184916,-0.2331085205078125,0.744415283203125,-0.03924560546875,0.5812045335769653,-0.6672805547714233,-0.0601248554885387,60.31657409667969,100.8451690673828,-7.4515380859375
184917,-0.2986602783203125,0.76739501953125,0.0998687744140625,0.3035457730293274,-0.1755334734916687,-0.0536890625953674,60.44384765625,100.8627014160156,-8.090530395507812
184918,-0.2986602783203125,0.76739501953125,0.0998687744140625,0.3035457730293274,-0.1755334734916687,-0.0536890625953674,60.44384765625,100.8627014160156,-8.090530395507812
184919,-0.3589019775390625,0.84014892578125,0.220001220703125,0.1579741835594177,0.6519340872764587,0.0037369476631283,60.50419616699219,100.9945373535156,-8.55694580078125
184920,-0.3589019775390625,0.84014892578125,0.220001220703125,0.1579741835594177,0.6519340872764587,0.0037369476631283,60.50419616699219,100.9945373535156,-8.55694580078125
184921,-0.362396240234375,0.8571624755859375,0.1915435791015625,0.1517663598060608,0.6313683986663818,0.0688464418053627,60.55996704101562,100.8882446289062,-8.609085083007812
184922,-0.288116455078125,0.872467041015625,0.178955078125,0.1042561009526253,0.4442874491214752,0.1555983871221542,60.56922912597656,100.8795166015625,-8.585067749023438
184923,-0.194488525390625,0.8799285888671875,0.199676513671875,-0.0065511097200214,0.2383766174316406,0.2169336378574371,60.51618957519531,100.9278717041016,-8.419677734375
184924,-0.1073455810546875,0.8531646728515625,0.216644287109375,-0.1561323404312134,0.0827452167868614,0.2633056640625,60.52667236328125,100.7922058105469,-8.307510375976562
184925,-0.035797119140625,0.823638916015625,0.226165771484375,-0.2907692492008209,-0.0129834432154893,0.3036687970161438,60.54934692382812,100.8926391601562,-8.35308837890625
184926,-0.035797119140625,0.823638916015625,0.226165771484375,-0.2907692492008209,-0.0129834432154893,0.3036687970161438,60.54934692382812,100.8926391601562,-8.35308837890625
184927,0.04534912109375,0.782257080078125,0.20538330078125,-0.4106871485710144,-0.0471174456179142,0.3620040118694305,60.78103637695312,100.6891784667969,-8.41448974609375
184928,0.058807373046875,0.7994842529296875,0.17913818359375,-0.3975585401058197,-0.0273591857403516,0.3771435618400574,60.91893005371094,100.6105499267578,-8.164749145507812
184929,0.0570068359375,0.825775146484375,0.1676483154296875,-0.3937992453575134,-0.0151275536045432,0.3605086505413055,61.06587219238281,100.460205078125,-7.930557250976562
184930,0.0528717041015625,0.8288421630859375,0.1804046630859375,-0.4156414270401001,0.0154042560607194,0.3379684686660767,61.20880126953125,100.4454345703125,-7.774581909179688
184931,0.0527496337890625,0.8285369873046875,0.1968536376953125,-0.4610616266727448,0.0601450949907302,0.3032200634479523,61.39718627929688,100.3533935546875,-7.478179931640625
184932,0.05352783203125,0.8126068115234375,0.195159912109375,-0.5177019834518433,0.1153790578246117,0.2471378892660141,61.47590637207031,100.1762084960938,-7.245834350585938
184933,0.048736572265625,0.7962493896484375,0.169281005859375,-0.5992575883865356,0.1516917943954468,0.1858273893594742,61.55960083007812,100.0894622802734,-7.099105834960938
184934,0.0406646728515625,0.790130615234375,0.134979248046875,-0.6938756704330444,0.1762000620365143,0.1074766591191292,61.62672424316406,100.0220947265625,-6.923431396484375
184935,0.0302734375,0.79638671875,0.0946044921875,-0.7883923649787903,0.1590743362903595,0.0237567275762558,61.60696411132812,99.93927001953124,-6.728317260742188
184936,0.01715087890625,0.8291015625,0.0702362060546875,-0.845427930355072,0.1212246939539909,-0.0506964661180973,61.61860656738281,99.79371643066406,-6.175506591796875
184937,0.01715087890625,0.8291015625,0.0702362060546875,-0.845427930355072,0.1212246939539909,-0.0506964661180973,61.61860656738281,99.79371643066406,-6.175506591796875
184938,-0.0011444091796875,0.874603271484375,0.057952880859375,-0.8602327108383179,0.0889221504330635,-0.1110112071037292,61.60833740234375,99.71290588378906,-5.768341064453125
184939,-0.0479888916015625,0.9634552001953124,-0.034912109375,-0.8522499203681946,0.0208163317292928,-0.1956022530794144,61.36053466796875,99.66941833496094,-5.038604736328125
184940,-0.0479888916015625,0.9634552001953124,-0.034912109375,-0.8522499203681946,0.0208163317292928,-0.1956022530794144,61.36053466796875,99.66941833496094,-5.038604736328125
184941,-0.0248260498046875,1.105270385742188,-0.19732666015625,-0.6280261278152466,-0.1563208997249603,-0.2374770045280457,61.03533935546875,99.53907775878906,-4.259994506835938
184942,0.025787353515625,1.18280029296875,-0.2284698486328125,-0.4664885997772217,-0.0787352919578552,-0.2366777807474136,60.82359313964844,99.65252685546876,-3.9342041015625
184943,0.0641937255859375,1.253524780273438,-0.23681640625,-0.3528049290180206,0.047862596809864,-0.2589977383613586,60.56336975097656,99.74484252929688,-3.589935302734375
184944,0.0774688720703125,1.313339233398438,-0.2435302734375,-0.3290748298168182,0.1291486620903015,-0.2920012176036835,60.40647888183594,99.77879333496094,-3.431167602539062
184945,0.073272705078125,1.4263916015625,-0.300750732421875,-0.2538661062717438,0.0515790395438671,-0.3270452320575714,59.9610595703125,99.7968292236328,-3.064285278320312
184946,0.073272705078125,1.4263916015625,-0.300750732421875,-0.2538661062717438,0.0515790395438671,-0.3270452320575714,59.9610595703125,99.7968292236328,-3.064285278320312
184947,0.0801544189453125,1.403396606445312,-0.364501953125,-0.0824605226516723,-0.0978429391980171,-0.2826897501945496,59.79771423339844,99.69183349609376,-2.902206420898438
184948,0.101287841796875,1.266082763671875,-0.38336181640625,0.2023312598466873,-0.1490608602762222,-0.1740240007638931,59.58824157714844,99.79443359375,-2.788116455078125
184949,0.110626220703125,1.057083129882812,-0.3939361572265625,0.4594637155532837,-0.0911991521716117,-0.0410345196723938,59.41452026367188,99.832275390625,-2.79656982421875
184950,0.114044189453125,0.918365478515625,-0.4571075439453125,0.5903825759887695,-0.0396560654044151,0.075546957552433,59.34007263183594,99.9457550048828,-2.882095336914062
184951,0.1143951416015625,0.839996337890625,-0.51641845703125,0.62702876329422,0.0265746191143989,0.1922301650047302,59.35458374023438,100.02392578125,-3.119384765625
184952,0.1143951416015625,0.839996337890625,-0.51641845703125,0.62702876329422,0.0265746191143989,0.1922301650047302,59.35458374023438,100.02392578125,-3.119384765625
184953,0.11309814453125,0.8040618896484375,-0.5462646484375,0.5904081463813782,0.1423305124044418,0.3036291301250458,59.44377136230469,100.1825408935547,-3.352645874023438
184954,0.152069091796875,0.89990234375,-0.522247314453125,0.4143143594264984,0.3782801926136017,0.4487642049789429,59.72543334960938,100.0449676513672,-3.917526245117188
184955,0.16497802734375,1.000946044921875,-0.478790283203125,0.3721520006656647,0.4603463113307953,0.487155556678772,59.89547729492188,100.0312805175781,-4.220535278320312
184956,0.16497802734375,1.000946044921875,-0.478790283203125,0.3721520006656647,0.4603463113307953,0.487155556678772,59.89547729492188,100.0312805175781,-4.220535278320312
184957,0.1268463134765625,1.18414306640625,-0.3514556884765625,0.3813388347625732,0.5708874464035034,0.4691951870918274,60.32695007324219,100.1725463867188,-4.490646362304688
184958,0.0943756103515625,1.243743896484375,-0.2649688720703125,0.3359583020210266,0.6021641492843628,0.3435211479663849,60.47543334960938,100.1190795898438,-4.659210205078125
184959,0.052490234375,1.2919921875,-0.16497802734375,0.3359583020210266,0.6021641492843628,0.3435211479663849,60.65177917480469,100.1426239013672,-4.638992309570312
184960,0.052490234375,1.2919921875,-0.16497802734375,0.3359583020210266,0.6021641492843628,0.3435211479663849,60.65177917480469,100.1426239013672,-4.638992309570312
184961,0.0032958984375,1.321975708007812,-0.0828399658203125,0.3305962979793549,0.5793850421905518,0.267488420009613,60.84701538085938,100.2137756347656,-4.743560791015625
184962,-0.0944061279296875,1.294937133789062,0.05596923828125,0.4023327827453613,0.3902047574520111,0.1676020473241806,61.07492065429688,100.3516998291016,-5.09014892578125
184963,-0.1085052490234375,1.274917602539062,0.0896759033203125,0.4805037677288055,0.246230810880661,0.1865570992231369,61.23728942871094,100.2230072021484,-5.15753173828125
184964,-0.0920562744140625,1.244979858398438,0.0983123779296875,0.6031423211097717,0.0498162917792797,0.2327216565608978,61.33583068847656,100.3732604980469,-5.431838989257812
184965,-0.060089111328125,1.175445556640625,0.0947265625,0.6977950930595398,-0.1552899926900864,0.2877415120601654,61.46992492675781,100.3546447753906,-5.680801391601562
184966,-0.0432891845703125,1.10211181640625,0.1007843017578125,0.7176694273948669,-0.3048573732376099,0.3371274173259735,61.56832885742188,100.4369506835938,-5.94976806640625
184967,-0.0345001220703125,1.029312133789062,0.0870361328125,0.6599209308624268,-0.4411302506923676,0.3693522214889526,61.72520446777344,100.4189605712891,-6.284622192382812
184968,-0.0345001220703125,1.029312133789062,0.0870361328125,0.6599209308624268,-0.4411302506923676,0.3693522214889526,61.72520446777344,100.4189605712891,-6.284622192382812
184969,-0.02740478515625,0.97015380859375,0.09381103515625,0.540207028388977,-0.5588246583938599,0.3848792314529419,61.99925231933594,100.3935089111328,-6.7325439453125
184970,0.0008544921875,0.8641815185546875,0.18109130859375,0.251202404499054,-0.3483995199203491,0.3880143165588379,62.50442504882812,100.2848358154297,-7.230545043945312
184971,-0.0003204345703125,0.821807861328125,0.1640167236328125,0.0979217663407325,-0.077882282435894,0.3705141544342041,62.80220031738281,100.1599731445312,-7.39044189453125
184972,-0.0243072509765625,0.8376922607421875,0.129364013671875,-0.0408536903560161,0.1809889525175095,0.3235554397106171,63.03419494628906,100.0383911132812,-7.518829345703125
184973,-0.0303802490234375,0.8336181640625,0.0787200927734375,-0.16529680788517,0.4223579168319702,0.2764819264411926,63.31239318847656,100.0403594970703,-7.451889038085938
184974,-0.040924072265625,0.82391357421875,0.0453948974609375,-0.16529680788517,0.4223579168319702,0.2764819264411926,63.47958374023438,100.0163879394531,-7.422821044921875
184975,-0.0396881103515625,0.833740234375,0.016265869140625,-0.113659456372261,0.4389925301074982,0.2511699199676514,63.62644958496094,99.9584503173828,-7.096359252929688
184976,-0.01519775390625,0.8541717529296875,0.011138916015625,-0.0559231862425804,0.4021897912025452,0.21232770383358,63.79652404785156,99.96820068359376,-6.985153198242188
184977,-0.01519775390625,0.8541717529296875,0.011138916015625,-0.0559231862425804,0.4021897912025452,0.21232770383358,63.79652404785156,99.96820068359376,-6.985153198242188
184978,0.02337646484375,1.082382202148438,0.0898284912109375,-0.0659417286515235,0.3463054895401001,0.0838248580694198,64.00846862792969,99.88014221191406,-6.903350830078125
184979,0.0030517578125,1.066421508789062,0.115081787109375,-0.1051690280437469,0.3030621409416199,0.0417932532727718,64.08979797363281,99.66456604003906,-6.677627563476562
184980,0.0030517578125,1.066421508789062,0.115081787109375,-0.1051690280437469,0.3030621409416199,0.0417932532727718,64.08979797363281,99.66456604003906,-6.677627563476562
184981,-0.0149383544921875,1.011138916015625,0.0697479248046875,-0.1351421028375626,0.2068312019109726,-0.1188273206353188,64.1749267578125,99.63302612304688,-6.500534057617188
184982,-0.0254974365234375,0.9942169189453124,0.0031890869140625,-0.1351421028375626,0.2068312019109726,-0.1188273206353188,64.10250854492188,99.63812255859376,-6.44329833984375
184983,-0.0379791259765625,0.97247314453125,-0.024383544921875,-0.102702409029007,0.098439484834671,-0.1920346915721893,64.05807495117188,99.62092590332033,-6.311935424804688
184984,-0.0519256591796875,0.935638427734375,-0.0085906982421875,-0.0650823265314102,0.0122683839872479,-0.2561407089233398,63.96171569824219,99.59515380859376,-6.220321655273438
184985,-0.07037353515625,0.9071502685546876,0.0123291015625,-0.0310242287814617,-0.0151784205809235,-0.3094960749149323,63.86856079101562,99.7117156982422,-6.25689697265625
184986,-0.093536376953125,0.872955322265625,0.0282745361328125,0.0060661481693387,-0.0054823835380375,-0.3430593609809875,63.66911315917969,99.8275909423828,-6.132781982421875
184987,-0.1288299560546875,0.8216552734375,0.0421142578125,0.0392962731420993,0.0122521389275789,-0.3679106533527374,63.56158447265625,99.82183837890624,-6.05322265625
184988,-0.1629180908203125,0.7636260986328125,0.0435333251953125,0.0485411696135997,-0.0003866909828502,-0.3707751333713531,63.47538757324219,99.75816345214844,-6.117233276367188
184989,-0.1910552978515625,0.704010009765625,0.0462799072265625,0.0246358383446931,-0.024305073544383,-0.3668046295642853,63.27433776855469,99.9052276611328,-6.1356201171875
184990,-0.1910552978515625,0.704010009765625,0.0462799072265625,0.0246358383446931,-0.024305073544383,-0.3668046295642853,63.27433776855469,99.9052276611328,-6.1356201171875
184991,-0.2265625,0.6296539306640625,0.0690460205078125,-0.0841188728809356,-0.0139895854517817,-0.3854696750640869,62.84149169921875,100.0492858886719,-6.253158569335938
184992,-0.23065185546875,0.621734619140625,0.0865325927734375,-0.1464749276638031,0.0401764474809169,-0.4061142206192017,62.65010070800781,100.0596771240234,-6.247787475585938
184993,-0.2280731201171875,0.62890625,0.0905609130859375,-0.19809789955616,0.1088079735636711,-0.4220404624938965,62.48445129394531,100.0809631347656,-6.088638305664062
184994,-0.2147216796875,0.6544189453125,0.086395263671875,-0.2424027919769287,0.1635804027318954,-0.4388167858123779,62.30990600585938,100.2701873779297,-6.018402099609375
184995,-0.2041015625,0.700653076171875,0.08380126953125,-0.2896251678466797,0.2146608978509903,-0.4520289897918701,62.01960754394531,100.1920318603516,-5.97552490234375
184996,-0.1920318603515625,0.754058837890625,0.077789306640625,-0.3488032519817352,0.2524016201496124,-0.4596778452396393,61.70780944824219,100.3653869628906,-5.892822265625
184997,-0.1776580810546875,0.82647705078125,0.0752716064453125,-0.4241582155227661,0.2532831430435181,-0.444572925567627,61.40582275390625,100.3065032958984,-5.860641479492188
184998,-0.1776580810546875,0.82647705078125,0.0752716064453125,-0.4241582155227661,0.2532831430435181,-0.444572925567627,61.40582275390625,100.3065032958984,-5.860641479492188
184999,-0.1601715087890625,1.014907836914062,0.0076904296875,-0.6933435797691345,0.0488769933581352,-0.3689002692699432,60.80604553222656,100.3404693603516,-5.40399169921875
185000,-0.1356201171875,1.102935791015625,-0.0502777099609375,-0.8580175042152405,-0.1577765792608261,-0.311869204044342,60.54473876953125,100.2555084228516,-5.138900756835938
185001,-0.0734405517578125,1.170730590820312,-0.0630035400390625,-0.9509948492050172,-0.3496855795383453,-0.2526807188987732,60.233642578125,100.3153381347656,-4.84002685546875
185002,0.0191497802734375,1.218734741210938,-0.043487548828125,-0.9058313369750975,-0.3584436476230621,-0.1862638890743256,59.99185180664062,100.2427215576172,-4.41290283203125
185003,0.0864105224609375,1.277191162109375,-0.086944580078125,-0.7352228760719299,-0.2621024549007416,-0.1389003545045853,59.81541442871094,100.1400604248047,-3.978988647460938
185004,0.1387176513671875,1.320831298828125,-0.189788818359375,-0.5623818635940552,-0.2250757217407227,-0.1852694600820541,59.73237609863281,100.1435394287109,-3.580093383789062
185005,0.202117919921875,1.311676025390625,-0.2985992431640625,-0.4030904769897461,-0.3604143857955933,-0.3852611482143402,59.56916809082031,100.0723724365234,-3.23602294921875
185006,0.2498626708984375,1.274627685546875,-0.369415283203125,-0.4030904769897461,-0.3604143857955933,-0.3852611482143402,59.51243591308594,100.0031890869141,-2.924560546875
185007,0.2896881103515625,1.244705200195312,-0.447723388671875,-0.3248989880084991,-0.4624898731708527,-0.409975528717041,59.3660888671875,99.91319274902344,-2.632965087890625
185008,0.3273773193359375,1.225372314453125,-0.4852752685546875,-0.3248989880084991,-0.4624898731708527,-0.409975528717041,59.13644409179688,99.96946716308594,-2.429595947265625
185009,0.3493499755859375,1.216110229492188,-0.5321044921875,-0.157320111989975,-0.4438104629516602,-0.3074861764907837,58.9755859375,99.98489379882812,-2.15313720703125
185010,0.3493499755859375,1.216110229492188,-0.5321044921875,-0.157320111989975,-0.4438104629516602,-0.3074861764907837,58.9755859375,99.98489379882812,-2.15313720703125
185011,0.29486083984375,1.240875244140625,-0.5958099365234375,0.3860627412796021,-0.4236346185207367,-0.057719487696886,58.81285095214844,99.94163513183594,-1.907760620117188
185012,0.2644195556640625,1.226226806640625,-0.635467529296875,0.5832200050354004,-0.4198095202445984,0.0447538904845714,58.80831909179688,99.8209228515625,-1.89202880859375
185013,0.2199249267578125,1.205291748046875,-0.616607666015625,0.6903374195098877,-0.4117766320705414,0.1333436816930771,58.86177062988281,99.90792846679688,-2.142532348632812
185014,0.2199249267578125,1.205291748046875,-0.616607666015625,0.6903374195098877,-0.4117766320705414,0.1333436816930771,58.86177062988281,99.90792846679688,-2.142532348632812
185015,0.140045166015625,1.1134033203125,-0.4720001220703125,0.7451346516609192,-0.3609755039215088,0.2350050508975983,59.2877197265625,99.8540496826172,-2.725570678710938
185016,0.140045166015625,1.1134033203125,-0.4720001220703125,0.7451346516609192,-0.3609755039215088,0.2350050508975983,59.2877197265625,99.8540496826172,-2.725570678710938
185017,0.1241607666015625,1.065887451171875,-0.4102630615234375,0.7602219581604004,-0.3219849765300751,0.259007066488266,59.49946594238281,99.80055236816406,-3.169937133789062
185018,0.1239166259765625,1.02996826171875,-0.3492279052734375,0.6886284947395325,-0.3088087141513824,0.2291373163461685,59.72447204589844,99.78834533691406,-3.527389526367188
185019,0.1187744140625,0.9783172607421876,-0.1636505126953125,0.5374799370765686,-0.3011196255683899,0.1851410865783691,60.17050170898438,99.91665649414062,-4.469146728515625
185020,0.0845947265625,1.073699951171875,0.0877685546875,0.0725069567561149,-0.1273132115602493,-0.0355044640600681,60.47529602050781,100.0549468994141,-5.148590087890625
185021,0.0845947265625,1.073699951171875,0.0877685546875,0.0725069567561149,-0.1273132115602493,-0.0355044640600681,60.47529602050781,100.0549468994141,-5.148590087890625
185022,0.0845947265625,1.073699951171875,0.0877685546875,0.0725069567561149,-0.1273132115602493,-0.0355044640600681,60.47529602050781,100.0549468994141,-5.148590087890625
185023,-0.0284423828125,1.259078979492188,0.2913055419921875,0.0606926418840885,-0.0184314716607332,-0.1209495887160301,60.7879638671875,99.99624633789062,-5.168380737304688
185024,-0.1146240234375,1.354156494140625,0.298553466796875,0.1224430948495865,0.0246715247631073,-0.19204081594944,60.87750244140625,100.1120452880859,-5.279220581054688
185025,-0.175811767578125,1.386199951171875,0.2769317626953125,0.433506965637207,-0.1789543032646179,-0.3105101883411407,60.86611938476562,100.131591796875,-5.5667724609375
185026,-0.175811767578125,1.386199951171875,0.2769317626953125,0.433506965637207,-0.1789543032646179,-0.3105101883411407,60.86611938476562,100.131591796875,-5.5667724609375
185027,-0.2348175048828125,1.211868286132812,0.117889404296875,0.6342134475708008,-0.3932452797889709,-0.33704674243927,60.78962707519531,100.3363800048828,-6.058517456054688
185028,-0.2383270263671875,1.099151611328125,0.0227813720703125,0.8301509618759155,-0.644583523273468,-0.360250324010849,60.710693359375,100.4186553955078,-6.308731079101562
185029,-0.2318115234375,1.012710571289062,-0.0069732666015625,0.956613838672638,-0.8279259204864502,-0.3590790629386902,60.61576843261719,100.5703887939453,-6.63800048828125
185030,-0.2318115234375,1.012710571289062,-0.0069732666015625,0.956613838672638,-0.8279259204864502,-0.3590790629386902,60.61576843261719,100.5703887939453,-6.63800048828125
185031,-0.200714111328125,0.86407470703125,-0.012176513671875,0.8424649238586426,-0.7369731068611145,-0.2766928374767303,60.4190673828125,100.7816467285156,-7.4423828125
185032,-0.1848297119140625,0.8003692626953125,-0.0523681640625,0.6511556506156921,-0.6243911385536194,-0.1838808804750443,60.26806640625,101.0819244384766,-7.917312622070312
185033,-0.1956939697265625,0.7634735107421875,-0.065399169921875,0.5180785655975342,-0.5608300566673279,-0.1141087263822556,60.19580078125,101.1549682617188,-8.403244018554688
185034,-0.2239227294921875,0.7398681640625,-0.044525146484375,0.4700905382633209,-0.5260326266288757,-0.0832701250910759,60.10823059082031,101.1695709228516,-8.708633422851562
185035,-0.257568359375,0.7313690185546875,-0.0031890869140625,0.3506712019443512,-0.3327688872814178,-0.1065397560596466,60.14540100097656,101.2198028564453,-9.058639526367188
185036,-0.257568359375,0.7313690185546875,-0.0031890869140625,0.3506712019443512,-0.3327688872814178,-0.1065397560596466,60.14540100097656,101.2198028564453,-9.058639526367188
185037,-0.2887420654296875,0.7565460205078125,0.05548095703125,0.3506712019443512,-0.3327688872814178,-0.1065397560596466,60.24310302734375,101.1216278076172,-9.340225219726562
185038,-0.3085784912109375,0.8046112060546875,0.14886474609375,0.0012053466634824,0.0868368968367576,-0.1482858806848526,60.29072570800781,101.2219696044922,-9.444793701171877
185039,-0.297332763671875,0.8682098388671875,0.2462921142578125,-0.1399962455034256,0.2435452789068222,-0.1378955543041229,60.37727355957031,101.1962738037109,-9.795578002929688
185040,-0.297332763671875,0.8682098388671875,0.2462921142578125,-0.1399962455034256,0.2435452789068222,-0.1378955543041229,60.37727355957031,101.1962738037109,-9.795578002929688
185041,-0.2410125732421875,0.8650970458984375,0.226898193359375,-0.1972835063934326,0.0621440634131431,0.0892342701554298,60.33456420898438,101.2108917236328,-9.784271240234377
185042,-0.1930389404296875,0.8435211181640625,0.252410888671875,-0.1972835063934326,0.0621440634131431,0.0892342701554298,60.31285095214844,101.27197265625,-9.620803833007812
185043,-0.1514129638671875,0.8047637939453125,0.323211669921875,-0.2273655086755753,0.0148958591744303,0.1518795490264893,60.4056396484375,101.1272125244141,-9.504135131835938
185044,-0.1514129638671875,0.8047637939453125,0.323211669921875,-0.2273655086755753,0.0148958591744303,0.1518795490264893,60.4056396484375,101.1272125244141,-9.504135131835938
185045,-0.1167449951171875,0.759918212890625,0.35931396484375,-0.2715066075325012,0.0731796696782112,0.2107500433921814,60.45989990234375,101.120849609375,-9.498672485351562
185046,-0.067047119140625,0.74798583984375,0.3271636962890625,-0.3140109181404114,0.0988136604428291,0.2444448918104172,60.3992919921875,101.1296997070312,-9.4219970703125
185047,-0.03265380859375,0.797271728515625,0.2649078369140625,-0.3719919323921204,-0.0063124909065663,0.2569122314453125,60.61604309082031,100.869384765625,-9.155014038085938
185048,-0.03265380859375,0.797271728515625,0.2649078369140625,-0.3719919323921204,-0.0063124909065663,0.2569122314453125,60.61604309082031,100.869384765625,-9.155014038085938
185049,0.0277252197265625,0.8556976318359375,0.3016204833984375,-0.5032354593276978,-0.2391779571771622,0.2034908086061478,60.68478393554688,100.7948303222656,-8.88494873046875
185050,0.036865234375,0.874755859375,0.3364715576171875,-0.5032354593276978,-0.2391779571771622,0.2034908086061478,60.66006469726562,100.8520355224609,-8.710617065429688
185051,0.0250396728515625,0.8838043212890625,0.350128173828125,-0.5522037744522095,-0.2452699393033981,0.195849135518074,60.75967407226562,100.8024749755859,-8.531021118164062
185052,0.0250396728515625,0.8838043212890625,0.350128173828125,-0.5522037744522095,-0.2452699393033981,0.195849135518074,60.75967407226562,100.8024749755859,-8.531021118164062
185053,-0.0211639404296875,0.9485626220703124,0.238525390625,-0.6278277039527893,-0.2133266627788544,0.2136595547199249,60.96983337402344,100.6102752685547,-8.035263061523438
185054,-0.060211181640625,1.000625610351562,0.120391845703125,-0.5392794609069824,-0.2448062896728516,0.1683048605918884,61.00434875488281,100.6792907714844,-7.770217895507812
185055,-0.0825653076171875,1.030380249023438,0.0487518310546875,-0.3363300859928131,-0.247944563627243,0.0980725064873695,61.05767822265625,100.5841979980469,-7.458740234375
185056,-0.0825653076171875,1.030380249023438,0.0487518310546875,-0.3363300859928131,-0.247944563627243,0.0980725064873695,61.05767822265625,100.5841979980469,-7.458740234375
185057,-0.1371917724609375,1.003524780273438,-0.1269989013671875,0.0690155550837516,0.0996237993240356,0.0158154480159282,61.04519653320312,100.4076538085938,-6.80596923828125
185058,-0.17529296875,0.97381591796875,-0.244476318359375,0.063074305653572,0.3428468406200409,0.0032381375785917,61.05354309082031,100.4483032226562,-6.730224609375
185059,-0.2059326171875,0.970428466796875,-0.3259429931640625,0.063074305653572,0.3428468406200409,0.0032381375785917,61.01249694824219,100.4339141845703,-6.659515380859375
185060,-0.2059326171875,0.970428466796875,-0.3259429931640625,0.063074305653572,0.3428468406200409,0.0032381375785917,61.01249694824219,100.4339141845703,-6.659515380859375
185061,-0.17071533203125,1.0968017578125,-0.4558258056640625,-0.631434440612793,0.4577566385269165,-0.0870227813720703,60.72016906738281,100.4647064208984,-6.575897216796875
185062,-0.1041107177734375,1.206771850585938,-0.4478912353515625,-0.631434440612793,0.4577566385269165,-0.0870227813720703,60.53416442871094,100.4547576904297,-6.608322143554688
185063,-0.0581207275390625,1.283737182617188,-0.4169158935546875,-0.6057242751121521,0.5532978177070618,-0.0559527464210987,60.46331787109375,100.24658203125,-6.485748291015625
185064,-0.0581207275390625,1.283737182617188,-0.4169158935546875,-0.6057242751121521,0.5532978177070618,-0.0559527464210987,60.46331787109375,100.24658203125,-6.485748291015625
185065,-0.0535125732421875,1.310836791992188,-0.3899078369140625,0.067524179816246,0.8340035080909729,0.3200815916061401,60.21388244628906,100.0160980224609,-5.70526123046875
185066,-0.007415771484375,1.24713134765625,-0.4570770263671875,0.067524179816246,0.8340035080909729,0.3200815916061401,60.09767150878906,99.93138122558594,-5.25732421875
185067,0.0999908447265625,1.116043090820312,-0.53173828125,0.2754672467708588,0.8991398811340332,0.4831448197364807,60.09542846679688,99.896240234375,-5.056838989257812
185068,0.0999908447265625,1.116043090820312,-0.53173828125,0.2754672467708588,0.8991398811340332,0.4831448197364807,60.09542846679688,99.896240234375,-5.056838989257812
185069,0.211334228515625,1.024505615234375,-0.5630035400390625,0.414872020483017,0.9609870314598083,0.5685452222824097,60.10272216796875,99.9258270263672,-5.118942260742188
185070,0.297607421875,0.981170654296875,-0.580963134765625,0.4495908617973328,0.9753372073173524,0.5941192507743835,60.29188537597656,99.81727600097656,-5.097854614257812
185071,0.3848876953125,1.045318603515625,-0.58807373046875,0.3866736888885498,0.9071360230445862,0.5004082322120667,60.71499633789062,99.67756652832033,-5.255264282226562
185072,0.3848876953125,1.045318603515625,-0.58807373046875,0.3866736888885498,0.9071360230445862,0.5004082322120667,60.71499633789062,99.67756652832033,-5.255264282226562
185073,0.3878936767578125,1.134979248046875,-0.5898284912109375,0.3513841331005096,0.8583240509033203,0.4017650187015533,60.93948364257812,99.65110778808594,-5.309295654296875
185074,0.287506103515625,1.253616333007812,-0.5502777099609375,0.4175679385662079,0.7259593605995178,0.2377473115921021,61.17601013183594,99.59040832519533,-5.47894287109375
185075,0.2388458251953125,1.241119384765625,-0.4974517822265625,0.4821977913379669,0.6271291375160217,0.2091622799634933,61.22019958496094,99.59573364257812,-5.6119384765625
185076,0.2388458251953125,1.241119384765625,-0.4974517822265625,0.4821977913379669,0.6271291375160217,0.2091622799634933,61.22019958496094,99.59573364257812,-5.6119384765625
185077,0.1731414794921875,1.098114013671875,-0.320068359375,0.4344542622566223,0.3372424840927124,0.1891792416572571,61.21611022949219,99.79324340820312,-5.91864013671875
185078,0.1731414794921875,1.098114013671875,-0.320068359375,0.4344542622566223,0.3372424840927124,0.1891792416572571,61.21611022949219,99.79324340820312,-5.91864013671875
185079,0.1033172607421875,0.936981201171875,-0.17333984375,0.2254504263401031,-0.0883277282118797,0.1687615811824799,61.31498718261719,99.85264587402344,-6.191970825195312
185080,0.1033172607421875,0.936981201171875,-0.17333984375,0.2254504263401031,-0.0883277282118797,0.1687615811824799,61.31498718261719,99.85264587402344,-6.191970825195312
185081,0.099700927734375,0.887176513671875,-0.125579833984375,0.1170813515782356,-0.3186892867088318,0.1755611747503281,61.36137390136719,99.889404296875,-6.401931762695312
185082,0.105987548828125,0.88970947265625,-0.0499114990234375,0.0146271456032991,-0.4969296157360077,0.1702779978513718,61.53977966308594,99.96286010742188,-6.521163940429688
185083,0.16741943359375,0.975372314453125,0.0826873779296875,-0.1739470213651657,-0.6085485219955444,0.1997575908899307,61.89149475097656,99.96266174316406,-6.879165649414062
185084,0.16741943359375,0.975372314453125,0.0826873779296875,-0.1739470213651657,-0.6085485219955444,0.1997575908899307,61.89149475097656,99.96266174316406,-6.879165649414062
185085,0.1938934326171875,1.034774780273438,0.099273681640625,-0.2161123305559158,-0.6851480007171631,0.2090208530426025,62.03468322753906,99.69235229492188,-6.912734985351562
185086,0.2048187255859375,1.07171630859375,0.12847900390625,-0.2154891490936279,-0.7550506591796875,0.2129926979541779,62.23368835449219,99.67469787597656,-6.888442993164062
185087,0.17376708984375,1.0784912109375,0.1571044921875,-0.1326720267534256,-0.6564106345176697,0.2315357625484467,62.701171875,99.59490966796876,-6.924041748046875
185088,0.17376708984375,1.0784912109375,0.1571044921875,-0.1326720267534256,-0.6564106345176697,0.2315357625484467,62.701171875,99.59490966796876,-6.924041748046875
185089,0.1424713134765625,1.063796997070312,0.1602935791015625,-0.0054799863137304,-0.5096566081047058,0.167325347661972,62.93878173828125,99.45808410644533,-6.827529907226562
185090,0.027984619140625,1.018310546875,0.166229248046875,0.0958759263157844,-0.5024948120117188,0.130401149392128,63.50361633300781,99.21282958984376,-6.800048828125
185091,-0.03265380859375,0.9767608642578124,0.16961669921875,0.1837647706270218,-0.5472468137741089,0.1172459349036217,63.71623229980469,99.22027587890624,-6.907180786132812
185092,-0.03265380859375,0.9767608642578124,0.16961669921875,0.1837647706270218,-0.5472468137741089,0.1172459349036217,63.71623229980469,99.22027587890624,-6.907180786132812
185093,-0.0792694091796875,0.940826416015625,0.1923065185546875,0.1870026439428329,-0.5281344056129456,0.1119821965694427,64.02168273925781,98.95729064941406,-6.920455932617188
185094,-0.122650146484375,0.8952178955078125,0.205474853515625,0.0944807007908821,-0.4569776654243469,0.1189623400568962,64.48098754882812,98.6470184326172,-7.39739990234375
185095,-0.2312774658203125,0.86138916015625,0.2148590087890625,-0.1752365380525589,-0.307017982006073,0.0920076891779899,64.84104919433594,98.59841918945312,-7.578887939453125
185096,-0.2312774658203125,0.86138916015625,0.2148590087890625,-0.1752365380525589,-0.307017982006073,0.0920076891779899,64.84104919433594,98.59841918945312,-7.578887939453125
185097,-0.29888916015625,0.86651611328125,0.2691802978515625,-0.2534210681915283,-0.2042908221483231,-0.0060509680770337,64.96597290039062,98.6268310546875,-7.460342407226562
185098,-0.3810272216796875,0.877899169921875,0.3163909912109375,-0.2781226933002472,-0.0173763278871774,-0.1532209813594818,65.05021667480469,98.5869140625,-7.240081787109375
185099,-0.4886474609375,0.882720947265625,0.325836181640625,-0.2044809758663177,0.366564154624939,-0.3791923224925995,64.95654296875,98.57878112792967,-7.145309448242188
185100,-0.4886474609375,0.882720947265625,0.325836181640625,-0.2044809758663177,0.366564154624939,-0.3791923224925995,64.95654296875,98.57878112792967,-7.145309448242188
185101,-0.4746246337890625,0.8839111328125,0.3068084716796875,-0.1192592829465866,0.4678939580917358,-0.3721187114715576,64.78744506835938,98.66329956054688,-6.9302978515625
185102,-0.3250885009765625,0.8935394287109375,0.2550048828125,-0.0936418026685714,0.3603360652923584,-0.2732283473014832,64.3250732421875,98.83984375,-6.866012573242188
185103,-0.2505645751953125,0.8682708740234375,0.237579345703125,-0.138374388217926,0.2718749344348907,-0.2611636817455292,64.10655212402344,98.7939910888672,-6.714767456054688
185104,-0.1929168701171875,0.8342437744140625,0.18975830078125,-0.1518625020980835,0.2010281831026077,-0.249031662940979,63.93299865722656,98.8371124267578,-6.55828857421875
185105,-0.1453399658203125,0.819000244140625,0.1515655517578125,-0.1260878890752792,0.1561507135629654,-0.2182202190160751,63.69981384277344,98.87745666503906,-6.453369140625
185106,-0.1181793212890625,0.82147216796875,0.135498046875,-0.0795286446809768,0.1969295740127563,-0.2092962265014648,63.515380859375,98.83479309082033,-6.392440795898438
185107,-0.1039581298828125,0.815277099609375,0.1216583251953125,-0.0536421909928321,0.2863097786903381,-0.2334601581096649,63.28195190429688,98.96621704101562,-6.28265380859375
185108,-0.1039581298828125,0.815277099609375,0.1216583251953125,-0.0536421909928321,0.2863097786903381,-0.2334601581096649,63.28195190429688,98.96621704101562,-6.28265380859375
185109,-0.099609375,0.761199951171875,0.080902099609375,-0.1338605880737305,0.2992216050624847,-0.3156490325927734,62.84910583496094,99.2056121826172,-6.210235595703125
185110,-0.1013336181640625,0.739105224609375,0.0649871826171875,-0.239416316151619,0.1807679235935211,-0.348255455493927,62.54791259765625,99.12893676757812,-6.1231689453125
185111,-0.094451904296875,0.7360382080078125,0.056396484375,-0.3539167940616608,0.0189270861446857,-0.372759997844696,62.41595458984375,99.18716430664062,-5.96051025390625
185112,-0.094451904296875,0.7360382080078125,0.056396484375,-0.3539167940616608,0.0189270861446857,-0.372759997844696,62.41595458984375,99.18716430664062,-5.96051025390625
185113,-0.0800018310546875,0.7423553466796875,0.039306640625,-0.4815903306007385,-0.1125481128692627,-0.3800666332244873,62.09780883789062,99.34664916992188,-5.889175415039062
185114,-0.05474853515625,0.766815185546875,-0.005523681640625,-0.6279842853546143,-0.226412370800972,-0.3263155221939087,61.94061279296875,99.49128723144533,-5.7476806640625
185115,-0.0014801025390625,0.865966796875,-0.1000213623046875,-0.6444322466850281,-0.1323681622743607,-0.2749423384666443,61.43605041503906,99.461669921875,-5.1815185546875
185116,-0.0014801025390625,0.865966796875,-0.1000213623046875,-0.6444322466850281,-0.1323681622743607,-0.2749423384666443,61.43605041503906,99.461669921875,-5.1815185546875
185117,0.036865234375,0.94232177734375,-0.1439056396484375,-0.6584857702255249,0.1194158792495728,-0.2168289870023727,61.18928527832031,99.51113891601562,-4.875289916992188
185118,0.062347412109375,1.010726928710938,-0.2130279541015625,-0.7176055312156677,0.2961309850215912,-0.2030375301837921,61.05332946777344,99.57048034667967,-4.504852294921875
185119,0.091400146484375,1.133499145507812,-0.289215087890625,-1.021254301071167,0.0827603936195373,-0.2807301878929138,60.60542297363281,99.4701690673828,-3.570220947265625
185120,0.091400146484375,1.133499145507812,-0.289215087890625,-1.021254301071167,0.0827603936195373,-0.2807301878929138,60.60542297363281,99.4701690673828,-3.570220947265625
185121,0.0996551513671875,1.316604614257812,-0.3815155029296875,-0.9335862994194032,-0.0133885098621249,-0.2423974573612213,60.35696411132812,99.24356079101562,-2.265670776367188
185122,0.0919036865234375,1.421096801757812,-0.4251708984375,-0.7242532968521118,-0.0822874158620834,-0.1903515607118607,60.04617309570312,99.163818359375,-1.767669677734375
185123,0.1222381591796875,1.4454345703125,-0.4272918701171875,-0.4786904156208038,-0.1479883939027786,-0.1349721997976303,59.91716003417969,98.92166137695312,-1.178176879882812
185124,0.1838836669921875,1.398956298828125,-0.41302490234375,-0.2253050208091736,-0.1896346509456635,-0.085735946893692,59.88154602050781,98.88348388671876,-1.088577270507812
185125,0.1838836669921875,1.398956298828125,-0.41302490234375,-0.2253050208091736,-0.1896346509456635,-0.085735946893692,59.88154602050781,98.88348388671876,-1.088577270507812
185126,0.3570404052734375,1.200057983398438,-0.5655059814453125,0.4694348573684692,-0.2784651815891266,0.0052219261415302,59.70068359375,98.91729736328124,-0.9683990478515624
185127,0.4163665771484375,1.126083374023438,-0.6496429443359375,0.8027982115745544,-0.3281808197498322,0.0850885286927223,59.73200988769531,98.91322326660156,-1.039520263671875
185128,0.4471282958984375,1.053970336914062,-0.6656494140625,0.978946566581726,-0.3523782789707184,0.2088277786970139,59.82028198242188,98.943603515625,-1.291732788085938
185129,0.4471282958984375,1.053970336914062,-0.6656494140625,0.978946566581726,-0.3523782789707184,0.2088277786970139,59.82028198242188,98.943603515625,-1.291732788085938
185130,0.4295196533203125,0.986083984375,-0.5948638916015625,0.8790703415870667,-0.3694227933883667,0.210682138800621,60.09339904785156,99.04653930664062,-2.118911743164062
185131,0.3878631591796875,1.000869750976562,-0.5638427734375,0.7574014067649841,-0.408591240644455,0.1890492886304855,60.30677795410156,99.19046020507812,-2.513397216796875
185132,0.3236083984375,1.018386840820312,-0.497650146484375,0.6565219163894653,-0.4442634582519531,0.1763510704040527,60.45257568359375,99.38714599609376,-3.109054565429688
185133,0.3236083984375,1.018386840820312,-0.497650146484375,0.6565219163894653,-0.4442634582519531,0.1763510704040527,60.45257568359375,99.38714599609376,-3.109054565429688
185134,0.209625244140625,1.076171875,-0.36676025390625,0.4935926795005798,-0.5851598978042603,0.1418037414550781,60.86880493164062,99.4407958984375,-4.068939208984375
185135,0.1680450439453125,1.147491455078125,-0.25811767578125,0.3973646759986877,-0.6080158948898315,0.132473886013031,61.07981872558594,99.40602111816406,-4.436859130859375
185136,0.1680450439453125,1.147491455078125,-0.25811767578125,0.3973646759986877,-0.6080158948898315,0.132473886013031,61.07981872558594,99.40602111816406,-4.436859130859375
185137,0.13555908203125,1.265777587890625,-0.1313018798828125,0.2395348250865936,-0.5633813142776489,0.0780370086431503,61.18659973144531,99.53131103515624,-4.85821533203125
185138,0.045135498046875,1.478485107421875,0.1647796630859375,0.0515763759613037,-0.3778447508811951,-0.0631302297115325,61.50634765625,99.63880920410156,-5.217849731445312
185139,-0.011322021484375,1.52545166015625,0.2635040283203125,0.1429102867841721,-0.2857286930084229,-0.1461433619260788,61.62947082519531,99.52113342285156,-5.241561889648438
185140,-0.0975494384765625,1.515701293945312,0.3134002685546875,0.2834969460964203,-0.2599282562732697,-0.1897425055503845,61.71502685546875,99.553466796875,-5.251449584960938
185141,-0.0975494384765625,1.515701293945312,0.3134002685546875,0.2834969460964203,-0.2599282562732697,-0.1897425055503845,61.71502685546875,99.553466796875,-5.251449584960938
185142,-0.23736572265625,1.450119018554688,0.33880615234375,0.748664140701294,-0.3848606050014496,-0.1677176356315613,61.92118835449219,99.70025634765624,-5.856002807617188
185143,-0.2391815185546875,1.34893798828125,0.258453369140625,0.969527006149292,-0.5254712104797363,-0.1247310116887093,61.94580078125,99.83334350585938,-6.216796875
185144,-0.2391815185546875,1.34893798828125,0.258453369140625,0.969527006149292,-0.5254712104797363,-0.1247310116887093,61.94580078125,99.83334350585938,-6.216796875
185145,-0.21771240234375,1.227996826171875,0.10308837890625,1.057431221008301,-0.8000718951225281,-0.0648503676056861,62.01528930664062,99.90594482421876,-6.638107299804688
185146,-0.1920166015625,1.121612548828125,0.0235137939453125,1.069217920303345,-1.177443146705627,0.0281530749052763,62.10678100585938,99.95074462890624,-7.197189331054688
185147,-0.1209869384765625,0.925445556640625,0.0348968505859375,1.093100547790527,-1.616897463798523,0.1972680687904358,62.389404296875,100.0248413085938,-8.275039672851562
185148,-0.1209869384765625,0.925445556640625,0.0348968505859375,1.093100547790527,-1.616897463798523,0.1972680687904358,62.389404296875,100.0248413085938,-8.275039672851562
185149,-0.0933990478515625,0.806549072265625,0.010894775390625,0.9817625880241394,-1.769356250762939,0.2596728503704071,62.61569213867188,100.0287628173828,-8.970611572265625
185150,-0.06976318359375,0.7048797607421875,0.05987548828125,0.6624833941459656,-1.656915545463562,0.2529267966747284,62.97012329101562,99.8453369140625,-9.680435180664062
185151,-0.0462799072265625,0.6149749755859375,0.2411956787109375,0.5642194151878357,-1.281135439872742,0.2196170389652252,63.5706787109375,99.81790161132812,-11.02156066894531
185152,-0.0462799072265625,0.6149749755859375,0.2411956787109375,0.5642194151878357,-1.281135439872742,0.2196170389652252,63.5706787109375,99.81790161132812,-11.02156066894531
185153,-0.0628662109375,0.6231689453125,0.2001495361328125,0.5066906213760376,-0.8959829807281494,0.1668462455272675,63.69526672363281,99.90226745605467,-11.59231567382812
185154,-0.170196533203125,0.673065185546875,0.15618896484375,0.3649713099002838,-0.420175701379776,-0.0482394360005855,63.9981689453125,99.95167541503906,-12.3848876953125
185155,-0.217681884765625,0.6850738525390625,0.2729034423828125,0.2496109008789062,-0.0675292462110519,-0.1419922858476639,64.05706787109375,99.8638916015625,-12.59677124023438
185156,-0.217681884765625,0.6850738525390625,0.2729034423828125,0.2496109008789062,-0.0675292462110519,-0.1419922858476639,64.05706787109375,99.8638916015625,-12.59677124023438
185157,-0.240753173828125,0.6592254638671875,0.3104705810546875,-0.0459634959697723,0.6807354092597961,-0.0743256285786628,64.20437622070312,99.88169860839844,-12.878662109375
185158,-0.25225830078125,0.6779022216796875,0.226959228515625,-0.2236370891332626,0.3069921731948853,0.1588402539491653,64.21836853027344,99.84571838378906,-12.89131164550781
185159,-0.256561279296875,0.699462890625,0.193817138671875,-0.2236370891332626,0.3069921731948853,0.1588402539491653,64.34223937988281,99.84828186035156,-12.62211608886719
185160,-0.256561279296875,0.699462890625,0.193817138671875,-0.2236370891332626,0.3069921731948853,0.1588402539491653,64.34223937988281,99.84828186035156,-12.62211608886719
185161,-0.2356109619140625,0.7365264892578125,0.2344512939453125,-0.2514468729496002,-0.0955022871494293,0.2239691764116287,64.47474670410156,99.85040283203124,-12.36663818359375
185162,-0.10894775390625,0.8155670166015625,0.3442535400390625,-0.3040440380573273,-0.3937137424945831,0.2181917279958725,64.58343505859375,99.87713623046876,-12.26193237304688
185163,-0.0655517578125,0.8541412353515625,0.351837158203125,-0.3926602005958557,-0.3433107435703278,0.1750820726156235,64.61351013183594,99.79934692382812,-12.16897583007812
185164,-0.0655517578125,0.8541412353515625,0.351837158203125,-0.3926602005958557,-0.3433107435703278,0.1750820726156235,64.61351013183594,99.79934692382812,-12.16897583007812
185165,0.0083465576171875,0.9068756103515624,0.3579864501953125,-0.8406680822372437,-0.1027455553412437,-0.0454566963016986,64.59503173828125,99.99104309082033,-11.92921447753906
185166,0.0219879150390625,0.9420623779296876,0.3333740234375,-0.8406680822372437,-0.1027455553412437,-0.0454566963016986,64.53485107421875,100.0091400146484,-11.83209228515625
185167,0.0140228271484375,0.99664306640625,0.27252197265625,-0.9332784414291382,-0.0714560747146606,-0.1439329385757446,64.56166076660156,99.93533325195312,-11.60467529296875
185168,0.0140228271484375,0.99664306640625,0.27252197265625,-0.9332784414291382,-0.0714560747146606,-0.1439329385757446,64.56166076660156,99.93533325195312,-11.60467529296875
185169,-0.014068603515625,1.051849365234375,0.197662353515625,-0.9697242975234984,-0.1163069009780884,-0.2452494353055954,64.44683837890625,99.88313293457033,-11.20097351074219
185170,-0.060302734375,1.124710083007812,0.097503662109375,-0.85237717628479,-0.2325280457735062,-0.4074425995349884,64.07725524902344,99.93138122558594,-10.31829833984375
185171,-0.0938262939453125,1.147720336914062,0.0677490234375,-0.7188404202461243,-0.1768645197153091,-0.4590306878089905,63.89016723632812,99.9021453857422,-9.982528686523438
185172,-0.0938262939453125,1.147720336914062,0.0677490234375,-0.7188404202461243,-0.1768645197153091,-0.4590306878089905,63.89016723632812,99.9021453857422,-9.982528686523438
185173,-0.1305389404296875,1.134628295898438,0.0570068359375,-0.589738667011261,-0.0149986566975712,-0.4825434684753418,63.52613830566406,99.984619140625,-9.63275146484375
185174,-0.1864013671875,1.101821899414062,-0.1009368896484375,-0.4650744795799255,0.1573890894651413,-0.4693299531936646,63.02426147460938,100.1767425537109,-8.947967529296875
185175,-0.1793975830078125,1.09844970703125,-0.2092742919921875,-0.4583606421947479,0.0956538245081901,-0.4334259927272797,62.7083740234375,100.2599639892578,-8.622421264648438
185176,-0.1793975830078125,1.09844970703125,-0.2092742919921875,-0.4583606421947479,0.0956538245081901,-0.4334259927272797,62.7083740234375,100.2599639892578,-8.622421264648438
185177,-0.154998779296875,1.106155395507812,-0.3042449951171875,-0.4644432961940765,0.0654032379388809,-0.4182065725326538,62.39140319824219,100.2983093261719,-8.316482543945312
185178,-0.0099334716796875,1.173995971679688,-0.446075439453125,-0.3754953145980835,0.110113188624382,-0.3647894263267517,61.76156616210938,100.4763946533203,-7.843841552734375
185179,0.0431671142578125,1.182479858398438,-0.4734039306640625,-0.2822884023189545,0.1917987316846848,-0.3314042985439301,61.466064453125,100.5083618164062,-7.532562255859375
185180,0.0431671142578125,1.182479858398438,-0.4734039306640625,-0.2822884023189545,0.1917987316846848,-0.3314042985439301,61.466064453125,100.5083618164062,-7.532562255859375
185181,0.045806884765625,1.177093505859375,-0.477874755859375,-0.2168066054582596,0.2394762337207794,-0.2893961369991302,61.08477783203125,100.6026153564453,-7.29486083984375
185182,0.0309906005859375,1.134567260742188,-0.57757568359375,-0.092471607029438,0.0884291976690292,-0.168394073843956,60.49530029296875,100.6870574951172,-7.111663818359375
185183,0.0892181396484375,1.092926025390625,-0.649017333984375,0.0576462522149086,0.0962932482361793,-0.032362200319767,60.38163757324219,100.7128448486328,-7.009902954101562
185184,0.0892181396484375,1.092926025390625,-0.649017333984375,0.0576462522149086,0.0962932482361793,-0.032362200319767,60.38163757324219,100.7128448486328,-7.009902954101562
185185,0.19940185546875,1.04180908203125,-0.6841583251953125,0.5112017393112183,0.6152578592300415,0.3433616161346436,60.28483581542969,100.6088256835938,-6.697982788085938
185186,0.1981658935546875,1.057769775390625,-0.6744842529296875,0.5482692122459412,0.7508053183555603,0.4180656969547272,60.33134460449219,100.6172485351562,-6.63653564453125
185187,0.178741455078125,1.085693359375,-0.663909912109375,0.5482692122459412,0.7508053183555603,0.4180656969547272,60.46771240234375,100.6113433837891,-6.815383911132812
185188,0.178741455078125,1.085693359375,-0.663909912109375,0.5482692122459412,0.7508053183555603,0.4180656969547272,60.46771240234375,100.6113433837891,-6.815383911132812
185189,0.1173858642578125,1.17901611328125,-0.5978240966796875,0.6074209809303284,0.9020315408706664,0.4520308375358582,60.76385498046875,100.6918334960938,-6.974563598632812
185190,0.085052490234375,1.223800659179688,-0.5328521728515625,0.6508472561836243,0.9010400772094728,0.4410876631736755,60.86277770996094,100.7461700439453,-7.184295654296875
185191,0.0587005615234375,1.238739013671875,-0.4332427978515625,0.6715725064277649,0.9000205993652344,0.4012534320354462,61.06278991699219,100.6883087158203,-7.373336791992188
185192,0.0587005615234375,1.238739013671875,-0.4332427978515625,0.6715725064277649,0.9000205993652344,0.4012534320354462,61.06278991699219,100.6883087158203,-7.373336791992188
185193,0.034210205078125,1.2117919921875,-0.315155029296875,0.6528528928756714,0.8663311004638672,0.3413168489933014,61.29444885253906,100.6221771240234,-7.669998168945312
185194,-0.0191802978515625,1.123428344726562,-0.107086181640625,0.5610819458961487,0.6544585227966309,0.2650287449359894,61.61424255371094,100.5930633544922,-8.181350708007812
185195,-0.031890869140625,1.09930419921875,-0.013641357421875,0.5362602472305298,0.4762608110904694,0.2644103467464447,61.74940490722656,100.5811920166016,-8.434783935546875
185196,-0.031890869140625,1.09930419921875,-0.013641357421875,0.5362602472305298,0.4762608110904694,0.2644103467464447,61.74940490722656,100.5811920166016,-8.434783935546875
185197,-0.0016632080078125,1.124435424804688,0.135498046875,0.5199488997459412,0.2411774694919586,0.3270750641822815,61.9210205078125,100.7516021728516,-8.9722900390625
185198,0.0247039794921875,1.148330688476562,0.1886138916015625,0.5636167526245117,0.2494431138038635,0.4155636429786682,62.10513305664062,100.8251953125,-9.22918701171875
185199,0.0224761962890625,1.156341552734375,0.1682891845703125,0.6310226917266846,0.2340503185987473,0.5101748704910278,62.30361938476562,100.8663787841797,-9.394500732421877
185200,0.0224761962890625,1.156341552734375,0.1682891845703125,0.6310226917266846,0.2340503185987473,0.5101748704910278,62.30361938476562,100.8663787841797,-9.394500732421877
185201,0.0365447998046875,1.072036743164062,0.12286376953125,0.6937620043754578,-0.1289558559656143,0.4723486304283142,62.86650085449219,100.6373443603516,-10.02639770507812
185202,0.0182037353515625,0.9612274169921876,0.138031005859375,0.6207910776138306,-0.3703378438949585,0.365628570318222,63.15866088867188,100.5435333251953,-10.39031982421875
185203,-0.0008697509765625,0.824066162109375,0.13934326171875,0.5090557932853699,-0.5963912010192871,0.2831126749515533,63.52801513671875,100.2207946777344,-10.58352661132812
185204,-0.0008697509765625,0.824066162109375,0.13934326171875,0.5090557932853699,-0.5963912010192871,0.2831126749515533,63.52801513671875,100.2207946777344,-10.58352661132812
185205,-0.0245513916015625,0.667694091796875,0.210357666015625,0.2695779502391815,-0.971937656402588,0.2220146954059601,64.05497741699219,100.1210174560547,-11.23316955566406
185206,0.01416015625,0.6547088623046875,0.2769927978515625,0.1551136821508408,-1.013964533805847,0.2200261056423187,64.3055419921875,99.9677276611328,-11.34806823730469
185207,0.0438232421875,0.699981689453125,0.28143310546875,0.0938833504915237,-0.9042094945907592,0.2017259299755096,64.60859680175781,99.88217163085938,-11.62590026855469
185208,0.0438232421875,0.699981689453125,0.28143310546875,0.0938833504915237,-0.9042094945907592,0.2017259299755096,64.60859680175781,99.88217163085938,-11.62590026855469
185209,0.0388641357421875,0.7466888427734375,0.2513580322265625,0.0114502608776092,-0.6825548410415649,0.1592000424861908,64.79776000976562,99.76246643066406,-11.91767883300781
185210,-0.0991973876953125,0.7226715087890625,0.126251220703125,-0.2971096932888031,-0.2858453392982483,0.0267570447176694,65.09420776367188,99.57965087890624,-12.215576171875
185211,-0.1978607177734375,0.7602386474609375,0.1291046142578125,-0.4128418862819672,-0.1671170890331268,-0.0453917160630226,65.17446899414062,99.55613708496094,-12.11262512207031
185212,-0.1978607177734375,0.7602386474609375,0.1291046142578125,-0.4128418862819672,-0.1671170890331268,-0.0453917160630226,65.17446899414062,99.55613708496094,-12.11262512207031
185213,-0.312957763671875,0.8842620849609375,0.1176300048828125,-0.480201244354248,0.0391042605042457,-0.2721076905727386,65.24301147460938,99.47984313964844,-11.9835205078125
185214,-0.346527099609375,0.9209747314453124,0.08966064453125,-0.4448744058609009,0.1448788940906525,-0.3797052502632141,65.20384216308594,99.4766082763672,-11.86918640136719
185215,-0.3588104248046875,0.9524993896484376,0.0642852783203125,-0.3739815950393677,0.2759881615638733,-0.4339335858821869,65.08908081054688,99.48551940917967,-11.62477111816406
185216,-0.3588104248046875,0.9524993896484376,0.0642852783203125,-0.3739815950393677,0.2759881615638733,-0.4339335858821869,65.08908081054688,99.48551940917967,-11.62477111816406
185217,-0.3539581298828125,0.9684600830078124,0.0474395751953125,-0.3085754215717316,0.3882412016391754,-0.4275023341178894,64.96737670898438,99.59060668945312,-11.2816162109375
185218,-0.2911224365234375,0.9958038330078124,0.0670623779296875,-0.2769226729869843,0.4800595641136169,-0.4070812165737152,64.50808715820312,99.65206909179688,-11.03993225097656
185219,-0.2512664794921875,0.9849700927734376,0.09075927734375,-0.2678468823432922,0.4629013240337372,-0.4111499786376953,64.29281616210938,99.70957946777344,-10.90834045410156
185220,-0.1931610107421875,0.9242706298828124,0.0378570556640625,-0.1992036551237106,0.3704203963279724,-0.414869636297226,63.84626770019531,99.74847412109376,-10.25027465820312
185221,-0.1931610107421875,0.9242706298828124,0.0378570556640625,-0.1992036551237106,0.3704203963279724,-0.414869636297226,63.84626770019531,99.74847412109376,-10.25027465820312
185222,-0.17352294921875,0.8646697998046875,0.004852294921875,-0.1298099309206009,0.3446527123451233,-0.4299556314945221,63.64881896972656,99.8582000732422,-10.09152221679688
185223,-0.1546173095703125,0.7935791015625,-0.019256591796875,-0.0606324560940265,0.3481231033802032,-0.4459569752216339,63.36332702636719,99.88719177246094,-9.828369140625
185224,-0.1546173095703125,0.7935791015625,-0.019256591796875,-0.0606324560940265,0.3481231033802032,-0.4459569752216339,63.36332702636719,99.88719177246094,-9.828369140625
185225,-0.1286163330078125,0.7061767578125,-0.036712646484375,-0.1140101924538612,0.2886480391025543,-0.4878157377243042,62.78645324707031,100.0595092773438,-9.733047485351562
185226,-0.12646484375,0.707183837890625,-0.0647430419921875,-0.2607556879520416,0.1937521547079086,-0.511894166469574,62.46066284179688,100.1726379394531,-9.766998291015623
185227,-0.1156463623046875,0.7263641357421875,-0.1112213134765625,-0.4485122859477997,0.0381178259849548,-0.5467959642410278,62.11100769042969,100.3976135253906,-9.7713623046875
185228,-0.1156463623046875,0.7263641357421875,-0.1112213134765625,-0.4485122859477997,0.0381178259849548,-0.5467959642410278,62.11100769042969,100.3976135253906,-9.7713623046875
185229,-0.1051025390625,0.761260986328125,-0.14495849609375,-0.6378443837165833,-0.1569720357656479,-0.5688973069190979,61.87930297851562,100.3940124511719,-9.67132568359375
185230,-0.094207763671875,0.8380584716796875,-0.0700836181640625,-0.9605750441551208,-0.2542282938957214,-0.5410901308059692,61.30535888671875,100.521484375,-9.18536376953125
185231,-0.10211181640625,0.9161834716796876,-0.0608062744140625,-1.084305286407471,-0.1973599493503571,-0.5443551540374756,60.91496276855469,100.6522979736328,-8.824188232421875
185232,-0.10211181640625,0.9161834716796876,-0.0608062744140625,-1.084305286407471,-0.1973599493503571,-0.5443551540374756,60.91496276855469,100.6522979736328,-8.824188232421875
185233,-0.1213226318359375,1.116500854492188,-0.127593994140625,-1.200325846672058,-0.1634813398122787,-0.5581333041191101,60.337890625,100.8385162353516,-7.991165161132812
185234,-0.1184844970703125,1.222625732421875,-0.142364501953125,-1.142693758010864,-0.1281798034906387,-0.5750875473022461,59.9656982421875,100.8116912841797,-7.481521606445312
185235,-0.104522705078125,1.326614379882812,-0.194244384765625,-1.020944595336914,-0.1160272732377052,-0.5402970314025879,59.68489074707031,100.7507476806641,-6.942108154296875
185236,-0.104522705078125,1.326614379882812,-0.194244384765625,-1.020944595336914,-0.1160272732377052,-0.5402970314025879,59.68489074707031,100.7507476806641,-6.942108154296875
185237,-0.0610198974609375,1.416412353515625,-0.2527313232421875,-0.8664118051528931,-0.2125844359397888,-0.5105487704277039,59.23541259765625,100.7850646972656,-6.393310546875
185238,0.0006561279296875,1.4754638671875,-0.2773590087890625,-0.7207126617431641,-0.3938452899456024,-0.4456312656402588,58.84461975097656,100.8078002929688,-5.764022827148438
185239,0.1635284423828125,1.50042724609375,-0.2998809814453125,-0.3723160326480865,-0.584735095500946,-0.2825219631195068,58.41038513183594,100.8192901611328,-4.796707153320312
185240,0.1635284423828125,1.50042724609375,-0.2998809814453125,-0.3723160326480865,-0.584735095500946,-0.2825219631195068,58.41038513183594,100.8192901611328,-4.796707153320312
185241,0.21307373046875,1.436477661132812,-0.339569091796875,-0.0927794724702835,-0.6403741240501404,-0.1936317831277847,58.21377563476562,100.8039703369141,-4.482025146484375
185242,0.2632904052734375,1.312088012695312,-0.385650634765625,0.5730882883071899,-0.6713594794273376,0.0284657292068004,58.07514953613281,100.7896881103516,-4.3028564453125
185243,0.301971435546875,1.106674194335938,-0.5027008056640625,0.8155153393745422,-0.670221745967865,0.1187852397561073,57.96281433105469,100.7758178710938,-4.25604248046875
185244,0.301971435546875,1.106674194335938,-0.5027008056640625,0.8155153393745422,-0.670221745967865,0.1187852397561073,57.96281433105469,100.7758178710938,-4.25604248046875
185245,0.287078857421875,1.039230346679688,-0.5240631103515625,0.956604778766632,-0.6397107243537903,0.1848074048757553,58.12959289550781,100.7286987304688,-4.444488525390625
185246,0.1951141357421875,0.9750518798828124,-0.5023956298828125,0.9329319596290588,-0.5813995003700256,0.217985063791275,58.43333435058594,100.7594451904297,-5.3643798828125
185247,0.1284332275390625,0.9970855712890624,-0.480438232421875,0.8443581461906433,-0.6054251790046692,0.2266605794429779,58.70480346679688,100.8076934814453,-5.8116455078125
185248,0.1284332275390625,0.9970855712890624,-0.480438232421875,0.8443581461906433,-0.6054251790046692,0.2266605794429779,58.70480346679688,100.8076934814453,-5.8116455078125
185249,0.0377655029296875,1.112411499023438,-0.3821868896484375,0.7163117527961731,-0.6450613141059875,0.2343307435512543,59.20556640625,100.953857421875,-6.902633666992188
185250,0.0181884765625,1.166000366210938,-0.287750244140625,0.674776554107666,-0.6084348559379578,0.2033251523971558,59.35394287109375,100.9579010009766,-7.213668823242188
185251,0.0089111328125,1.205963134765625,-0.1723175048828125,0.6506587266921997,-0.5062583684921265,0.1747425198554993,59.51327514648438,100.9885559082031,-7.588272094726562
185252,0.0089111328125,1.205963134765625,-0.1723175048828125,0.6506587266921997,-0.5062583684921265,0.1747425198554993,59.51327514648438,100.9885559082031,-7.588272094726562
185253,-0.0035247802734375,1.25885009765625,-0.0636749267578125,0.6664294004440308,-0.161987841129303,0.1436674147844315,59.68568420410156,101.1831207275391,-8.251129150390625
185254,-0.0267181396484375,1.323226928710938,0.022003173828125,0.6746769547462463,-0.0434199124574661,0.1292216330766678,59.90974426269531,101.2334594726562,-8.608444213867188
185255,-0.0940399169921875,1.40447998046875,0.1839752197265625,0.6800935864448547,0.1140895560383797,0.1014475300908089,60.19403076171875,101.3374786376953,-9.3182373046875
185256,-0.0940399169921875,1.40447998046875,0.1839752197265625,0.6800935864448547,0.1140895560383797,0.1014475300908089,60.19403076171875,101.3374786376953,-9.3182373046875
185257,-0.1524200439453125,1.403839111328125,0.2072601318359375,0.7218279838562012,0.2127341032028198,0.0600729249417781,60.28921508789062,101.3707733154297,-9.6651611328125
185258,-0.2109527587890625,1.373382568359375,0.24261474609375,0.8224581480026245,0.2673480808734894,-0.0100771347060799,60.36077880859375,101.4943389892578,-10.07733154296875
185259,-0.3152618408203125,1.208755493164062,0.2208709716796875,0.8602691888809204,0.1602061837911606,-0.0579874031245708,60.83998107910156,101.3909606933594,-10.85322570800781
185260,-0.3509063720703125,1.074798583984375,0.1829833984375,0.8545644283294678,-0.0626215711236,-0.0622063837945461,60.92887878417969,101.4736022949219,-11.16154479980469
185261,-0.3509063720703125,1.074798583984375,0.1829833984375,0.8545644283294678,-0.0626215711236,-0.0622063837945461,60.92887878417969,101.4736022949219,-11.16154479980469
185262,-0.342071533203125,0.8427581787109375,0.095611572265625,0.7184628248214722,-0.6667615175247192,0.0811824724078178,61.10025024414062,101.3959197998047,-12.17155456542969
185263,-0.2618408203125,0.7486724853515625,0.046112060546875,0.6066915392875671,-1.000238299369812,0.1477463245391846,61.28498840332031,101.3472595214844,-12.48677062988281
185264,-0.2618408203125,0.7486724853515625,0.046112060546875,0.6066915392875671,-1.000238299369812,0.1477463245391846,61.28498840332031,101.3472595214844,-12.48677062988281
185265,-0.12054443359375,0.6214599609375,-0.0224151611328125,0.3742023706436157,-1.441341876983643,0.213337317109108,61.55067443847656,101.1248931884766,-13.09446716308594
185266,-0.0808563232421875,0.581024169921875,-0.0862274169921875,0.3132231533527374,-1.435986280441284,0.2338095605373383,61.63688659667969,101.0354309082031,-13.59207153320312
185267,-0.0752716064453125,0.5864715576171875,-0.165069580078125,0.3329377472400665,-1.392334461212158,0.2256339192390442,61.77462768554688,101.0860748291016,-13.86569213867188
185268,-0.0752716064453125,0.5864715576171875,-0.165069580078125,0.3329377472400665,-1.392334461212158,0.2256339192390442,61.77462768554688,101.0860748291016,-13.86569213867188
185269,-0.09051513671875,0.6424407958984375,-0.18035888671875,0.3908593654632568,-1.328570604324341,0.1418018788099289,61.89292907714844,101.0579986572266,-14.27128601074219
185270,-0.153656005859375,0.708740234375,0.0278778076171875,0.2082871645689011,-0.6900333166122437,-0.1833280175924301,62.11781311035156,100.7886047363281,-14.85260009765625
185271,-0.2339630126953125,0.6768646240234375,0.0753173828125,0.0221188850700855,-0.4370428323745728,-0.2556557357311249,62.21226501464844,100.7009887695312,-15.11808776855469
185272,-0.2339630126953125,0.6768646240234375,0.0753173828125,0.0221188850700855,-0.4370428323745728,-0.2556557357311249,62.21226501464844,100.7009887695312,-15.11808776855469
185273,-0.26898193359375,0.6568756103515625,0.1616973876953125,-0.1404207646846771,-0.2875145971775055,-0.2862826287746429,62.24407958984375,100.7355804443359,-15.20344543457031
185274,-0.322265625,0.668975830078125,0.32720947265625,-0.364740401506424,-0.0179779343307018,-0.1772538721561432,62.3248291015625,100.6390075683594,-15.017822265625
185275,-0.37835693359375,0.6694488525390625,0.3359375,-0.4154787063598633,0.1303793042898178,-0.0431328229606151,62.35282897949219,100.6444244384766,-14.81700134277344
185276,-0.37835693359375,0.6694488525390625,0.3359375,-0.4154787063598633,0.1303793042898178,-0.0431328229606151,62.35282897949219,100.6444244384766,-14.81700134277344
185277,-0.3853302001953125,0.678619384765625,0.295562744140625,-0.4599670767784119,0.3206025063991547,0.1538007408380508,62.27346801757812,100.6098327636719,-14.73268127441406
185278,-0.2585601806640625,0.759033203125,0.1504669189453125,-0.4718205332756042,0.3148708641529083,0.1564090400934219,62.1407470703125,100.7738647460938,-14.43766784667969
185279,-0.19964599609375,0.7765045166015625,0.10418701171875,-0.4723472893238068,0.2297762036323547,0.1492544710636139,62.11927795410156,100.8880462646484,-14.18865966796875
185280,-0.19964599609375,0.7765045166015625,0.10418701171875,-0.4723472893238068,0.2297762036323547,0.1492544710636139,62.11927795410156,100.8880462646484,-14.18865966796875
185281,-0.1232452392578125,0.794586181640625,0.1139678955078125,-0.561657726764679,-0.1265150606632233,0.1133238971233368,62.10087585449219,100.6877746582031,-13.97367858886719
185282,0.009490966796875,0.8368072509765625,0.238922119140625,-0.6543514728546143,-0.2445077449083328,0.1007124930620193,62.16064453125,100.7225341796875,-13.46946716308594
185283,0.0386810302734375,0.896575927734375,0.287353515625,-0.7386346459388733,-0.2371068298816681,0.0718217268586158,61.98838806152344,100.6670837402344,-13.17242431640625
185284,0.0386810302734375,0.896575927734375,0.287353515625,-0.7386346459388733,-0.2371068298816681,0.0718217268586158,61.98838806152344,100.6670837402344,-13.17242431640625
185285,0.0502471923828125,1.013534545898438,0.1929931640625,-0.8186466693878174,-0.2062791287899017,-0.0571080259978771,61.95208740234375,100.7063903808594,-12.61494445800781
185286,0.0238037109375,1.077194213867188,0.0938720703125,-0.8112750053405762,-0.3614444732666016,-0.114206999540329,61.8607177734375,100.6091156005859,-12.13349914550781
185287,-0.0203704833984375,1.164382934570312,0.002685546875,-0.7368447184562683,-0.5707201957702637,-0.1535067409276962,61.73829650878906,100.6030883789062,-11.77752685546875
185288,-0.05364990234375,1.213577270507812,-0.07177734375,-0.5775147080421448,-0.711454451084137,-0.1874724179506302,61.57560729980469,100.6796417236328,-11.47633361816406
185289,-0.05364990234375,1.213577270507812,-0.07177734375,-0.5775147080421448,-0.711454451084137,-0.1874724179506302,61.57560729980469,100.6796417236328,-11.47633361816406
185290,-0.066070556640625,1.241470336914062,-0.241668701171875,-0.1931153982877731,-0.4157162606716156,-0.2216796576976776,61.32765197753906,100.9815063476562,-10.85023498535156
185291,-0.064483642578125,1.237518310546875,-0.405670166015625,-0.0475480780005455,-0.2224730253219604,-0.2125833630561829,61.12272644042969,101.0270080566406,-10.78628540039062
185292,-0.064483642578125,1.237518310546875,-0.405670166015625,-0.0475480780005455,-0.2224730253219604,-0.2125833630561829,61.12272644042969,101.0270080566406,-10.78628540039062
185293,-0.0490875244140625,1.292510986328125,-0.4783172607421875,-0.0866845622658729,-0.2184375375509262,-0.1728836297988892,60.652099609375,101.1157379150391,-10.77555847167969
185294,-0.025177001953125,1.32037353515625,-0.4259185791015625,-0.2175720036029816,-0.2402637302875519,-0.1254604458808899,60.50663757324219,101.2428283691406,-10.67300415039062
185295,-0.0137176513671875,1.32659912109375,-0.362640380859375,-0.2420986443758011,-0.2256672084331512,-0.0641765892505645,60.39497375488281,101.1579284667969,-10.58073425292969
185296,-0.0137176513671875,1.32659912109375,-0.362640380859375,-0.2420986443758011,-0.2256672084331512,-0.0641765892505645,60.39497375488281,101.1579284667969,-10.58073425292969
185297,-0.027862548828125,1.29815673828125,-0.3615570068359375,0.0963435769081115,-0.1211743578314781,0.0352586545050144,60.34681701660156,101.1585540771484,-10.52471923828125
185298,-0.050750732421875,1.153182983398438,-0.48394775390625,0.2907381057739258,-0.0082850940525531,0.1079927757382393,60.25923156738281,101.1685638427734,-10.35665893554688
185299,-0.0467071533203125,1.084320068359375,-0.562347412109375,0.4031719565391541,0.0881849825382232,0.1722668409347534,60.2545166015625,101.2369079589844,-10.35868835449219
185300,-0.0467071533203125,1.084320068359375,-0.562347412109375,0.4031719565391541,0.0881849825382232,0.1722668409347534,60.2545166015625,101.2369079589844,-10.35868835449219
185301,-0.00494384765625,1.046890258789062,-0.5711517333984375,0.317061573266983,0.3558744788169861,0.1986270695924759,60.44364929199219,101.2879638671875,-10.56405639648438
185302,0.014892578125,1.0653076171875,-0.519317626953125,0.317061573266983,0.3558744788169861,0.1986270695924759,60.5953369140625,101.2709197998047,-10.76467895507812
185303,0.01300048828125,1.085296630859375,-0.465301513671875,0.2398727834224701,0.4673797190189362,0.16794054210186,60.76449584960938,101.2231597900391,-10.97853088378906
185304,-0.005615234375,1.109298706054688,-0.4133453369140625,0.1538532078266144,0.5841518640518188,0.1232367157936096,60.91224670410156,101.1674041748047,-11.05061340332031
185305,-0.005615234375,1.109298706054688,-0.4133453369140625,0.1538532078266144,0.5841518640518188,0.1232367157936096,60.91224670410156,101.1674041748047,-11.05061340332031
185306,-0.038330078125,1.182113647460938,-0.289703369140625,0.1470850557088852,0.6044070720672607,0.0934764221310615,60.98402404785156,101.3362426757812,-11.24951171875
185307,-0.062286376953125,1.220138549804688,-0.2147369384765625,0.1484344750642776,0.6428908109664917,0.0697164982557296,61.13703918457031,101.2216491699219,-11.18167114257812
185308,-0.062286376953125,1.220138549804688,-0.2147369384765625,0.1484344750642776,0.6428908109664917,0.0697164982557296,61.13703918457031,101.2216491699219,-11.18167114257812
185309,-0.0802764892578125,1.247116088867188,-0.1378021240234375,0.1410961449146271,0.6855335831642151,0.0667494684457778,61.23487854003906,101.1802062988281,-11.19917297363281
185310,-0.0940399169921875,1.228363037109375,-0.013824462890625,0.1419504731893539,0.7063054442405701,0.1138815581798553,61.24803161621094,101.2742309570312,-11.29434204101562
185311,-0.08538818359375,1.167831420898438,0.0181121826171875,0.1789867877960205,0.6585310101509094,0.1779090166091919,61.34033203125,101.2967071533203,-11.29536437988281
185312,-0.08538818359375,1.167831420898438,0.0181121826171875,0.1789867877960205,0.6585310101509094,0.1779090166091919,61.34033203125,101.2967071533203,-11.29536437988281
185313,-0.057403564453125,1.106719970703125,0.050628662109375,0.2331459075212479,0.5785954594612122,0.2704251110553741,61.48281860351562,101.1797637939453,-11.2640380859375
185314,0.00616455078125,1.005859375,0.0717926025390625,0.3272747993469238,0.3413780927658081,0.4550490081310272,61.68345642089844,101.0574035644531,-11.512939453125
185315,0.02978515625,0.944061279296875,0.115814208984375,0.2577700316905975,0.2113188952207565,0.5399316549301147,61.83956909179688,100.9935455322266,-11.6552734375
185316,0.02978515625,0.944061279296875,0.115814208984375,0.2577700316905975,0.2113188952207565,0.5399316549301147,61.83956909179688,100.9935455322266,-11.6552734375
185317,0.0502777099609375,0.89019775390625,0.1605682373046875,0.139663353562355,0.1925806403160095,0.5311262011528015,62.1204833984375,100.9656066894531,-11.86329650878906
185318,0.0955047607421875,0.8507537841796875,0.1504974365234375,0.0183071009814739,0.1053533181548119,0.5120510458946228,62.70718383789062,100.7874755859375,-11.87944030761719
185319,0.11334228515625,0.8429412841796875,0.124359130859375,-0.1193261295557022,-0.17372065782547,0.3820197880268097,63.07620239257812,100.6042785644531,-11.86865234375
185320,0.1100921630859375,0.8727569580078125,0.1221771240234375,-0.1091403365135193,-0.2272800207138062,0.2438051998615265,63.37594604492188,100.5593872070312,-11.82722473144531
185321,0.085906982421875,0.92572021484375,0.145111083984375,-0.1091403365135193,-0.2272800207138062,0.2438051998615265,63.68682861328125,100.3877258300781,-11.66941833496094
185322,0.0509490966796875,0.94561767578125,0.1468963623046875,-0.037963893264532,-0.2343776226043701,0.1187831088900566,63.97659301757812,100.2850189208984,-11.38528442382812
185323,0.021697998046875,0.92083740234375,0.122100830078125,0.0687108859419822,-0.2590661942958832,0.0597336366772651,64.16020202636719,100.1493072509766,-11.1798095703125
185324,0.004974365234375,0.8697967529296875,0.1055908203125,0.1620605438947678,-0.2793608009815216,0.0241375602781772,64.35910034179688,100.0867462158203,-11.20198059082031
185325,0.004974365234375,0.8697967529296875,0.1055908203125,0.1620605438947678,-0.2793608009815216,0.0241375602781772,64.35910034179688,100.0867462158203,-11.20198059082031
185326,-0.068206787109375,0.7750396728515625,0.1222686767578125,0.1526486575603485,-0.141144335269928,-0.0756753161549568,64.41079711914062,100.1551666259766,-11.71144104003906
185327,-0.1427764892578125,0.7515411376953125,0.1028900146484375,0.0390368811786174,-0.0520368367433548,-0.1441406607627869,64.46177673339844,100.1200256347656,-11.90278625488281
185328,-0.1427764892578125,0.7515411376953125,0.1028900146484375,0.0390368811786174,-0.0520368367433548,-0.1441406607627869,64.46177673339844,100.1200256347656,-11.90278625488281
185329,-0.2159576416015625,0.7572479248046875,0.089263916015625,-0.2086823731660843,0.0119855562224984,-0.3743107616901398,64.46736145019531,100.1688385009766,-11.9871826171875
185330,-0.3061676025390625,0.8122100830078125,0.0562591552734375,-0.2366178631782532,0.0366014204919338,-0.463248074054718,64.25914001464844,100.2316284179688,-11.94796752929688
185331,-0.32733154296875,0.8450469970703125,0.0415802001953125,-0.1906943172216415,0.0566928386688232,-0.5260816216468811,64.19232177734375,100.2942504882812,-11.87548828125
185332,-0.32733154296875,0.8450469970703125,0.0415802001953125,-0.1906943172216415,0.0566928386688232,-0.5260816216468811,64.19232177734375,100.2942504882812,-11.87548828125
185333,-0.3341827392578125,0.8655548095703125,0.0437164306640625,-0.1124043092131615,0.0921592190861702,-0.553580105304718,63.88600158691406,100.3603057861328,-11.78730773925781
185334,-0.33343505859375,0.878265380859375,0.0703887939453125,-0.0412896499037742,0.1319247484207153,-0.5379739999771118,63.65403747558594,100.3885955810547,-11.81919860839844
185335,-0.317291259765625,0.85205078125,0.111114501953125,-0.011566374450922,0.1143239140510559,-0.5351001620292664,63.15093994140625,100.5790405273438,-11.62623596191406
185336,-0.317291259765625,0.85205078125,0.111114501953125,-0.011566374450922,0.1143239140510559,-0.5351001620292664,63.15093994140625,100.5790405273438,-11.62623596191406
185337,-0.306915283203125,0.80413818359375,0.0832061767578125,-0.0268806163221597,-0.0555450171232223,-0.5602731704711914,62.93331909179688,100.7724609375,-11.69656372070312
185338,-0.250579833984375,0.7069854736328125,0.091461181640625,-0.0914628058671951,-0.3743341863155365,-0.5606598258018494,62.22296142578125,100.8933410644531,-11.58122253417969
185339,-0.231689453125,0.6702117919921875,0.082794189453125,-0.1390833258628845,-0.3626146912574768,-0.5543654561042786,62.03895568847656,100.9853363037109,-11.52287292480469
185340,-0.231689453125,0.6702117919921875,0.082794189453125,-0.1390833258628845,-0.3626146912574768,-0.5543654561042786,62.03895568847656,100.9853363037109,-11.52287292480469
185341,-0.2281036376953125,0.6423797607421875,0.0568389892578125,-0.2003006041049957,-0.3364810943603516,-0.548799991607666,61.76280212402344,101.0556335449219,-11.53860473632812
185342,-0.2214202880859375,0.682708740234375,0.0263214111328125,-0.3709032237529755,-0.2369006872177124,-0.5632284879684448,61.10556030273438,101.0711364746094,-11.61793518066406
185343,-0.2226409912109375,0.7471771240234375,-0.013763427734375,-0.4828295111656189,-0.1782269924879074,-0.5621895790100098,60.73721313476562,101.2799530029297,-11.42424011230469
185344,-0.2226409912109375,0.7471771240234375,-0.013763427734375,-0.4828295111656189,-0.1782269924879074,-0.5621895790100098,60.73721313476562,101.2799530029297,-11.42424011230469
185345,-0.225616455078125,0.8371429443359375,-0.0865325927734375,-0.5918912887573242,-0.2093646675348282,-0.5598515868186951,60.46163940429688,101.3273468017578,-11.23176574707031
185346,-0.2133941650390625,1.0535888671875,-0.1672515869140625,-0.696135401725769,-0.5287796854972839,-0.532353937625885,59.78352355957031,101.6185760498047,-11.02281188964844
185347,-0.1826171875,1.141204833984375,-0.1401214599609375,-0.677530825138092,-0.5785962343215942,-0.4856364727020264,59.47903442382812,101.7003784179688,-10.75492858886719
185348,-0.1826171875,1.141204833984375,-0.1401214599609375,-0.677530825138092,-0.5785962343215942,-0.4856364727020264,59.47903442382812,101.7003784179688,-10.75492858886719
185349,-0.0956268310546875,1.231399536132812,-0.0529022216796875,-0.6726257801055908,-0.5056698322296143,-0.4044327139854431,58.95022583007812,101.8031005859375,-10.17514038085938
185350,-0.060455322265625,1.2357177734375,-0.018218994140625,-0.6556899547576904,-0.5369643568992615,-0.3578127324581146,58.74172973632812,101.8599700927734,-9.872283935546877
185351,-0.05322265625,1.245391845703125,-0.0200653076171875,-0.5725183486938477,-0.5637038350105286,-0.2893638908863068,58.66111755371094,101.8295745849609,-9.618026733398438
185352,-0.0643463134765625,1.267898559570312,-0.075775146484375,-0.4006752371788025,-0.5868035554885864,-0.2156132459640503,58.50213623046875,101.7772064208984,-9.262557983398438
185353,-0.0643463134765625,1.267898559570312,-0.075775146484375,-0.4006752371788025,-0.5868035554885864,-0.2156132459640503,58.50213623046875,101.7772064208984,-9.262557983398438
185354,-0.155303955078125,1.180343627929688,-0.20587158203125,0.0532493740320205,-0.5934537649154663,-0.1266759186983109,58.35798645019531,101.8348999023438,-8.767288208007812
185355,-0.181793212890625,1.091354370117188,-0.2766876220703125,0.2693635523319244,-0.5571719408035278,-0.0994096770882606,58.27203369140625,101.8150329589844,-8.621810913085938
185356,-0.181793212890625,1.091354370117188,-0.2766876220703125,0.2693635523319244,-0.5571719408035278,-0.0994096770882606,58.27203369140625,101.8150329589844,-8.621810913085938
185357,-0.1787261962890625,1.019058227539062,-0.363006591796875,0.5998280048370361,-0.6385522484779358,-0.0554246418178081,58.25393676757812,101.7418212890625,-8.542709350585938
185358,-0.135162353515625,0.944915771484375,-0.5394287109375,0.9031192064285278,-0.732377290725708,0.0646261274814605,58.25003051757812,101.8016357421875,-8.902847290039062
185359,-0.083251953125,0.9483795166015624,-0.549163818359375,0.9031192064285278,-0.732377290725708,0.0646261274814605,58.270263671875,101.9064636230469,-9.314910888671877
185360,-0.083251953125,0.9483795166015624,-0.549163818359375,0.9031192064285278,-0.732377290725708,0.0646261274814605,58.270263671875,101.9064636230469,-9.314910888671877
185361,-0.026214599609375,0.9844818115234376,-0.522125244140625,0.8034836649894714,-0.5118646025657654,0.2045827060937881,58.29292297363281,101.9100494384766,-9.551528930664062
185362,0.060333251953125,1.160476684570312,-0.4523162841796875,0.5736553072929382,-0.4628616571426392,0.2245276421308517,58.32752990722656,102.0162353515625,-10.43177795410156
185363,0.0682220458984375,1.273361206054688,-0.3684234619140625,0.3770452737808228,-0.4400932192802429,0.1909017711877823,58.32463073730469,101.9879455566406,-10.89649963378906
185364,0.0403900146484375,1.343719482421875,-0.2581939697265625,0.3197005093097687,-0.3869615793228149,0.1581166684627533,58.56428527832031,101.97314453125,-11.27525329589844
185365,0.0403900146484375,1.343719482421875,-0.2581939697265625,0.3197005093097687,-0.3869615793228149,0.1581166684627533,58.56428527832031,101.97314453125,-11.27525329589844
185366,0.011444091796875,1.392013549804688,-0.1545562744140625,0.4411667585372925,-0.1871001124382019,0.1914432048797607,58.68736267089844,101.9706268310547,-11.61541748046875
185367,-0.0173492431640625,1.51129150390625,-0.0039215087890625,0.4835877120494843,-0.1430239975452423,0.2005719840526581,58.96464538574219,102.0188293457031,-11.85060119628906
185368,-0.0173492431640625,1.51129150390625,-0.0039215087890625,0.4835877120494843,-0.1430239975452423,0.2005719840526581,58.96464538574219,102.0188293457031,-11.85060119628906
185369,-0.0396270751953125,1.550262451171875,0.0634765625,0.4975831508636475,-0.147438183426857,0.174128383398056,59.121337890625,101.9660034179688,-12.04753112792969
185370,-0.1169281005859375,1.5255126953125,0.1995849609375,0.5072256326675415,-0.0507417395710945,0.1477191597223282,59.32965087890625,102.0284423828125,-12.65911865234375
185371,-0.1731109619140625,1.439102172851562,0.216156005859375,0.5623738765716553,0.0621967948973178,0.0997774600982666,59.48187255859375,102.0538940429688,-12.89276123046875
185372,-0.1731109619140625,1.439102172851562,0.216156005859375,0.5623738765716553,0.0621967948973178,0.0997774600982666,59.48187255859375,102.0538940429688,-12.89276123046875
185373,-0.236907958984375,1.33990478515625,0.2053375244140625,0.661923885345459,0.133781760931015,0.0345864742994308,59.70819091796875,102.0127258300781,-13.17959594726562
185374,-0.301788330078125,1.2706298828125,0.163848876953125,0.7570091485977173,0.1296658515930176,-0.0535657554864883,59.82984924316406,101.9544830322266,-13.50932312011719
185375,-0.40533447265625,1.072341918945312,0.032470703125,0.8325398564338684,-0.1134778261184692,-0.2024282068014145,59.94479370117188,101.9417877197266,-14.12773132324219
185376,-0.40533447265625,1.072341918945312,0.032470703125,0.8325398564338684,-0.1134778261184692,-0.2024282068014145,59.94479370117188,101.9417877197266,-14.12773132324219
185377,-0.409210205078125,0.7794189453125,-0.053436279296875,0.6234553456306458,-0.3222435414791107,0.0568278618156909,59.96501159667969,101.9709014892578,-14.86688232421875
185378,-0.3270111083984375,0.6804351806640625,-0.080352783203125,0.6234553456306458,-0.3222435414791107,0.0568278618156909,59.98286437988281,101.9803771972656,-15.24871826171875
185379,-0.266265869140625,0.6114044189453125,-0.12646484375,0.4921300709247589,-0.3207284808158875,0.086049661040306,60.01506042480469,101.9250183105469,-15.76724243164062
185380,-0.266265869140625,0.6114044189453125,-0.12646484375,0.4921300709247589,-0.3207284808158875,0.086049661040306,60.01506042480469,101.9250183105469,-15.76724243164062
185381,-0.23748779296875,0.5606536865234375,-0.1750335693359375,0.3786921799182892,-0.3693418204784393,0.0714291781187057,59.96626281738281,101.8296051025391,-15.98602294921875
185382,-0.2008209228515625,0.503082275390625,-0.1623992919921875,0.2299149632453918,-0.2833222448825836,0.0197135172784328,60.23402404785156,101.6162414550781,-16.21250915527344
185383,-0.1853485107421875,0.5008697509765625,-0.1431427001953125,0.1727512627840042,-0.0699681639671325,-0.023559920489788,60.26924133300781,101.5785217285156,-16.41813659667969
185384,-0.1853485107421875,0.5008697509765625,-0.1431427001953125,0.1727512627840042,-0.0699681639671325,-0.023559920489788,60.26924133300781,101.5785217285156,-16.41813659667969
185385,-0.15765380859375,0.58782958984375,-0.1405029296875,0.0958562195301055,0.0339478477835655,-0.0495904572308063,60.28627014160156,101.4171447753906,-16.90104675292969
185386,-0.111480712890625,0.6762237548828125,-0.0175323486328125,0.1629034280776978,-0.1103336960077286,0.0199942141771316,60.37680053710938,101.4670104980469,-16.76519775390625
185387,-0.034210205078125,0.7826690673828125,0.1089019775390625,0.1259803026914597,-0.2204599380493164,0.2107737511396408,60.375732421875,101.4887237548828,-16.78854370117188
185388,-0.034210205078125,0.7826690673828125,0.1089019775390625,0.1259803026914597,-0.2204599380493164,0.2107737511396408,60.375732421875,101.4887237548828,-16.78854370117188
185389,0.020660400390625,0.8388214111328125,0.203582763671875,0.1259803026914597,-0.2204599380493164,0.2107737511396408,60.40847778320312,101.5875854492188,-16.94517517089844
185390,0.05267333984375,0.866851806640625,0.2689056396484375,-0.0518605336546897,-0.2176537662744522,0.2346630990505219,60.36888122558594,101.6355590820312,-17.10478210449219
185391,-0.0079803466796875,0.8933868408203125,0.33245849609375,-0.3880710303783417,-0.3365524411201477,0.1498949527740479,60.60362243652344,101.5695648193359,-17.17411804199219
185392,-0.0079803466796875,0.8933868408203125,0.33245849609375,-0.3880710303783417,-0.3365524411201477,0.1498949527740479,60.60362243652344,101.5695648193359,-17.17411804199219
185393,-0.1066131591796875,0.829864501953125,0.31207275390625,-0.4169332981109619,-0.570101797580719,0.1208169683814049,60.69622802734375,101.7385559082031,-17.09446716308594
185394,-0.108001708984375,0.7787933349609375,0.2703399658203125,-0.3683103919029236,-0.7360236644744873,0.1162299364805222,60.75018310546875,101.7063293457031,-17.01953125
185395,-0.0753173828125,0.7443084716796875,0.210205078125,-0.3527841567993164,-0.9013082385063172,0.1129784807562828,60.85215759277344,101.5682678222656,-16.83909606933594
185396,-0.0371246337890625,0.73583984375,0.14544677734375,-0.4872367680072784,-1.207434296607971,0.093626357614994,60.87648010253906,101.5103149414062,-16.70332336425781
185397,-0.0371246337890625,0.73583984375,0.14544677734375,-0.4872367680072784,-1.207434296607971,0.093626357614994,60.87648010253906,101.5103149414062,-16.70332336425781
185398,0.0023651123046875,0.7668609619140625,0.048431396484375,-0.5846064686775208,-1.339544177055359,0.0823390781879425,61.01797485351562,101.4165649414062,-16.56878662109375
185399,-0.014862060546875,0.8270416259765625,0.055633544921875,-0.6491034030914307,-1.342647075653076,0.0732907280325889,61.01860046386719,101.3989715576172,-16.49362182617188
185400,-0.056915283203125,0.9077606201171876,0.07269287109375,-0.667590856552124,-1.187733292579651,0.0317366234958171,60.99728393554688,101.4565124511719,-16.27825927734375
185401,-0.056915283203125,0.9077606201171876,0.07269287109375,-0.667590856552124,-1.187733292579651,0.0317366234958171,60.99728393554688,101.4565124511719,-16.27825927734375
185402,-0.2001495361328125,1.0999755859375,-0.00311279296875,-0.6305760741233826,-0.8881056308746338,-0.1492097228765488,60.98867797851562,101.5712890625,-15.94898986816406
185403,-0.25982666015625,1.193222045898438,-0.018768310546875,-0.5667973756790161,-0.8226131796836853,-0.2394357621669769,60.94841003417969,101.5535583496094,-15.64910888671875
185404,-0.25982666015625,1.193222045898438,-0.018768310546875,-0.5667973756790161,-0.8226131796836853,-0.2394357621669769,60.94841003417969,101.5535583496094,-15.64910888671875
185405,-0.2968902587890625,1.360580444335938,-0.08990478515625,-0.3129144906997681,-0.5710200667381287,-0.1597771495580673,60.72213745117188,101.7064514160156,-15.32302856445312
185406,-0.255859375,1.415252685546875,-0.1248779296875,-0.3129144906997681,-0.5710200667381287,-0.1597771495580673,60.61500549316406,101.7843170166016,-15.12028503417969
185407,-0.2045745849609375,1.417633056640625,-0.13214111328125,-0.1580503582954407,-0.4645503759384155,-0.0517625287175178,60.42662048339844,101.7757263183594,-14.86090087890625
185408,-0.2045745849609375,1.417633056640625,-0.13214111328125,-0.1580503582954407,-0.4645503759384155,-0.0517625287175178,60.42662048339844,101.7757263183594,-14.86090087890625
185409,-0.1463623046875,1.358169555664062,-0.1411895751953125,0.0478596687316894,-0.3173159062862396,0.1575869619846344,60.24299621582031,101.6833648681641,-14.64834594726562
185410,-0.109893798828125,1.20416259765625,-0.1617279052734375,0.0784122496843338,-0.28321573138237,0.2161655873060226,60.17819213867188,101.7503662109375,-14.58683776855469
185411,-0.0874481201171875,0.881988525390625,-0.1997222900390625,0.0996182039380073,-0.2125090658664703,0.2580659091472626,60.16970825195312,101.7913208007812,-14.79420471191406
185412,-0.0874481201171875,0.881988525390625,-0.1997222900390625,0.0996182039380073,-0.2125090658664703,0.2580659091472626,60.16970825195312,101.7913208007812,-14.79420471191406
185413,-0.0188446044921875,0.77325439453125,-0.262054443359375,0.2280358225107193,0.0341270789504051,0.4357381463050842,60.36988830566406,101.6542205810547,-14.73214721679688
185414,0.0215606689453125,0.785858154296875,-0.2528533935546875,0.2280358225107193,0.0341270789504051,0.4357381463050842,60.45722961425781,101.6432647705078,-14.86943054199219
185415,0.062255859375,0.8233642578125,-0.24334716796875,0.2024843990802765,0.1514430493116379,0.5019661784172058,60.57598876953125,101.6460113525391,-14.945068359375
185416,0.062255859375,0.8233642578125,-0.24334716796875,0.2024843990802765,0.1514430493116379,0.5019661784172058,60.57598876953125,101.6460113525391,-14.945068359375
185417,0.09490966796875,0.879913330078125,-0.2435302734375,0.1682766228914261,0.2705758213996887,0.5562968254089355,60.80459594726562,101.6395874023438,-15.0113525390625
185418,0.0973968505859375,1.0780029296875,-0.2557525634765625,0.0998480319976806,0.6347812414169312,0.4726658165454865,61.26248168945312,101.4323120117188,-15.12631225585938
185419,0.056243896484375,1.1693115234375,-0.235687255859375,0.0403479561209678,0.788572371006012,0.4376154243946075,61.5657958984375,101.2466888427734,-15.16169738769531
185420,0.0161895751953125,1.269515991210938,-0.1836090087890625,0.0403479561209678,0.788572371006012,0.4376154243946075,61.79074096679688,101.2709655761719,-15.18551635742188
185421,0.0161895751953125,1.269515991210938,-0.1836090087890625,0.0403479561209678,0.788572371006012,0.4376154243946075,61.79074096679688,101.2709655761719,-15.18551635742188
185422,-0.0191497802734375,1.480804443359375,-0.0631103515625,-0.0580076426267623,0.681801974773407,0.3285054564476013,62.20500183105469,101.2506103515625,-15.0648193359375
185423,-0.0305023193359375,1.550064086914062,0.0111083984375,-0.0580076426267623,0.681801974773407,0.3285054564476013,62.45819091796875,101.1854705810547,-14.80812072753906
185424,-0.03668212890625,1.597061157226562,0.092559814453125,0.0587450712919235,0.5551681518554688,0.3059572577476501,62.66444396972656,101.0939331054688,-14.54989624023438
185425,-0.03668212890625,1.597061157226562,0.092559814453125,0.0587450712919235,0.5551681518554688,0.3059572577476501,62.66444396972656,101.0939331054688,-14.54989624023438
185426,0.024871826171875,1.465469360351562,0.13153076171875,0.4019533097743988,0.4716551601886749,0.2677435576915741,63.18759155273438,100.9749908447266,-14.61300659179688
185427,0.066619873046875,1.26220703125,0.0588226318359375,0.5552642941474915,0.3632285296916962,0.2735716104507446,63.35313415527344,100.8113250732422,-14.57925415039062
185428,0.066619873046875,1.26220703125,0.0588226318359375,0.5552642941474915,0.3632285296916962,0.2735716104507446,63.35313415527344,100.8113250732422,-14.57925415039062
185429,0.065704345703125,1.0506591796875,-0.0135040283203125,0.6385876536369324,0.1359708905220032,0.3061442077159882,63.469482421875,100.8023223876953,-14.75390625
185430,0.011199951171875,0.8245849609375,0.035064697265625,0.4763303399085999,-0.2786862254142761,0.3332077860832214,63.90835571289062,100.58544921875,-15.40469360351562
185431,-0.0085601806640625,0.7951507568359375,0.08465576171875,0.2449897825717926,-0.3592526912689209,0.3242105543613434,64.17208862304688,100.4620666503906,-15.54731750488281
185432,-0.0085601806640625,0.7951507568359375,0.08465576171875,0.2449897825717926,-0.3592526912689209,0.3242105543613434,64.17208862304688,100.4620666503906,-15.54731750488281
185433,-0.0293121337890625,0.794403076171875,0.1102447509765625,0.0052232579328119,-0.3700771331787109,0.3010080456733704,64.34927368164062,100.3119812011719,-15.88581848144531
185434,-0.0654754638671875,0.83154296875,0.0709991455078125,-0.1460336446762085,-0.3533410131931305,0.2990583479404449,64.92936706542969,99.99066162109376,-15.96018981933594
185435,-0.0828857421875,0.8360748291015625,0.052337646484375,-0.0424779504537582,-0.2933429181575775,0.3104406893253326,65.16952514648438,99.8892822265625,-16.03298950195312
185436,-0.0828857421875,0.8360748291015625,0.052337646484375,-0.0424779504537582,-0.2933429181575775,0.3104406893253326,65.16952514648438,99.8892822265625,-16.03298950195312
185437,-0.1143035888671875,0.81317138671875,0.023834228515625,0.1887097358703613,-0.0552331618964672,0.2900672554969788,65.35173034667969,99.83811950683594,-16.06231689453125
185438,-0.1193389892578125,0.773956298828125,-0.025177001953125,0.1887097358703613,-0.0552331618964672,0.2900672554969788,65.5565185546875,99.6359405517578,-15.94479370117188
185439,-0.0178070068359375,0.7093048095703125,-0.05499267578125,0.196524515748024,-0.0088960230350494,0.2920545041561127,65.89299011230469,99.40194702148438,-16.14149475097656
185440,0.046417236328125,0.6956634521484375,-0.0749053955078125,0.1503354460000992,-0.062696672976017,0.2985712587833405,66.0177001953125,99.26060485839844,-16.2022705078125
185441,0.046417236328125,0.6956634521484375,-0.0749053955078125,0.1503354460000992,-0.062696672976017,0.2985712587833405,66.0177001953125,99.26060485839844,-16.2022705078125
185442,0.159271240234375,0.78277587890625,-0.069183349609375,0.0602588132023811,-0.3574300408363342,0.2734414041042328,66.23190307617188,99.19230651855467,-16.39903259277344
185443,0.17913818359375,0.8870391845703125,-0.0468902587890625,0.0166234523057937,-0.4606885015964508,0.1846209764480591,66.399169921875,99.11471557617188,-16.53251647949219
185444,0.1587066650390625,1.011810302734375,-0.035491943359375,-0.0228584446012973,-0.4580812752246857,0.0001976065541384,66.43135070800781,99.07188415527344,-16.56948852539062
185445,0.1587066650390625,1.011810302734375,-0.035491943359375,-0.0228584446012973,-0.4580812752246857,0.0001976065541384,66.43135070800781,99.07188415527344,-16.56948852539062
185446,-0.021453857421875,1.085556030273438,-0.072021484375,-0.1116796582937241,-0.1695014089345932,-0.3792903423309326,66.43447875976562,99.24943542480467,-16.65945434570312
185447,-0.1354827880859375,1.023880004882812,-0.0833282470703125,-0.1559832096099854,-0.1672579646110535,-0.4577438533306122,66.21240234375,99.3226318359375,-16.58897399902344
185448,-0.201446533203125,0.9426116943359376,-0.033599853515625,-0.1631697416305542,-0.2642100751399994,-0.5257559418678284,66.04034423828125,99.43421936035156,-16.50605773925781
185449,-0.201446533203125,0.9426116943359376,-0.033599853515625,-0.1631697416305542,-0.2642100751399994,-0.5257559418678284,66.04034423828125,99.43421936035156,-16.50605773925781
185450,-0.2600555419921875,0.7413482666015625,0.1145477294921875,-0.0947430208325386,-0.2723761200904846,-0.5683761239051819,65.59028625488281,99.75160217285156,-16.60565185546875
185451,-0.294036865234375,0.66986083984375,0.1305389404296875,-0.0574326664209365,-0.2482692003250122,-0.5640966892242432,65.33346557617188,99.885009765625,-16.5638427734375
185452,-0.345947265625,0.6443939208984375,0.121978759765625,-0.0789305046200752,-0.2379968464374542,-0.5374062061309814,65.1806640625,99.9721221923828,-16.62384033203125
185453,-0.345947265625,0.6443939208984375,0.121978759765625,-0.0789305046200752,-0.2379968464374542,-0.5374062061309814,65.1806640625,99.9721221923828,-16.62384033203125
185454,-0.3982696533203125,0.708984375,0.0926666259765625,-0.2199736386537552,-0.2096304595470428,-0.4763577580451965,64.60197448730469,100.18359375,-16.63748168945312
185455,-0.37548828125,0.7524261474609375,0.0774383544921875,-0.2919000387191772,-0.2085319012403488,-0.4810097515583038,64.38957214355469,100.2704467773438,-16.58804321289062
185456,-0.37548828125,0.7524261474609375,0.0774383544921875,-0.2919000387191772,-0.2085319012403488,-0.4810097515583038,64.38957214355469,100.2704467773438,-16.58804321289062
185457,-0.3382415771484375,0.819976806640625,0.0772705078125,-0.4991789162158966,-0.1202172189950943,-0.4104716777801514,63.96156311035156,100.6776275634766,-16.45344543457031
185458,-0.325164794921875,0.880615234375,0.058441162109375,-0.4991789162158966,-0.1202172189950943,-0.4104716777801514,63.69175720214844,100.7555084228516,-16.24055480957031
185459,-0.3133697509765625,0.9620819091796876,0.022216796875,-0.5566355586051941,-0.0914391055703163,-0.3684445917606354,63.54562377929688,100.8469085693359,-15.93251037597656
185460,-0.2918548583984375,1.024581909179688,-0.0136260986328125,-0.6017130017280579,-0.1243408620357513,-0.3184165954589844,63.22862243652344,100.9428558349609,-15.71595764160156
185461,-0.2918548583984375,1.024581909179688,-0.0136260986328125,-0.6017130017280579,-0.1243408620357513,-0.3184165954589844,63.22862243652344,100.9428558349609,-15.71595764160156
185462,-0.2541351318359375,1.120147705078125,-0.0029754638671875,-0.6852167248725891,-0.2283655256032944,-0.1778717339038849,62.84898376464844,100.8374328613281,-15.29728698730469
185463,-0.213104248046875,1.1617431640625,-0.001708984375,-0.7015154957771301,-0.2751767039299011,-0.1350558251142502,62.63215637207031,100.9556884765625,-15.11860656738281
185464,-0.213104248046875,1.1617431640625,-0.001708984375,-0.7015154957771301,-0.2751767039299011,-0.1350558251142502,62.63215637207031,100.9556884765625,-15.11860656738281
185465,-0.1435546875,1.193939208984375,-0.0179901123046875,-0.6640443205833435,-0.3369801640510559,-0.1128951236605644,62.51406860351562,101.0376129150391,-14.86720275878906
185466,0.0282135009765625,1.230682373046875,-0.0717926025390625,-0.3586747944355011,-0.6495625376701355,-0.1536550670862198,62.330810546875,101.2333221435547,-14.23329162597656
185467,0.090118408203125,1.239974975585938,-0.0869293212890625,-0.3586747944355011,-0.6495625376701355,-0.1536550670862198,62.22157287597656,101.2076873779297,-13.92951965332031
185468,0.120513916015625,1.235092163085938,-0.10302734375,-0.257476270198822,-0.767490804195404,-0.1973202675580978,62.19822692871094,101.1979675292969,-13.65446472167969
185469,0.120513916015625,1.235092163085938,-0.10302734375,-0.257476270198822,-0.767490804195404,-0.1973202675580978,62.19822692871094,101.1979675292969,-13.65446472167969
185470,0.1381988525390625,1.175003051757812,-0.190948486328125,-0.0483952276408672,-1.047687530517578,-0.2399723827838898,62.02316284179688,101.3069000244141,-13.38215637207031
185471,0.157989501953125,1.135955810546875,-0.24853515625,0.0922042280435562,-1.197335600852966,-0.2196290343999863,61.94436645507812,101.4371490478516,-13.5179443359375
185472,0.157989501953125,1.135955810546875,-0.24853515625,0.0922042280435562,-1.197335600852966,-0.2196290343999863,61.94436645507812,101.4371490478516,-13.5179443359375
185473,0.1810302734375,1.087799072265625,-0.2966156005859375,0.413184642791748,-1.401288270950317,-0.1510467678308487,61.90037536621094,101.4478912353516,-13.60316467285156
185474,0.1898040771484375,1.014984130859375,-0.3751220703125,0.5534520149230957,-1.454883813858032,-0.1248841434717178,61.74078369140625,101.4446411132812,-14.03083801269531
185475,0.1723175048828125,1.0262451171875,-0.381439208984375,0.6783550381660461,-1.434262156486511,-0.1068723872303963,61.67448425292969,101.4750823974609,-14.31147766113281
185476,0.1723175048828125,1.0262451171875,-0.381439208984375,0.6783550381660461,-1.434262156486511,-0.1068723872303963,61.67448425292969,101.4750823974609,-14.31147766113281
185477,0.10784912109375,1.065658569335938,-0.364776611328125,0.7936880588531494,-1.195937991142273,-0.1054734289646149,61.63607788085938,101.5100555419922,-14.72615051269531
185478,-0.0721435546875,1.15673828125,-0.34991455078125,0.7758837342262268,-1.111734747886658,-0.1163061037659645,61.66653442382812,101.4773406982422,-15.74717712402344
185479,-0.1186065673828125,1.19879150390625,-0.3197174072265625,0.747856080532074,-1.034162402153015,-0.1113222613930702,61.59686279296875,101.4634094238281,-16.23371887207031
185480,-0.1186065673828125,1.19879150390625,-0.3197174072265625,0.747856080532074,-1.034162402153015,-0.1113222613930702,61.59686279296875,101.4634094238281,-16.23371887207031
185481,-0.1522216796875,1.229461669921875,-0.29364013671875,0.7468267679214478,-0.9912477135658264,-0.0770218148827552,61.56986999511719,101.5720825195312,-16.72773742675781
185482,-0.1338348388671875,1.27667236328125,-0.2566070556640625,0.8184421062469482,-0.8994850516319275,0.1147228553891182,61.39620971679688,101.5594482421875,-17.61253356933594
185483,-0.0707855224609375,1.277374267578125,-0.1927032470703125,0.8040253520011902,-0.804404616355896,0.2658798694610596,61.47608947753906,101.4210815429688,-18.13294982910156
185484,-0.0707855224609375,1.277374267578125,-0.1927032470703125,0.8040253520011902,-0.804404616355896,0.2658798694610596,61.47608947753906,101.4210815429688,-18.13294982910156
185485,-0.0011749267578125,1.278106689453125,-0.1043701171875,0.6311068534851074,-0.6074297428131104,0.5341187715530396,61.52827453613281,101.3393859863281,-18.70713806152344
185486,0.056610107421875,1.29449462890625,0.0869140625,0.5644359588623047,-0.5399026274681091,0.6169281601905823,61.77227783203125,101.2163543701172,-19.70916748046875
185487,0.0169219970703125,1.331832885742188,0.183929443359375,0.5378040671348572,-0.4875089526176453,0.648923933506012,62.02426147460938,101.2474517822266,-20.17233276367188
185488,0.0169219970703125,1.331832885742188,0.183929443359375,0.5378040671348572,-0.4875089526176453,0.648923933506012,62.02426147460938,101.2474517822266,-20.17233276367188
185489,-0.0304718017578125,1.366531372070312,0.2431793212890625,0.6437526345252991,-0.4674553275108337,0.4454544484615326,62.33815002441406,101.19677734375,-20.60096740722656
185490,-0.0983734130859375,1.269378662109375,0.228759765625,0.7259255051612854,-0.4369336366653442,0.3085029721260071,62.98130798339844,100.9785308837891,-21.15350341796875
185491,-0.111083984375,1.132965087890625,0.1767578125,0.7860591411590576,-0.4447135329246521,0.2447855174541473,63.15055847167969,100.9129333496094,-21.42643737792969
185492,-0.111083984375,1.132965087890625,0.1767578125,0.7860591411590576,-0.4447135329246521,0.2447855174541473,63.15055847167969,100.9129333496094,-21.42643737792969
185493,-0.0990447998046875,1.002532958984375,0.0968780517578125,0.7870378494262695,-0.5260739326477051,0.2420419305562973,63.36521911621094,100.8789367675781,-21.92594909667969
185494,-0.027923583984375,0.7869110107421875,-0.0133819580078125,0.6567105054855347,-0.8440234065055847,0.2789461612701416,63.69117736816406,100.5641174316406,-22.66883850097656
185495,0.0005950927734375,0.69403076171875,-0.0358123779296875,0.5840850472450256,-0.9798786640167236,0.2923125624656677,63.75059509277344,100.5423126220703,-23.02839660644531
185496,0.0005950927734375,0.69403076171875,-0.0358123779296875,0.5840850472450256,-0.9798786640167236,0.2923125624656677,63.75059509277344,100.5423126220703,-23.02839660644531
185497,-0.004730224609375,0.61883544921875,-0.0515899658203125,0.395483136177063,-1.184957027435303,0.3007886111736298,64.04830932617188,100.2853546142578,-23.79035949707031
185498,-0.0312347412109375,0.6616973876953125,0.0070037841796875,0.2386980652809143,-1.183406829833984,0.2326550781726837,64.15937805175781,100.2543640136719,-24.23367309570312
185499,-0.0736083984375,0.7339630126953125,0.1134796142578125,0.0521827787160873,-1.087545990943909,0.1404207646846771,64.260498046875,100.1806793212891,-24.58944702148438
185500,-0.0736083984375,0.7339630126953125,0.1134796142578125,0.0521827787160873,-1.087545990943909,0.1404207646846771,64.260498046875,100.1806793212891,-24.58944702148438
185501,-0.156402587890625,0.853515625,0.298980712890625,-0.1612991392612457,-0.7331589460372925,-0.0219090264290571,64.37947082519531,100.0130462646484,-25.13284301757812
185502,-0.2072601318359375,0.85736083984375,0.3274078369140625,-0.1757539808750153,-0.6001220345497131,-0.067554272711277,64.33697509765625,99.9525909423828,-25.15473937988281
185503,-0.2072601318359375,0.85736083984375,0.3274078369140625,-0.1757539808750153,-0.6001220345497131,-0.067554272711277,64.33697509765625,99.9525909423828,-25.15473937988281
