time_idx,accelerometerAccelerationX(G),accelerometerAccelerationY(G),accelerometerAccelerationZ(G),gyroRotationX(rad/s),gyroRotationY(rad/s),gyroRotationZ(rad/s),magnetometerX(µT),magnetometerY(µT),magnetometerZ(µT)
311884,-0.01373291015625,1.241928100585938,-0.029510498046875,-0.1730604618787766,0.0921464413404464,-0.1840313524007797,64.16191101074219,98.15524291992188,-28.609130859375
311885,-0.01373291015625,1.241928100585938,-0.029510498046875,-0.1730604618787766,0.0921464413404464,-0.1840313524007797,64.16191101074219,98.15524291992188,-28.609130859375
311886,-0.1008758544921875,1.120346069335938,-0.0101165771484375,0.0081817638128995,0.1808773726224899,-0.172520637512207,64.03945922851562,98.2043914794922,-28.49238586425781
311887,-0.1509552001953125,1.046493530273438,0.004730224609375,0.0633129253983497,0.2265135645866394,-0.1497793793678284,64.03160095214844,98.21282958984376,-28.31419372558594
311888,-0.2038726806640625,0.9893341064453124,0.0010986328125,0.084854170680046,0.2855414748191833,-0.1201794072985649,63.93934631347656,98.34107971191406,-28.21662902832031
311889,-0.2038726806640625,0.9893341064453124,0.0010986328125,0.084854170680046,0.2855414748191833,-0.1201794072985649,63.93934631347656,98.34107971191406,-28.21662902832031
311890,-0.2455291748046875,0.9350433349609376,-0.1037445068359375,0.0760287195444107,0.4251001477241516,-0.0547945387661457,64.06794738769531,98.44725036621094,-28.33222961425781
311891,-0.230133056640625,0.9543914794921876,-0.1621551513671875,0.0967430546879768,0.5310338139533997,-0.0195510648190975,64.05946350097656,98.39468383789062,-28.12176513671875
311892,-0.2051544189453125,0.9829254150390624,-0.2067108154296875,0.1525874137878418,0.6349420547485352,0.0184264108538627,64.11500549316406,98.48014831542967,-28.16481018066406
311893,-0.1838226318359375,1.027389526367188,-0.2520294189453125,0.2828170657157898,0.8367031812667847,0.0691753402352333,64.18373107910156,98.42385864257812,-28.02978515625
311894,-0.1575927734375,1.071609497070312,-0.3112640380859375,0.2828170657157898,0.8367031812667847,0.0691753402352333,64.30747985839844,98.34393310546876,-27.93841552734375
311895,-0.125946044921875,1.096099853515625,-0.36181640625,0.3530613780021667,0.8972509503364563,0.0834858417510986,64.38600158691406,98.39785766601562,-27.94107055664062
311896,-0.0882568359375,1.090530395507812,-0.4066009521484375,0.4656446576118469,0.9134756922721864,0.1021703109145164,64.44404602050781,98.36134338378906,-27.84022521972656
311897,-0.0882568359375,1.090530395507812,-0.4066009521484375,0.4656446576118469,0.9134756922721864,0.1021703109145164,64.44404602050781,98.36134338378906,-27.84022521972656
311898,-0.0433807373046875,0.99853515625,-0.4420623779296875,0.4636142551898956,0.859926164150238,0.0972131043672561,64.79747009277344,98.1538543701172,-27.95469665527344
311899,-0.030426025390625,0.944854736328125,-0.4339599609375,0.4220918416976929,0.7625583410263062,0.0743232294917106,64.9200439453125,98.07258605957033,-28.03105163574219
311900,-0.0181884765625,0.887176513671875,-0.4217681884765625,0.3582606911659241,0.6579208970069885,0.0484024211764335,65.09941101074219,98.10261535644533,-28.22984313964844
311901,-0.00439453125,0.83660888671875,-0.3927459716796875,0.2925399839878082,0.5698238015174866,0.0323211885988712,65.14068603515625,98.07933044433594,-28.24905395507812
311902,0.0061798095703125,0.809234619140625,-0.3563690185546875,0.2184939831495285,0.492268294095993,0.0326234549283981,65.22526550292969,97.9407958984375,-28.19288635253906
311903,0.0175933837890625,0.79547119140625,-0.3163909912109375,0.138768807053566,0.4105902016162872,0.0523119419813156,65.40345764160156,97.79209899902344,-28.21017456054688
311904,0.02001953125,0.7996063232421875,-0.2633056640625,0.0612106248736381,0.3529908061027527,0.0962141528725624,65.51576232910156,97.88180541992188,-28.29234313964844
311905,0.02001953125,0.7996063232421875,-0.2633056640625,0.0612106248736381,0.3529908061027527,0.0962141528725624,65.51576232910156,97.88180541992188,-28.29234313964844
311906,-0.002471923828125,0.818572998046875,-0.1578216552734375,-0.0865266323089599,0.2617775499820709,0.240026444196701,65.67063903808594,97.69876098632812,-28.41136169433594
311907,-0.017822265625,0.8218994140625,-0.104034423828125,-0.0865266323089599,0.2617775499820709,0.240026444196701,65.84297180175781,97.64772033691406,-28.42324829101562
311908,-0.03790283203125,0.8286895751953125,-0.0707550048828125,-0.072551429271698,0.2544695734977722,0.2961933016777039,65.93109130859375,97.62834167480467,-28.40927124023438
311909,-0.03790283203125,0.8286895751953125,-0.0707550048828125,-0.072551429271698,0.2544695734977722,0.2961933016777039,65.93109130859375,97.62834167480467,-28.40927124023438
311910,-0.04901123046875,0.8228607177734375,-0.0572052001953125,-0.0325257182121276,0.223258912563324,0.3024232387542725,66.17134094238281,97.68887329101562,-28.19131469726562
311911,-0.0499420166015625,0.822509765625,-0.0569305419921875,0.0139696113765239,0.1945465803146362,0.2894152998924255,66.24189758300781,97.69841003417967,-28.17732238769531
311912,-0.0303497314453125,0.8223724365234375,-0.0522613525390625,0.0565421059727668,0.1539954245090485,0.2698796689510345,66.46908569335938,97.64781188964844,-28.0838623046875
311913,-0.0303497314453125,0.8223724365234375,-0.0522613525390625,0.0565421059727668,0.1539954245090485,0.2698796689510345,66.46908569335938,97.64781188964844,-28.0838623046875
311914,0.0470733642578125,0.8230743408203125,-0.0501708984375,0.0595647916197776,0.0583602450788021,0.2242288440465927,66.7132568359375,97.44349670410156,-28.19546508789062
311915,0.0727691650390625,0.8729705810546875,-0.055328369140625,0.0325377024710178,0.0229631066322326,0.2259958535432816,66.80195617675781,97.34840393066406,-28.14442443847656
311916,0.0670166015625,0.934326171875,-0.0731201171875,-0.0333600863814353,0.0375228747725486,0.2317280322313309,66.94313049316406,97.29148864746094,-28.21490478515625
311917,0.0458831787109375,1.006256103515625,-0.097686767578125,-0.0333600863814353,0.0375228747725486,0.2317280322313309,67.10931396484375,97.21942138671876,-28.30712890625
311918,0.010284423828125,1.079620361328125,-0.11907958984375,-0.06409402936697,0.0386861413717269,0.2140965759754181,67.16828918457031,97.20098876953124,-28.26206970214844
311919,-0.0343170166015625,1.141845703125,-0.1266021728515625,-0.0862129181623458,0.0089647332206368,0.1830907315015793,67.1314697265625,97.14817810058594,-28.28413391113281
311920,-0.07305908203125,1.18603515625,-0.11572265625,-0.1128754168748856,-0.0293528288602829,0.1558926552534103,67.1910400390625,97.12847900390624,-28.35426330566406
311921,-0.0975494384765625,1.207077026367188,-0.0977630615234375,-0.1841000616550446,-0.0203390941023826,0.1219565346837044,67.26069641113281,97.16893005371094,-28.30484008789062
311922,-0.0975494384765625,1.207077026367188,-0.0977630615234375,-0.1841000616550446,-0.0203390941023826,0.1219565346837044,67.26069641113281,97.16893005371094,-28.30484008789062
311923,-0.1326141357421875,1.220001220703125,-0.0325775146484375,-0.266369640827179,0.0951310396194458,0.1147438958287239,67.40936279296875,97.09446716308594,-28.12553405761719
311924,-0.1460113525390625,1.230148315429688,0.0107574462890625,-0.266369640827179,0.0951310396194458,0.1147438958287239,67.400146484375,97.07720947265624,-27.95780944824219
311925,-0.1460113525390625,1.230148315429688,0.0107574462890625,-0.266369640827179,0.0951310396194458,0.1147438958287239,67.400146484375,97.07720947265624,-27.95780944824219
311926,-0.1592864990234375,1.250778198242188,0.0184173583984375,-0.3352256715297699,0.1213988661766052,0.1128493174910545,67.5533447265625,97.15138244628906,-27.5986328125
311927,-0.1578369140625,1.243637084960938,-0.010589599609375,-0.3244545161724091,0.1124692857265472,0.1074276566505432,67.74636840820312,97.09263610839844,-27.51531982421875
311928,-0.1501617431640625,1.222274780273438,-0.0341644287109375,-0.2850716710090637,0.1271486282348633,0.1038925796747208,67.77647399902344,97.11550903320312,-27.36924743652344
311929,-0.1501617431640625,1.222274780273438,-0.0341644287109375,-0.2850716710090637,0.1271486282348633,0.1038925796747208,67.77647399902344,97.11550903320312,-27.36924743652344
311930,-0.1421051025390625,1.121917724609375,-0.0503997802734375,-0.0898388102650642,0.2409486919641495,0.0587309561669826,67.83187866210938,97.11729431152344,-27.3175048828125
311931,-0.1374053955078125,1.0577392578125,-0.0660400390625,-0.0898388102650642,0.2409486919641495,0.0587309561669826,67.90777587890625,97.17903137207033,-27.16665649414062
311932,-0.1305084228515625,0.9972686767578124,-0.096099853515625,-0.0013164004776626,0.2554048597812653,-0.0056549562141299,67.93556213378906,97.2267608642578,-26.88961791992188
311933,-0.1305084228515625,0.9972686767578124,-0.096099853515625,-0.0013164004776626,0.2554048597812653,-0.0056549562141299,67.93556213378906,97.2267608642578,-26.88961791992188
311934,-0.1202545166015625,0.9034271240234376,-0.1655426025390625,0.0381423272192478,0.2681648731231689,-0.0464513897895813,68.11405944824219,97.2537841796875,-26.77003479003906
311935,-0.12091064453125,0.85833740234375,-0.1986083984375,0.0672120600938797,0.2767647504806519,-0.0890268087387085,68.14082336425781,97.1830596923828,-26.57713317871094
311936,-0.1208038330078125,0.81915283203125,-0.2277069091796875,0.0800711363554,0.2758632600307465,-0.1287225633859634,68.19505310058594,97.16018676757812,-26.54991149902344
311937,-0.1208038330078125,0.81915283203125,-0.2277069091796875,0.0800711363554,0.2758632600307465,-0.1287225633859634,68.19505310058594,97.16018676757812,-26.54991149902344
311938,-0.1267852783203125,0.7772216796875,-0.26153564453125,0.0565069504082202,0.2747998833656311,-0.1918778270483017,68.08987426757812,97.27008056640624,-26.54301452636719
311939,-0.129913330078125,0.7762908935546875,-0.259765625,0.0293272621929645,0.2914651334285736,-0.2169040888547897,68.10623168945312,97.35911560058594,-26.56623840332031
311940,-0.1326904296875,0.7791748046875,-0.24664306640625,0.0041382857598364,0.3147749900817871,-0.2297865897417068,67.99459838867188,97.502197265625,-26.57574462890625
311941,-0.1326904296875,0.7791748046875,-0.24664306640625,0.0041382857598364,0.3147749900817871,-0.2297865897417068,67.99459838867188,97.502197265625,-26.57574462890625
311942,-0.1378326416015625,0.7939605712890625,-0.2328948974609375,-0.0360067375004291,0.361855149269104,-0.213656097650528,67.89784240722656,97.51629638671876,-26.50392150878906
311943,-0.1358642578125,0.809844970703125,-0.229888916015625,-0.0427424050867557,0.3925661742687225,-0.1898242682218552,67.77949523925781,97.4906005859375,-26.33790588378906
311944,-0.12432861328125,0.832794189453125,-0.2305145263671875,-0.0528871826827526,0.4159234464168549,-0.1631582975387573,67.78251647949219,97.61407470703124,-26.17776489257812
311945,-0.12432861328125,0.832794189453125,-0.2305145263671875,-0.0528871826827526,0.4159234464168549,-0.1631582975387573,67.78251647949219,97.61407470703124,-26.17776489257812
311946,-0.078033447265625,0.9058074951171876,-0.2386627197265625,-0.1039253324270248,0.4516348242759705,-0.0776282176375389,67.68009948730469,97.61793518066406,-26.08589172363281
311947,-0.0461578369140625,0.953369140625,-0.235198974609375,-0.1329420655965805,0.4676553308963776,-0.0338005721569061,67.73606872558594,97.77871704101562,-26.06442260742188
311948,-0.0212860107421875,1.0098876953125,-0.224761962890625,-0.152049720287323,0.4879630208015442,0.0159794986248016,67.62454223632812,97.84756469726562,-25.94725036621094
311949,-0.0212860107421875,1.0098876953125,-0.224761962890625,-0.152049720287323,0.4879630208015442,0.0159794986248016,67.62454223632812,97.84756469726562,-25.94725036621094
311950,0.026092529296875,1.104995727539062,-0.211090087890625,-0.1619644016027451,0.4946385025978088,0.1223834380507469,67.59979248046875,97.89268493652344,-25.61944580078125
311951,0.0507965087890625,1.139877319335938,-0.2059326171875,-0.1395754665136337,0.4562836587429047,0.1761031299829483,67.60079956054688,98.00462341308594,-25.40916442871094
311952,0.077911376953125,1.146209716796875,-0.207244873046875,-0.0168114714324474,0.2641781270503998,0.22810959815979,67.54435729980469,97.99195861816406,-25.25776672363281
311953,0.077911376953125,1.146209716796875,-0.207244873046875,-0.0168114714324474,0.2641781270503998,0.22810959815979,67.54435729980469,97.99195861816406,-25.25776672363281
311954,0.14007568359375,1.050994873046875,-0.178680419921875,0.1512100249528885,0.0678403005003929,0.1845938116312027,67.60690307617188,98.03456115722656,-24.93328857421875
311955,0.1488189697265625,0.984527587890625,-0.16461181640625,0.2005826383829117,-0.033730000257492,0.1372492015361786,67.79412841796875,97.99763488769533,-24.9715576171875
311956,0.1482391357421875,0.928955078125,-0.1577911376953125,0.2235031276941299,-0.1291635781526566,0.0873604714870452,67.75192260742188,97.89533996582033,-24.75550842285156
311957,0.1482391357421875,0.928955078125,-0.1577911376953125,0.2235031276941299,-0.1291635781526566,0.0873604714870452,67.75192260742188,97.89533996582033,-24.75550842285156
311958,0.144744873046875,0.839569091796875,-0.170013427734375,0.2408416420221329,-0.2213094830513,0.0400185212492942,67.91903686523438,97.86732482910156,-24.97467041015625
311959,0.1469879150390625,0.820220947265625,-0.2026519775390625,0.2669893503189087,-0.3164991140365601,0.0002519350382499,67.94400024414062,97.87541198730467,-25.01556396484375
311960,0.145751953125,0.820159912109375,-0.2509613037109375,0.3385990858078003,-0.469744861125946,-0.0327651351690292,67.97547912597656,97.94068908691406,-25.32545471191406
311961,0.145751953125,0.820159912109375,-0.2509613037109375,0.3385990858078003,-0.469744861125946,-0.0327651351690292,67.97547912597656,97.94068908691406,-25.32545471191406
311962,0.1205291748046875,0.9087982177734376,-0.3470458984375,0.3415951430797577,-0.5103276968002319,-0.0341182872653007,67.94841003417969,97.64533996582033,-25.76301574707031
311963,0.1176300048828125,0.9759521484375,-0.3858489990234375,0.3301510214805603,-0.5169895887374878,-0.0116468025371432,67.82705688476562,97.7135009765625,-25.93827819824219
311964,0.1216278076171875,1.035598754882812,-0.404510498046875,0.3288181126117706,-0.4906373620033264,0.0138273984193801,67.77447509765625,97.76033020019533,-26.25396728515625
311965,0.1216278076171875,1.035598754882812,-0.404510498046875,0.3288181126117706,-0.4906373620033264,0.0138273984193801,67.77447509765625,97.76033020019533,-26.25396728515625
311966,0.11700439453125,1.10247802734375,-0.3663482666015625,0.2905162572860718,-0.4403179883956909,0.0426704995334148,67.724365234375,97.43841552734376,-26.75057983398438
311967,0.1111907958984375,1.122055053710938,-0.3217010498046875,0.2341523170471191,-0.4360292553901672,0.0348589159548282,67.79827880859375,97.41659545898438,-26.93875122070312
311968,0.1053619384765625,1.131011962890625,-0.2769775390625,0.1850449591875076,-0.4211094081401825,0.0176746007055044,67.726318359375,97.42149353027344,-27.15280151367188
311969,0.1053619384765625,1.131011962890625,-0.2769775390625,0.1850449591875076,-0.4211094081401825,0.0176746007055044,67.726318359375,97.42149353027344,-27.15280151367188
311970,0.0627288818359375,1.112884521484375,-0.206787109375,0.1183892264962196,-0.3494722545146942,-0.0550643168389797,67.66984558105469,97.3124542236328,-27.43789672851562
311971,0.0369415283203125,1.088043212890625,-0.1982421875,0.0954618081450462,-0.3472224175930023,-0.1090527176856995,67.68092346191406,97.34982299804688,-27.593505859375
311972,0.0087127685546875,1.06640625,-0.1874237060546875,0.0841550901532173,-0.3778953552246094,-0.1675405353307724,67.63406372070312,97.37901306152344,-27.807373046875
311973,0.0087127685546875,1.06640625,-0.1874237060546875,0.0841550901532173,-0.3778953552246094,-0.1675405353307724,67.63406372070312,97.37901306152344,-27.807373046875
311974,-0.0382080078125,1.08306884765625,-0.163726806640625,0.0771483108401298,-0.48543781042099,-0.2799421846866608,67.54312133789062,97.2501983642578,-27.9007568359375
311975,-0.0545806884765625,1.1092529296875,-0.1696319580078125,0.083801157772541,-0.5599194765090942,-0.3246185481548309,67.43991088867188,97.251953125,-27.96708679199219
311976,-0.0615386962890625,1.132659912109375,-0.1859283447265625,0.1245741546154022,-0.625151515007019,-0.352444052696228,67.33671569824219,97.30633544921876,-28.15565490722656
311977,-0.0651702880859375,1.138442993164062,-0.199249267578125,0.2053350508213043,-0.6674706935882568,-0.348823219537735,67.14254760742188,97.37619018554688,-28.33622741699219
311978,-0.0677642822265625,1.136795043945312,-0.2071380615234375,0.3033218085765839,-0.6794991493225098,-0.3302892446517944,66.96206665039062,97.40045166015624,-28.50172424316406
311979,-0.0721435546875,1.129653930664062,-0.2081146240234375,0.3986027836799622,-0.6940573453903198,-0.3120801448822021,66.69650268554688,97.4067840576172,-28.72152709960938
311980,-0.0731201171875,1.107757568359375,-0.1959991455078125,0.4589588046073914,-0.6858114004135132,-0.300066351890564,66.53007507324219,97.45095825195312,-29.00041198730469
311981,-0.082275390625,1.076522827148438,-0.1769866943359375,0.4756637513637543,-0.6497138142585754,-0.2833161354064941,66.34194946289062,97.42591857910156,-29.24871826171875
311982,-0.106964111328125,1.0474853515625,-0.1627655029296875,0.4580841958522797,-0.6156005859375,-0.2685790061950684,66.22023010253906,97.29885864257812,-29.57931518554688
311983,-0.145751953125,1.01593017578125,-0.149383544921875,0.4222130179405212,-0.5941919684410095,-0.2592408955097198,66.00044250488281,97.48129272460938,-29.96852111816406
311984,-0.191864013671875,0.995086669921875,-0.1378326416015625,0.3735669255256653,-0.565008282661438,-0.2576805353164673,65.83998107910156,97.3954620361328,-30.30899047851562
311985,-0.2389373779296875,0.97833251953125,-0.12310791015625,0.3247519731521606,-0.5078389644622803,-0.2569692134857178,65.62515258789062,97.36195373535156,-30.57640075683594
311986,-0.277618408203125,0.9701080322265624,-0.0908050537109375,0.2723614871501923,-0.4199030101299286,-0.2563923597335815,65.52613830566406,97.3251495361328,-30.83296203613281
311987,-0.3016815185546875,0.9691925048828124,-0.0399017333984375,0.2231989949941635,-0.302565723657608,-0.2547827661037445,65.31494140625,97.32395935058594,-31.11351013183594
311988,-0.29425048828125,0.9386444091796876,0.0084686279296875,0.1674465239048004,-0.156686544418335,-0.23677659034729,65.19416809082031,97.44482421875,-31.32591247558594
311989,-0.29425048828125,0.9386444091796876,0.0084686279296875,0.1674465239048004,-0.156686544418335,-0.23677659034729,65.19416809082031,97.44482421875,-31.32591247558594
311990,-0.2135772705078125,0.8555755615234375,0.0757598876953125,0.012565060518682,0.0780103802680969,-0.143589660525322,65.05874633789062,97.56524658203124,-31.49967956542969
311991,-0.1539306640625,0.8061065673828125,0.093017578125,-0.077117420732975,0.1700058132410049,-0.0784793645143508,64.87286376953125,97.51658630371094,-31.438232421875
311992,-0.0961761474609375,0.7626953125,0.1060791015625,-0.1676366627216339,0.2225585132837296,-0.0116012617945671,64.9310302734375,97.43984985351562,-31.47865295410156
311993,-0.045074462890625,0.7227783203125,0.11358642578125,-0.2514141201972961,0.2441319823265076,0.0526783913373947,64.895263671875,97.45863342285156,-31.38003540039062
311994,-0.00225830078125,0.6893463134765625,0.1065521240234375,-0.3242012560367584,0.2430456727743149,0.1109241172671318,64.89265441894531,97.60446166992188,-31.21284484863281
311995,0.0456695556640625,0.64678955078125,0.0854644775390625,-0.397752434015274,0.2083185911178589,0.1714303344488144,64.9361572265625,97.7812042236328,-31.18988037109375
311996,0.0988311767578125,0.65789794921875,0.05963134765625,-0.4863507449626923,0.1867219507694244,0.2298220098018646,64.98092651367188,97.77069091796876,-30.99006652832031
311997,0.1336822509765625,0.7891998291015625,0.0116729736328125,-0.5943352580070496,0.1821471750736237,0.2853768765926361,65.03456115722656,97.81752014160156,-30.74465942382812
311998,0.10528564453125,0.95574951171875,-0.0164337158203125,-0.6710670590400696,0.1661082804203033,0.305738627910614,65.10939025878906,97.88966369628906,-30.49043273925781
311999,0.0830841064453125,1.054794311523438,0.0014495849609375,-0.6870726346969604,0.152027353644371,0.3042027652263641,65.17626953125,97.99195861816406,-30.03302001953125
312000,0.06927490234375,1.125076293945312,0.0229949951171875,-0.6086638569831848,0.139569878578186,0.1517631560564041,65.27157592773438,97.99073791503906,-29.59573364257812
312001,0.06927490234375,1.125076293945312,0.0229949951171875,-0.6086638569831848,0.139569878578186,0.1517631560564041,65.27157592773438,97.99073791503906,-29.59573364257812
312002,0.0108642578125,1.167572021484375,0.08026123046875,-0.5917876958847046,0.0986485481262207,0.0223606992512941,65.3909912109375,98.18145751953124,-29.12677001953125
312003,-0.0166168212890625,1.169418334960938,0.1144561767578125,-0.6039401888847351,0.0504634417593479,-0.0994442999362945,65.4652099609375,98.14971923828124,-28.78492736816406
312004,-0.0366363525390625,1.174606323242188,0.12109375,-0.6321484446525574,-0.0219913180917501,-0.2107953280210495,65.44406127929688,98.2499542236328,-28.44990539550781
312005,-0.0366363525390625,1.174606323242188,0.12109375,-0.6321484446525574,-0.0219913180917501,-0.2107953280210495,65.44406127929688,98.2499542236328,-28.44990539550781
312006,-0.0897674560546875,1.139419555664062,0.107757568359375,-0.6118902564048767,-0.0553743094205856,-0.3471121490001678,65.35699462890625,98.53703308105467,-28.00459289550781
312007,-0.0897674560546875,1.139419555664062,0.107757568359375,-0.6118902564048767,-0.0553743094205856,-0.3471121490001678,65.35699462890625,98.53703308105467,-28.00459289550781
312008,-0.1841278076171875,1.085006713867188,0.0582122802734375,-0.532371461391449,0.0454385876655578,-0.3907291293144226,65.05418395996094,98.66302490234376,-27.19245910644531
312009,-0.2248077392578125,1.078262329101562,0.038726806640625,-0.4980500042438507,0.1032073423266411,-0.4078021347522736,64.84033203125,98.85552978515624,-26.97344970703125
312010,-0.253509521484375,1.085906982421875,0.009613037109375,-0.4123524129390717,0.1882524639368057,-0.3988328576087952,64.67961120605469,98.96725463867188,-26.7584228515625
312011,-0.2709503173828125,1.096038818359375,-0.0339202880859375,-0.4123524129390717,0.1882524639368057,-0.3988328576087952,64.49359130859375,99.1266632080078,-26.44822692871094
312012,-0.2843017578125,1.108993530273438,-0.079803466796875,-0.3260606527328491,0.1976867169141769,-0.3871977925300598,64.40292358398438,99.196533203125,-26.25907897949219
312013,-0.2843017578125,1.108993530273438,-0.079803466796875,-0.3260606527328491,0.1976867169141769,-0.3871977925300598,64.40292358398438,99.196533203125,-26.25907897949219
312014,-0.253570556640625,1.059463500976562,-0.1749420166015625,-0.1251475363969803,0.1806728392839432,-0.31915482878685,64.10404968261719,99.35935974121094,-25.93777465820312
312015,-0.2235870361328125,1.018203735351562,-0.218994140625,-0.0597991496324539,0.2408498972654343,-0.2817760109901428,63.87641906738281,99.39724731445312,-25.76710510253906
312016,-0.1912384033203125,0.9709320068359376,-0.2605133056640625,-0.0350751616060733,0.2883851826190948,-0.2606401145458221,63.75038146972656,99.494873046875,-25.58711242675781
312017,-0.153411865234375,0.9349517822265624,-0.3014068603515625,-0.0402952246367931,0.304357498884201,-0.2395915538072586,63.62225341796875,99.50904846191406,-25.5006103515625
312018,-0.1118621826171875,0.9156036376953124,-0.3380279541015625,-0.0421972535550594,0.2839547693729401,-0.212797224521637,63.51609802246094,99.54762268066406,-25.35400390625
312019,-0.062164306640625,0.89208984375,-0.34326171875,-0.039628367871046,0.2747226357460022,-0.1890498101711273,63.40017700195312,99.63731384277344,-25.27082824707031
312020,-0.006683349609375,0.855255126953125,-0.3384246826171875,-0.0371015630662441,0.2579050362110138,-0.1484677642583847,63.33250427246094,99.71516418457033,-25.29647827148438
312021,-0.006683349609375,0.855255126953125,-0.3384246826171875,-0.0371015630662441,0.2579050362110138,-0.1484677642583847,63.33250427246094,99.71516418457033,-25.29647827148438
312022,-0.006683349609375,0.855255126953125,-0.3384246826171875,-0.0371015630662441,0.2579050362110138,-0.1484677642583847,63.33250427246094,99.71516418457033,-25.29647827148438
312023,0.0819549560546875,0.772064208984375,-0.359893798828125,-0.0230786874890327,0.2197352945804596,-0.0292510967701673,63.19087219238281,99.80075073242188,-25.13240051269531
312024,0.1056976318359375,0.7523193359375,-0.3858795166015625,0.0354551970958709,0.2328750640153885,0.1040118858218193,63.2066650390625,99.69821166992188,-24.75508117675781
312025,0.0851593017578125,0.765777587890625,-0.387908935546875,0.063558205962181,0.2837126851081848,0.1617244482040405,63.17904663085938,99.53363037109376,-24.40557861328125
312026,0.0530548095703125,0.7967987060546875,-0.38580322265625,0.0804106891155242,0.3502943515777588,0.1976909786462784,63.33943176269531,99.44219970703124,-24.31678771972656
312027,0.0146942138671875,0.8451995849609375,-0.3719482421875,0.0826176479458808,0.4203158020973206,0.2062165439128876,63.45323181152344,99.46168518066406,-24.30300903320312
312028,-0.0193328857421875,0.9109344482421876,-0.3631134033203125,0.0755890309810638,0.4923758804798126,0.1824289262294769,63.48797607421875,99.52162170410156,-24.53689575195312
312029,-0.0193328857421875,0.9109344482421876,-0.3631134033203125,0.0755890309810638,0.4923758804798126,0.1824289262294769,63.48797607421875,99.52162170410156,-24.53689575195312
312030,-0.0546722412109375,1.048507690429688,-0.3433685302734375,0.0844416469335556,0.6049229502677917,0.0930740162730217,63.79588317871094,99.58677673339844,-24.56407165527344
312031,-0.0546722412109375,1.048507690429688,-0.3433685302734375,0.0844416469335556,0.6049229502677917,0.0930740162730217,63.79588317871094,99.58677673339844,-24.56407165527344
312032,-0.0720672607421875,1.101913452148438,-0.300445556640625,0.1007484495639801,0.6654171347618103,0.0405295826494693,63.87356567382812,99.54513549804688,-24.46603393554688
312033,-0.1166839599609375,1.162078857421875,-0.184661865234375,0.0999811887741088,0.6814547181129456,-0.128796324133873,64.00039672851562,99.65179443359376,-24.49360656738281
312034,-0.1388702392578125,1.16119384765625,-0.1290130615234375,0.0999811887741088,0.6814547181129456,-0.128796324133873,64.09068298339844,99.7474365234375,-24.40927124023438
312035,-0.15167236328125,1.133926391601562,-0.06488037109375,0.0993769168853759,0.5917304158210754,-0.1655993461608887,64.157470703125,99.70054626464844,-24.41802978515625
312036,-0.1469268798828125,1.081924438476562,-0.0095062255859375,0.086529828608036,0.4852705597877502,-0.1680923402309418,64.14067077636719,99.74951171875,-24.50445556640625
312037,-0.134429931640625,1.025436401367188,0.02984619140625,0.0590976737439632,0.3711469173431396,-0.1363972574472427,64.06260681152344,99.75765991210938,-24.57490539550781
312038,-0.1228790283203125,0.9712066650390624,0.046295166015625,0.0253128129988908,0.2435391545295715,-0.0939344838261604,63.97401428222656,99.72373962402344,-24.49137878417969
312039,-0.1178741455078125,0.9132232666015624,0.0508575439453125,-0.0228334106504917,0.112771287560463,-0.0435727760195732,64.116943359375,99.70289611816406,-24.49639892578125
312040,-0.122467041015625,0.8616180419921875,0.049896240234375,-0.1180083975195885,-0.0088680600747466,0.0702888071537017,64.20661926269531,99.79525756835938,-24.55108642578125
312041,-0.122467041015625,0.8616180419921875,0.049896240234375,-0.1180083975195885,-0.0088680600747466,0.0702888071537017,64.20661926269531,99.79525756835938,-24.55108642578125
312042,-0.10418701171875,0.809417724609375,0.01995849609375,-0.1408015936613083,-0.013161608017981,0.1094042509794235,64.14340209960938,99.87176513671876,-24.47441101074219
312043,-0.08392333984375,0.8236083984375,0.012054443359375,-0.1481620371341705,0.0342690236866474,0.1365935355424881,64.23240661621094,99.82560729980467,-24.37542724609375
312044,-0.0597991943359375,0.8524932861328125,-0.00531005859375,-0.1085083708167076,0.1496699154376984,0.1684073805809021,64.27178955078125,99.85287475585938,-24.26736450195312
312045,-0.0391845703125,0.8770751953125,-0.021728515625,-0.1085083708167076,0.1496699154376984,0.1684073805809021,64.33946228027344,99.78384399414062,-24.14680480957031
312046,-0.0254669189453125,0.9058990478515624,-0.023773193359375,-0.0894558429718017,0.2231297492980957,0.1674561053514481,64.35978698730469,99.65184020996094,-24.03016662597656
312047,-0.033905029296875,0.9598236083984376,-0.0201568603515625,-0.0915663987398147,0.3356022238731384,0.1481726914644241,64.56063842773438,99.58847045898438,-23.93562316894531
312048,-0.0723876953125,1.04052734375,-0.019927978515625,-0.1209852769970894,0.4475181102752686,0.1024185195565224,64.62335205078125,99.61634826660156,-23.85426330566406
312049,-0.0723876953125,1.04052734375,-0.019927978515625,-0.1209852769970894,0.4475181102752686,0.1024185195565224,64.62335205078125,99.61634826660156,-23.85426330566406
312050,-0.185943603515625,1.220962524414062,0.0015106201171875,-0.2291170805692673,0.6101704239845276,-0.034052774310112,64.79145812988281,99.72532653808594,-23.71871948242188
312051,-0.185943603515625,1.220962524414062,0.0015106201171875,-0.2291170805692673,0.6101704239845276,-0.034052774310112,64.79145812988281,99.72532653808594,-23.71871948242188
312052,-0.24920654296875,1.339614868164062,-0.0070343017578125,-0.1698002219200134,0.5290153622627258,-0.2786137759685516,64.73715209960938,99.693115234375,-23.16946411132812
312053,-0.24920654296875,1.339614868164062,-0.0070343017578125,-0.1698002219200134,0.5290153622627258,-0.2786137759685516,64.73715209960938,99.693115234375,-23.16946411132812
312054,-0.224212646484375,1.234146118164062,-0.01715087890625,0.0169504880905151,0.4322206676006317,-0.256017655134201,64.79249572753906,99.7902374267578,-22.96403503417969
312055,-0.1783905029296875,1.151947021484375,-0.04449462890625,0.1850758492946625,0.3822056949138641,-0.2290108203887939,64.69662475585938,99.77848815917967,-22.7080078125
312056,-0.16925048828125,1.097000122070312,-0.0843505859375,0.2529001533985138,0.3117163479328156,-0.2101321965456009,64.54478454589844,99.83341979980467,-22.63800048828125
312057,-0.16925048828125,1.097000122070312,-0.0843505859375,0.2529001533985138,0.3117163479328156,-0.2101321965456009,64.54478454589844,99.83341979980467,-22.63800048828125
312058,-0.1812286376953125,0.9832305908203124,-0.086181640625,0.2326984852552414,0.1768727749586105,-0.190004289150238,64.46910095214844,99.90438842773438,-22.57130432128906
312059,-0.1890106201171875,0.9237060546875,-0.0807342529296875,0.2141541093587875,0.1490217000246048,-0.195688009262085,64.31607055664062,99.82888793945312,-22.67112731933594
312060,-0.1918487548828125,0.8671875,-0.096282958984375,0.2122235745191574,0.1159255355596542,-0.1892428994178772,64.27294921875,99.74838256835938,-22.57572937011719
312061,-0.1918487548828125,0.8671875,-0.096282958984375,0.2122235745191574,0.1159255355596542,-0.1892428994178772,64.27294921875,99.74838256835938,-22.57572937011719
312062,-0.1730194091796875,0.7780609130859375,-0.134521484375,0.2667677700519562,0.0627201050519943,-0.191159576177597,64.1798095703125,99.79605102539062,-22.70732116699219
312063,-0.1811370849609375,0.7591400146484375,-0.15283203125,0.2694509029388428,0.0761954337358474,-0.1986965835094452,64.06471252441406,99.7280731201172,-22.83023071289062
312064,-0.20013427734375,0.7709197998046875,-0.164306640625,0.2242919504642487,0.0963110923767089,-0.2139112204313278,64.05731201171875,99.70466613769533,-22.8856201171875
312065,-0.20013427734375,0.7709197998046875,-0.164306640625,0.2242919504642487,0.0963110923767089,-0.2139112204313278,64.05731201171875,99.70466613769533,-22.8856201171875
312066,-0.226806640625,0.829437255859375,-0.1510162353515625,0.0595959536731243,0.145883709192276,-0.2530226707458496,63.92303466796875,99.85537719726562,-23.14328002929688
312067,-0.2239227294921875,0.8669281005859375,-0.124176025390625,-0.0173992309719324,0.1568378210067749,-0.2475956827402115,63.78182983398438,100.0443115234375,-23.32879638671875
312068,-0.209442138671875,0.908782958984375,-0.0908966064453125,-0.0903924778103828,0.1605060547590256,-0.2216325253248215,63.584716796875,100.1806182861328,-23.29960632324219
312069,-0.209442138671875,0.908782958984375,-0.0908966064453125,-0.0903924778103828,0.1605060547590256,-0.2216325253248215,63.584716796875,100.1806182861328,-23.29960632324219
312070,-0.1833343505859375,0.9552764892578124,-0.0469818115234375,-0.2161607891321182,0.1688888818025589,-0.1240425854921341,63.43963623046875,100.34423828125,-23.286865234375
312071,-0.176361083984375,0.9832916259765624,-0.0264434814453125,-0.2691451907157898,0.1838521212339401,-0.0730592980980873,63.32980346679688,100.3701629638672,-23.13432312011719
312072,-0.1783294677734375,1.012588500976562,-0.0127410888671875,-0.3188019394874573,0.2124651223421097,-0.0329321175813674,63.336181640625,100.4289855957031,-23.06298828125
312073,-0.19281005859375,1.042770385742188,-0.010040283203125,-0.3590279221534729,0.2199648469686508,-0.006900783162564,63.23806762695312,100.6172027587891,-22.97126770019531
312074,-0.207305908203125,1.06573486328125,-0.008453369140625,-0.3800277709960938,0.1841791570186615,0.0010378338629379,63.16670227050781,100.6357574462891,-22.68110656738281
312075,-0.2187042236328125,1.0723876953125,0.000213623046875,-0.3564055263996124,0.1269853860139847,0.0115964682772755,63.10539245605469,100.6174926757812,-22.31034851074219
312076,-0.21356201171875,1.056610107421875,0.002685546875,-0.3062547445297241,0.0781209021806716,0.0341475829482078,63.16036987304688,100.6578369140625,-22.19050598144531
312077,-0.21356201171875,1.056610107421875,0.002685546875,-0.3062547445297241,0.0781209021806716,0.0341475829482078,63.16036987304688,100.6578369140625,-22.19050598144531
312078,-0.1249237060546875,0.9966278076171876,-0.011566162109375,-0.1624909043312073,0.0158703103661537,0.1050779521465302,63.11264038085938,100.7781524658203,-21.85801696777344
312079,-0.04962158203125,0.9505767822265624,-0.03155517578125,-0.11673354357481,0.0052163335494697,0.1126314699649811,63.11708068847656,100.7424011230469,-21.62350463867188
312080,0.05450439453125,0.8760223388671875,-0.1048431396484375,-0.0401663295924663,-0.0593690499663353,0.1122250780463219,63.2291259765625,100.7096405029297,-21.60635375976562
312081,0.05450439453125,0.8760223388671875,-0.1048431396484375,-0.0401663295924663,-0.0593690499663353,0.1122250780463219,63.2291259765625,100.7096405029297,-21.60635375976562
312082,0.0926055908203125,0.85784912109375,-0.1437225341796875,-0.0108292121440172,-0.1238990426063538,0.1137286946177483,63.15078735351562,100.5753936767578,-21.45240783691406
312083,0.1228790283203125,0.85400390625,-0.186431884765625,0.0206706579774618,-0.1851789057254791,0.1130543798208237,63.34022521972656,100.5168151855469,-21.43400573730469
312084,0.1503143310546875,0.88031005859375,-0.238861083984375,0.089948795735836,-0.315906822681427,0.1477958559989929,63.27163696289062,100.6120300292969,-21.42329406738281
312085,0.1503143310546875,0.88031005859375,-0.238861083984375,0.089948795735836,-0.315906822681427,0.1477958559989929,63.27163696289062,100.6120300292969,-21.42329406738281
312086,0.156951904296875,0.9911346435546876,-0.29180908203125,0.116028867661953,-0.3629638254642487,0.1716172993183136,63.39027404785156,100.5075225830078,-21.33070373535156
312087,0.1361846923828125,1.076980590820312,-0.28546142578125,0.1350294500589371,-0.4074479341506958,0.1866255402565002,63.42738342285156,100.4022674560547,-21.38323974609375
312088,0.119049072265625,1.161895751953125,-0.2821807861328125,0.1820390373468399,-0.5098704695701599,0.1714074313640594,63.55924987792969,100.3001708984375,-21.51438903808594
312089,0.119049072265625,1.161895751953125,-0.2821807861328125,0.1820390373468399,-0.5098704695701599,0.1714074313640594,63.55924987792969,100.3001708984375,-21.51438903808594
312090,0.0887603759765625,1.2923583984375,-0.2498931884765625,0.2566182017326355,-0.5572075843811035,0.1115174740552902,63.6431884765625,100.23681640625,-21.79502868652344
312091,0.0649871826171875,1.315048217773438,-0.2075042724609375,0.2566182017326355,-0.5572075843811035,0.1115174740552902,63.57919311523438,100.1155700683594,-21.86932373046875
312092,0.0361785888671875,1.307540893554688,-0.1471405029296875,0.2930430471897125,-0.454132080078125,0.0123490775004029,63.70860290527344,100.1066589355469,-22.11843872070312
312093,0.0361785888671875,1.307540893554688,-0.1471405029296875,0.2930430471897125,-0.454132080078125,0.0123490775004029,63.70860290527344,100.1066589355469,-22.11843872070312
312094,-0.0490570068359375,1.25567626953125,-0.0522918701171875,0.2957227230072021,-0.383491188287735,-0.038708247244358,63.75177001953125,99.9814910888672,-22.54351806640625
312095,-0.0490570068359375,1.25567626953125,-0.0522918701171875,0.2957227230072021,-0.383491188287735,-0.038708247244358,63.75177001953125,99.9814910888672,-22.54351806640625
312096,-0.1610107421875,1.141571044921875,0.0032196044921875,0.3606908023357391,-0.2517733871936798,-0.1892149299383163,63.8275146484375,99.92877197265624,-22.86528015136719
312097,-0.213531494140625,1.084869384765625,0.010101318359375,0.3606908023357391,-0.2517733871936798,-0.1892149299383163,63.96400451660156,99.94622802734376,-23.18141174316406
312098,-0.2500762939453125,1.029678344726562,0.0109405517578125,0.3651838302612305,-0.2420752197504044,-0.239397406578064,63.96572875976562,100.00927734375,-23.26875305175781
312099,-0.26806640625,0.9792633056640624,0.0113677978515625,0.3530888259410858,-0.2113223671913147,-0.2867838442325592,63.87664794921875,99.88165283203124,-23.49578857421875
312100,-0.261260986328125,0.888458251953125,-0.068756103515625,0.3438164889812469,-0.2052152007818222,-0.3527841567993164,63.59776306152344,99.99261474609376,-23.95046997070312
312101,-0.261260986328125,0.888458251953125,-0.068756103515625,0.3438164889812469,-0.2052152007818222,-0.3527841567993164,63.59776306152344,99.99261474609376,-23.95046997070312
312102,-0.233428955078125,0.86810302734375,-0.116058349609375,0.3506919741630554,-0.2110339403152466,-0.3659944832324982,63.50981140136719,99.9858856201172,-24.15303039550781
312103,-0.2046051025390625,0.853179931640625,-0.1684417724609375,0.357970118522644,-0.2203637957572937,-0.3644546568393707,63.37614440917969,100.0268402099609,-24.25265502929688
312104,-0.1878814697265625,0.8438873291015625,-0.21435546875,0.3581086099147797,-0.2456281334161758,-0.343215674161911,63.23272705078125,100.0228881835938,-24.44723510742188
312105,-0.1878814697265625,0.8438873291015625,-0.21435546875,0.3581086099147797,-0.2456281334161758,-0.343215674161911,63.23272705078125,100.0228881835938,-24.44723510742188
312106,-0.1670379638671875,0.8361053466796875,-0.2549285888671875,0.3638719618320465,-0.3176424205303192,-0.2719377875328064,62.90261840820312,100.1135406494141,-24.90165710449219
312107,-0.1670379638671875,0.8361053466796875,-0.2549285888671875,0.3638719618320465,-0.3176424205303192,-0.2719377875328064,62.90261840820312,100.1135406494141,-24.90165710449219
312108,-0.1546173095703125,0.8429412841796875,-0.2581024169921875,0.3659436404705048,-0.3860896527767181,-0.2065529078245163,62.63999938964844,100.1161651611328,-25.28338623046875
312109,-0.14508056640625,0.83392333984375,-0.256103515625,0.3610519468784332,-0.4113284349441528,-0.1623308509588242,62.42607116699219,100.0034027099609,-25.47525024414062
312110,-0.1229705810546875,0.8207855224609375,-0.24462890625,0.3761627078056335,-0.42835932970047,-0.0299837309867143,62.39210510253906,99.9017333984375,-25.69007873535156
312111,-0.1048736572265625,0.8046722412109375,-0.225799560546875,0.3761627078056335,-0.42835932970047,-0.0299837309867143,62.35264587402344,99.93624877929688,-25.8746337890625
312112,-0.0741729736328125,0.83282470703125,-0.17352294921875,0.2987334430217743,-0.34429931640625,0.0877271890640258,62.20075988769531,99.9749755859375,-26.0809326171875
312113,-0.07025146484375,0.8749542236328125,-0.0882568359375,0.2987334430217743,-0.34429931640625,0.0877271890640258,62.20069885253906,99.88502502441406,-26.30010986328125
312114,-0.072265625,0.9199981689453124,0.0040740966796875,0.219368577003479,-0.2790180444717407,0.1007582992315292,62.16159057617188,99.71990966796876,-26.55413818359375
312115,-0.072265625,0.9199981689453124,0.0040740966796875,0.219368577003479,-0.2790180444717407,0.1007582992315292,62.16159057617188,99.71990966796876,-26.55413818359375
312116,-0.0554962158203125,0.9075164794921876,0.0952301025390625,0.0518434904515743,-0.2103548347949982,0.1250471323728561,62.11721801757812,99.7168426513672,-26.85539245605469
312117,-0.036529541015625,0.884002685546875,0.0950775146484375,-0.0339417196810245,-0.2841068208217621,0.1772815734148026,62.18951416015625,99.78475952148438,-26.99761962890625
312118,-0.006378173828125,0.890289306640625,0.1035919189453125,-0.1220859587192535,-0.3703511655330658,0.2184332758188248,62.18571472167969,99.83692932128906,-27.03660583496094
312119,-0.006378173828125,0.890289306640625,0.1035919189453125,-0.1220859587192535,-0.3703511655330658,0.2184332758188248,62.18571472167969,99.83692932128906,-27.03660583496094
312120,-0.02911376953125,0.9796905517578124,0.1474151611328125,-0.2744560539722443,-0.4520609378814697,0.2129069417715073,62.26071166992188,99.81260681152344,-27.19544982910156
312121,-0.0519561767578125,1.0098876953125,0.161651611328125,-0.3080920577049255,-0.4524132609367371,0.1818930953741074,62.27415466308594,99.77853393554688,-27.18229675292969
312122,-0.0511322021484375,1.013015747070312,0.160614013671875,-0.3103408217430115,-0.4558479487895966,0.1771926283836365,62.27206420898438,99.7980499267578,-27.13627624511719
312123,-0.026702880859375,1.001754760742188,0.1504364013671875,-0.274027556180954,-0.4802584946155548,0.1915811449289322,62.31690979003906,99.76254272460938,-26.77813720703125
312124,0.007049560546875,0.992034912109375,0.1357421875,-0.2297889888286591,-0.4989661276340485,0.2105689495801926,62.4110107421875,99.70187377929688,-26.60504150390625
312125,0.0208282470703125,1.002288818359375,0.1246490478515625,-0.1988835334777832,-0.5086871981620789,0.2401265799999237,62.49754333496094,99.60311889648438,-26.67247009277344
312126,0.0271148681640625,1.024429321289062,0.1210479736328125,-0.1718476563692093,-0.5196242928504944,0.2478300333023071,62.55014038085938,99.58741760253906,-26.58259582519531
312127,0.01629638671875,1.021499633789062,0.115386962890625,-0.1718476563692093,-0.5196242928504944,0.2478300333023071,62.47390747070312,99.68278503417967,-26.39559936523438
312128,-0.0157318115234375,1.011474609375,0.098968505859375,-0.1860210001468658,-0.5370514392852783,0.2476204484701157,62.58299255371094,99.7583465576172,-26.65643310546875
312129,-0.0157318115234375,1.011474609375,0.098968505859375,-0.1860210001468658,-0.5370514392852783,0.2476204484701157,62.58299255371094,99.7583465576172,-26.65643310546875
312130,-0.02862548828125,1.035476684570312,0.0660552978515625,-0.1279720813035965,-0.6003659963607788,0.1977104097604752,62.7637939453125,99.7598114013672,-26.73631286621094
312131,-0.0406951904296875,1.04302978515625,0.028472900390625,-0.0829036682844162,-0.5785320401191711,0.1440714150667191,62.85646057128906,99.67839050292967,-26.6099853515625
312132,-0.064849853515625,1.059600830078125,-0.014007568359375,-0.0479568727314472,-0.4978505373001099,0.0947629958391189,62.87152099609375,99.67022705078124,-26.63636779785156
312133,-0.1029815673828125,1.077835083007812,-0.0572357177734375,-0.0102558331564068,-0.387336790561676,0.0556403584778308,62.84425354003906,99.73269653320312,-26.67091369628906
312134,-0.1460723876953125,1.090728759765625,-0.073760986328125,0.0309605784714222,-0.2987789809703827,0.0185683574527502,62.79066467285156,99.67854309082033,-26.61228942871094
312135,-0.18157958984375,1.099868774414062,-0.06439208984375,0.0508589185774326,-0.1957455277442932,-0.0218634866178035,62.84967041015625,99.7537841796875,-26.70454406738281
312136,-0.2097320556640625,1.10443115234375,-0.0602874755859375,0.0325403660535812,-0.088434524834156,-0.0679209902882576,62.77517700195312,99.70291137695312,-26.69741821289062
312137,-0.2097320556640625,1.10443115234375,-0.0602874755859375,0.0325403660535812,-0.088434524834156,-0.0679209902882576,62.77517700195312,99.70291137695312,-26.69741821289062
312138,-0.21630859375,1.128021240234375,-0.0587615966796875,-0.0213873144239187,0.0391628481447696,-0.1340488791465759,62.82257080078125,99.7675323486328,-26.83576965332031
312139,-0.21630859375,1.128021240234375,-0.0587615966796875,-0.0213873144239187,0.0391628481447696,-0.1340488791465759,62.82257080078125,99.7675323486328,-26.83576965332031
312140,-0.153778076171875,1.07257080078125,-0.1439666748046875,0.0963680818676948,0.1666273325681686,-0.0558251813054084,62.59117126464844,99.70054626464844,-26.73321533203125
312141,-0.153778076171875,1.07257080078125,-0.1439666748046875,0.0963680818676948,0.1666273325681686,-0.0558251813054084,62.59117126464844,99.70054626464844,-26.73321533203125
312142,-0.155059814453125,1.032867431640625,-0.1595916748046875,0.1474360525608063,0.2040420770645142,0.0042040660046041,62.53178405761719,99.6554718017578,-26.75514221191406
312143,-0.160308837890625,0.9754791259765624,-0.1755218505859375,0.1805980056524277,0.216848149895668,0.0571740716695785,62.4739990234375,99.69219970703124,-26.90574645996094
312144,-0.1594696044921875,0.9251708984375,-0.209564208984375,0.2077265679836273,0.238010972738266,0.1005023717880249,62.52108764648438,99.56884765625,-26.88201904296875
312145,-0.146087646484375,0.8986358642578125,-0.2786712646484375,0.2614225447177887,0.2615975141525269,0.1514848619699478,62.5762939453125,99.66712951660156,-27.02828979492188
312146,-0.1134490966796875,0.89971923828125,-0.3628082275390625,0.3314367830753326,0.2753370404243469,0.198652908205986,62.72502136230469,99.55569458007812,-26.94100952148438
312147,-0.1134490966796875,0.89971923828125,-0.3628082275390625,0.3314367830753326,0.2753370404243469,0.198652908205986,62.72502136230469,99.55569458007812,-26.94100952148438
312148,-0.0086212158203125,1.024002075195312,-0.400146484375,0.3158871233463287,0.3567360043525696,0.2602057456970215,63.00904846191406,99.41217041015624,-27.35531616210938
312149,-0.0086212158203125,1.024002075195312,-0.400146484375,0.3158871233463287,0.3567360043525696,0.2602057456970215,63.00904846191406,99.41217041015624,-27.35531616210938
312150,-0.0007476806640625,1.066055297851562,-0.3786163330078125,0.2715817093849182,0.3872041702270508,0.2329509556293488,63.16192626953125,99.28892517089844,-27.50367736816406
312151,-0.0093841552734375,1.092391967773438,-0.363128662109375,0.2495943903923035,0.4052622616291046,0.1936411112546921,63.31393432617188,99.23695373535156,-27.50151062011719
312152,-0.036895751953125,1.099822998046875,-0.3610992431640625,0.2249273955821991,0.4138989150524139,0.105754129588604,63.34791564941406,99.18807983398438,-27.46684265136719
312153,-0.036895751953125,1.099822998046875,-0.3610992431640625,0.2249273955821991,0.4138989150524139,0.105754129588604,63.34791564941406,99.18807983398438,-27.46684265136719
312154,-0.0836181640625,1.040634155273438,-0.3435821533203125,0.2072567790746689,0.4180619716644287,0.067914068698883,63.65643310546875,99.08607482910156,-27.73739624023438
312155,-0.0966949462890625,0.9872283935546876,-0.31072998046875,0.1606088578701019,0.4056135416030884,0.044236171990633,63.68438720703125,98.99539184570312,-27.61642456054688
312156,-0.1010894775390625,0.9275970458984376,-0.25823974609375,0.0923917144536972,0.3793643712997437,0.037900511175394,63.84529113769531,98.93034362792967,-27.7430419921875
312157,-0.1010894775390625,0.9275970458984376,-0.25823974609375,0.0923917144536972,0.3793643712997437,0.037900511175394,63.84529113769531,98.93034362792967,-27.7430419921875
312158,-0.1025543212890625,0.829803466796875,-0.15234375,-0.0813230872154235,0.2548016607761383,0.0764857232570648,63.93318176269531,99.00694274902344,-27.61744689941406
312159,-0.088531494140625,0.8083343505859375,-0.1171875,-0.1704955697059631,0.1731968224048615,0.1124114990234375,64.10218811035156,99.04548645019533,-27.56173706054688
312160,-0.066558837890625,0.815032958984375,-0.084564208984375,-0.2561697363853455,0.1174699068069458,0.1518766134977341,64.13716125488281,98.9375457763672,-27.5211181640625
312161,-0.066558837890625,0.815032958984375,-0.084564208984375,-0.2561697363853455,0.1174699068069458,0.1518766134977341,64.13716125488281,98.9375457763672,-27.5211181640625
312162,-0.0043792724609375,0.8792572021484375,-0.0348358154296875,-0.3943470418453217,0.0508192367851734,0.2264605760574341,64.44189453125,98.88420104980467,-27.29060363769531
312163,0.016845703125,0.9246368408203124,-0.0346221923828125,-0.4092804491519928,0.0338839292526245,0.2554829120635986,64.46102905273438,98.89515686035156,-26.87335205078125
312164,0.0261077880859375,0.9634857177734376,-0.0322723388671875,-0.3783560991287231,0.0127243176102638,0.2863998115062714,64.58261108398438,98.89523315429688,-26.75311279296875
312165,0.0261077880859375,0.9634857177734376,-0.0322723388671875,-0.3783560991287231,0.0127243176102638,0.2863998115062714,64.58261108398438,98.89523315429688,-26.75311279296875
312166,0.05352783203125,1.003936767578125,-0.020721435546875,-0.2311884760856628,-0.0122848954051733,0.3441933393478394,64.89839172363281,98.84928894042967,-26.46928405761719
312167,0.076263427734375,0.9911956787109376,-0.030181884765625,-0.1359056383371353,-0.0396752394735813,0.3495809137821198,64.98316955566406,98.85971069335938,-26.27854919433594
312168,0.096405029296875,0.9750213623046876,-0.03326416015625,0.0217974409461021,-0.093188002705574,0.3583581447601318,65.01312255859375,98.71046447753906,-26.20188903808594
312169,0.1177825927734375,0.95281982421875,-0.04656982421875,0.0217974409461021,-0.093188002705574,0.3583581447601318,65.22480773925781,98.62890625,-26.31504821777344
312170,0.1403350830078125,0.923980712890625,-0.087158203125,0.0839537531137466,-0.1525799483060837,0.3527428805828094,65.45761108398438,98.46334838867188,-26.20121765136719
312171,0.1654052734375,0.885986328125,-0.118377685546875,0.1254572570323944,-0.253515362739563,0.3450641930103302,65.68460083007812,98.53776550292967,-26.23422241210938
312172,0.1751861572265625,0.852569580078125,-0.1510467529296875,0.1495018750429153,-0.3295856118202209,0.332682341337204,65.70306396484375,98.49447631835938,-26.3538818359375
312173,0.1751861572265625,0.852569580078125,-0.1510467529296875,0.1495018750429153,-0.3295856118202209,0.332682341337204,65.70306396484375,98.49447631835938,-26.3538818359375
312174,0.14398193359375,0.87109375,-0.1669769287109375,0.1469255238771439,-0.4048673212528229,0.252134770154953,65.92471313476562,98.25128173828124,-26.62796020507812
312175,0.0954437255859375,0.9099578857421876,-0.1536407470703125,0.1099206432700157,-0.391858845949173,0.1907449215650558,66.0140380859375,98.1713409423828,-26.64437866210938
312176,0.0276336669921875,0.962066650390625,-0.12322998046875,-0.0326503552496433,-0.4276645183563232,0.0374717414379119,66.08030700683594,98.17213439941406,-26.76498413085938
312177,-0.052459716796875,1.0118408203125,-0.0796966552734375,-0.0326503552496433,-0.4276645183563232,0.0374717414379119,66.20846557617188,98.12002563476562,-26.90591430664062
312178,-0.1243133544921875,1.046875,-0.0283203125,-0.1129438653588295,-0.4493410587310791,-0.0403455570340156,66.25178527832031,98.1095733642578,-26.91729736328125
312179,-0.189544677734375,1.0570068359375,0.019439697265625,-0.167910173535347,-0.4392207860946655,-0.0969739481806755,66.23202514648438,98.18112182617188,-27.10978698730469
312180,-0.248199462890625,1.05364990234375,0.0561065673828125,-0.1910503804683685,-0.3808666467666626,-0.1516142934560776,66.09188842773438,98.24029541015624,-27.09982299804688
312181,-0.248199462890625,1.05364990234375,0.0561065673828125,-0.1910503804683685,-0.3808666467666626,-0.1516142934560776,66.09188842773438,98.24029541015624,-27.09982299804688
312182,-0.3457489013671875,1.022201538085938,0.1121826171875,-0.1775236576795578,-0.338021457195282,-0.1563706994056702,66.04168701171875,98.31478881835938,-26.96885681152344
312183,-0.379425048828125,0.998687744140625,0.1233367919921875,-0.1704436391592026,-0.3039018213748932,-0.1478752195835114,66.01947021484375,98.34906005859376,-27.03010559082031
312184,-0.3961639404296875,0.960174560546875,0.1216583251953125,-0.1702894419431686,-0.2779591679573059,-0.1418878883123398,65.90032958984375,98.33140563964844,-26.96446228027344
312185,-0.3961639404296875,0.960174560546875,0.1216583251953125,-0.1702894419431686,-0.2779591679573059,-0.1418878883123398,65.90032958984375,98.33140563964844,-26.96446228027344
312186,-0.404632568359375,0.9089508056640624,0.107208251953125,-0.1853717267513275,-0.1916519850492477,-0.1623084843158722,65.70857238769531,98.5561981201172,-26.94267272949219
312187,-0.4010009765625,0.9257659912109376,0.0927276611328125,-0.203435406088829,-0.0792791098356246,-0.1768275052309036,65.69319152832031,98.54811096191406,-26.82904052734375
312188,-0.3779296875,0.9380645751953124,0.0879669189453125,-0.2167450934648514,0.1649434119462967,-0.2060647457838058,65.59211730957031,98.50572204589844,-26.83735656738281
312189,-0.3779296875,0.9380645751953124,0.0879669189453125,-0.2167450934648514,0.1649434119462967,-0.2060647457838058,65.59211730957031,98.50572204589844,-26.83735656738281
312190,-0.3307952880859375,0.9435882568359376,0.10614013671875,-0.2404245883226395,0.2608640789985657,-0.2124685943126678,65.48117065429688,98.56117248535156,-26.71919250488281
312191,-0.32745361328125,0.95550537109375,0.0969390869140625,-0.2982034683227539,0.3297424912452698,-0.2116217017173767,65.40150451660156,98.60739135742188,-26.4202880859375
312192,-0.3192138671875,0.9777069091796876,0.068328857421875,-0.3848121166229248,0.358564019203186,-0.2045360952615738,65.31925964355469,98.67608642578124,-26.23281860351562
312193,-0.3192138671875,0.9777069091796876,0.068328857421875,-0.3848121166229248,0.358564019203186,-0.2045360952615738,65.31925964355469,98.67608642578124,-26.23281860351562
312194,-0.2723846435546875,1.046173095703125,0.0095977783203125,-0.5707566738128662,0.339186042547226,-0.1543048769235611,65.09513854980469,98.88685607910156,-25.831787109375
312195,-0.23321533203125,1.078125,-0.0134735107421875,-0.6134878993034363,0.3134982585906982,-0.1118090897798538,65.06512451171875,99.01974487304688,-25.56526184082031
312196,-0.19476318359375,1.101226806640625,-0.0377197265625,-0.6193979978561401,0.2713510692119598,-0.0527926422655582,64.96200561523438,99.03598022460938,-25.29864501953125
312197,-0.148651123046875,1.113601684570312,-0.0616302490234375,-0.587511420249939,0.2119506001472473,0.008428905159235,64.88162231445312,99.10525512695312,-25.08360290527344
312198,-0.085174560546875,1.112335205078125,-0.078857421875,-0.5428627729415894,0.1566679030656815,0.0618471205234527,64.80809020996094,99.15635681152344,-24.7635498046875
312199,-0.024261474609375,1.118988037109375,-0.0953521728515625,-0.4923444390296936,0.1364425271749496,0.0840634778141975,64.80474853515625,99.2239227294922,-24.43026733398438
312200,0.0273284912109375,1.122222900390625,-0.1153564453125,-0.4398317039012909,0.0905908867716789,0.0689564272761344,64.69052124023438,99.16682434082033,-24.13516235351562
312201,0.0273284912109375,1.122222900390625,-0.1153564453125,-0.4398317039012909,0.0905908867716789,0.0689564272761344,64.69052124023438,99.16682434082033,-24.13516235351562
312202,0.1107635498046875,1.103668212890625,-0.11956787109375,-0.3427962362766266,-0.0916356444358825,-0.005388640332967,64.74806213378906,99.36140441894533,-23.49153137207031
312203,0.126220703125,1.084182739257812,-0.137420654296875,-0.2826205193996429,-0.1881262362003326,-0.0387388728559017,64.64640808105469,99.3495635986328,-23.17782592773438
312204,0.14129638671875,1.045150756835938,-0.169097900390625,-0.2008678615093231,-0.2942012548446655,-0.0560542158782482,64.65754699707031,99.395751953125,-22.99676513671875
312205,0.14129638671875,1.045150756835938,-0.169097900390625,-0.2008678615093231,-0.2942012548446655,-0.0560542158782482,64.65754699707031,99.395751953125,-22.99676513671875
312206,0.1805267333984375,0.974853515625,-0.2376861572265625,0.0284095369279384,-0.4244804382324219,-0.0400582030415535,64.50924682617188,99.2907257080078,-22.86151123046875
312207,0.1949310302734375,0.9495849609375,-0.2856597900390625,0.1269398331642151,-0.4591984748840332,-0.0227082408964633,64.56427001953125,99.2542724609375,-22.75384521484375
312208,0.1923828125,0.97344970703125,-0.3734588623046875,0.3233285248279572,-0.5111556649208069,0.0428795553743839,64.47203063964844,99.11761474609376,-22.90103149414062
312209,0.1923828125,0.97344970703125,-0.3734588623046875,0.3233285248279572,-0.5111556649208069,0.0428795553743839,64.47203063964844,99.11761474609376,-22.90103149414062
312210,0.1748809814453125,1.012115478515625,-0.399322509765625,0.4031461179256439,-0.5390980839729309,0.0639869719743728,64.57817077636719,99.11988830566406,-23.01327514648438
312211,0.1555938720703125,1.062408447265625,-0.409637451171875,0.465568482875824,-0.5686320066452026,0.0769248753786087,64.59886169433594,99.00999450683594,-23.15950012207031
312212,0.1480712890625,1.103591918945312,-0.4039306640625,0.5163784027099609,-0.5743991136550903,0.0935030505061149,64.68382263183594,98.89663696289062,-23.33497619628906
312213,0.1480712890625,1.103591918945312,-0.4039306640625,0.5163784027099609,-0.5743991136550903,0.0935030505061149,64.68382263183594,98.89663696289062,-23.33497619628906
312214,0.14459228515625,1.128082275390625,-0.3965911865234375,0.6202701926231384,-0.5293692946434021,0.1461524218320847,64.65605163574219,98.7963409423828,-24.09657287597656
312215,0.1351165771484375,1.12408447265625,-0.377532958984375,0.6455134749412537,-0.5115287899971008,0.1668843179941177,64.76072692871094,98.68148803710938,-24.48869323730469
312216,0.128173828125,1.11065673828125,-0.3408355712890625,0.64406418800354,-0.4738671779632568,0.1896572858095169,64.70152282714844,98.618896484375,-24.75416564941406
312217,0.128173828125,1.11065673828125,-0.3408355712890625,0.64406418800354,-0.4738671779632568,0.1896572858095169,64.70152282714844,98.618896484375,-24.75416564941406
312218,0.1067962646484375,1.05712890625,-0.276763916015625,0.6115027666091919,-0.4788517951965332,0.195833683013916,64.72341918945312,98.45085144042967,-25.443359375
312219,0.08660888671875,1.053298950195312,-0.2372894287109375,0.548803448677063,-0.4755532145500183,0.1883230358362198,64.87028503417969,98.45848083496094,-25.83744812011719
312220,0.0758819580078125,1.050888061523438,-0.1882171630859375,0.4760184586048126,-0.4610786736011505,0.170841246843338,64.91423034667969,98.45867919921876,-26.34602355957031
312221,0.0758819580078125,1.050888061523438,-0.1882171630859375,0.4760184586048126,-0.4610786736011505,0.170841246843338,64.91423034667969,98.45867919921876,-26.34602355957031
312222,0.0062408447265625,1.030166625976562,-0.07720947265625,0.3373790979385376,-0.5003043413162231,0.1326824128627777,65.02920532226562,98.34538269042967,-26.96644592285156
312223,-0.031219482421875,1.02142333984375,-0.0137481689453125,0.2917213439941406,-0.5289394855499268,0.0900702401995658,65.13009643554688,98.26544189453124,-27.17816162109375
312224,-0.070159912109375,1.009368896484375,0.019256591796875,0.2709580063819885,-0.551426112651825,0.0453821271657943,65.18904113769531,98.09910583496094,-27.35200500488281
312225,-0.0988616943359375,0.9931793212890624,0.0270538330078125,0.2490455061197281,-0.5586597919464111,-0.019194733351469,65.23992919921875,98.1578369140625,-27.57160949707031
312226,-0.1143798828125,0.9772796630859376,0.0110015869140625,0.2274342179298401,-0.5660940408706665,-0.0681244581937789,65.31874084472656,97.96525573730467,-27.74862670898438
312227,-0.1169891357421875,0.967987060546875,-0.0259246826171875,0.2060855180025101,-0.5732491612434387,-0.1076311245560646,65.27896118164062,97.9031219482422,-27.8961181640625
312228,-0.1171875,0.9756622314453124,-0.0586090087890625,0.2321525514125824,-0.5807187557220459,-0.116849385201931,65.2193603515625,98.01849365234376,-28.27679443359375
312229,-0.1171875,0.9756622314453124,-0.0586090087890625,0.2321525514125824,-0.5807187557220459,-0.116849385201931,65.2193603515625,98.01849365234376,-28.27679443359375
312230,-0.1316070556640625,0.96319580078125,-0.075408935546875,0.226988673210144,-0.6610628962516785,-0.087182842195034,65.02247619628906,97.97605895996094,-28.80308532714844
312231,-0.1309814453125,0.9736480712890624,-0.047698974609375,0.2272967994213104,-0.6834680438041687,-0.0633427500724792,64.85067749023438,97.9161376953125,-28.84434509277344
312232,-0.119964599609375,0.9635467529296876,-0.0326995849609375,0.2920297384262085,-0.7299373149871826,-0.0779888108372688,64.75801086425781,97.84266662597656,-29.24368286132812
312233,-0.119964599609375,0.9635467529296876,-0.0326995849609375,0.2920297384262085,-0.7299373149871826,-0.0779888108372688,64.75801086425781,97.84266662597656,-29.24368286132812
312234,-0.104400634765625,0.925140380859375,0.004150390625,0.2848123013973236,-0.7303473949432373,-0.092040441930294,64.72770690917969,97.74468994140624,-29.75782775878906
312235,-0.1156005859375,0.913970947265625,0.023406982421875,0.2511475384235382,-0.7003956437110901,-0.1046869978308678,64.58699035644531,97.77011108398438,-29.78634643554688
312236,-0.1229095458984375,0.910888671875,0.0388946533203125,0.1946738809347153,-0.6664930582046509,-0.0951299741864204,64.37205505371094,97.80177307128906,-29.90925598144531
312237,-0.1229095458984375,0.910888671875,0.0388946533203125,0.1946738809347153,-0.6664930582046509,-0.0951299741864204,64.37205505371094,97.80177307128906,-29.90925598144531
312238,-0.145751953125,0.9410858154296876,0.1368408203125,0.08266531676054,-0.5344892144203186,-0.0344349406659603,64.16880798339844,97.78904724121094,-30.55418395996094
312239,-0.1718597412109375,0.9562530517578124,0.1903228759765625,0.039671778678894,-0.4060436487197876,0.0098872520029544,64.05621337890625,97.84561157226562,-30.66984558105469
312240,-0.1958160400390625,0.9609375,0.2145233154296875,-0.0237548649311065,-0.2770704925060272,0.0873042792081832,63.98988342285156,97.79367065429688,-30.94401550292969
312241,-0.1972198486328125,0.947418212890625,0.2117462158203125,-0.0237548649311065,-0.2770704925060272,0.0873042792081832,63.89494323730469,97.77955627441406,-31.000244140625
312242,-0.1585540771484375,0.9287567138671876,0.210968017578125,-0.0301895942538976,-0.3146828413009644,0.1102609932422638,63.80235290527344,97.77334594726562,-30.94915771484375
312243,-0.1585540771484375,0.9287567138671876,0.210968017578125,-0.0301895942538976,-0.3146828413009644,0.1102609932422638,63.80235290527344,97.77334594726562,-30.94915771484375
312244,-0.0005645751953125,0.872100830078125,0.205169677734375,-0.0551729723811149,-0.2910685837268829,0.152121365070343,63.77838134765625,97.69393920898438,-30.98536682128906
312245,0.044830322265625,0.842315673828125,0.1750335693359375,-0.0700629726052284,-0.2394480109214783,0.1871224790811539,63.7518310546875,97.71536254882812,-31.0091552734375
312246,0.0496063232421875,0.8326568603515625,0.15985107421875,-0.0966567695140838,-0.2056748569011688,0.2063395828008652,63.76478576660156,97.66842651367188,-30.93441772460938
312247,0.0496063232421875,0.8326568603515625,0.15985107421875,-0.0966567695140838,-0.2056748569011688,0.2063395828008652,63.76478576660156,97.66842651367188,-30.93441772460938
312248,0.0851287841796875,0.81707763671875,0.1275177001953125,-0.1706561595201492,-0.2064450532197952,0.2275974750518799,63.80070495605469,97.71116638183594,-30.98042297363281
312249,0.1369781494140625,0.8308563232421875,0.0804290771484375,-0.234239935874939,-0.2231627702713013,0.2445218563079834,63.75350952148438,97.67390441894533,-31.04466247558594
312250,0.1437225341796875,0.9895477294921876,0.0630035400390625,-0.2719407081604004,-0.0883780643343925,0.2630369663238525,63.88688659667969,97.80279541015624,-31.04010009765625
312251,0.09075927734375,1.053909301757812,0.06329345703125,-0.2907519340515137,0.0196639820933342,0.2197411507368088,63.92828369140625,97.7647705078125,-30.89166259765625
312252,0.051025390625,1.0853271484375,0.0769195556640625,-0.3362919986248016,0.0641286522150039,0.0477741807699203,63.98709106445312,97.83204650878906,-30.8419189453125
312253,0.02423095703125,1.105880737304688,0.0897674560546875,-0.3362919986248016,0.0641286522150039,0.0477741807699203,64.14494323730469,97.90184020996094,-30.59915161132812
312254,0.0051727294921875,1.124420166015625,0.0848236083984375,-0.339032918214798,0.0719226598739624,-0.0455062314867973,64.21968078613281,97.96444702148438,-30.51025390625
312255,-0.015716552734375,1.130462646484375,0.0627899169921875,-0.3146247863769531,0.0841505602002143,-0.1266727298498154,64.35574340820312,97.8974151611328,-30.24224853515625
312256,-0.03314208984375,1.1243896484375,0.0286102294921875,-0.27753946185112,0.075599156320095,-0.1834995150566101,64.364013671875,97.8769073486328,-30.04132080078125
312257,-0.03314208984375,1.1243896484375,0.0286102294921875,-0.27753946185112,0.075599156320095,-0.1834995150566101,64.364013671875,97.8769073486328,-30.04132080078125
312258,-0.0550537109375,1.096969604492188,-0.0067901611328125,-0.1446413397789001,0.1313601583242416,-0.2265713512897491,64.22113037109375,98.0221710205078,-29.76982116699219
312259,-0.0606536865234375,1.084793090820312,-0.0232086181640625,-0.0699426010251045,0.192044273018837,-0.2107873409986496,64.12565612792969,98.18080139160156,-29.63072204589844
312260,-0.0620880126953125,1.079116821289062,-0.033172607421875,-0.0699426010251045,0.192044273018837,-0.2107873409986496,64.01406860351562,98.35890197753906,-29.66705322265625
312261,-0.0620880126953125,1.079116821289062,-0.033172607421875,-0.0699426010251045,0.192044273018837,-0.2107873409986496,64.01406860351562,98.35890197753906,-29.66705322265625
312262,-0.0717315673828125,1.108383178710938,-0.0398712158203125,-0.0466402061283588,0.2544594407081604,-0.2016540169715881,63.7669677734375,98.30783081054688,-29.46647644042969
312263,-0.0717315673828125,1.108383178710938,-0.0398712158203125,-0.0466402061283588,0.2544594407081604,-0.2016540169715881,63.7669677734375,98.30783081054688,-29.46647644042969
312264,-0.1008453369140625,1.141006469726562,-0.03265380859375,-0.0173648763448,0.2810268700122833,-0.2266203612089157,63.74623107910156,98.29689025878906,-29.0948486328125
312265,-0.1094512939453125,1.134078979492188,-0.0444793701171875,0.0219332613050937,0.2720602750778198,-0.242198258638382,63.57762145996094,98.42752075195312,-29.20152282714844
312266,-0.115447998046875,1.110855102539062,-0.0562591552734375,0.0779019892215728,0.2670316994190216,-0.2508814930915833,63.53433227539062,98.56614685058594,-29.192138671875
312267,-0.1194610595703125,1.065765380859375,-0.0626678466796875,0.144855722784996,0.2766318619251251,-0.2540224194526672,63.4158935546875,98.46907043457033,-29.16209411621094
312268,-0.1212158203125,0.9975128173828124,-0.06854248046875,0.2137796580791473,0.2966388463973999,-0.2690423727035522,63.40190124511719,98.52928161621094,-29.13218688964844
312269,-0.112518310546875,0.918365478515625,-0.0888519287109375,0.2729945182800293,0.3311470448970795,-0.2826324999332428,63.34783935546875,98.62359619140624,-29.06069946289062
312270,-0.1006927490234375,0.85003662109375,-0.130859375,0.3100398778915405,0.3559858202934265,-0.280710756778717,63.23907470703125,98.60841369628906,-29.02983093261719
312271,-0.1006927490234375,0.85003662109375,-0.130859375,0.3100398778915405,0.3559858202934265,-0.280710756778717,63.23907470703125,98.60841369628906,-29.02983093261719
312272,-0.064453125,0.7980499267578125,-0.2813720703125,0.3128995895385742,0.3930602073669434,-0.2854424118995667,63.07623291015625,98.66197204589844,-29.22264099121094
312273,-0.048797607421875,0.8062896728515625,-0.3738250732421875,0.2863758206367493,0.40619757771492,-0.2976503372192383,62.99171447753906,98.73130798339844,-29.22123718261719
312274,-0.0379486083984375,0.8309783935546875,-0.4425048828125,0.2337901145219803,0.4342305362224579,-0.315647691488266,62.93179321289062,98.72372436523438,-29.201904296875
312275,-0.04730224609375,0.881103515625,-0.4879913330078125,0.1947332620620728,0.4568138718605042,-0.3442229032516479,62.78216552734375,98.67050170898438,-29.32658386230469
312276,-0.088287353515625,0.94622802734375,-0.5036163330078125,0.1788589656352997,0.503373920917511,-0.3798733055591583,62.74539184570312,98.78895568847656,-29.41947937011719
312277,-0.088287353515625,0.94622802734375,-0.5036163330078125,0.1788589656352997,0.503373920917511,-0.3798733055591583,62.74539184570312,98.78895568847656,-29.41947937011719
312278,-0.2031402587890625,1.098770141601562,-0.5086822509765625,0.1334597915410995,0.5763258934020996,-0.4222953319549561,62.40501403808594,98.88922119140624,-29.48155212402344
312279,-0.2031402587890625,1.098770141601562,-0.5086822509765625,0.1334597915410995,0.5763258934020996,-0.4222953319549561,62.40501403808594,98.88922119140624,-29.48155212402344
312280,-0.3180999755859375,1.177215576171875,-0.4806671142578125,0.0931078419089317,0.6397168636322021,-0.3614117205142975,62.15434265136719,98.9381103515625,-29.38777160644531
312281,-0.340789794921875,1.154510498046875,-0.433074951171875,0.0931078419089317,0.6397168636322021,-0.3614117205142975,62.13825988769531,98.99545288085938,-29.53651428222656
312282,-0.3337249755859375,1.1065673828125,-0.3865966796875,0.0735953897237777,0.625908613204956,-0.2899705767631531,62.0216064453125,98.93121337890624,-29.46382141113281
312283,-0.3020477294921875,1.034011840820312,-0.3287506103515625,0.0486066825687885,0.5932135581970215,-0.2034844160079956,61.91661071777344,99.02407836914062,-29.42488098144531
312284,-0.2584381103515625,0.9636993408203124,-0.2541351318359375,-0.0733559727668762,0.5732949376106262,-0.0088653964921832,61.84788513183594,99.12652587890624,-29.36845397949219
312285,-0.2584381103515625,0.9636993408203124,-0.2541351318359375,-0.0733559727668762,0.5732949376106262,-0.0088653964921832,61.84788513183594,99.12652587890624,-29.36845397949219
312286,-0.1684722900390625,0.860565185546875,-0.134979248046875,-0.1693131327629089,0.5652506351470947,0.068884789943695,61.86549377441406,99.1513671875,-29.4459228515625
312287,-0.1362762451171875,0.8278961181640625,-0.0937347412109375,-0.2656180858612061,0.5351957678794861,0.1376175135374069,61.93855285644531,99.27334594726562,-29.38937377929688
312288,-0.11260986328125,0.82586669921875,-0.042510986328125,-0.365179032087326,0.5173331499099731,0.1803402155637741,62.0550537109375,99.3214111328125,-29.24517822265625
312289,-0.096343994140625,0.856414794921875,-0.0025482177734375,-0.4372212588787079,0.5030562281608582,0.2094826549291611,62.15806579589844,99.39468383789062,-29.10322570800781
312290,-0.08270263671875,0.894500732421875,0.0242767333984375,-0.4767058193683624,0.5122140049934387,0.2155924737453461,62.34066772460938,99.38877868652344,-28.89840698242188
312291,-0.0804901123046875,0.9288482666015624,0.0234527587890625,-0.4831866323947906,0.5087292790412903,0.197816401720047,62.34355163574219,99.40582275390624,-28.69891357421875
312292,-0.0839080810546875,0.9624176025390624,0.023529052734375,-0.4601002335548401,0.4970079064369202,0.1921406835317612,62.64727783203125,99.4752197265625,-28.54933166503906
312293,-0.0839080810546875,0.9624176025390624,0.023529052734375,-0.4601002335548401,0.4970079064369202,0.1921406835317612,62.64727783203125,99.4752197265625,-28.54933166503906
312294,-0.0497894287109375,0.94879150390625,-0.0163116455078125,-0.2781471908092499,0.4921359121799469,0.1915265619754791,62.81169128417969,99.4323272705078,-27.93569946289062
312295,-0.01788330078125,0.924713134765625,-0.0613250732421875,-0.1569861471652985,0.468025803565979,0.2036327570676804,62.97958374023438,99.38233947753906,-27.76982116699219
312296,0.0211029052734375,0.9214324951171876,-0.1002197265625,-0.0701399371027946,0.4339876770973206,0.2118813544511795,63.16975402832031,99.3957977294922,-27.5244140625
312297,0.0211029052734375,0.9214324951171876,-0.1002197265625,-0.0701399371027946,0.4339876770973206,0.2118813544511795,63.16975402832031,99.3957977294922,-27.5244140625
312298,0.0307769775390625,0.98822021484375,-0.11883544921875,-0.0039017973467707,0.4097377061843872,0.2102469801902771,63.63650512695312,99.3195343017578,-26.97193908691406
312299,-0.0036163330078125,1.046844482421875,-0.1077728271484375,0.0267378706485033,0.4030009806156158,0.1813823133707047,63.72225952148438,99.23709106445312,-26.92288208007812
312300,-0.0474853515625,1.10467529296875,-0.0824127197265625,0.0469848178327083,0.3598332703113556,0.1321295350790024,63.83061218261719,99.22665405273438,-26.91615295410156
312301,-0.0474853515625,1.10467529296875,-0.0824127197265625,0.0469848178327083,0.3598332703113556,0.1321295350790024,63.83061218261719,99.22665405273438,-26.91615295410156
312302,-0.1543121337890625,1.153305053710938,-0.0123291015625,0.0405551493167877,0.2366335839033127,-0.0020943097770214,64.01004028320312,99.22541809082033,-26.84671020507812
312303,-0.208831787109375,1.119598388671875,-9.1552734375e-05,0.0271826181560754,0.1690998077392578,-0.0698022469878196,64.01762390136719,99.27037048339844,-26.78355407714844
312304,-0.2538909912109375,1.048858642578125,0.00201416015625,0.0232579186558723,0.1080724075436592,-0.1216494664549828,64.06526184082031,99.4091339111328,-26.88017272949219
312305,-0.2881622314453125,0.9656829833984376,0.0126953125,0.0293855853378772,0.0710368901491165,-0.1600623726844788,63.99658203125,99.42636108398438,-26.87202453613281
312306,-0.3128204345703125,0.890899658203125,0.023284912109375,0.0298186149448156,0.0726808607578277,-0.1919140517711639,63.97343444824219,99.32818603515624,-26.89540100097656
312307,-0.332977294921875,0.8259735107421875,0.0206298828125,0.0206773150712251,0.1026747152209282,-0.2345118373632431,63.88088989257812,99.35954284667967,-26.8060302734375
312308,-0.3509979248046875,0.774627685546875,0.010040283203125,-0.0016178702935576,0.1247091740369797,-0.2711723744869232,63.79058837890625,99.40089416503906,-26.78337097167969
312309,-0.37335205078125,0.7525787353515625,-0.0134124755859375,-0.0326245203614234,0.1552303284406662,-0.2962612211704254,63.68803405761719,99.4456024169922,-26.76719665527344
312310,-0.3798370361328125,0.76495361328125,-0.039703369140625,-0.0766319260001182,0.1641732305288315,-0.2999425232410431,63.66336059570312,99.572998046875,-26.73226928710938
312311,-0.3739776611328125,0.811737060546875,-0.0505523681640625,-0.1264753788709641,0.1833469271659851,-0.2939237654209137,63.58421325683594,99.60435485839844,-26.65997314453125
312312,-0.3565521240234375,0.8529815673828125,-0.05316162109375,-0.1612956821918488,0.2023312598466873,-0.2742211818695068,63.43099975585938,99.80509948730467,-26.70135498046875
312313,-0.33953857421875,0.8780517578125,-0.0463409423828125,-0.1925161778926849,0.2132499665021896,-0.2448909729719162,63.33670043945312,99.9359893798828,-26.55429077148438
312314,-0.3222503662109375,0.90228271484375,-0.0426483154296875,-0.2379933893680573,0.216605007648468,-0.2006561309099197,63.14894104003906,99.92977905273438,-26.44584655761719
312315,-0.3222503662109375,0.90228271484375,-0.0426483154296875,-0.2379933893680573,0.216605007648468,-0.2006561309099197,63.14894104003906,99.92977905273438,-26.44584655761719
312316,-0.253997802734375,0.9521942138671876,-0.03912353515625,-0.3768404722213745,0.2003032714128494,-0.0886779353022575,62.94573974609375,100.0390625,-26.24888610839844
312317,-0.2187347412109375,0.9965972900390624,-0.024078369140625,-0.4382681548595428,0.2144062966108322,-0.0420923270285129,62.87335205078125,100.1719818115234,-26.06051635742188
312318,-0.195068359375,1.046340942382812,-0.0034942626953125,-0.4702095687389374,0.2438504844903946,-0.0089383674785494,62.91352844238281,100.1247100830078,-25.775634765625
312319,-0.18475341796875,1.09771728515625,0.01275634765625,-0.4850074350833893,0.2592068016529083,0.0059399143792688,62.83181762695312,100.1488037109375,-25.4864501953125
312320,-0.1696929931640625,1.185348510742188,0.04022216796875,-0.4290392398834229,0.2065936475992203,-0.0072888056747615,62.82940673828125,100.2625732421875,-25.02427673339844
312321,-0.1696929931640625,1.185348510742188,0.04022216796875,-0.4290392398834229,0.2065936475992203,-0.0072888056747615,62.82940673828125,100.2625732421875,-25.02427673339844
312322,-0.155364990234375,1.209487915039062,0.0354156494140625,-0.367424875497818,0.1726945489645004,-0.018125208094716,62.73562622070312,100.29052734375,-24.70904541015625
312323,-0.155364990234375,1.209487915039062,0.0354156494140625,-0.367424875497818,0.1726945489645004,-0.018125208094716,62.73562622070312,100.29052734375,-24.70904541015625
312324,-0.1166839599609375,1.198715209960938,-0.0042877197265625,-0.2246616035699844,0.0757317766547203,-0.0083607276901602,62.83137512207031,100.2940216064453,-24.21128845214844
312325,-0.1062469482421875,1.1651611328125,-0.0292510986328125,-0.1475966423749924,0.0392078571021556,0.0184485148638486,62.80050659179688,100.317138671875,-23.91799926757812
312326,-0.100433349609375,1.120223999023438,-0.0535125732421875,-0.0765222012996673,0.0133869117125868,0.0491209402680397,62.7359619140625,100.20654296875,-23.5894775390625
312327,-0.10174560546875,1.069244384765625,-0.0760345458984375,-0.019437612965703,-0.0078155789524316,0.0844296663999557,62.73251342773438,100.3348083496094,-23.68983459472656
312328,-0.10211181640625,1.01922607421875,-0.094451904296875,0.0247250534594059,-0.0267714262008667,0.1157953068614006,62.70069885253906,100.5039367675781,-23.88328552246094
312329,-0.10211181640625,1.01922607421875,-0.094451904296875,0.0247250534594059,-0.0267714262008667,0.1157953068614006,62.70069885253906,100.5039367675781,-23.88328552246094
312330,-0.098114013671875,0.9268646240234376,-0.124725341796875,0.0811095014214515,-0.0371180735528469,0.1410047858953476,62.83251953125,100.3421478271484,-23.88731384277344
312331,-0.098114013671875,0.9268646240234376,-0.124725341796875,0.0811095014214515,-0.0371180735528469,0.1410047858953476,62.83251953125,100.3421478271484,-23.88731384277344
312332,-0.0786285400390625,0.84869384765625,-0.1644134521484375,0.1629124879837036,-0.0549045279622077,0.1097323596477509,63.00543212890625,100.2748870849609,-23.87141418457031
312333,-0.063812255859375,0.8141326904296875,-0.1875,0.1629124879837036,-0.0549045279622077,0.1097323596477509,63.05033874511719,100.2193450927734,-23.87728881835938
312334,-0.0452117919921875,0.7861328125,-0.2154083251953125,0.2020135521888733,-0.0499063059687614,0.1029841750860214,63.09538269042969,100.1270599365234,-23.8302001953125
312335,-0.024749755859375,0.7721710205078125,-0.2567138671875,0.257697582244873,-0.0381689555943012,0.1060361564159393,63.26005554199219,99.93408203125,-23.82948303222656
312336,-0.01702880859375,0.776641845703125,-0.29730224609375,0.3153614103794098,-0.0180170834064483,0.1118040308356285,63.32432556152344,99.89015197753906,-23.988525390625
312337,-0.01702880859375,0.776641845703125,-0.29730224609375,0.3153614103794098,-0.0180170834064483,0.1118040308356285,63.32432556152344,99.89015197753906,-23.988525390625
312338,-0.002227783203125,0.8375701904296875,-0.353790283203125,0.4000928103923798,0.0334562286734581,0.1377237737178802,63.412841796875,99.81475830078124,-24.37605285644531
312339,0.006927490234375,0.887420654296875,-0.3715972900390625,0.3960637152194977,0.0596577376127243,0.1583925634622574,63.46151733398438,99.59698486328124,-24.4312744140625
312340,0.024017333984375,0.9526214599609376,-0.373626708984375,0.3527657687664032,0.1204864680767059,0.1850055456161499,63.62113952636719,99.53689575195312,-24.60113525390625
312341,0.024017333984375,0.9526214599609376,-0.373626708984375,0.3527657687664032,0.1204864680767059,0.1850055456161499,63.62113952636719,99.53689575195312,-24.60113525390625
312342,0.0482940673828125,1.074874877929688,-0.33807373046875,0.352963924407959,0.1328435391187668,0.1987027078866959,63.83370971679688,99.33897399902344,-24.83000183105469
312343,0.0621490478515625,1.11895751953125,-0.311065673828125,0.3547346591949463,0.1412758976221085,0.2089332491159439,63.95431518554688,99.2509765625,-25.06446838378906
312344,0.0659332275390625,1.139053344726562,-0.2779998779296875,0.3720132410526276,0.1867810636758804,0.2119082659482956,63.99404907226562,99.21463012695312,-25.16459655761719
312345,0.0659332275390625,1.139053344726562,-0.2779998779296875,0.3720132410526276,0.1867810636758804,0.2119082659482956,63.99404907226562,99.21463012695312,-25.16459655761719
312346,0.0611419677734375,1.10064697265625,-0.1978302001953125,0.3900614976882935,0.2174092829227448,0.2179224789142609,64.21575927734375,99.00144958496094,-25.56753540039062
312347,0.0531005859375,1.058868408203125,-0.1522979736328125,0.4099584817886353,0.2262752205133438,0.2191073149442673,64.39982604980469,98.9728546142578,-25.86953735351562
312348,0.0351409912109375,1.004547119140625,-0.1119232177734375,0.4204822480678558,0.2024053037166595,0.2106155604124069,64.56448364257812,98.97862243652344,-26.00381469726562
312349,0.0351409912109375,1.004547119140625,-0.1119232177734375,0.4204822480678558,0.2024053037166595,0.2106155604124069,64.56448364257812,98.97862243652344,-26.00381469726562
312350,-0.0120086669921875,0.9209136962890624,-0.0796966552734375,0.3817564249038696,0.1018091887235641,0.1433843225240707,64.72491455078125,98.85652160644533,-26.28810119628906
312351,-0.0368194580078125,0.8955230712890625,-0.076751708984375,0.3375090658664703,0.0364624038338661,0.0581248216331005,64.91365051269531,98.85391235351562,-26.48429870605469
312352,-0.067535400390625,0.8833160400390625,-0.081939697265625,0.2946215271949768,-0.0301949195563793,-0.0296047627925872,65.06985473632812,98.73670959472656,-26.62734985351562
312353,-0.067535400390625,0.8833160400390625,-0.081939697265625,0.2946215271949768,-0.0301949195563793,-0.0296047627925872,65.06985473632812,98.73670959472656,-26.62734985351562
312354,-0.11651611328125,0.9232330322265624,-0.114471435546875,0.2278451472520828,-0.1490874886512756,-0.2493112981319427,65.05732727050781,98.67605590820312,-26.77195739746094
312355,-0.1454315185546875,0.959442138671875,-0.1285858154296875,0.2126968204975128,-0.2054500877857208,-0.3376251757144928,64.97315979003906,98.71199035644533,-27.05514526367188
312356,-0.1654205322265625,0.99609375,-0.1414031982421875,0.2182867974042892,-0.2655903995037079,-0.3887125849723816,64.90512084960938,98.89382934570312,-27.26710510253906
312357,-0.1654205322265625,0.99609375,-0.1414031982421875,0.2182867974042892,-0.2655903995037079,-0.3887125849723816,64.90512084960938,98.89382934570312,-27.26710510253906
312358,-0.188629150390625,1.027023315429688,-0.14788818359375,0.2538847327232361,-0.3616447448730469,-0.4078457951545715,64.55101013183594,98.96185302734376,-27.4468994140625
312359,-0.2087554931640625,1.011428833007812,-0.1389923095703125,0.2771314680576324,-0.4128371179103851,-0.3676981329917908,64.37348937988281,98.857666015625,-27.47953796386719
312360,-0.2279205322265625,1.002349853515625,-0.112274169921875,0.2980194389820099,-0.4553190469741821,-0.317849338054657,64.22183227539062,98.83944702148438,-27.75975036621094
312361,-0.2279205322265625,1.002349853515625,-0.112274169921875,0.2980194389820099,-0.4553190469741821,-0.317849338054657,64.22183227539062,98.83944702148438,-27.75975036621094
312362,-0.29827880859375,0.9764862060546876,-0.06951904296875,0.3102284371852875,-0.4504366815090179,-0.2306388020515442,63.74163818359375,98.969482421875,-28.18020629882812
312363,-0.337371826171875,0.9804840087890624,-0.046539306640625,0.2647776007652283,-0.4030020534992218,-0.1828755438327789,63.64646911621094,98.97224426269533,-28.25311279296875
312364,-0.36285400390625,0.9967803955078124,-0.0043182373046875,0.1792757511138916,-0.3395748734474182,-0.1371565163135529,63.52864074707031,98.96076965332033,-28.45611572265625
312365,-0.36285400390625,0.9967803955078124,-0.0043182373046875,0.1792757511138916,-0.3395748734474182,-0.1371565163135529,63.52864074707031,98.96076965332033,-28.45611572265625
312366,-0.3763275146484375,1.030227661132812,0.092193603515625,-0.0410528928041458,-0.195331409573555,-0.0336517021059989,63.19886779785156,99.1483154296875,-28.92942810058594
312367,-0.3763275146484375,1.030227661132812,0.092193603515625,-0.0410528928041458,-0.195331409573555,-0.0336517021059989,63.19886779785156,99.1483154296875,-28.92942810058594
312368,-0.3358154296875,1.043960571289062,0.1131744384765625,-0.1422306448221207,-0.1566495299339294,0.0422739535570144,63.10115051269531,99.119384765625,-29.1170654296875
312369,-0.2472076416015625,1.042770385742188,0.128265380859375,-0.2134816497564316,-0.0969688892364502,0.1235035583376884,63.09564208984375,99.1986083984375,-29.15190124511719
312370,-0.060760498046875,1.001861572265625,0.098419189453125,-0.2370418459177017,-0.006443784572184,0.2575716078281403,63.14581298828125,99.07334899902344,-28.86564636230469
312371,0.009307861328125,0.9606781005859376,0.0768585205078125,-0.243468850851059,-0.0062914518639445,0.2907846868038177,63.26904296875,99.00094604492188,-28.64146423339844
312372,0.0676116943359375,0.90838623046875,0.0462493896484375,-0.243468850851059,-0.0062914518639445,0.2907846868038177,63.32879638671875,99.0455322265625,-28.56646728515625
312373,0.0676116943359375,0.90838623046875,0.0462493896484375,-0.243468850851059,-0.0062914518639445,0.2907846868038177,63.32879638671875,99.0455322265625,-28.56646728515625
312374,0.1248016357421875,0.7903594970703125,-0.00897216796875,-0.218250572681427,-0.0728614255785942,0.3825292587280273,63.60296630859375,98.80021667480467,-28.31388854980469
312375,0.16455078125,0.818572998046875,-0.0328521728515625,-0.2067156285047531,-0.0876132026314735,0.4186960458755493,63.77146911621094,98.8565673828125,-28.28912353515625
312376,0.2050018310546875,0.890350341796875,-0.0461578369140625,-0.2364237159490585,-0.0919999629259109,0.4343602359294891,63.91007995605469,98.8101043701172,-28.20611572265625
312377,0.2050018310546875,0.890350341796875,-0.0461578369140625,-0.2364237159490585,-0.0919999629259109,0.4343602359294891,63.91007995605469,98.8101043701172,-28.20611572265625
312378,0.2223968505859375,1.056610107421875,-0.047088623046875,-0.2868517339229584,-0.0806026980280876,0.3883568048477173,64.34661865234375,98.60044860839844,-27.95004272460938
312379,0.1826629638671875,1.121414184570312,-0.033966064453125,-0.2661169171333313,-0.0637725889682769,0.318626195192337,64.455810546875,98.51765441894533,-27.93260192871094
312380,0.1337890625,1.15240478515625,-0.026519775390625,-0.1522110998630524,0.04389688372612,0.1308980882167816,64.62220764160156,98.39006042480467,-27.71823120117188
312381,0.1337890625,1.15240478515625,-0.026519775390625,-0.1522110998630524,0.04389688372612,0.1308980882167816,64.62220764160156,98.39006042480467,-27.71823120117188
312382,0.046142578125,1.102310180664062,-0.050872802734375,-0.0787896215915679,0.0718065425753593,0.038777757436037,64.84706115722656,98.38250732421876,-27.49514770507812
312383,0.0079193115234375,1.043182373046875,-0.064361572265625,-0.0164255779236555,0.0969270765781402,-0.0294630844146013,64.88545227050781,98.45045471191406,-27.41537475585938
312384,-0.02703857421875,0.9922332763671876,-0.0849456787109375,0.0045960834249854,0.1789196878671646,-0.10604228079319,64.90458679199219,98.44651794433594,-27.29386901855469
312385,-0.065643310546875,0.9603271484375,-0.1071929931640625,0.0045960834249854,0.1789196878671646,-0.10604228079319,64.87094116210938,98.49501037597656,-27.31178283691406
312386,-0.100799560546875,0.965667724609375,-0.1180419921875,-0.0325864404439926,0.2425079792737961,-0.1070465594530106,64.88613891601562,98.55270385742188,-27.42803955078125
312387,-0.1271209716796875,0.9917449951171876,-0.110382080078125,-0.0825289636850357,0.3266955614089966,-0.1012688279151917,64.80064392089844,98.5390167236328,-27.30673217773438
312388,-0.1466522216796875,1.031463623046875,-0.1145477294921875,-0.1254394203424454,0.3705703318119049,-0.1097877472639084,64.7274169921875,98.51657104492188,-27.30067443847656
312389,-0.1466522216796875,1.031463623046875,-0.1145477294921875,-0.1254394203424454,0.3705703318119049,-0.1097877472639084,64.7274169921875,98.51657104492188,-27.30067443847656
312390,-0.183380126953125,1.12103271484375,-0.1406097412109375,-0.1460216492414474,0.3929621875286102,-0.1275132149457932,64.73074340820312,98.54501342773438,-27.044677734375
312391,-0.1908416748046875,1.15966796875,-0.13653564453125,-0.1124993786215782,0.4382505714893341,-0.1359293460845947,64.78245544433594,98.61830139160156,-26.95452880859375
312392,-0.191741943359375,1.177581787109375,-0.1246795654296875,-0.0677066072821617,0.4766022264957428,-0.1506827175617218,64.67362976074219,98.66175842285156,-26.81278991699219
312393,-0.191741943359375,1.177581787109375,-0.1246795654296875,-0.0677066072821617,0.4766022264957428,-0.1506827175617218,64.67362976074219,98.66175842285156,-26.81278991699219
312394,-0.16961669921875,1.129776000976562,-0.11700439453125,0.0561865717172622,0.5123879313468933,-0.1516585052013397,64.65255737304688,98.8392333984375,-26.50886535644531
312395,-0.1454620361328125,1.06365966796875,-0.1266937255859375,0.1359511762857437,0.5021358132362366,-0.1400260776281357,64.64451599121094,98.82121276855467,-26.34422302246094
312396,-0.1251678466796875,0.9969482421875,-0.137420654296875,0.1876495182514191,0.4954110682010651,-0.123155489563942,64.63563537597656,98.78028869628906,-26.23970031738281
312397,-0.1251678466796875,0.9969482421875,-0.137420654296875,0.1876495182514191,0.4954110682010651,-0.123155489563942,64.63563537597656,98.78028869628906,-26.23970031738281
312398,-0.109771728515625,0.911773681640625,-0.1963653564453125,0.1987501084804535,0.4754498898983002,-0.092014342546463,64.63836669921875,98.90975952148438,-26.23109436035156
312399,-0.1129608154296875,0.90380859375,-0.2235260009765625,0.1773095428943634,0.472736120223999,-0.0831319019198417,64.52183532714844,98.84768676757812,-26.27926635742188
312400,-0.119232177734375,0.916015625,-0.23321533203125,0.1151604130864143,0.517863929271698,-0.074377030134201,64.54515075683594,98.7785186767578,-26.35560607910156
312401,-0.119232177734375,0.916015625,-0.23321533203125,0.1151604130864143,0.517863929271698,-0.074377030134201,64.54515075683594,98.7785186767578,-26.35560607910156
312402,-0.1435546875,0.9837493896484376,-0.2505645751953125,0.095377117395401,0.5545657277107239,-0.0764585584402084,64.56227111816406,98.73600769042967,-26.33517456054688
312403,-0.1435546875,0.9837493896484376,-0.2505645751953125,0.095377117395401,0.5545657277107239,-0.0764585584402084,64.56227111816406,98.73600769042967,-26.33517456054688
312404,-0.192291259765625,1.0654296875,-0.267608642578125,0.1256143897771835,0.7314227819442749,-0.1028214544057846,64.63710021972656,98.77197265625,-26.36528015136719
312405,-0.2167510986328125,1.092544555664062,-0.280670166015625,0.1478240787982941,0.7837709784507751,-0.1126112341880798,64.64974975585938,98.87237548828124,-26.34315490722656
312406,-0.234619140625,1.10272216796875,-0.2745513916015625,0.1478240787982941,0.7837709784507751,-0.1126112341880798,64.65219116210938,98.86721801757812,-26.1431884765625
312407,-0.234619140625,1.10272216796875,-0.2745513916015625,0.1478240787982941,0.7837709784507751,-0.1126112341880798,64.65219116210938,98.86721801757812,-26.1431884765625
312408,-0.240875244140625,1.099029541015625,-0.2534637451171875,0.1765356212854385,0.8295959830284119,-0.1171050518751144,64.76988220214844,98.833984375,-26.17588806152344
312409,-0.19818115234375,1.026397705078125,-0.205657958984375,0.1796105057001114,0.8210411071777344,-0.1035237312316895,64.77188110351562,98.88967895507812,-26.00953674316406
312410,-0.163543701171875,0.96929931640625,-0.197052001953125,0.1723696440458298,0.7912283539772034,-0.0831215158104896,64.83277893066406,98.9103546142578,-25.82771301269531
312411,-0.13507080078125,0.9106597900390624,-0.182342529296875,0.1313034296035767,0.7007043361663818,-0.0353689081966877,64.8377685546875,98.92120361328124,-25.83390808105469
312412,-0.12103271484375,0.86798095703125,-0.155914306640625,0.1313034296035767,0.7007043361663818,-0.0353689081966877,64.83207702636719,98.91766357421876,-25.86344909667969
312413,-0.118621826171875,0.8370208740234375,-0.1402130126953125,0.0891525149345397,0.6891704201698303,-0.0072866748087108,64.90016174316406,98.92684936523438,-25.85997009277344
312414,-0.123260498046875,0.8267059326171875,-0.139617919921875,0.0483677983283996,0.6884018182754517,0.0170476920902729,65.0286865234375,98.82044982910156,-25.77447509765625
312415,-0.1256256103515625,0.83392333984375,-0.143157958984375,0.0133376428857445,0.6792405843734741,0.0476082637906074,65.04331970214844,98.87882995605467,-25.87420654296875
312416,-0.121368408203125,0.84857177734375,-0.14154052734375,-0.0191428009420633,0.674034059047699,0.073686733841896,65.22445678710938,98.77716064453124,-25.85255432128906
312417,-0.11077880859375,0.871063232421875,-0.136016845703125,-0.0438247136771678,0.6975785493850708,0.1063362956047058,65.22218322753906,98.77308654785156,-25.673828125
312418,-0.093505859375,0.8942718505859375,-0.13995361328125,-0.0498764812946319,0.7182856798171997,0.1373770385980606,65.350830078125,98.73405456542967,-25.58763122558594
312419,-0.0703125,0.915069580078125,-0.145263671875,-0.0407322496175766,0.7250775694847107,0.1732841730117798,65.47103881835938,98.64680480957033,-25.49569702148438
312420,-0.04364013671875,0.9298095703125,-0.152252197265625,0.0058709387667477,0.6953369975090027,0.2206098735332489,65.57933044433594,98.58697509765624,-25.38893127441406
312421,-0.010955810546875,0.928558349609375,-0.1548919677734375,0.0058709387667477,0.6953369975090027,0.2206098735332489,65.75277709960938,98.4554443359375,-25.19467163085938
312422,0.0295257568359375,0.9189300537109376,-0.160552978515625,0.0482194609940052,0.6542023420333862,0.2484785169363022,65.88764953613281,98.48089599609376,-25.1204833984375
312423,0.0728607177734375,0.9100799560546876,-0.1724853515625,0.1030036136507988,0.5774763822555542,0.2763437032699585,66.00520324707031,98.37030029296876,-24.86689758300781
312424,0.1116943359375,0.9110565185546876,-0.18212890625,0.201086238026619,0.4439843595027924,0.2746430039405823,66.13381958007812,98.38917541503906,-24.63482666015625
312425,0.1325836181640625,0.9310760498046876,-0.1924896240234375,0.201086238026619,0.4439843595027924,0.2746430039405823,66.25248718261719,98.36924743652344,-24.47833251953125
312426,0.125946044921875,0.968017578125,-0.201934814453125,0.2165876924991608,0.4038910269737244,0.2153448015451431,66.439697265625,98.19953918457033,-24.3837890625
312427,0.0895233154296875,0.999114990234375,-0.20355224609375,0.2076506614685059,0.3519487082958221,0.1210068464279175,66.63230895996094,98.2574462890625,-24.35554504394531
312428,0.01617431640625,1.013580322265625,-0.1913909912109375,0.1989964544773102,0.2493112981319427,0.049905240535736,66.66644287109375,98.14114379882812,-24.58314514160156
312429,0.01617431640625,1.013580322265625,-0.1913909912109375,0.1989964544773102,0.2493112981319427,0.049905240535736,66.66644287109375,98.14114379882812,-24.58314514160156
312430,-0.129058837890625,1.003814697265625,-0.130340576171875,0.1751044392585754,0.0380280762910842,-0.0599999539554119,66.82670593261719,98.23883056640624,-24.94924926757812
312431,-0.1964874267578125,0.9878387451171876,-0.1180572509765625,0.1590549051761627,-0.0248901695013046,-0.0897461324930191,66.93922424316406,98.10310363769533,-25.04354858398438
312432,-0.250274658203125,0.9665069580078124,-0.11358642578125,0.134082168340683,-0.0504285544157028,-0.1106604710221291,66.8892822265625,98.11965942382812,-25.08912658691406
312433,-0.2940216064453125,0.9415283203125,-0.103302001953125,0.1024582013487816,-0.0395005382597446,-0.1200646236538887,66.82769775390625,98.18133544921876,-25.28536987304688
312434,-0.329620361328125,0.9149017333984376,-0.0915069580078125,0.0726659446954727,0.0003648530691862,-0.1265701949596405,66.81901550292969,98.18229675292967,-25.28802490234375
312435,-0.3517913818359375,0.8773956298828125,-0.084564208984375,0.0521457605063915,0.032155804336071,-0.1342653930187225,66.67718505859375,98.11782836914062,-25.27972412109375
312436,-0.367919921875,0.842132568359375,-0.0808563232421875,0.0469952039420604,0.0587221682071685,-0.1427984237670898,66.67626953125,98.34396362304688,-25.30793762207031
312437,-0.368377685546875,0.8175506591796875,-0.0887298583984375,0.047600008547306,0.0688371211290359,-0.143589660525322,66.60160827636719,98.34266662597656,-25.31327819824219
312438,-0.36090087890625,0.8018646240234375,-0.0986785888671875,0.0465826801955699,0.083493560552597,-0.1423795223236084,66.59504699707031,98.37364196777344,-25.28045654296875
312439,-0.343475341796875,0.79486083984375,-0.102142333984375,0.0462724231183528,0.1225413605570793,-0.1322704255580902,66.50302124023438,98.31990051269533,-25.25753784179688
312440,-0.3232879638671875,0.8100128173828125,-0.1019439697265625,0.0333182737231254,0.2528490424156189,-0.1050398647785187,66.54194641113281,98.45851135253906,-25.323486328125
312441,-0.3232879638671875,0.8100128173828125,-0.1019439697265625,0.0333182737231254,0.2528490424156189,-0.1050398647785187,66.54194641113281,98.45851135253906,-25.323486328125
312442,-0.2931365966796875,0.829071044921875,-0.1121826171875,0.0080496706068515,0.3096172511577606,-0.0951677933335304,66.4503173828125,98.36422729492188,-25.33132934570312
312443,-0.2783660888671875,0.8476104736328125,-0.1301422119140625,-0.0422672964632511,0.3542044162750244,-0.085896797478199,66.37593078613281,98.25314331054688,-25.26237487792969
312444,-0.256927490234375,0.889862060546875,-0.148895263671875,-0.2224519848823547,0.4244687259197235,-0.0535974465310573,66.30783081054688,98.35026550292967,-25.28631591796875
312445,-0.233306884765625,0.95587158203125,-0.1826324462890625,-0.2224519848823547,0.4244687259197235,-0.0535974465310573,66.28866577148438,98.2901611328125,-25.23773193359375
312446,-0.2075653076171875,1.028701782226562,-0.2222900390625,-0.3281198143959045,0.4222995936870575,-0.0443813130259513,66.29409790039062,98.36924743652344,-25.05484008789062
312447,-0.1836700439453125,1.102157592773438,-0.2441558837890625,-0.4233571290969849,0.4015040099620819,-0.045100100338459,66.30281066894531,98.36314392089844,-24.81649780273438
312448,-0.1710662841796875,1.1688232421875,-0.2346343994140625,-0.4859757721424103,0.399926096200943,-0.0393988043069839,66.18228149414062,98.359619140625,-24.61213684082031
312449,-0.15673828125,1.211135864257812,-0.2104644775390625,-0.4964350759983063,0.4396050572395325,-0.0224704220890998,66.20475769042969,98.54891967773438,-24.44705200195312
312450,-0.1416778564453125,1.23052978515625,-0.1873931884765625,-0.4505282938480377,0.4533089101314545,0.0021752698812633,66.15359497070312,98.679443359375,-24.09297180175781
312451,-0.12890625,1.215927124023438,-0.162078857421875,-0.3732311129570007,0.4201309680938721,0.0299123581498861,66.06449890136719,98.80870056152344,-23.75790405273438
312452,-0.11212158203125,1.169296264648438,-0.127166748046875,-0.1685996651649475,0.3072201311588287,0.1226460263133049,66.01229858398438,98.82112121582033,-23.47196960449219
312453,-0.11212158203125,1.169296264648438,-0.127166748046875,-0.1685996651649475,0.3072201311588287,0.1226460263133049,66.01229858398438,98.82112121582033,-23.47196960449219
312454,-0.0638580322265625,1.022735595703125,-0.1125030517578125,-0.0691002383828163,0.240701824426651,0.1802310198545456,66.04292297363281,98.7728271484375,-23.02680969238281
312455,-0.0333709716796875,0.9522705078125,-0.113494873046875,0.0122068654745817,0.1915254890918732,0.2288574129343033,66.12654113769531,98.76144409179688,-22.96058654785156
312456,-0.0034027099609375,0.894378662109375,-0.1264495849609375,0.0618615038692951,0.1378398835659027,0.2567084729671478,66.26263427734375,98.8583526611328,-22.7647705078125
312457,0.027099609375,0.8547515869140625,-0.1479034423828125,0.085229143500328,0.0636223852634429,0.2626153826713562,66.35267639160156,98.7757568359375,-22.734375
312458,0.05340576171875,0.841033935546875,-0.1760406494140625,0.0833462923765182,-0.0389356799423694,0.257408618927002,66.44488525390625,98.74166870117188,-22.78860473632812
312459,0.071807861328125,0.855926513671875,-0.2186737060546875,0.0599325746297836,-0.1576372981071472,0.2400868982076645,66.58595275878906,98.70909118652344,-22.69039916992188
312460,0.0869598388671875,0.903167724609375,-0.2696075439453125,0.0113362781703472,-0.3876449167728424,0.2018487006425858,66.76661682128906,98.6962432861328,-22.76368713378906
312461,0.0869598388671875,0.903167724609375,-0.2696075439453125,0.0113362781703472,-0.3876449167728424,0.2018487006425858,66.76661682128906,98.6962432861328,-22.76368713378906
312462,0.0951995849609375,1.074905395507812,-0.3391876220703125,0.0171912368386983,-0.4283097982406616,0.1742306500673294,66.87513732910156,98.52243041992188,-22.77354431152344
312463,0.0951995849609375,1.074905395507812,-0.3391876220703125,0.0171912368386983,-0.4283097982406616,0.1742306500673294,66.87513732910156,98.52243041992188,-22.77354431152344
312464,0.0848541259765625,1.16278076171875,-0.346771240234375,0.0332868508994579,-0.3891333639621735,0.1543413698673248,66.92655944824219,98.36134338378906,-22.69480895996094
312465,0.05419921875,1.310745239257812,-0.317352294921875,0.0176594201475381,-0.2548663914203644,0.1471148878335953,67.04240417480469,98.1905517578125,-22.91256713867188
312466,0.0391845703125,1.3582763671875,-0.2608184814453125,0.0168357044458389,-0.2148009836673737,0.1515724807977676,67.06973266601562,98.30110168457033,-22.87754821777344
312467,0.0391845703125,1.3582763671875,-0.2608184814453125,0.0168357044458389,-0.2148009836673737,0.1515724807977676,67.06973266601562,98.30110168457033,-22.87754821777344
312468,0.02301025390625,1.2435302734375,-0.139556884765625,0.1897917687892914,-0.0604468323290348,0.205078050494194,67.39451599121094,98.25985717773438,-22.80308532714844
312469,0.0317230224609375,1.141448974609375,-0.1392059326171875,0.3383676707744598,0.0123477466404438,0.2433655112981796,67.46194458007812,98.22721862792967,-22.92362976074219
312470,0.024169921875,1.051971435546875,-0.1443328857421875,0.425218403339386,0.0291070193052291,0.2689688801765442,67.61061096191406,98.15983581542967,-23.3701171875
312471,0.024169921875,1.051971435546875,-0.1443328857421875,0.425218403339386,0.0291070193052291,0.2689688801765442,67.61061096191406,98.15983581542967,-23.3701171875
312472,-0.000885009765625,0.91741943359375,-0.1531524658203125,0.3998773694038391,-0.0843665450811386,0.2834503650665283,67.90362548828125,97.95761108398438,-23.7916259765625
312473,-0.008819580078125,0.912353515625,-0.1595001220703125,0.3470509052276611,-0.1879459321498871,0.2573330104351044,68.01547241210938,97.85267639160156,-23.98701477050781
312474,-0.0111083984375,0.9293975830078124,-0.156829833984375,0.3067458271980286,-0.274288535118103,0.2216120213270187,68.29338073730469,97.78131103515624,-24.24885559082031
312475,-0.00152587890625,0.9566650390625,-0.15704345703125,0.2995955049991608,-0.3157635629177094,0.1839956641197205,68.36149597167969,97.60647583007812,-24.41456604003906
312476,0.0116424560546875,0.9776763916015624,-0.1702117919921875,0.3157718181610107,-0.3214424848556519,0.136492058634758,68.55964660644531,97.45980834960938,-24.64389038085938
312477,0.015625,0.980987548828125,-0.187469482421875,0.33084636926651,-0.3316367864608765,0.0843724012374877,68.63861083984375,97.37838745117188,-24.88525390625
312478,0.01080322265625,0.963836669921875,-0.197479248046875,0.3329521119594574,-0.3491803705692291,0.0285573415458202,68.71333312988281,97.1619873046875,-25.08045959472656
312479,-0.0012664794921875,0.93548583984375,-0.2039947509765625,0.3152570128440857,-0.3753800094127655,-0.0270273555070161,68.79466247558594,97.09767150878906,-25.32682800292969
312480,-0.0437164306640625,0.8734283447265625,-0.2021942138671875,0.2662609815597534,-0.4170683324337006,-0.1238934472203255,68.77018737792969,97.00895690917967,-25.68312072753906
312481,-0.0437164306640625,0.8734283447265625,-0.2021942138671875,0.2662609815597534,-0.4170683324337006,-0.1238934472203255,68.77018737792969,97.00895690917967,-25.68312072753906
312482,-0.0741119384765625,0.858978271484375,-0.2007904052734375,0.2323634624481201,-0.4096903204917908,-0.1513040363788605,68.76979064941406,96.97746276855467,-25.77879333496094
312483,-0.0741119384765625,0.858978271484375,-0.2007904052734375,0.2323634624481201,-0.4096903204917908,-0.1513040363788605,68.76979064941406,96.97746276855467,-25.77879333496094
312484,-0.112396240234375,0.88812255859375,-0.1808319091796875,0.0960690081119537,-0.351277083158493,-0.1462866365909576,68.62158203125,96.966552734375,-26.17822265625
312485,-0.1286773681640625,0.9452362060546876,-0.1385040283203125,0.000381630990887,-0.3170320093631744,-0.1063397526741028,68.556884765625,96.88616943359376,-26.35159301757812
312486,-0.1481170654296875,1.001998901367188,-0.0552978515625,-0.06210757791996,-0.2635466754436493,-0.0727287977933883,68.48141479492188,96.81727600097656,-26.33833312988281
312487,-0.1619415283203125,1.020187377929688,0.013214111328125,-0.0682126060128212,-0.1747987121343613,-0.0459941215813159,68.36766052246094,96.87698364257812,-26.36991882324219
312488,-0.162200927734375,1.016006469726562,0.036468505859375,-0.0428257621824741,-0.1152387112379074,-0.0131147364154458,68.35865783691406,96.95352172851562,-26.51083374023438
312489,-0.1459503173828125,1.001693725585938,0.0469970703125,-0.028639368712902,-0.0889477133750915,0.0216110199689865,68.29719543457031,97.05899047851562,-26.45272827148438
312490,-0.11163330078125,1.000335693359375,0.0565948486328125,-0.0394161157310009,-0.0684730634093284,0.0497020408511161,68.26591491699219,97.1327667236328,-26.36723327636719
