time_idx,accelerometerAccelerationX(G),accelerometerAccelerationY(G),accelerometerAccelerationZ(G),gyroRotationX(rad/s),gyroRotationY(rad/s),gyroRotationZ(rad/s),magnetometerX(µT),magnetometerY(µT),magnetometerZ(µT)
291646,-0.2997283935546875,0.9219818115234376,0.2927093505859375,-0.5163760185241699,0.3006796836853027,-0.3271288573741913,35.11918640136719,98.1831512451172,-8.853988647460938
291647,-0.339599609375,0.88092041015625,0.2359161376953125,-0.4912229776382446,0.445167601108551,-0.3059559166431427,34.79237365722656,97.97389221191406,-8.48626708984375
291648,-0.339569091796875,0.8445281982421875,0.220703125,-0.4691272675991058,0.4083028137683868,-0.2948417663574219,34.68269348144531,97.98463439941406,-8.384033203125
291649,-0.325408935546875,0.82879638671875,0.228424072265625,-0.4897920787334442,0.3149659335613251,-0.2879484295845032,34.44061279296875,97.98469543457033,-8.432937622070312
291650,-0.3079833984375,0.84954833984375,0.231353759765625,-0.5798993110656738,0.1931127309799194,-0.2934966087341309,34.26486206054688,97.95310974121094,-8.199874877929688
291651,-0.2907867431640625,0.8884735107421875,0.231689453125,-0.7425090074539185,0.0498972535133361,-0.321881890296936,33.98487854003906,97.87742614746094,-7.888092041015625
291652,-0.2907867431640625,0.8884735107421875,0.231689453125,-0.7425090074539185,0.0498972535133361,-0.321881890296936,33.98487854003906,97.87742614746094,-7.888092041015625
291653,-0.22613525390625,1.055618286132812,0.1442108154296875,-1.108139157295227,-0.2820721566677094,-0.3813420236110687,33.47914123535156,97.88568115234376,-7.268218994140625
291654,-0.171630859375,1.142166137695312,0.033447265625,-1.173789620399475,-0.4739880859851837,-0.4005242586135864,33.19319152832031,97.85734558105467,-6.80029296875
291655,-0.0951995849609375,1.2135009765625,-0.0674896240234375,-1.069483160972595,-0.6230388283729553,-0.3757171630859375,32.96421813964844,97.74664306640624,-6.08221435546875
291656,-0.0042724609375,1.25946044921875,-0.1252899169921875,-0.7936347723007202,-0.6125065684318542,-0.3058488667011261,32.66108703613281,97.81741333007812,-5.602783203125
291657,0.0584869384765625,1.272293090820312,-0.1524810791015625,-0.4405036270618439,-0.5242919921875,-0.2149562537670135,32.32994079589844,97.70455932617188,-4.977767944335938
291658,0.0856475830078125,1.24420166015625,-0.1364593505859375,-0.1385637372732162,-0.4957346618175507,-0.1303279101848602,32.15321350097656,97.60272216796876,-4.379684448242188
291659,0.1016082763671875,1.202362060546875,-0.143951416015625,0.038564171642065,-0.4962478280067444,-0.0607440397143364,31.93254089355469,97.60345458984376,-3.997650146484375
291660,0.13330078125,1.1536865234375,-0.2472991943359375,0.1449483931064606,-0.5454124808311462,-0.0210498906672,31.84072875976562,97.62911987304688,-3.678604125976562
291661,0.1846923828125,1.10711669921875,-0.419952392578125,0.5170891880989075,-0.7152502536773682,0.1229576170444489,31.81399536132812,97.58201599121094,-3.4779052734375
291662,0.1846923828125,1.10711669921875,-0.419952392578125,0.5170891880989075,-0.7152502536773682,0.1229576170444489,31.81399536132812,97.58201599121094,-3.4779052734375
291663,0.2587432861328125,1.046981811523438,-0.65185546875,0.7410219311714172,-0.6877898573875427,0.2125045359134674,31.86885070800781,97.3994598388672,-3.411758422851562
291664,0.2729644775390625,1.036758422851562,-0.7087860107421875,0.8817007541656494,-0.6061977744102478,0.2968324720859528,31.98922729492188,97.31210327148438,-3.571701049804688
291665,0.2474365234375,1.0565185546875,-0.7299957275390625,0.903024673461914,-0.5075990557670593,0.350873589515686,32.1790771484375,97.3092041015625,-3.693817138671875
291666,0.233367919921875,1.092529296875,-0.7177276611328125,0.8139792084693909,-0.4401624798774719,0.3793558478355408,32.44578552246094,97.37132263183594,-4.072036743164062
291667,0.2548370361328125,1.139572143554688,-0.6953887939453125,0.6706942319869995,-0.3813124597072601,0.4067816138267517,32.57234191894531,97.54058837890624,-4.228515625
291668,0.295257568359375,1.216156005859375,-0.6971435546875,0.5587277412414551,-0.3713825941085815,0.4487397074699402,32.86244201660156,97.59844970703124,-4.636978149414062
291669,0.3248443603515625,1.3040771484375,-0.6586761474609375,0.5074677467346191,-0.3157374560832977,0.4843072891235352,33.09518432617188,97.73583984375,-5.027557373046875
291670,0.3373260498046875,1.378311157226562,-0.597198486328125,0.4582125842571259,-0.226689875125885,0.5073153972625732,33.42622375488281,97.78125,-5.13519287109375
291671,0.33038330078125,1.428085327148438,-0.50592041015625,0.4095970988273621,-0.1068159267306328,0.500224232673645,33.71403503417969,97.76228332519533,-5.26739501953125
291672,0.2974395751953125,1.4332275390625,-0.41009521484375,0.3610785603523254,-0.0220709480345249,0.4499613046646118,34.02491760253906,97.8474578857422,-5.423782348632812
291673,0.25665283203125,1.419342041015625,-0.31103515625,0.3135440647602081,-0.0169992242008447,0.3780245184898376,34.37832641601562,97.99766540527344,-5.735809326171875
291674,0.25665283203125,1.419342041015625,-0.31103515625,0.3135440647602081,-0.0169992242008447,0.3780245184898376,34.37832641601562,97.99766540527344,-5.735809326171875
291675,0.18511962890625,1.414749145507812,-0.113922119140625,0.2419255524873734,-0.2176369875669479,0.1393938511610031,34.94822692871094,98.02107238769533,-5.943023681640625
291676,0.153350830078125,1.398483276367188,-0.0845184326171875,0.2677174508571625,-0.3156144022941589,-0.0167187917977571,35.14741516113281,98.06869506835938,-6.120132446289062
291677,0.1061553955078125,1.346267700195312,-0.11041259765625,0.3548475801944733,-0.4676928818225861,-0.1775566786527634,35.31021118164062,98.14170837402344,-6.137847900390625
291678,0.054718017578125,1.252273559570312,-0.1085357666015625,0.4503527879714966,-0.6243879795074463,-0.3122897148132324,35.31082153320312,98.18220520019533,-6.30438232421875
291679,-0.04083251953125,1.101318359375,-0.0865478515625,0.5642138123512268,-0.7748485803604126,-0.3372323513031006,35.413818359375,98.03097534179688,-6.415451049804688
291680,-0.04083251953125,1.101318359375,-0.0865478515625,0.5642138123512268,-0.7748485803604126,-0.3372323513031006,35.413818359375,98.03097534179688,-6.415451049804688
291681,-0.1672821044921875,0.90435791015625,0.049224853515625,0.7081640958786011,-1.048312067985535,-0.0841486975550651,35.55522155761719,97.8157958984375,-6.636886596679688
291682,-0.1702423095703125,0.8564300537109375,0.1402130126953125,0.7081640958786011,-1.048312067985535,-0.0841486975550651,35.62577819824219,97.84432983398438,-6.892074584960938
291683,-0.159698486328125,0.8394012451171875,0.1783905029296875,0.6917161345481873,-1.052443981170654,0.0247599408030509,35.80767822265625,97.70133972167967,-7.037246704101562
291684,-0.159698486328125,0.8394012451171875,0.1783905029296875,0.6917161345481873,-1.052443981170654,0.0247599408030509,35.80767822265625,97.70133972167967,-7.037246704101562
291685,-0.1758270263671875,0.8935546875,0.1523895263671875,0.9177034497261048,-1.125389575958252,0.1537586748600006,36.07038879394531,97.80722045898438,-7.321914672851562
291686,-0.217376708984375,0.90191650390625,0.14300537109375,0.9177034497261048,-1.125389575958252,0.1537586748600006,36.26535034179688,97.92979431152344,-7.501968383789062
291687,-0.276123046875,0.8725433349609375,0.1582489013671875,1.00959849357605,-0.9852838516235352,0.1448309570550919,36.50224304199219,97.98670959472656,-7.6641845703125
291688,-0.3265228271484375,0.7845306396484375,0.14849853515625,1.087784886360168,-0.7289902567863464,0.117978036403656,36.63687133789062,98.10169982910156,-7.794509887695312
291689,-0.3567352294921875,0.6696319580078125,0.1004486083984375,1.036492109298706,-0.2944500148296356,0.0578268133103847,36.75601196289062,98.16635131835938,-8.106201171875
291690,-0.337127685546875,0.5511322021484375,0.0841217041015625,1.036492109298706,-0.2944500148296356,0.0578268133103847,36.91513061523438,98.28305053710938,-8.6785888671875
291691,-0.2633056640625,0.467498779296875,0.11090087890625,0.8778647184371948,-0.1229909062385559,0.072971411049366,37.02171325683594,98.30735778808594,-9.176849365234377
291692,-0.13531494140625,0.44775390625,0.1656951904296875,0.6121219992637634,-0.0218624211847782,0.1155931726098061,37.04179382324219,98.39166259765624,-9.522430419921877
291693,-0.045623779296875,0.4705352783203125,0.228668212890625,-0.1337290406227112,0.0571594275534153,0.227514922618866,37.12420654296875,98.34022521972656,-9.927047729492188
291694,0.021942138671875,0.4880218505859375,0.2746734619140625,-0.1337290406227112,0.0571594275534153,0.227514922618866,37.06552124023438,98.50830078125,-10.35932922363281
291695,0.082366943359375,0.5150909423828125,0.3189239501953125,-0.4243928194046021,0.0707090571522712,0.3037276566028595,37.0897216796875,98.63111877441406,-10.548828125
291696,0.1057586669921875,0.5684356689453125,0.367950439453125,-0.6180152893066406,0.0836317762732505,0.3414268493652344,37.14822387695312,98.71498107910156,-10.4993896484375
291697,0.0934295654296875,0.6879119873046875,0.4202728271484375,-0.8972959518432617,0.1063362956047058,0.2758337259292603,37.22576904296875,98.7114715576172,-10.35942077636719
291698,0.036651611328125,0.853546142578125,0.458404541015625,-0.8972959518432617,0.1063362956047058,0.2758337259292603,37.37255859375,98.65516662597656,-10.15969848632812
291699,-0.0284271240234375,0.9688873291015624,0.4280548095703125,-0.959821343421936,0.1431515663862228,0.2818774878978729,37.49711608886719,98.5075225830078,-9.681060791015623
291700,-0.046844482421875,1.02581787109375,0.37835693359375,-0.9826561212539672,0.1186124011874199,0.2595378160476685,37.58564758300781,98.46876525878906,-9.3480224609375
291701,-0.0386962890625,1.032485961914062,0.36822509765625,-0.9968291521072388,0.1377384215593338,0.2055488973855972,37.68618774414062,98.627685546875,-8.977752685546875
291702,-0.0305938720703125,1.034698486328125,0.360107421875,-1.02212119102478,0.1913324147462845,0.1281843334436417,37.761962890625,98.61404418945312,-8.50128173828125
291703,-0.0315399169921875,1.065185546875,0.34228515625,-1.066730260848999,0.2061520963907242,0.034061562269926,37.7904052734375,98.77769470214844,-8.1376953125
291704,-0.04412841796875,1.115646362304688,0.3328704833984375,-1.123223066329956,0.1278618276119232,-0.0858350098133087,37.82655334472656,98.58358764648438,-7.665908813476562
291705,-0.0599365234375,1.1856689453125,0.340545654296875,-1.176053047180176,0.0312655121088028,-0.2256214022636414,37.82511901855469,98.55772399902344,-7.269241333007812
291706,-0.069122314453125,1.212432861328125,0.321258544921875,-1.23304808139801,-0.0919632092118263,-0.3431179523468018,37.70783996582031,98.44303894042967,-6.909423828125
291707,-0.0680084228515625,1.226226806640625,0.2867431640625,-1.233716607093811,-0.1841525286436081,-0.4196454882621765,37.53022766113281,98.26199340820312,-6.324874877929688
291708,-0.0538787841796875,1.221649169921875,0.2211456298828125,-1.129680752754211,-0.1779955625534058,-0.4545328915119171,37.37458801269531,98.1164093017578,-5.611343383789062
291709,-0.0451202392578125,1.207122802734375,0.1460723876953125,-0.937341332435608,-0.1024054661393166,-0.4422695636749268,37.21328735351562,97.9701690673828,-5.107147216796875
291710,-0.0377197265625,1.190109252929688,0.064453125,-0.7214316725730896,0.0309049189090728,-0.420916348695755,37.00396728515625,97.93226623535156,-4.539886474609375
291711,-0.024749755859375,1.157272338867188,-0.02020263671875,-0.4935532510280609,0.2015640139579773,-0.3806602656841278,36.68618774414062,97.78312683105467,-4.002151489257812
291712,-0.0233612060546875,1.119140625,-0.0806732177734375,-0.3418172597885132,0.3612546026706696,-0.3390361070632935,36.40350341796875,97.67840576171876,-3.625411987304688
291713,-0.038330078125,1.091766357421875,-0.159942626953125,-0.284414678812027,0.4425385296344757,-0.2849579751491547,36.21987915039062,97.66294860839844,-3.401580810546875
291714,-0.0667572021484375,1.0633544921875,-0.246490478515625,-0.2939176261425018,0.3696853816509247,-0.2530133426189423,36.00469970703125,97.58177185058594,-3.228408813476562
291715,-0.1002044677734375,1.043853759765625,-0.32025146484375,-0.3214432895183563,0.2404032796621323,-0.2429567277431488,35.68003845214844,97.55140686035156,-3.00909423828125
291716,-0.1022186279296875,1.0123291015625,-0.4073028564453125,-0.3085157573223114,0.1041663512587547,-0.2325429618358612,35.40577697753906,97.5956573486328,-2.907363891601562
291717,-0.0603179931640625,0.990692138671875,-0.5075225830078125,-0.0412528961896896,-0.0535082332789897,-0.0984464138746261,35.20489501953125,97.63209533691406,-2.846359252929688
291718,0.0226287841796875,1.011093139648438,-0.6014556884765625,-0.0412528961896896,-0.0535082332789897,-0.0984464138746261,35.13325500488281,97.47177124023438,-2.722488403320312
291719,0.1273956298828125,1.072616577148438,-0.689117431640625,0.1837360113859177,-0.0151874748989939,0.0144630949944257,35.00041198730469,97.39974975585938,-2.688552856445312
291720,0.2312774658203125,1.147430419921875,-0.75225830078125,0.5129644870758057,0.1179585978388786,0.223045602440834,34.87507629394531,97.37380981445312,-2.450332641601562
291721,0.2312774658203125,1.147430419921875,-0.75225830078125,0.5129644870758057,0.1179585978388786,0.223045602440834,34.87507629394531,97.37380981445312,-2.450332641601562
291722,0.386962890625,1.2530517578125,-0.763580322265625,0.5801233053207397,0.1437878012657166,0.2632537484169006,34.81013488769531,97.35319519042967,-2.720260620117188
291723,0.4009246826171875,1.265518188476562,-0.71630859375,0.612091600894928,0.1303745210170746,0.2627663910388947,34.87039184570312,97.33909606933594,-2.772201538085938
291724,0.3575897216796875,1.261627197265625,-0.6688232421875,0.6522611379623413,0.1042307987809181,0.236965149641037,35.04351806640625,97.42349243164062,-2.913818359375
291725,0.246551513671875,1.258865356445312,-0.63702392578125,0.7183253765106201,0.2169541567564011,0.2152436077594757,35.17111206054688,97.5254364013672,-3.06671142578125
291726,0.1204376220703125,1.247650146484375,-0.598602294921875,0.7183253765106201,0.2169541567564011,0.2152436077594757,35.25965881347656,97.7545928955078,-3.43145751953125
291727,0.040191650390625,1.22442626953125,-0.55181884765625,0.6696560978889465,0.2652106285095215,0.186717689037323,35.29766845703125,97.9116668701172,-3.798065185546875
291728,-0.025115966796875,1.189224243164062,-0.4721832275390625,0.5680120587348938,0.2063017785549164,0.1276429146528244,35.48699951171875,98.0846710205078,-4.31732177734375
291729,-0.0720367431640625,1.153533935546875,-0.343505859375,0.4246911108493805,0.1095275580883026,0.070081353187561,35.603759765625,98.2297821044922,-4.608734130859375
291730,-0.09039306640625,1.107330322265625,-0.2034454345703125,0.2499642968177795,0.0334935113787651,-0.0037982002831995,35.68020629882812,98.22755432128906,-5.016067504882812
291731,-0.0900726318359375,1.040756225585938,-0.0811767578125,0.0895157679915428,-0.0103064337745308,-0.0662293508648872,35.811279296875,98.29205322265624,-5.15277099609375
291732,-0.1016693115234375,0.981109619140625,0.03472900390625,-0.0303475186228752,0.0074933362193405,-0.0638127997517585,35.8555908203125,98.45872497558594,-5.357498168945312
291733,-0.1016693115234375,0.981109619140625,0.03472900390625,-0.0303475186228752,0.0074933362193405,-0.0638127997517585,35.8555908203125,98.45872497558594,-5.357498168945312
291734,-0.106048583984375,0.95159912109375,0.2098541259765625,-0.0684925094246864,0.3317377269268036,0.263271301984787,35.83258056640625,98.33840942382812,-5.528656005859375
291735,-0.0869903564453125,0.9614410400390624,0.2767333984375,-0.0528584197163581,0.5275397300720215,0.3566201627254486,36.02883911132812,98.17526245117188,-5.426223754882812
291736,-0.0772552490234375,0.996429443359375,0.3093719482421875,-0.0666051283478736,0.6682976484298706,0.3942620754241943,36.18284606933594,98.22297668457033,-5.4610595703125
291737,-0.0601348876953125,0.994354248046875,0.2904052734375,-0.0666051283478736,0.6682976484298706,0.3942620754241943,36.23417663574219,98.32171630859376,-5.377517700195312
291738,-0.0434722900390625,0.9607391357421876,0.2540435791015625,-0.0936159715056419,0.6913515329360962,0.3708544969558716,36.37364196777344,98.25628662109376,-5.334014892578125
291739,-0.0278167724609375,0.894927978515625,0.2288055419921875,-0.1055924743413925,0.6198738813400269,0.3567434847354889,36.52018737792969,98.11506652832033,-5.253463745117188
291740,-0.0113525390625,0.8492584228515625,0.2106170654296875,-0.0476375594735145,0.5141738653182983,0.3467102944850922,36.65675354003906,98.12458801269533,-5.553604125976562
291741,0.027984619140625,0.8048553466796875,0.1746673583984375,0.1869416534900665,0.2493112981319427,0.3682997226715088,36.79608154296875,98.05950927734376,-5.749969482421875
291742,0.068084716796875,0.7793426513671875,0.136138916015625,0.1869416534900665,0.2493112981319427,0.3682997226715088,36.97195434570312,98.14315795898438,-5.84259033203125
291743,0.10516357421875,0.7503662109375,0.1035614013671875,0.265390932559967,0.1145052760839462,0.3790248036384583,37.06321716308594,98.01512145996094,-5.777542114257812
291744,0.1419677734375,0.72772216796875,0.0757598876953125,0.3080388009548187,-0.0078901471570134,0.3914452493190765,37.27766418457031,98.09300231933594,-5.986328125
291745,0.1673736572265625,0.72369384765625,0.0583648681640625,0.3122553825378418,-0.1088623031973839,0.3721261620521545,37.37214660644531,98.13320922851562,-6.081649780273438
291746,0.1860809326171875,0.735382080078125,0.0465087890625,0.2745844125747681,-0.1865051686763763,0.3075913786888123,37.45698547363281,98.1845245361328,-6.28961181640625
291747,0.1850433349609375,0.7830352783203125,0.0483551025390625,0.2060370594263077,-0.2139841914176941,0.1639125049114227,37.76077270507812,98.29576110839844,-6.396347045898438
291748,0.1280670166015625,0.8690338134765625,0.0623626708984375,0.1077411100268364,-0.13538658618927,-0.0498256124556064,37.83030700683594,98.40447998046876,-6.4405517578125
291749,-0.00323486328125,0.9264984130859376,0.0731658935546875,0.0176104195415973,0.0166354347020387,-0.195072814822197,37.86944580078125,98.45271301269533,-6.486557006835938
291750,-0.120269775390625,0.979156494140625,0.10028076171875,-0.0511771664023399,0.1474288702011108,-0.314746767282486,37.83177185058594,98.57249450683594,-6.58697509765625
291751,-0.200958251953125,1.030014038085938,0.1403656005859375,-0.1053653061389923,0.2455775439739227,-0.4557882845401764,37.64350891113281,98.63714599609376,-6.648529052734375
291752,-0.260101318359375,1.043502807617188,0.1652374267578125,-0.153653472661972,0.308251827955246,-0.5828045606613159,37.49812316894531,98.58767700195312,-6.577926635742188
291753,-0.30242919921875,1.008285522460938,0.1682281494140625,-0.2070168256759644,0.3099437355995178,-0.661689817905426,37.35264587402344,98.5902862548828,-6.632492065429688
291754,-0.30242919921875,1.008285522460938,0.1682281494140625,-0.2070168256759644,0.3099437355995178,-0.661689817905426,37.35264587402344,98.5902862548828,-6.632492065429688
291755,-0.3352203369140625,0.878204345703125,0.1949462890625,-0.3210448622703552,0.1856476217508316,-0.6189359426498413,36.88725280761719,98.5325164794922,-6.536453247070312
291756,-0.33538818359375,0.8458251953125,0.22955322265625,-0.376875638961792,0.115421935915947,-0.5733218789100647,36.68478393554688,98.29751586914062,-6.384674072265625
291757,-0.343505859375,0.82745361328125,0.2573699951171875,-0.413379043340683,0.0620465911924839,-0.5583032369613647,36.45144653320312,98.29750061035156,-6.321151733398438
291758,-0.3654632568359375,0.81072998046875,0.2764892578125,-0.4360204637050629,0.0568696744740009,-0.5463562607765198,36.26313781738281,98.1737823486328,-6.218780517578125
291759,-0.3938140869140625,0.797393798828125,0.270965576171875,-0.4503000676631927,0.0742734298110008,-0.5246642827987671,36.0133056640625,98.14964294433594,-6.105545043945312
291760,-0.427215576171875,0.80072021484375,0.2253265380859375,-0.5378615856170654,0.0986554697155952,-0.4509226977825165,35.543212890625,98.0212860107422,-5.688812255859375
291761,-0.427215576171875,0.80072021484375,0.2253265380859375,-0.5378615856170654,0.0986554697155952,-0.4509226977825165,35.543212890625,98.0212860107422,-5.688812255859375
291762,-0.4219970703125,0.8339691162109375,0.193511962890625,-0.6314994096755981,0.0621528513729572,-0.4179775416851044,35.31672668457031,97.95108032226562,-5.617462158203125
291763,-0.39898681640625,0.879180908203125,0.1518402099609375,-0.7543718218803406,-0.0350402742624282,-0.4083105325698853,35.06513977050781,97.87818908691406,-5.329452514648438
291764,-0.3616485595703125,0.9266815185546876,0.1054840087890625,-0.8636785745620728,-0.1948182284832001,-0.4010336995124817,34.80093383789062,97.85057067871094,-5.221267700195312
291765,-0.30108642578125,0.986358642578125,0.0628509521484375,-0.9353570342063904,-0.377618670463562,-0.395511656999588,34.59877014160156,97.6851043701172,-4.943862915039062
291766,-0.30108642578125,0.986358642578125,0.0628509521484375,-0.9353570342063904,-0.377618670463562,-0.395511656999588,34.59877014160156,97.6851043701172,-4.943862915039062
291767,-0.123565673828125,1.124908447265625,-0.012847900390625,-0.8497704863548279,-0.5059880614280701,-0.3002303838729858,34.15663146972656,97.48944091796876,-3.946640014648438
291768,-0.0776824951171875,1.195892333984375,-0.0605316162109375,-0.6749659180641174,-0.3490301668643951,-0.2670458257198334,33.92353820800781,97.460205078125,-3.311859130859375
291769,-0.03057861328125,1.21392822265625,-0.1033935546875,-0.5300225615501404,-0.1620443016290665,-0.2762675285339355,33.71208190917969,97.412353515625,-2.720901489257812
291770,-0.03057861328125,1.21392822265625,-0.1033935546875,-0.5300225615501404,-0.1620443016290665,-0.2762675285339355,33.71208190917969,97.412353515625,-2.720901489257812
291771,0.0829315185546875,1.224700927734375,-0.14788818359375,-0.4718647301197052,-0.241058424115181,-0.2694256007671356,33.17584228515625,97.24006652832033,-2.036972045898438
291772,0.121429443359375,1.241134643554688,-0.180999755859375,-0.4718647301197052,-0.241058424115181,-0.2694256007671356,32.84002685546875,97.19792175292967,-1.750381469726562
291773,0.1393280029296875,1.224151611328125,-0.2333221435546875,-0.2156185805797577,-0.5572728514671326,-0.231284886598587,32.64762878417969,97.22760009765624,-1.354827880859375
291774,0.1393280029296875,1.224151611328125,-0.2333221435546875,-0.2156185805797577,-0.5572728514671326,-0.231284886598587,32.64762878417969,97.22760009765624,-1.354827880859375
291775,0.1552276611328125,1.128250122070312,-0.3564910888671875,0.011528025381267,-0.6354517936706543,-0.1608352214097977,32.38023376464844,97.00054931640624,-0.7383270263671875
291776,0.1552276611328125,1.128250122070312,-0.3564910888671875,0.011528025381267,-0.6354517936706543,-0.1608352214097977,32.38023376464844,97.00054931640624,-0.7383270263671875
291777,0.157440185546875,1.02484130859375,-0.5546417236328125,0.8815467953681946,-0.4362106025218964,0.1231528222560883,32.30305480957031,96.66023254394533,-0.0658721923828125
291778,0.155120849609375,0.9799957275390624,-0.628875732421875,0.8815467953681946,-0.4362106025218964,0.1231528222560883,32.30032348632812,96.68161010742188,-0.0679168701171875
291779,0.1606597900390625,0.9515380859375,-0.6726226806640625,1.033540010452271,-0.3343809247016907,0.2205715179443359,32.419189453125,96.64389038085938,-0.09979248046875
291780,0.163909912109375,0.9525909423828124,-0.67852783203125,1.007434725761414,-0.3069050908088684,0.2350175678730011,32.54632568359375,96.81114196777344,-0.2931060791015625
291781,0.18792724609375,0.9935455322265624,-0.6429595947265625,0.6201311945915222,-0.3961473405361176,0.1507282555103302,32.68946838378906,96.93431091308594,-0.74127197265625
291782,0.1855621337890625,1.071517944335938,-0.573638916015625,0.6201311945915222,-0.3961473405361176,0.1507282555103302,32.95101928710938,97.26913452148438,-1.158157348632812
291783,0.157806396484375,1.14654541015625,-0.4805755615234375,0.5318068861961365,-0.3371047973632812,0.1200065687298775,33.09526062011719,97.29725646972656,-1.412017822265625
291784,0.1446380615234375,1.221710205078125,-0.39990234375,0.542976975440979,-0.2016279250383377,0.1233136802911758,33.29533386230469,97.41900634765624,-1.78704833984375
291785,0.13653564453125,1.310195922851562,-0.3285675048828125,0.5712387561798096,-0.0665262937545776,0.1236545667052269,33.51304626464844,97.47425842285156,-1.95074462890625
291786,0.10418701171875,1.3936767578125,-0.2504425048828125,0.5728453993797302,0.0742987319827079,0.1128996536135674,33.69093322753906,97.43479919433594,-2.140884399414062
291787,0.05596923828125,1.462005615234375,-0.178802490234375,0.5427884459495544,0.1723022609949112,0.0894960612058639,33.87777709960938,97.6063232421875,-2.469161987304688
291788,0.0042266845703125,1.516372680664062,-0.1030731201171875,0.4814355969429016,0.1836846172809601,0.0328199975192546,34.14506530761719,97.668212890625,-2.867050170898438
291789,-0.0605926513671875,1.53057861328125,-0.02301025390625,0.4161807000637054,0.0909445509314537,-0.0654687583446502,34.26518249511719,97.71859741210938,-3.265350341796875
291790,-0.1211090087890625,1.492691040039062,0.088470458984375,0.3828611075878143,-0.0004141215467825,-0.181826263666153,34.28271484375,97.7275848388672,-3.464706420898438
291791,-0.171478271484375,1.406600952148438,0.1875152587890625,0.3993340730667114,0.0304593723267316,-0.2746036052703857,34.30014038085938,97.82444763183594,-3.758316040039062
291792,-0.171478271484375,1.406600952148438,0.1875152587890625,0.3993340730667114,0.0304593723267316,-0.2746036052703857,34.30014038085938,97.82444763183594,-3.758316040039062
291793,-0.2509918212890625,1.161376953125,0.145660400390625,0.6227480173110962,0.071021445095539,-0.252091109752655,34.26496887207031,97.80023193359376,-4.201446533203125
291794,-0.2505645751953125,1.06842041015625,0.1036224365234375,0.7000688910484314,-0.1007143631577492,-0.1929470896720886,34.21072387695312,97.8238525390625,-4.55255126953125
291795,-0.2362213134765625,0.98358154296875,0.1030120849609375,0.688154399394989,-0.2674812376499176,-0.119736522436142,34.17617797851562,97.80778503417967,-4.797393798828125
291796,-0.2299346923828125,0.9287567138671876,0.0892333984375,0.5910869836807251,-0.4131002128124237,-0.0479781776666641,34.13233947753906,97.8166961669922,-5.2880859375
291797,-0.2310333251953125,0.901214599609375,0.077545166015625,0.4677038192749023,-0.5734866857528687,-0.0411538295447826,34.27345275878906,97.7431182861328,-5.572479248046875
291798,-0.2496490478515625,0.86541748046875,0.08184814453125,0.3983300626277924,-0.7046923637390137,-0.0397716462612152,34.39300537109375,97.73933410644533,-5.594100952148438
291799,-0.260528564453125,0.849090576171875,0.0805511474609375,0.435080885887146,-0.7763963937759399,-0.0332761965692043,34.4581298828125,97.76840209960938,-5.664779663085938
291800,-0.260528564453125,0.849090576171875,0.0805511474609375,0.435080885887146,-0.7763963937759399,-0.0332761965692043,34.4581298828125,97.76840209960938,-5.664779663085938
291801,-0.2546234130859375,0.8305511474609375,0.0777587890625,0.5699665546417236,-0.7908264994621277,-0.0383838750422,34.64178466796875,97.79159545898438,-5.803558349609375
291802,-0.25982666015625,0.751068115234375,0.1014404296875,0.8727250695228577,-0.4577510356903076,-0.0479635298252105,34.91783142089844,97.47746276855467,-5.953155517578125
291803,-0.257568359375,0.704742431640625,0.1110382080078125,0.9007159471511841,-0.158646896481514,-0.0362386964261531,35.05198669433594,97.54849243164062,-6.315994262695312
291804,-0.2282867431640625,0.6606292724609375,0.118377685546875,0.8309078812599182,0.0930058434605598,0.0055215316824615,34.96241760253906,97.71124267578124,-6.6849365234375
291805,-0.172454833984375,0.6370391845703125,0.1477813720703125,0.6622759699821472,0.2247098088264465,0.0808122903108596,34.97174072265625,97.76383972167967,-7.073837280273438
291806,-0.142059326171875,0.62750244140625,0.212860107421875,0.4022337198257446,0.3254633247852325,0.128402978181839,34.91883850097656,97.89430236816406,-7.2999267578125
291807,-0.11895751953125,0.597900390625,0.2554931640625,0.1051317453384399,0.410869836807251,0.1703192740678787,34.94493103027344,97.94534301757812,-7.670257568359375
291808,-0.0936431884765625,0.592193603515625,0.276336669921875,-0.173828512430191,0.4564282596111298,0.2204823046922684,34.98783874511719,98.04156494140624,-7.971435546875
291809,-0.0751495361328125,0.6287078857421875,0.302703857421875,-0.3978584110736847,0.4725062847137451,0.2647650837898254,35.04039001464844,98.13096618652344,-8.04852294921875
291810,-0.07135009765625,0.702239990234375,0.3336944580078125,-0.5475893020629883,0.4856785535812378,0.2881987690925598,35.06983947753906,98.1370086669922,-8.057785034179688
291811,-0.07861328125,0.8224639892578125,0.3426055908203125,-0.6091621518135071,0.4940533936023712,0.2937567830085754,35.10441589355469,97.97526550292967,-7.78692626953125
291812,-0.07861328125,0.8224639892578125,0.3426055908203125,-0.6091621518135071,0.4940533936023712,0.2937567830085754,35.10441589355469,97.97526550292967,-7.78692626953125
291813,-0.054962158203125,0.947540283203125,0.2812652587890625,-0.537512481212616,0.3238033652305603,0.2684373259544373,35.24006652832031,98.00816345214844,-7.485183715820312
291814,-0.017608642578125,0.9577789306640624,0.26007080078125,-0.493280291557312,0.2368980348110199,0.2352133095264435,35.39251708984375,97.92132568359376,-7.242767333984375
291815,0.0037078857421875,0.963714599609375,0.2535552978515625,-0.4993831813335419,0.221482589840889,0.1962746977806091,35.43080139160156,98.01974487304688,-7.106307983398438
291816,0.0037078857421875,0.963714599609375,0.2535552978515625,-0.4993831813335419,0.221482589840889,0.1962746977806091,35.43080139160156,98.01974487304688,-7.106307983398438
291817,0.019195556640625,0.9733428955078124,0.23602294921875,-0.6544963121414185,0.179692804813385,0.0785645842552185,35.51789855957031,98.15168762207033,-6.883590698242188
291818,0.007354736328125,0.977691650390625,0.2347259521484375,-0.7573316097259521,0.0697202235460281,-0.012289423495531,35.5172119140625,98.15682983398438,-6.65582275390625
291819,-0.0123291015625,0.999481201171875,0.2400665283203125,-0.845354437828064,-0.0775808095932006,-0.1055972650647163,35.47621154785156,98.0809326171875,-6.358856201171875
291820,-0.0123291015625,0.999481201171875,0.2400665283203125,-0.845354437828064,-0.0775808095932006,-0.1055972650647163,35.47621154785156,98.0809326171875,-6.358856201171875
291821,-0.0729217529296875,1.0445556640625,0.195465087890625,-1.010470151901245,-0.3813830316066742,-0.3447903990745544,35.39309692382812,97.89631652832033,-5.578109741210938
291822,-0.086334228515625,1.0589599609375,0.1373291015625,-1.03521728515625,-0.5391330122947693,-0.4336827397346497,35.30055236816406,97.79623413085938,-4.919357299804688
291823,-0.0825653076171875,1.0762939453125,0.0860137939453125,-0.9871280789375304,-0.5546999573707581,-0.4701531231403351,35.18553161621094,97.70068359375,-4.362716674804688
291824,-0.0825653076171875,1.0762939453125,0.0860137939453125,-0.9871280789375304,-0.5546999573707581,-0.4701531231403351,35.18553161621094,97.70068359375,-4.362716674804688
291825,-0.1072235107421875,1.077224731445312,-0.1041412353515625,-0.6821255683898926,-0.1726660430431366,-0.3975646793842316,34.8282470703125,97.16653442382812,-3.349822998046875
291826,-0.1262054443359375,1.005813598632812,-0.12347412109375,-0.4927894473075867,0.0673803687095642,-0.3071972131729126,34.65678405761719,97.01513671875,-2.73175048828125
291827,-0.1461181640625,0.957305908203125,-0.132720947265625,-0.3709402680397034,0.238219752907753,-0.2122885584831238,34.41615295410156,96.98692321777344,-2.454238891601562
291828,-0.1461181640625,0.957305908203125,-0.132720947265625,-0.3709402680397034,0.238219752907753,-0.2122885584831238,34.41615295410156,96.98692321777344,-2.454238891601562
291829,-0.1579132080078125,0.9913330078125,-0.224639892578125,-0.315608024597168,0.1445696949958801,-0.1137478724122047,34.1156005859375,96.88414001464844,-2.264816284179688
291830,-0.1349639892578125,0.99578857421875,-0.3037109375,-0.315608024597168,0.1445696949958801,-0.1137478724122047,33.90524291992188,96.80345153808594,-2.002700805664062
291831,-0.0839691162109375,0.9707794189453124,-0.377593994140625,-0.2252222001552582,0.0512645207345485,-0.0474679172039032,33.78817749023438,96.77264404296876,-1.792434692382812
291832,-0.0839691162109375,0.9707794189453124,-0.377593994140625,-0.2252222001552582,0.0512645207345485,-0.0474679172039032,33.78817749023438,96.77264404296876,-1.792434692382812
291833,-0.006439208984375,0.965087890625,-0.436279296875,-0.0812738165259361,0.0095476983115077,0.035443477332592,33.63081359863281,96.66775512695312,-1.735702514648438
291834,0.0833282470703125,0.97723388671875,-0.4947052001953125,0.0906276404857635,0.0239399541169405,0.1394287347793579,33.562744140625,96.632080078125,-1.590423583984375
291835,0.2027130126953125,1.0594482421875,-0.5816650390625,0.3873426616191864,0.1345335692167282,0.3087525069713593,33.66192626953125,96.58384704589844,-1.310867309570312
291836,0.2027130126953125,1.0594482421875,-0.5816650390625,0.3873426616191864,0.1345335692167282,0.3087525069713593,33.66192626953125,96.58384704589844,-1.310867309570312
291837,0.2454376220703125,1.096694946289062,-0.5623016357421875,0.4532548487186432,0.2172186076641083,0.3393359780311584,33.69656372070312,96.66799926757812,-1.334197998046875
291838,0.2021026611328125,1.21490478515625,-0.5232391357421875,0.4962102770805359,0.3047268688678741,0.2410325855016708,33.99932861328125,96.89364624023438,-1.718063354492188
291839,0.146026611328125,1.25616455078125,-0.5091705322265625,0.4962102770805359,0.3047268688678741,0.2410325855016708,34.02906799316406,96.96542358398438,-1.917373657226562
291840,0.0758514404296875,1.284500122070312,-0.501800537109375,0.5264459848403931,0.3973489701747894,0.2366863042116165,34.05477905273438,97.15127563476562,-2.321121215820312
291841,0.00653076171875,1.31280517578125,-0.4888763427734375,0.5358591675758362,0.4744855463504791,0.2115223705768585,34.13517761230469,97.28848266601562,-2.786041259765625
291842,-0.062957763671875,1.319992065429688,-0.43853759765625,0.5196908712387085,0.5036069750785828,0.177863210439682,34.21792602539062,97.46189880371094,-3.13079833984375
291843,-0.11968994140625,1.297195434570312,-0.341400146484375,0.4839163422584534,0.5324034690856934,0.1504025608301163,34.23091125488281,97.57853698730467,-3.318359375
291844,-0.11968994140625,1.297195434570312,-0.341400146484375,0.4839163422584534,0.5324034690856934,0.1504025608301163,34.23091125488281,97.57853698730467,-3.318359375
291845,-0.1660308837890625,1.188858032226562,-0.13623046875,0.0426310822367668,0.3984549641609192,0.1020504683256149,34.45004272460938,97.66494750976562,-4.006805419921875
291846,-0.170166015625,1.098770141601562,-0.036468505859375,0.0426310822367668,0.3984549641609192,0.1020504683256149,34.48667907714844,97.7660675048828,-4.33270263671875
291847,-0.1586456298828125,1.0264892578125,0.0372161865234375,-0.0917136743664741,0.3550395965576172,0.1606173813343048,34.54231262207031,97.7105712890625,-4.563720703125
291848,-0.15045166015625,0.97900390625,0.089935302734375,-0.10158921033144,0.3268542885780334,0.2690815329551697,34.50956726074219,97.93789672851562,-4.811233520507812
291849,-0.1440582275390625,0.962158203125,0.1417236328125,0.0193417407572269,0.2981264889240265,0.3624418377876282,34.60137939453125,97.9628448486328,-4.8798828125
291850,-0.1440582275390625,0.962158203125,0.1417236328125,0.0193417407572269,0.2981264889240265,0.3624418377876282,34.60137939453125,97.9628448486328,-4.8798828125
291851,-0.1324310302734375,0.9448699951171876,0.1959686279296875,0.2106381952762604,0.2025845348834991,0.4310736358165741,35.01077270507812,97.916748046875,-4.997222900390625
291852,-0.1248321533203125,0.9546966552734376,0.1867523193359375,0.2070873975753784,0.1608932763338089,0.4181671440601349,35.17433166503906,98.02035522460938,-5.158920288085938
291853,-0.1165924072265625,0.9558563232421876,0.1644134521484375,0.1409595161676407,0.1239507049322128,0.3979598879814148,35.29495239257812,97.98356628417967,-5.328582763671875
291854,-0.0912017822265625,0.977691650390625,0.1650543212890625,0.0706193074584007,0.133969247341156,0.365220308303833,35.44392395019531,98.0131378173828,-5.485763549804688
291855,-0.0402069091796875,0.97576904296875,0.1668243408203125,0.0387362092733383,0.1944624185562134,0.3101639747619629,35.71412658691406,98.00799560546876,-5.512527465820312
291856,0.0137786865234375,0.9486846923828124,0.139007568359375,0.064495638012886,0.2646012902259827,0.276605486869812,35.87704467773438,97.97566223144533,-5.480316162109375
291857,0.0595703125,0.9061431884765624,0.08819580078125,0.1304277777671814,0.2958694696426392,0.2713923454284668,35.97666931152344,97.95256042480467,-5.620986938476562
291858,0.103790283203125,0.848388671875,0.036224365234375,0.2004473507404327,0.2492058277130127,0.2787192463874817,36.13020324707031,97.8477783203125,-5.660232543945312
291859,0.13671875,0.806243896484375,0.00274658203125,0.2394077926874161,0.1780150085687637,0.2758369147777557,36.12612915039062,97.76914978027344,-5.672714233398438
291860,0.149139404296875,0.773162841796875,-0.0269317626953125,0.2383228242397308,0.1248886734247208,0.2446997612714767,36.27919006347656,97.91708374023438,-5.97283935546875
291861,0.133697509765625,0.7593536376953125,-0.0367584228515625,0.2016724050045013,0.1594218760728836,0.1872913241386414,36.35577392578125,97.91943359375,-6.065841674804688
291862,0.08123779296875,0.796051025390625,-0.0264129638671875,0.1504611372947693,0.2560253739356995,0.1048995181918144,36.47776794433594,98.0858917236328,-6.242706298828125
291863,-0.032318115234375,0.860809326171875,0.00933837890625,0.0969537124037742,0.2971238195896149,-0.0084688523784279,36.5426025390625,98.07341003417967,-6.239669799804688
291864,-0.1358489990234375,0.908416748046875,0.09039306640625,0.0482767187058925,0.2787493467330933,-0.1257275640964508,36.478759765625,98.0548095703125,-6.4727783203125
291865,-0.1358489990234375,0.908416748046875,0.09039306640625,0.0482767187058925,0.2787493467330933,-0.1257275640964508,36.478759765625,98.0548095703125,-6.4727783203125
291866,-0.2274169921875,0.9186553955078124,0.1938018798828125,-0.0565674044191837,0.2514314353466034,-0.3602990508079529,36.43949890136719,98.17903137207033,-6.673492431640625
291867,-0.242767333984375,0.8922576904296875,0.1793975830078125,-0.116951122879982,0.1793364733457565,-0.4443660080432892,36.30021667480469,98.19871520996094,-6.680984497070312
291868,-0.2603607177734375,0.85345458984375,0.15765380859375,-0.1741363853216171,0.0775113031268119,-0.4855914711952209,36.16802978515625,98.185546875,-6.832778930664062
291869,-0.279693603515625,0.8227691650390625,0.1519622802734375,-0.2301642298698425,-0.0136902453377842,-0.5005874633789062,35.97746276855469,98.15420532226562,-6.847274780273438
291870,-0.2968902587890625,0.8065338134765625,0.1741943359375,-0.2845196127891541,-0.0426827482879161,-0.500462532043457,35.76618957519531,97.99642944335938,-6.61114501953125
291871,-0.31597900390625,0.8047943115234375,0.2104034423828125,-0.3689745664596558,0.1176278293132782,-0.5389761328697205,35.61030578613281,97.95204162597656,-6.478973388671875
291872,-0.34320068359375,0.8070526123046875,0.237884521484375,-0.3689745664596558,0.1176278293132782,-0.5389761328697205,35.40321350097656,97.81622314453124,-6.513031005859375
291873,-0.37255859375,0.8046417236328125,0.2415313720703125,-0.4306954741477966,0.2943200469017029,-0.5462366938591003,35.25877380371094,97.7666015625,-6.26959228515625
291874,-0.3967132568359375,0.7991180419921875,0.2255096435546875,-0.4306954741477966,0.2943200469017029,-0.5462366938591003,34.98185729980469,97.8535614013672,-6.20758056640625
291875,-0.401763916015625,0.7952423095703125,0.207061767578125,-0.4851075708866119,0.224203810095787,-0.5408989191055298,34.76632690429688,97.68975830078124,-5.92254638671875
291876,-0.3958587646484375,0.8067474365234375,0.2149810791015625,-0.5713202357292175,0.0833180621266365,-0.526685357093811,34.51815795898438,97.59791564941406,-5.752395629882812
291877,-0.3820343017578125,0.83282470703125,0.2348785400390625,-0.8952663540840149,-0.0720182657241821,-0.4536684155464172,34.24403381347656,97.53770446777344,-5.609085083007812
291878,-0.34710693359375,0.8753509521484375,0.22113037109375,-0.8952663540840149,-0.0720182657241821,-0.4536684155464172,33.9295654296875,97.5346221923828,-5.348968505859375
291879,-0.3024749755859375,0.9329376220703124,0.17034912109375,-1.04974353313446,-0.1489090472459793,-0.4198651909828186,33.6968994140625,97.41294860839844,-5.0244140625
291880,-0.244964599609375,0.9954833984375,0.113189697265625,-1.1395183801651,-0.2408051490783691,-0.3811406791210175,33.416259765625,97.21157836914062,-4.592376708984375
291881,-0.191802978515625,1.062210083007812,0.06500244140625,-1.079029560089111,-0.2352010607719421,-0.2676959037780762,33.07572937011719,97.087646484375,-4.213943481445312
291882,-0.138519287109375,1.125839233398438,0.0185089111328125,-1.079029560089111,-0.2352010607719421,-0.2676959037780762,32.78802490234375,97.06134033203124,-3.702774047851562
291883,-0.0814208984375,1.174713134765625,-0.0292816162109375,-0.8966400027275085,-0.1196877881884575,-0.2426158338785172,32.60552978515625,96.98062133789062,-3.0047607421875
291884,-0.0814208984375,1.174713134765625,-0.0292816162109375,-0.8966400027275085,-0.1196877881884575,-0.2426158338785172,32.60552978515625,96.98062133789062,-3.0047607421875
291885,-0.0412750244140625,1.21337890625,-0.0579986572265625,-0.679475724697113,-0.0309728290885686,-0.2502074539661407,32.41181945800781,96.9216766357422,-2.373626708984375
291886,0.04925537109375,1.260848999023438,-0.0795745849609375,-0.3964993953704834,-0.0647979080677032,-0.2748163938522339,31.92741394042969,96.77276611328124,-1.504592895507812
291887,0.08831787109375,1.244476318359375,-0.134185791015625,-0.3022456169128418,-0.1834023147821426,-0.2593258321285248,31.71946716308594,96.66755676269533,-1.18310546875
291888,0.1321563720703125,1.220169067382812,-0.2139129638671875,-0.1796453893184662,-0.3320980370044708,-0.206315353512764,31.49429321289062,96.54861450195312,-0.732147216796875
291889,0.1782989501953125,1.168045043945312,-0.2957305908203125,-0.0079223718494176,-0.4767993092536926,-0.127499908208847,31.26446533203125,96.49177551269533,-0.36492919921875
291890,0.214202880859375,1.093368530273438,-0.3735504150390625,0.2113921344280243,-0.5209880471229553,-0.0364802479743957,31.200439453125,96.4176788330078,-0.397979736328125
291891,0.227447509765625,1.050994873046875,-0.467803955078125,0.4357914328575134,-0.5082570910453796,0.0500876680016517,31.1090087890625,96.27238464355467,-0.260162353515625
291892,0.227447509765625,1.050994873046875,-0.467803955078125,0.4357914328575134,-0.5082570910453796,0.0500876680016517,31.1090087890625,96.27238464355467,-0.260162353515625
291893,0.198394775390625,0.9636077880859376,-0.566650390625,0.77557373046875,-0.3803755640983582,0.1815173327922821,31.24507141113281,96.1969757080078,-0.341796875
291894,0.150787353515625,0.9526824951171876,-0.5736846923828125,0.8441237807273865,-0.286502331495285,0.2237934172153473,31.27970886230469,96.23161315917967,-0.4867401123046875
291895,0.0949249267578125,0.9769744873046876,-0.552520751953125,0.8117077946662903,-0.212062194943428,0.2262933254241943,31.52783203125,96.3880615234375,-0.666717529296875
291896,0.0949249267578125,0.9769744873046876,-0.552520751953125,0.8117077946662903,-0.212062194943428,0.2262933254241943,31.52783203125,96.3880615234375,-0.666717529296875
291897,0.0829315185546875,1.08026123046875,-0.51055908203125,0.6348307728767395,-0.0817135050892829,0.2470467984676361,31.90184020996094,96.52789306640624,-1.224777221679688
291898,0.0971527099609375,1.185348510742188,-0.4718475341796875,0.6171425580978394,-0.0104979146271944,0.2501333951950073,32.08099365234375,96.7235107421875,-1.63189697265625
291899,0.100189208984375,1.284255981445312,-0.4154510498046875,0.6354720592498779,0.0711535364389419,0.2388423979282379,32.12574768066406,96.84548950195312,-1.96185302734375
291900,0.100189208984375,1.284255981445312,-0.4154510498046875,0.6354720592498779,0.0711535364389419,0.2388423979282379,32.12574768066406,96.84548950195312,-1.96185302734375
291901,0.0931243896484375,1.38360595703125,-0.3478851318359375,0.6265523433685303,0.0913376361131668,0.1552537679672241,32.32118225097656,97.02249145507812,-2.394607543945312
291902,0.039794921875,1.51483154296875,-0.1246795654296875,0.6080633401870728,0.0514514744281768,0.0786561965942382,32.58163452148438,97.1035614013672,-2.973342895507812
291903,0.0043792724609375,1.541885375976562,-0.0108489990234375,0.5873979926109314,0.0378720164299011,-0.0078914789482951,32.71873474121094,97.27903747558594,-3.309127807617188
291904,0.0043792724609375,1.541885375976562,-0.0108489990234375,0.5873979926109314,0.0378720164299011,-0.0078914789482951,32.71873474121094,97.27903747558594,-3.309127807617188
291905,-0.083831787109375,1.531417846679688,0.097259521484375,0.7147135734558105,0.0084182517603039,-0.1356582343578339,32.77072143554688,97.3981475830078,-4.03240966796875
291906,-0.1287994384765625,1.43780517578125,0.1060791015625,0.8082613945007324,-0.0019092201255261,-0.2003658562898636,32.83084106445312,97.40072631835938,-4.3968505859375
291907,-0.1862335205078125,1.26556396484375,0.0461578369140625,0.8849362134933472,-0.0920652151107788,-0.221276193857193,32.7928466796875,97.53826904296876,-4.610733032226562
291908,-0.1862335205078125,1.26556396484375,0.0461578369140625,0.8849362134933472,-0.0920652151107788,-0.221276193857193,32.7928466796875,97.53826904296876,-4.610733032226562
291909,-0.2851104736328125,1.012176513671875,-0.00347900390625,0.9563491344451904,-0.4540399312973022,-0.1143606603145599,32.82879638671875,97.58810424804688,-5.376800537109375
291910,-0.28228759765625,0.9183502197265624,0.0282440185546875,0.8687172532081604,-0.514799177646637,-0.0537143610417842,32.903564453125,97.60772705078124,-5.76104736328125
291911,-0.274505615234375,0.8760986328125,0.0242462158203125,0.7619170546531677,-0.5617514848709106,0.0111517207697033,32.89527893066406,97.69541931152344,-6.1322021484375
291912,-0.274505615234375,0.8760986328125,0.0242462158203125,0.7619170546531677,-0.5617514848709106,0.0111517207697033,32.89527893066406,97.69541931152344,-6.1322021484375
291913,-0.2558441162109375,0.873870849609375,0.013702392578125,0.7119026184082031,-0.6387940645217896,0.0292167402803897,33.06967163085938,97.66372680664062,-6.517471313476562
291914,-0.2391204833984375,0.862213134765625,0.00933837890625,0.7272749543190002,-0.7167477011680603,0.0052978261373937,33.12025451660156,97.71784973144533,-6.794174194335938
291915,-0.212921142578125,0.8305206298828125,0.008697509765625,0.8989745378494263,-0.73246169090271,-0.0249165352433919,33.30018615722656,97.79045104980467,-7.170150756835938
291916,-0.212921142578125,0.8305206298828125,0.008697509765625,0.8989745378494263,-0.73246169090271,-0.0249165352433919,33.30018615722656,97.79045104980467,-7.170150756835938
291917,-0.1854095458984375,0.8021697998046875,0.0097808837890625,0.9610307216644288,-0.6120133399963379,-0.0290747955441474,33.38679504394531,97.9027099609375,-7.345718383789062
291918,-0.1501312255859375,0.70867919921875,0.0111236572265625,0.8783707022666931,-0.2238237708806992,-0.0195763651281595,33.51518249511719,97.96060180664062,-7.755340576171875
291919,-0.133331298828125,0.648193359375,0.0289306640625,0.7098783850669861,-0.1057714372873306,0.0079998699948191,33.44413757324219,98.00814819335938,-8.3409423828125
291920,-0.11260986328125,0.5874786376953125,0.0923309326171875,0.4758797287940979,-0.0131546845659613,0.0445136725902557,33.43270874023438,98.16452026367188,-8.678924560546875
291921,-0.11260986328125,0.5874786376953125,0.0923309326171875,0.4758797287940979,-0.0131546845659613,0.0445136725902557,33.43270874023438,98.16452026367188,-8.678924560546875
291922,-0.0850067138671875,0.5135040283203125,0.26678466796875,-0.0614037066698074,0.2613128125667572,0.1655580699443817,33.63142395019531,98.0041046142578,-9.124725341796877
291923,-0.08428955078125,0.5317535400390625,0.334686279296875,-0.3049828112125397,0.4693118333816528,0.2228871434926987,33.72795104980469,97.98152160644533,-9.303909301757812
291924,-0.08428955078125,0.5317535400390625,0.334686279296875,-0.3049828112125397,0.4693118333816528,0.2228871434926987,33.72795104980469,97.98152160644533,-9.303909301757812
291925,-0.1091461181640625,0.5822906494140625,0.383087158203125,-0.5020202398300171,0.6688523888587952,0.2525867223739624,33.84515380859375,98.0659637451172,-9.443252563476562
291926,-0.2240142822265625,0.8209381103515625,0.4065399169921875,-0.7506119608879089,0.7969022393226624,0.1761151105165482,34.05766296386719,98.07701110839844,-9.081817626953123
291927,-0.266357421875,0.948516845703125,0.37200927734375,-0.7636926174163818,0.6339250206947327,0.1316227465867996,34.24855041503906,98.0296630859375,-8.82598876953125
291928,-0.266357421875,0.948516845703125,0.37200927734375,-0.7636926174163818,0.6339250206947327,0.1316227465867996,34.24855041503906,98.0296630859375,-8.82598876953125
291929,-0.28131103515625,0.992919921875,0.3228759765625,-0.7136877775192261,0.3413653075695038,0.1305625438690186,34.31697082519531,98.04530334472656,-8.700729370117188
291930,-0.1594696044921875,1.016937255859375,0.3405303955078125,-0.6962264776229858,-0.1273057609796524,0.1726961433887482,34.382080078125,98.03302001953124,-8.338790893554688
291931,-0.0931549072265625,1.0377197265625,0.352996826171875,-0.7966052889823914,-0.2205278426408768,0.1084505766630173,34.40086364746094,98.0791473388672,-8.02471923828125
291932,-0.0931549072265625,1.0377197265625,0.352996826171875,-0.7966052889823914,-0.2205278426408768,0.1084505766630173,34.40086364746094,98.0791473388672,-8.02471923828125
291933,-0.045654296875,1.059967041015625,0.35321044921875,-1.067573070526123,-0.1526055186986923,-0.0515771731734275,34.33210754394531,97.99929809570312,-7.373977661132812
291934,-0.0712432861328125,1.0614013671875,0.3206024169921875,-1.209172368049622,-0.1493474096059799,-0.2278946787118912,34.45620727539062,97.9839324951172,-6.900070190429688
291935,-0.1144256591796875,1.050628662109375,0.2639007568359375,-1.209172368049622,-0.1493474096059799,-0.2278946787118912,34.46745300292969,97.85498046875,-6.295852661132812
291936,-0.1144256591796875,1.050628662109375,0.2639007568359375,-1.209172368049622,-0.1493474096059799,-0.2278946787118912,34.46745300292969,97.85498046875,-6.295852661132812
291937,-0.154388427734375,1.02734375,0.213653564453125,-1.192386388778687,-0.2929796874523163,-0.2837952375411987,34.42784118652344,97.68592834472656,-5.544097900390625
291938,-0.1769866943359375,0.998931884765625,0.1024322509765625,-0.9811798930168152,-0.5203105807304382,-0.336784690618515,34.38832092285156,97.2252960205078,-4.194061279296875
291939,-0.14752197265625,0.9932403564453124,0.01434326171875,-0.721838116645813,-0.3869013786315918,-0.2994085550308228,34.30615234375,97.02507019042967,-3.42816162109375
291940,-0.14752197265625,0.9932403564453124,0.01434326171875,-0.721838116645813,-0.3869013786315918,-0.2994085550308228,34.30615234375,97.02507019042967,-3.42816162109375
291941,-0.123138427734375,0.9801788330078124,-0.10357666015625,-0.4478060007095337,-0.0640439614653587,-0.2087332457304001,34.14736938476562,96.8898468017578,-3.0284423828125
291942,-0.133819580078125,0.987060546875,-0.2190093994140625,-0.2070879340171814,0.333651214838028,-0.1499554067850113,33.91134643554688,96.73660278320312,-2.765625
291943,-0.1123199462890625,0.9905853271484376,-0.3786773681640625,-0.1726143807172775,0.4699842929840088,-0.0987010076642036,33.45243835449219,96.70207214355467,-2.2740478515625
291944,-0.097442626953125,1.047988891601562,-0.3686981201171875,-0.2903641760349274,0.243482694029808,-0.0761600136756897,33.25755310058594,96.74644470214844,-2.392776489257812
291945,-0.097442626953125,1.047988891601562,-0.3686981201171875,-0.2903641760349274,0.243482694029808,-0.0761600136756897,33.25755310058594,96.74644470214844,-2.392776489257812
291946,-0.009490966796875,1.0692138671875,-0.392578125,-0.2533222734928131,0.0067037092521786,0.0146090360358357,32.97843933105469,96.67938232421876,-2.270675659179688
291947,0.0520782470703125,1.05743408203125,-0.4603118896484375,-0.0049478868022561,0.0046432213857769,0.1115246638655663,32.8780517578125,96.51399230957033,-2.058609008789062
291948,0.0520782470703125,1.05743408203125,-0.4603118896484375,-0.0049478868022561,0.0046432213857769,0.1115246638655663,32.8780517578125,96.51399230957033,-2.058609008789062
291949,0.1130218505859375,1.063232421875,-0.5366973876953125,0.3269264698028564,0.1033476963639259,0.2171584218740463,32.84266662597656,96.4228973388672,-1.881317138671875
291950,0.2102508544921875,1.1158447265625,-0.7015380859375,0.8824131488800049,0.3493849039077759,0.4172161519527435,32.76783752441406,96.48544311523438,-1.935440063476562
291951,0.2431793212890625,1.15155029296875,-0.7658233642578125,0.9350502490997314,0.372465968132019,0.4423297345638275,32.91656494140625,96.48463439941406,-2.175643920898438
291952,0.261199951171875,1.182846069335938,-0.7884674072265625,0.7999765872955322,0.2767764627933502,0.4042294919490814,33.00495910644531,96.73228454589844,-2.373641967773438
291953,0.261199951171875,1.182846069335938,-0.7884674072265625,0.7999765872955322,0.2767764627933502,0.4042294919490814,33.00495910644531,96.73228454589844,-2.373641967773438
291954,0.1137237548828125,1.235244750976562,-0.619171142578125,0.4100799262523651,0.2070879340171814,0.2350737601518631,33.23225402832031,97.06854248046876,-3.321121215820312
291955,0.0405120849609375,1.213470458984375,-0.550811767578125,0.3792378604412079,0.2644476294517517,0.2214900404214859,33.32460021972656,97.15933227539062,-3.675018310546875
291956,0.0405120849609375,1.213470458984375,-0.550811767578125,0.3792378604412079,0.2644476294517517,0.2214900404214859,33.32460021972656,97.15933227539062,-3.675018310546875
291957,-0.01470947265625,1.224044799804688,-0.50457763671875,0.2988301217556,0.2604904472827911,0.1944272667169571,33.63212585449219,97.33181762695312,-4.1202392578125
291958,-0.0676116943359375,1.261383056640625,-0.305999755859375,0.2003307044506073,0.2764022946357727,0.1620405614376068,33.80830383300781,97.54855346679688,-4.640670776367188
291959,-0.07110595703125,1.261138916015625,-0.19049072265625,0.0989486873149871,0.3114018142223358,0.1487034559249878,33.9302978515625,97.695556640625,-4.777267456054688
291960,-0.07110595703125,1.261138916015625,-0.19049072265625,0.0989486873149871,0.3114018142223358,0.1487034559249878,33.9302978515625,97.695556640625,-4.777267456054688
291961,-0.0780487060546875,1.250198364257812,-0.063690185546875,0.0425277538597583,0.3450340926647186,0.1723728328943253,33.9873046875,97.679931640625,-4.99737548828125
291962,-0.052642822265625,1.17144775390625,0.1359100341796875,0.19820736348629,0.4764323234558105,0.3116987645626068,34.15878295898438,97.74229431152344,-5.417129516601562
291963,-0.0359954833984375,1.1474609375,0.1828155517578125,0.3284963965415955,0.46077960729599,0.4362561404705048,34.20219421386719,97.74609375,-5.62847900390625
291964,-0.0359954833984375,1.1474609375,0.1828155517578125,0.3284963965415955,0.46077960729599,0.4362561404705048,34.20219421386719,97.74609375,-5.62847900390625
291965,-0.0315399169921875,1.133209228515625,0.2033233642578125,0.3933528959751129,0.4504047334194183,0.5286169648170471,34.45994567871094,97.84555053710938,-5.958084106445312
291966,-0.01849365234375,1.039230346679688,0.200653076171875,0.312955766916275,0.4214766621589661,0.5497376918792725,34.93269348144531,97.88175964355467,-6.417984008789062
291967,-0.009765625,0.987518310546875,0.2132720947265625,0.2917988300323486,0.4198319017887115,0.5106582045555115,35.22381591796875,98.05335998535156,-6.623077392578125
291968,-0.009765625,0.987518310546875,0.2132720947265625,0.2917988300323486,0.4198319017887115,0.5106582045555115,35.22381591796875,98.05335998535156,-6.623077392578125
291969,0.019805908203125,0.899444580078125,0.1812591552734375,0.3765113055706024,0.2987685799598694,0.4322848320007324,35.6158447265625,98.0615692138672,-7.14453125
291970,0.0348052978515625,0.8715057373046875,0.1765594482421875,0.4055498838424683,0.1839035153388977,0.4191847443580627,35.7698974609375,98.16078186035156,-7.407318115234375
291971,0.05316162109375,0.8417816162109375,0.1753692626953125,0.4255947172641754,0.1094396710395813,0.4150597751140594,35.97463989257812,98.30894470214844,-7.602005004882812
291972,0.05316162109375,0.8417816162109375,0.1753692626953125,0.4255947172641754,0.1094396710395813,0.4150597751140594,35.97463989257812,98.30894470214844,-7.602005004882812
291973,0.0845184326171875,0.805633544921875,0.1633758544921875,0.4209418892860413,0.0514533370733261,0.4122152626514435,36.09574890136719,98.36540222167967,-7.7501220703125
291974,0.108367919921875,0.775421142578125,0.142913818359375,0.3988608419895172,0.0118681108579039,0.4102514386177063,36.35856628417969,98.40031433105467,-7.9625244140625
291975,0.1147613525390625,0.7575836181640625,0.0838165283203125,0.2787778377532959,-0.0522687956690788,0.3066805601119995,36.7532958984375,98.50440979003906,-8.338699340820312
291976,0.1147613525390625,0.7575836181640625,0.0838165283203125,0.2787778377532959,-0.0522687956690788,0.3066805601119995,36.7532958984375,98.50440979003906,-8.338699340820312
291977,0.090057373046875,0.7863006591796875,0.071197509765625,0.1941282004117966,-0.0616175569593906,0.1701530963182449,36.91822814941406,98.5067901611328,-8.328994750976562
291978,-0.1237945556640625,0.881256103515625,0.10205078125,0.0696230232715606,-0.0046552056446671,-0.2407316565513611,37.11848449707031,98.60740661621094,-8.707672119140625
291979,-0.2223358154296875,0.87933349609375,0.113372802734375,0.0264832731336355,-0.0128335068002343,-0.435370922088623,37.01908874511719,98.73159790039062,-8.608154296875
291980,-0.2989044189453125,0.8326263427734375,0.117340087890625,-0.0052064796909689,-0.0393205061554908,-0.5660964250564575,36.97268676757812,98.84019470214844,-8.702545166015625
291981,-0.2989044189453125,0.8326263427734375,0.117340087890625,-0.0052064796909689,-0.0393205061554908,-0.5660964250564575,36.97268676757812,98.84019470214844,-8.702545166015625
291982,-0.4094085693359375,0.7218017578125,0.116851806640625,-0.06918466091156,-0.0366158001124858,-0.6104947924613953,36.52047729492188,98.62542724609376,-8.888900756835938
291983,-0.4332733154296875,0.7177734375,0.1071319580078125,-0.1513567715883255,-0.0316956117749214,-0.5606838464736938,36.25143432617188,98.64076232910156,-8.753662109375
291984,-0.4332733154296875,0.7177734375,0.1071319580078125,-0.1513567715883255,-0.0316956117749214,-0.5606838464736938,36.25143432617188,98.64076232910156,-8.753662109375
291985,-0.385955810546875,0.8134613037109375,0.11798095703125,-0.4478741884231567,-0.0431474708020687,-0.4443833231925964,35.66546630859375,98.47784423828124,-8.5933837890625
291986,-0.3249664306640625,0.863189697265625,0.1379852294921875,-0.6072806119918823,-0.0510943420231342,-0.4691861271858215,35.47959899902344,98.47592163085938,-8.42486572265625
291987,-0.2933197021484375,0.889801025390625,0.16522216796875,-0.8005046844482422,0.0484815165400505,-0.4839858412742615,35.29682922363281,98.45159912109376,-8.252639770507812
291988,-0.275299072265625,0.9206390380859376,0.166412353515625,-0.8520751595497131,0.0865141153335571,-0.4517166018486023,35.03509521484375,98.33554077148438,-8.025405883789062
291989,-0.275299072265625,0.9206390380859376,0.166412353515625,-0.8520751595497131,0.0865141153335571,-0.4517166018486023,35.03509521484375,98.33554077148438,-8.025405883789062
291990,-0.2410736083984375,1.009368896484375,0.17938232421875,-0.9033381342887878,0.1381605416536331,-0.4151013195514679,34.64280700683594,98.16447448730467,-7.101593017578125
291991,-0.2279205322265625,1.05670166015625,0.1602783203125,-0.9596993923187256,0.1549259275197983,-0.3869964480400085,34.38804626464844,98.10107421875,-6.932830810546875
291992,-0.2279205322265625,1.05670166015625,0.1602783203125,-0.9596993923187256,0.1549259275197983,-0.3869964480400085,34.38804626464844,98.10107421875,-6.932830810546875
291993,-0.194122314453125,1.102142333984375,0.08306884765625,-0.9564950466156006,0.000932372699026,-0.3149070739746094,33.90818786621094,98.00648498535156,-6.18231201171875
291994,-0.17742919921875,1.100860595703125,0.02484130859375,-0.9564950466156006,0.000932372699026,-0.3149070739746094,33.66256713867188,97.92080688476562,-5.795578002929688
291995,-0.1523284912109375,1.105377197265625,-0.05853271484375,-0.8498980402946472,-0.0711386278271675,-0.2708184421062469,33.37019348144531,97.79257202148438,-5.25445556640625
291996,-0.1523284912109375,1.105377197265625,-0.05853271484375,-0.8498980402946472,-0.0711386278271675,-0.2708184421062469,33.37019348144531,97.79257202148438,-5.25445556640625
291997,-0.05230712890625,1.137130737304688,-0.1737518310546875,-0.5018453001976013,-0.4176435768604279,-0.2066352069377899,32.99330139160156,97.63604736328124,-4.278839111328125
291998,0.00531005859375,1.143692016601562,-0.188385009765625,-0.5018453001976013,-0.4176435768604279,-0.2066352069377899,32.80043029785156,97.48550415039062,-3.934829711914062
291999,0.0547637939453125,1.12945556640625,-0.199066162109375,-0.4523301720619202,-0.4277795553207397,-0.1932781189680099,32.69026184082031,97.40606689453124,-3.498336791992188
292000,0.0547637939453125,1.12945556640625,-0.199066162109375,-0.4523301720619202,-0.4277795553207397,-0.1932781189680099,32.69026184082031,97.40606689453124,-3.498336791992188
292001,0.0912322998046875,1.077987670898438,-0.2283172607421875,-0.3797273635864258,-0.4527291357517242,-0.1698055416345596,32.56889343261719,97.3406982421875,-3.146377563476562
292002,0.09063720703125,0.966827392578125,-0.2651519775390625,-0.0870126634836196,-0.533780038356781,-0.065559834241867,32.30989074707031,97.27471923828124,-2.4959716796875
292003,0.0681915283203125,0.90625,-0.310455322265625,0.1235523000359535,-0.5014356970787048,0.0147083718329668,32.24458312988281,97.2679443359375,-2.286911010742188
292004,0.0681915283203125,0.90625,-0.310455322265625,0.1235523000359535,-0.5014356970787048,0.0147083718329668,32.24458312988281,97.2679443359375,-2.286911010742188
292005,0.04473876953125,0.8621978759765625,-0.4655303955078125,0.5332388877868652,-0.402653694152832,0.1884274333715439,32.45114135742188,97.203369140625,-2.02142333984375
292006,0.049041748046875,0.889678955078125,-0.5179290771484375,0.693974494934082,-0.3204797506332397,0.2515779137611389,32.65449523925781,97.06721496582033,-2.057891845703125
292007,0.0610198974609375,0.9444732666015624,-0.5479736328125,0.7666316628456116,-0.1956134438514709,0.2702594399452209,32.8406982421875,97.12351989746094,-2.302825927734375
292008,0.0610198974609375,0.9444732666015624,-0.5479736328125,0.7666316628456116,-0.1956134438514709,0.2702594399452209,32.8406982421875,97.12351989746094,-2.302825927734375
292009,0.12164306640625,1.088897705078125,-0.5381622314453125,0.4424442648887634,-0.1186456903815269,0.1054864749312401,32.99444580078125,97.40890502929688,-2.944656372070312
292010,0.1331634521484375,1.172409057617188,-0.482421875,0.4424442648887634,-0.1186456903815269,0.1054864749312401,33.11627197265625,97.44229125976562,-3.16827392578125
292011,0.118682861328125,1.232284545898438,-0.4029541015625,0.3882798254489899,-0.0773757472634315,0.0357931517064571,33.18338012695312,97.568115234375,-3.44915771484375
292012,0.118682861328125,1.232284545898438,-0.4029541015625,0.3882798254489899,-0.0773757472634315,0.0357931517064571,33.18338012695312,97.568115234375,-3.44915771484375
292013,0.101409912109375,1.289199829101562,-0.327239990234375,0.3897216618061066,0.0154476659372448,0.0080707091838121,33.26658630371094,97.63421630859376,-3.680435180664062
292014,0.0904083251953125,1.359634399414062,-0.2616729736328125,0.3902838528156281,0.1957423388957977,-0.0134180709719657,33.31013488769531,97.61546325683594,-3.838287353515625
292015,0.0611572265625,1.477890014648438,-0.1485595703125,0.3813486993312836,0.1874026507139206,-0.0270827505737543,33.32839965820312,97.69931030273438,-4.220352172851562
292016,0.0611572265625,1.477890014648438,-0.1485595703125,0.3813486993312836,0.1874026507139206,-0.0270827505737543,33.32839965820312,97.69931030273438,-4.220352172851562
292017,0.0213165283203125,1.523284912109375,-0.08172607421875,0.3864797949790955,0.1333934813737869,-0.0336032323539257,33.4140625,97.76361083984376,-4.465789794921875
292018,-0.07794189453125,1.458953857421875,0.011993408203125,0.5453498959541321,-0.0010261159623041,-0.0583695657551288,33.50196838378906,97.8658447265625,-4.918548583984375
292019,-0.1148834228515625,1.353866577148438,0.0140380859375,0.6697072386741638,-0.0514109916985034,-0.0759568139910697,33.52339172363281,97.878662109375,-5.142929077148438
292020,-0.1148834228515625,1.353866577148438,0.0140380859375,0.6697072386741638,-0.0514109916985034,-0.0759568139910697,33.52339172363281,97.878662109375,-5.142929077148438
292021,-0.1405487060546875,1.170318603515625,-0.036834716796875,0.8929587006568909,-0.2772502601146698,-0.1128519847989082,33.59449768066406,97.9968719482422,-5.665313720703125
292022,-0.136016845703125,1.087860107421875,-0.0430908203125,0.9303995370864868,-0.422486811876297,-0.110750749707222,33.6121826171875,97.99317932128906,-6.088027954101562
292023,-0.129608154296875,1.011322021484375,-0.03973388671875,0.8917363286018372,-0.5244073271751404,-0.0633387565612793,33.72476196289062,98.02435302734376,-6.440902709960938
292024,-0.12762451171875,0.9692535400390624,-0.0312347412109375,0.8183920383453369,-0.568902850151062,-0.0121578630059957,33.74555969238281,98.06716918945312,-6.879684448242188
292025,-0.12762451171875,0.9692535400390624,-0.0312347412109375,0.8183920383453369,-0.568902850151062,-0.0121578630059957,33.74555969238281,98.06716918945312,-6.879684448242188
292026,-0.1161041259765625,0.9067840576171876,-0.0401611328125,0.7156089544296265,-0.6260897517204285,0.0116121815517544,33.99722290039062,98.12580871582033,-7.36639404296875
292027,-0.117218017578125,0.8561859130859375,-0.0277557373046875,0.731327474117279,-0.6851485371589661,-0.0074187680147588,34.10910034179688,98.01870727539062,-7.446746826171875
292028,-0.117218017578125,0.8561859130859375,-0.0277557373046875,0.731327474117279,-0.6851485371589661,-0.0074187680147588,34.10910034179688,98.01870727539062,-7.446746826171875
292029,-0.1368255615234375,0.714813232421875,0.0310516357421875,0.7519943714141846,-0.6749813556671143,-0.0165938902646303,34.34486389160156,98.0601806640625,-8.065322875976562
292030,-0.1492767333984375,0.626068115234375,0.0625,0.6917172074317932,-0.5934287309646606,-0.0332279950380325,34.386474609375,98.06144714355467,-8.384078979492188
292031,-0.162109375,0.5533905029296875,0.0951690673828125,0.5769155025482178,-0.4578226804733276,-0.0311451368033886,34.42941284179688,98.09326171875,-8.536422729492188
292032,-0.1609649658203125,0.49200439453125,0.13800048828125,0.2200154513120651,-0.0669310986995697,0.0499262809753418,34.53349304199219,98.18173217773438,-8.764297485351562
292033,-0.1609649658203125,0.49200439453125,0.13800048828125,0.2200154513120651,-0.0669310986995697,0.0499262809753418,34.53349304199219,98.18173217773438,-8.764297485351562
292034,-0.14202880859375,0.4866485595703125,0.23004150390625,0.0063990433700382,0.1388169974088669,0.1110588759183884,34.64042663574219,98.29142761230467,-9.129470825195312
292035,-0.1310272216796875,0.5091705322265625,0.26971435546875,-0.200317919254303,0.2990354299545288,0.1791082322597504,34.61201477050781,98.3249969482422,-9.066558837890623
292036,-0.1310272216796875,0.5091705322265625,0.26971435546875,-0.200317919254303,0.2990354299545288,0.1791082322597504,34.61201477050781,98.3249969482422,-9.066558837890623
292037,-0.16217041015625,0.613250732421875,0.3472747802734375,-0.5672173500061035,0.4926906526088715,0.2609735429286957,34.87577819824219,98.18910217285156,-8.913177490234375
292038,-0.188873291015625,0.683807373046875,0.3788604736328125,-0.6979588270187378,0.511211633682251,0.2731226086616516,35.04690551757812,98.15513610839844,-8.776412963867188
292039,-0.2092742919921875,0.7843170166015625,0.4027557373046875,-0.7639693021774292,0.507707953453064,0.2812897264957428,35.18736267089844,98.17814636230467,-8.538284301757812
292040,-0.1993408203125,0.9107513427734376,0.393096923828125,-0.7432065010070801,0.4511469304561615,0.3008160293102264,35.33554077148438,98.14913940429688,-8.323287963867188
292041,-0.1993408203125,0.9107513427734376,0.393096923828125,-0.7432065010070801,0.4511469304561615,0.3008160293102264,35.33554077148438,98.14913940429688,-8.323287963867188
292042,-0.12591552734375,1.043716430664062,0.3656768798828125,-0.6328557729721069,0.1747433096170425,0.2651805281639099,35.36965942382812,98.31358337402344,-8.151748657226562
292043,-0.1070556640625,1.078536987304688,0.39337158203125,-0.6883283257484436,0.0952511504292488,0.1979599595069885,35.5050048828125,98.33334350585938,-7.967544555664062
292044,-0.0927734375,1.105682373046875,0.4182891845703125,-1.029370307922363,0.1167196929454803,-0.0067401942797005,35.66212463378906,98.29403686523438,-7.6656494140625
292045,-0.0927734375,1.105682373046875,0.4182891845703125,-1.029370307922363,0.1167196929454803,-0.0067401942797005,35.66212463378906,98.29403686523438,-7.6656494140625
292046,-0.098724365234375,1.142929077148438,0.430084228515625,-1.229087233543396,0.1788320690393448,-0.1281979233026505,35.67251586914062,98.2367706298828,-7.039962768554688
292047,-0.1248779296875,1.150894165039062,0.3703155517578125,-1.381729245185852,0.2077886164188385,-0.2547633051872253,35.60906982421875,98.046875,-6.527130126953125
292048,-0.1248779296875,1.150894165039062,0.3703155517578125,-1.381729245185852,0.2077886164188385,-0.2547633051872253,35.60906982421875,98.046875,-6.527130126953125
292049,-0.14190673828125,1.12628173828125,0.125518798828125,-1.413073301315308,-0.0799180045723915,-0.4448459148406982,35.38978576660156,97.83609008789062,-5.573211669921875
292050,-0.1102294921875,1.122406005859375,-0.05560302734375,-1.28698718547821,-0.3557495772838593,-0.4802337288856506,35.24607849121094,97.61463928222656,-4.854263305664062
292051,-0.0567474365234375,1.127105712890625,-0.163543701171875,-1.02109432220459,-0.6225786209106445,-0.4883254766464233,35.06953430175781,97.38449096679688,-4.173309326171875
292052,-0.0567474365234375,1.127105712890625,-0.163543701171875,-1.02109432220459,-0.6225786209106445,-0.4883254766464233,35.06953430175781,97.38449096679688,-4.173309326171875
292053,0.0050811767578125,1.10791015625,-0.0920867919921875,-0.762414813041687,-0.2794042229652405,-0.4521624147891998,34.76219177246094,97.1368408203125,-3.408050537109375
292054,-0.0183563232421875,1.066986083984375,-0.2602691650390625,-0.4377656280994415,0.905647873878479,-0.3333710432052612,34.13595581054688,97.23965454101562,-2.341049194335938
292055,-0.0778656005859375,1.02587890625,-0.26983642578125,-0.4092873632907867,0.8978626728057861,-0.2984854876995087,33.79859924316406,97.13851928710938,-2.00750732421875
292056,-0.0778656005859375,1.02587890625,-0.26983642578125,-0.4092873632907867,0.8978626728057861,-0.2984854876995087,33.79859924316406,97.13851928710938,-2.00750732421875
292057,-0.121124267578125,1.030059814453125,-0.2370147705078125,-0.4428405463695526,0.7005380988121033,-0.2636814415454865,33.58589172363281,97.01628112792967,-1.895736694335938
292058,-0.1322021484375,1.136703491210938,-0.290130615234375,-0.4374686777591705,0.3571618497371674,-0.2301708906888962,33.06306457519531,96.60389709472656,-1.692779541015625
292059,-0.0583648681640625,1.139892578125,-0.3726348876953125,-0.2563412487506866,0.3090140223503113,-0.1779553592205048,32.79278564453125,96.6502685546875,-1.416915893554688
292060,-0.0583648681640625,1.139892578125,-0.3726348876953125,-0.2563412487506866,0.3090140223503113,-0.1779553592205048,32.79278564453125,96.6502685546875,-1.416915893554688
292061,0.0566253662109375,1.082565307617188,-0.4608306884765625,-0.0198557302355766,0.2680463492870331,-0.0608969070017337,32.61228942871094,96.50871276855467,-1.374649047851562
292062,0.1551055908203125,1.04254150390625,-0.516632080078125,0.2058596909046173,0.2262347340583801,0.0849106311798095,32.42253112792969,96.51458740234376,-1.309524536132812
292063,0.2584686279296875,1.04058837890625,-0.5810699462890625,0.6071575880050659,0.2785719633102417,0.3781574070453644,32.35023498535156,96.314453125,-1.38494873046875
292064,0.2739715576171875,1.057830810546875,-0.5811309814453125,0.6071575880050659,0.2785719633102417,0.3781574070453644,32.43841552734375,96.387939453125,-1.4744873046875
292065,0.2739715576171875,1.057830810546875,-0.5811309814453125,0.6071575880050659,0.2785719633102417,0.3781574070453644,32.43841552734375,96.387939453125,-1.4744873046875
292066,0.153564453125,1.149551391601562,-0.4984283447265625,0.5281980633735657,0.3279176950454712,0.3809137940406799,32.64120483398438,96.53971862792967,-1.919906616210938
292067,0.057891845703125,1.197433471679688,-0.4490814208984375,0.5003059506416321,0.3438425958156586,0.3374214470386505,32.71583557128906,96.88479614257812,-2.310928344726562
292068,0.057891845703125,1.197433471679688,-0.4490814208984375,0.5003059506416321,0.3438425958156586,0.3374214470386505,32.71583557128906,96.88479614257812,-2.310928344726562
292069,-0.0228729248046875,1.228729248046875,-0.4320068359375,0.5105194449424744,0.4058031737804413,0.3002937734127045,32.90800476074219,97.05216979980467,-2.548751831054688
292070,-0.1563262939453125,1.265380859375,-0.3781585693359375,0.554098904132843,0.4271108508110046,0.2219403833150864,33.19915771484375,97.31192016601562,-3.243865966796875
292071,-0.203826904296875,1.248321533203125,-0.2834014892578125,0.4643101394176483,0.3416771590709686,0.1628493666648865,33.35040283203125,97.36839294433594,-3.509033203125
292072,-0.203826904296875,1.248321533203125,-0.2834014892578125,0.4643101394176483,0.3416771590709686,0.1628493666648865,33.35040283203125,97.36839294433594,-3.509033203125
292073,-0.2162017822265625,1.188034057617188,-0.1488189697265625,0.284933477640152,0.2806095480918884,0.1358156204223633,33.42315673828125,97.55427551269533,-3.851593017578125
292074,-0.1546630859375,1.014938354492188,0.078338623046875,-0.0166532788425684,0.3496086001396179,0.2053645998239517,33.61991882324219,97.65773010253906,-4.546340942382812
292075,-0.1133575439453125,0.971710205078125,0.105987548828125,0.0220203474164009,0.3987665474414825,0.3344962298870087,33.85025024414062,97.61727905273438,-4.585174560546875
292076,-0.1133575439453125,0.971710205078125,0.105987548828125,0.0220203474164009,0.3987665474414825,0.3344962298870087,33.85025024414062,97.61727905273438,-4.585174560546875
292077,-0.0836029052734375,0.9679107666015624,0.1176300048828125,0.1732418239116669,0.3631712794303894,0.4876146614551544,34.02885437011719,97.5654754638672,-4.607574462890625
292078,-0.0369110107421875,0.9474029541015624,0.219207763671875,0.428092747926712,0.2004798352718353,0.568595290184021,34.43142700195312,97.60195922851562,-5.166473388671875
292079,-0.03070068359375,0.9064788818359376,0.2809906005859375,0.4390234351158142,0.2156776934862137,0.5347928404808044,34.64973449707031,97.7310028076172,-5.46441650390625
292080,-0.0251312255859375,0.870269775390625,0.3208770751953125,0.3981905281543732,0.2800135314464569,0.4809567630290985,34.86639404296875,97.74163818359376,-5.55816650390625
292081,-0.0251312255859375,0.870269775390625,0.3208770751953125,0.3981905281543732,0.2800135314464569,0.4809567630290985,34.86639404296875,97.74163818359376,-5.55816650390625
292082,-0.0275421142578125,0.8519134521484375,0.2661895751953125,0.2146470546722412,0.2530237436294556,0.3419488072395325,35.32954406738281,97.84797668457033,-6.029205322265625
292083,-0.0279388427734375,0.9006195068359375,0.225921630859375,0.1132820844650269,0.2280637919902802,0.2855467796325684,35.52088928222656,97.91848754882812,-6.345504760742188
292084,-0.0279388427734375,0.9006195068359375,0.225921630859375,0.1132820844650269,0.2280637919902802,0.2855467796325684,35.52088928222656,97.91848754882812,-6.345504760742188
292085,-0.0115814208984375,0.9349365234375,0.1400299072265625,0.0485909730195999,0.0984762385487556,0.2274145185947418,35.6929931640625,97.85079956054688,-6.507598876953125
292086,0.0583953857421875,0.9407501220703124,-0.020751953125,0.1219820976257324,0.0154583184048533,0.2034023851156235,35.87794494628906,97.92799377441406,-6.668441772460938
292087,0.092041015625,0.9523773193359376,-0.0231475830078125,0.2630862295627594,0.2067851424217224,0.057890199124813,35.91670227050781,98.02693176269533,-6.749069213867188
292088,0.092041015625,0.9523773193359376,-0.0231475830078125,0.2630862295627594,0.2067851424217224,0.057890199124813,35.91670227050781,98.02693176269533,-6.749069213867188
292089,0.095733642578125,0.9606475830078124,0.01507568359375,0.2630862295627594,0.2067851424217224,0.057890199124813,35.97825622558594,98.0740966796875,-6.792007446289062
292090,-0.0359954833984375,0.9717559814453124,0.0906524658203125,0.1554116904735565,0.2812585830688477,-0.1933348476886749,36.00372314453125,98.24842834472656,-6.846054077148438
292091,-0.0889739990234375,0.9519195556640624,0.14312744140625,0.0935137048363685,0.1514968425035477,-0.3165832757949829,35.99554443359375,98.2024383544922,-7.134841918945312
292092,-0.0889739990234375,0.9519195556640624,0.14312744140625,0.0935137048363685,0.1514968425035477,-0.3165832757949829,35.99554443359375,98.2024383544922,-7.134841918945312
292093,-0.1262054443359375,0.9288787841796876,0.1709136962890625,-0.0196522641927003,-0.0317994765937328,-0.4590314924716949,35.94316101074219,98.22297668457033,-7.205978393554688
292094,-0.2018890380859375,0.8682708740234375,0.17626953125,-0.0794314444065094,-0.0492873899638652,-0.4633466303348541,35.58786010742188,98.29888916015624,-7.4053955078125
292095,-0.2368621826171875,0.8437347412109375,0.1721343994140625,-0.1467010229825974,-0.0565024241805076,-0.4628081321716309,35.33631896972656,98.27197265625,-7.457504272460938
292096,-0.2368621826171875,0.8437347412109375,0.1721343994140625,-0.1467010229825974,-0.0565024241805076,-0.4628081321716309,35.33631896972656,98.27197265625,-7.457504272460938
292097,-0.27313232421875,0.8308563232421875,0.1794891357421875,-0.208853617310524,-0.0478633977472782,-0.4466701745986938,35.2001953125,98.13238525390624,-7.43231201171875
292098,-0.334930419921875,0.820587158203125,0.1685028076171875,-0.299134761095047,0.0309605784714222,-0.4770869314670563,34.91352844238281,97.85086059570312,-7.349105834960938
292099,-0.3508758544921875,0.8036651611328125,0.1482086181640625,-0.299134761095047,0.0309605784714222,-0.4770869314670563,34.66246032714844,97.93399047851562,-7.2479248046875
292100,-0.3508758544921875,0.8036651611328125,0.1482086181640625,-0.299134761095047,0.0309605784714222,-0.4770869314670563,34.66246032714844,97.93399047851562,-7.2479248046875
292101,-0.324615478515625,0.8105010986328125,0.1333770751953125,-0.3263592123985291,0.0368048846721649,-0.4854905307292938,34.28794860839844,97.80500793457033,-6.978561401367188
292102,-0.2943115234375,0.831878662109375,0.1304168701171875,-0.3840374052524567,0.058514442294836,-0.4798542261123657,34.063232421875,97.7882080078125,-6.880233764648438
292103,-0.271759033203125,0.8649749755859375,0.1254730224609375,-0.4884149432182312,0.072768211364746,-0.4633143842220306,33.87432861328125,97.66207885742188,-6.675933837890625
292104,-0.271759033203125,0.8649749755859375,0.1254730224609375,-0.4884149432182312,0.072768211364746,-0.4633143842220306,33.87432861328125,97.66207885742188,-6.675933837890625
292105,-0.2275238037109375,0.93731689453125,0.0975799560546875,-0.8376613855361938,-0.102285623550415,-0.4156544506549835,33.4100341796875,97.5885009765625,-6.2703857421875
292106,-0.1974945068359375,0.9671630859375,0.0772857666015625,-0.8376613855361938,-0.102285623550415,-0.4156544506549835,33.08663940429688,97.49411010742188,-5.979339599609375
292107,-0.1491241455078125,1.00445556640625,0.0501861572265625,-0.8800351619720459,-0.1233368515968323,-0.3836813569068909,32.72537231445312,97.51600646972656,-5.657135009765625
292108,-0.1491241455078125,1.00445556640625,0.0501861572265625,-0.8800351619720459,-0.1233368515968323,-0.3836813569068909,32.72537231445312,97.51600646972656,-5.657135009765625
292109,-0.0562286376953125,1.089080810546875,-0.0746612548828125,-0.7577736973762512,-0.074616715312004,-0.270361453294754,32.26254272460938,97.47586059570312,-4.862594604492188
292110,-0.0329132080078125,1.13641357421875,-0.123809814453125,-0.6043394207954407,-0.0984181836247444,-0.2065486460924149,32.10423278808594,97.23167419433594,-4.390472412109375
292111,-0.0146942138671875,1.187164306640625,-0.135955810546875,-0.4481330513954163,-0.1426860392093658,-0.1485540568828583,31.86248779296875,97.10401916503906,-4.024581909179688
292112,-0.0072479248046875,1.265060424804688,-0.147216796875,-0.3305816352367401,-0.1582727283239365,-0.075066789984703,31.64340209960938,97.04244995117188,-3.723861694335938
292113,-0.0072479248046875,1.265060424804688,-0.147216796875,-0.3305816352367401,-0.1582727283239365,-0.075066789984703,31.64340209960938,97.04244995117188,-3.723861694335938
292114,0.030120849609375,1.246566772460938,-0.1819915771484375,-0.0697138309478759,-0.2402269840240479,-0.0168090742081403,31.5709228515625,97.09757995605467,-3.43328857421875
292115,0.0839385986328125,1.105575561523438,-0.27777099609375,0.0932724252343177,-0.2690019011497498,0.036577720195055,31.27333068847656,97.02159118652344,-2.898300170898438
292116,0.0839385986328125,1.105575561523438,-0.27777099609375,0.0932724252343177,-0.2690019011497498,0.036577720195055,31.27333068847656,97.02159118652344,-2.898300170898438
292117,0.1655426025390625,0.9158477783203124,-0.4584503173828125,0.3997500538825989,-0.3612498044967651,0.1848817020654678,31.24214172363281,96.97091674804688,-2.393585205078125
292118,0.2117462158203125,0.8435211181640625,-0.5106201171875,0.5328567028045654,-0.3758617639541626,0.2469810247421265,31.26744079589844,96.99038696289062,-2.505020141601562
292119,0.2288970947265625,0.8008270263671875,-0.5272979736328125,0.6472613215446472,-0.3436742722988129,0.2978713810443878,31.38650512695312,96.97064208984376,-2.58795166015625
292120,0.2176971435546875,0.791778564453125,-0.517059326171875,0.7084668874740601,-0.2680727243423462,0.3306120038032532,31.58743286132812,96.84902954101562,-2.651779174804688
292121,0.2176971435546875,0.791778564453125,-0.517059326171875,0.7084668874740601,-0.2680727243423462,0.3306120038032532,31.58743286132812,96.84902954101562,-2.651779174804688
292122,0.17803955078125,0.892425537109375,-0.4887847900390625,0.6183585524559021,-0.1141667887568474,0.3306484818458557,31.94416809082031,97.0724639892578,-3.075698852539062
292123,0.165191650390625,0.9709320068359376,-0.4625701904296875,0.5380576252937317,-0.062090802937746,0.3140282332897186,32.14167785644531,97.2650146484375,-3.3468017578125
292124,0.165191650390625,0.9709320068359376,-0.4625701904296875,0.5380576252937317,-0.062090802937746,0.3140282332897186,32.14167785644531,97.2650146484375,-3.3468017578125
292125,0.1515350341796875,1.042587280273438,-0.421112060546875,0.4548127949237823,-0.0051146009936928,0.3050760328769684,32.47267150878906,97.33154296875,-4.026275634765625
292126,0.112213134765625,1.244979858398438,-0.3023834228515625,0.3546057641506195,0.108884409070015,0.2794859707355499,32.74906921386719,97.37216186523438,-4.62310791015625
292127,0.0694122314453125,1.345245361328125,-0.2364501953125,0.3477507829666138,0.1437590271234512,0.2231910079717636,32.90982055664062,97.20664978027344,-4.71392822265625
292128,0.027435302734375,1.435409545898438,-0.153656005859375,0.3299653828144073,0.1653599292039871,0.1494496762752533,33.06802368164062,97.32778930664062,-5.017852783203125
292129,0.027435302734375,1.435409545898438,-0.153656005859375,0.3299653828144073,0.1653599292039871,0.1494496762752533,33.06802368164062,97.32778930664062,-5.017852783203125
292130,-0.0420684814453125,1.592727661132812,0.036468505859375,0.3008213639259338,0.1139774322509766,-0.0866898894309997,33.13768005371094,97.50344848632812,-5.473373413085938
292131,-0.08685302734375,1.601287841796875,0.104339599609375,0.3502570688724518,0.0973976626992225,-0.2244482785463333,33.21340942382812,97.52157592773438,-5.67047119140625
292132,-0.1400909423828125,1.5848388671875,0.1485748291015625,0.4656121730804443,0.1237267330288887,-0.3439110219478607,33.24655151367188,97.57331848144533,-5.767715454101562
292133,-0.1400909423828125,1.5848388671875,0.1485748291015625,0.4656121730804443,0.1237267330288887,-0.3439110219478607,33.24655151367188,97.57331848144533,-5.767715454101562
292134,-0.2240142822265625,1.381683349609375,0.0774078369140625,0.7266685366630554,0.1352840512990952,-0.4509972631931305,32.99496459960938,97.69230651855467,-6.232589721679688
292135,-0.245849609375,1.263824462890625,0.02203369140625,0.8076757788658142,-0.0254973694682121,-0.4431513249874115,32.8511962890625,97.68653869628906,-6.68499755859375
292136,-0.245849609375,1.263824462890625,0.02203369140625,0.8076757788658142,-0.0254973694682121,-0.4431513249874115,32.8511962890625,97.68653869628906,-6.68499755859375
292137,-0.24951171875,1.155242919921875,0.0142364501953125,0.757783830165863,-0.3229005634784698,-0.3359985053539276,32.69004821777344,97.69734191894533,-7.080093383789062
292138,-0.26336669921875,0.9992218017578124,0.0423126220703125,0.6767885684967041,-0.3588585555553436,-0.2637309730052948,32.57505798339844,97.54837036132812,-7.430404663085938
292139,-0.2680206298828125,0.94403076171875,0.021484375,0.6312943696975708,-0.4011815190315247,-0.2062615603208542,32.53715515136719,97.51815795898438,-7.551376342773438
292140,-0.2686309814453125,0.8858184814453125,-0.002105712890625,0.6503577828407288,-0.4267310798168182,-0.1694047451019287,32.49208068847656,97.44352722167967,-7.868850708007812
292141,-0.2686309814453125,0.8858184814453125,-0.002105712890625,0.6503577828407288,-0.4267310798168182,-0.1694047451019287,32.49208068847656,97.44352722167967,-7.868850708007812
292142,-0.26068115234375,0.8231964111328125,-0.0302886962890625,0.7120605707168579,-0.4400186538696289,-0.1586485058069229,32.469482421875,97.45280456542967,-8.321212768554688
292143,-0.2273101806640625,0.7074127197265625,-0.056182861328125,0.8210480213165283,-0.3525375425815582,-0.1431848555803299,32.50015258789062,97.25343322753906,-8.905166625976562
292144,-0.2273101806640625,0.7074127197265625,-0.056182861328125,0.8210480213165283,-0.3525375425815582,-0.1431848555803299,32.50015258789062,97.25343322753906,-8.905166625976562
292145,-0.2036895751953125,0.646209716796875,-0.0541534423828125,0.7976702451705933,-0.2307884693145752,-0.1185500845313072,32.43943786621094,97.171142578125,-9.042770385742188
292146,-0.1369171142578125,0.5865936279296875,-0.0032958984375,0.5549145936965942,0.0178636852651834,0.0160261038690805,32.43034362792969,97.19839477539062,-9.793975830078123
292147,-0.0998687744140625,0.58624267578125,0.056610107421875,0.3252941966056824,0.0808224081993103,0.0975976660847663,32.39443969726562,97.25228881835938,-10.09516906738281
292148,-0.0998687744140625,0.58624267578125,0.056610107421875,0.3252941966056824,0.0808224081993103,0.0975976660847663,32.39443969726562,97.25228881835938,-10.09516906738281
292149,-0.055694580078125,0.5886383056640625,0.11505126953125,0.0289634745568037,0.0945443511009216,0.1623747944831848,32.47929382324219,97.26724243164062,-10.35746765136719
292150,-0.00762939453125,0.6275177001953125,0.2435760498046875,-0.5114222764968872,0.0906366929411888,0.2494977116584778,32.56126403808594,97.45594787597656,-10.57635498046875
292151,0.0022735595703125,0.658416748046875,0.2944793701171875,-0.6508145332336426,0.1429004222154617,0.2510758936405182,32.73403930664062,97.4114990234375,-10.27273559570312
292152,0.0022735595703125,0.658416748046875,0.2944793701171875,-0.6508145332336426,0.1429004222154617,0.2510758936405182,32.73403930664062,97.4114990234375,-10.27273559570312
292153,-0.01361083984375,0.7249908447265625,0.3349151611328125,-0.7119519114494324,0.1933178007602692,0.218756839632988,32.88442993164062,97.46461486816406,-10.02845764160156
292154,-0.0995941162109375,0.916259765625,0.36090087890625,-0.7780358195304871,0.1342022716999054,0.1364095062017441,33.12405395507812,97.39826965332033,-9.361053466796877
292155,-0.1157684326171875,0.9498291015625,0.3453521728515625,-0.8314633965492249,-0.0133155388757586,0.1151638701558113,33.20448303222656,97.34217834472656,-9.09161376953125
292156,-0.1157684326171875,0.9498291015625,0.3453521728515625,-0.8314633965492249,-0.0133155388757586,0.1151638701558113,33.20448303222656,97.34217834472656,-9.09161376953125
292157,-0.106689453125,0.9705657958984376,0.335906982421875,-0.8859665989875793,-0.2034130394458771,0.0928143560886383,33.22015380859375,97.36737060546876,-8.8001708984375
292158,-0.0847320556640625,1.046310424804688,0.3431549072265625,-1.008167624473572,-0.5187880396842957,-0.0208448283374309,33.22425842285156,97.42678833007812,-8.013076782226562
292159,-0.0963592529296875,1.1016845703125,0.334930419921875,-1.065381050109863,-0.5917655825614929,-0.114412859082222,33.298095703125,97.38078308105467,-7.431961059570312
292160,-0.11419677734375,1.148300170898438,0.298370361328125,-1.105143904685974,-0.6424157023429871,-0.3108191192150116,33.27720642089844,97.2207489013672,-6.868637084960938
292161,-0.11419677734375,1.148300170898438,0.298370361328125,-1.105143904685974,-0.6424157023429871,-0.3108191192150116,33.27720642089844,97.2207489013672,-6.868637084960938
292162,-0.1315155029296875,1.144134521484375,0.1559295654296875,-1.021028757095337,-0.6169446706771851,-0.3732883632183075,33.19281005859375,96.97227478027344,-5.702651977539062
292163,-0.1280975341796875,1.11083984375,0.0887908935546875,-0.8766574859619141,-0.5396254062652588,-0.4003146588802338,33.05610656738281,96.96002197265624,-5.022918701171875
292164,-0.1280975341796875,1.11083984375,0.0887908935546875,-0.8766574859619141,-0.5396254062652588,-0.4003146588802338,33.05610656738281,96.96002197265624,-5.022918701171875
292165,-0.127899169921875,1.082748413085938,0.0316925048828125,-0.7224642038345337,-0.4076718986034393,-0.3976312577724457,32.79339599609375,96.8079833984375,-4.39617919921875
292166,-0.14544677734375,1.051544189453125,-0.0627593994140625,-0.4718980193138123,-0.1426865756511688,-0.3871863484382629,32.37599182128906,96.6097412109375,-3.716888427734375
292167,-0.15777587890625,1.039077758789062,-0.1284942626953125,-0.3881884813308716,-0.0827699825167655,-0.3690414130687714,32.13945007324219,96.6129913330078,-3.381484985351562
292168,-0.15777587890625,1.039077758789062,-0.1284942626953125,-0.3881884813308716,-0.0827699825167655,-0.3690414130687714,32.13945007324219,96.6129913330078,-3.381484985351562
292169,-0.179962158203125,1.0543212890625,-0.1850128173828125,-0.3354842662811279,-0.0516647920012474,-0.3622210621833801,32.03904724121094,96.3711395263672,-3.026535034179688
292170,-0.1821136474609375,1.053955078125,-0.2650146484375,-0.2699803411960602,-0.007809187285602,-0.2880064845085144,31.56344604492188,96.41862487792967,-2.731185913085938
292171,-0.161041259765625,1.049087524414062,-0.2902374267578125,-0.2354423403739929,0.0481566116213798,-0.2265231609344482,31.30863952636719,96.3575439453125,-2.586700439453125
292172,-0.161041259765625,1.049087524414062,-0.2902374267578125,-0.2354423403739929,0.0481566116213798,-0.2265231609344482,31.30863952636719,96.3575439453125,-2.586700439453125
292173,-0.071990966796875,1.01080322265625,-0.345458984375,-0.1124367937445641,0.1632264703512192,-0.0560587421059608,31.06098937988281,96.17539978027344,-2.15277099609375
292174,-0.0223846435546875,0.9867706298828124,-0.3688507080078125,0.1086875945329666,0.2723308503627777,0.1358784735202789,30.93106079101562,96.20225524902344,-2.16259765625
292175,0.0198974609375,0.9664459228515624,-0.3980560302734375,0.2200471460819244,0.3330932855606079,0.2309101819992065,30.91305541992188,96.2709503173828,-2.144058227539062
292176,0.0198974609375,0.9664459228515624,-0.3980560302734375,0.2200471460819244,0.3330932855606079,0.2309101819992065,30.91305541992188,96.2709503173828,-2.144058227539062
292177,0.0575408935546875,0.965728759765625,-0.4180145263671875,0.2200471460819244,0.3330932855606079,0.2309101819992065,30.88577270507812,96.24607849121094,-2.012969970703125
292178,0.07122802734375,1.0009765625,-0.391510009765625,0.3584779798984528,0.4760882556438446,0.3190251290798187,30.97712707519531,96.28749084472656,-2.277420043945312
292179,0.02783203125,1.038177490234375,-0.3456268310546875,0.376981109380722,0.5624473690986633,0.3027225732803345,31.12281799316406,96.36593627929688,-2.421066284179688
292180,-0.013092041015625,1.08056640625,-0.3024139404296875,0.3939044177532196,0.6392292380332947,0.2637200653553009,31.177001953125,96.42510986328124,-2.765945434570312
292181,-0.0655364990234375,1.117340087890625,-0.2693023681640625,0.4079259634017944,0.709143877029419,0.2100922465324402,31.25309753417969,96.543701171875,-3.075790405273438
292182,-0.1236419677734375,1.141448974609375,-0.239013671875,0.4021450579166412,0.7456230521202087,0.1534614562988281,31.352294921875,96.65614318847656,-3.439010620117188
292183,-0.1727142333984375,1.167648315429688,-0.1920166015625,0.3552672863006592,0.7590935826301575,0.1064332351088524,31.40658569335938,96.7644500732422,-3.712020874023438
292184,-0.1727142333984375,1.167648315429688,-0.1920166015625,0.3552672863006592,0.7590935826301575,0.1064332351088524,31.40658569335938,96.7644500732422,-3.712020874023438
292185,-0.20654296875,1.191986083984375,-0.12982177734375,0.137235090136528,0.703546941280365,0.0615214183926582,31.3446044921875,96.9385986328125,-4.091659545898438
292186,-0.2002105712890625,1.209716796875,-0.0111083984375,0.0151821486651897,0.6335359215736389,0.0856174305081367,31.31782531738281,97.02171325683594,-4.727706909179688
292187,-0.165557861328125,1.18243408203125,0.0481719970703125,-0.0688898488879203,0.5463288426399231,0.1445641070604324,31.36077880859375,97.0563507080078,-5.01812744140625
292188,-0.165557861328125,1.18243408203125,0.0481719970703125,-0.0688898488879203,0.5463288426399231,0.1445641070604324,31.36077880859375,97.0563507080078,-5.01812744140625
292189,-0.0799713134765625,1.063995361328125,0.097015380859375,-0.0786506012082099,0.3388457000255585,0.3388925790786743,31.50424194335938,96.95549011230467,-5.381637573242188
292190,-0.035980224609375,1.00030517578125,0.1078948974609375,-0.052854161709547,0.1948384642601013,0.4383275508880615,31.52061462402344,96.98274230957033,-5.347976684570312
292191,-0.001800537109375,0.9450225830078124,0.124542236328125,-0.0205151289701461,0.0420270785689353,0.5459823608398438,31.61637878417969,97.03125,-5.370086669921875
292192,-0.001800537109375,0.9450225830078124,0.124542236328125,-0.0205151289701461,0.0420270785689353,0.5459823608398438,31.61637878417969,97.03125,-5.370086669921875
292193,0.018768310546875,0.903045654296875,0.135986328125,-0.0205151289701461,0.0420270785689353,0.5459823608398438,31.80374145507812,96.99996948242188,-5.42559814453125
292194,0.06298828125,0.850250244140625,0.13232421875,-0.0213881134986877,0.0544014573097229,0.490626186132431,32.36219787597656,97.0299072265625,-5.466842651367188
292195,0.0865325927734375,0.8467864990234375,0.119781494140625,-0.0445048846304416,0.0650045648217201,0.4319522082805634,32.5596923828125,97.0474090576172,-5.429718017578125
292196,0.0865325927734375,0.8467864990234375,0.119781494140625,-0.0445048846304416,0.0650045648217201,0.4319522082805634,32.5596923828125,97.0474090576172,-5.429718017578125
292197,0.1033172607421875,0.8809051513671875,0.110595703125,-0.093101717531681,0.1025628596544266,0.2923748791217804,32.89801025390625,97.0549774169922,-5.425918579101562
292198,0.110015869140625,0.95001220703125,0.0891876220703125,-0.0775302127003669,0.1185506135225296,0.2634971439838409,33.23393249511719,97.091552734375,-5.269256591796875
292199,0.1172943115234375,0.96063232421875,0.061309814453125,-0.0034109766129404,0.0978000611066818,0.2414877265691757,33.29637145996094,97.11326599121094,-5.32196044921875
292200,0.1172943115234375,0.96063232421875,0.061309814453125,-0.0034109766129404,0.0978000611066818,0.2414877265691757,33.29637145996094,97.11326599121094,-5.32196044921875
292201,0.0761871337890625,0.9585723876953124,0.0831451416015625,0.1579795181751251,0.1392202079296112,0.0352077893912792,33.62127685546875,97.20330810546876,-5.391693115234375
292202,-0.010498046875,0.96038818359375,0.0854949951171875,0.1579795181751251,0.1392202079296112,0.0352077893912792,33.76312255859375,97.15435791015624,-5.387069702148438
292203,-0.1087493896484375,0.953216552734375,0.0952606201171875,0.1522427946329117,0.1347780525684357,-0.0598811767995357,33.84870910644531,97.05029296875,-5.33648681640625
292204,-0.1087493896484375,0.953216552734375,0.0952606201171875,0.1522427946329117,0.1347780525684357,-0.0598811767995357,33.84870910644531,97.05029296875,-5.33648681640625
292205,-0.1860504150390625,0.93975830078125,0.1106414794921875,0.1476504504680634,0.1285957992076874,-0.1580671370029449,33.92068481445312,97.12063598632812,-5.4141845703125
292206,-0.3042755126953125,0.920013427734375,0.1380157470703125,0.1331396847963333,0.180606797337532,-0.3183843791484833,33.86331176757812,97.16734313964844,-5.507110595703125
292207,-0.3374481201171875,0.9096221923828124,0.158172607421875,0.0952881723642349,0.2085806429386139,-0.3533295691013336,33.75244140625,97.1982879638672,-5.57769775390625
292208,-0.3374481201171875,0.9096221923828124,0.158172607421875,0.0952881723642349,0.2085806429386139,-0.3533295691013336,33.75244140625,97.1982879638672,-5.57769775390625
292209,-0.3478546142578125,0.8990478515625,0.18133544921875,-0.0397271737456321,0.153004989027977,-0.3540683388710022,33.68147277832031,97.1535186767578,-5.735824584960938
292210,-0.346435546875,0.8788909912109375,0.2166290283203125,-0.088614821434021,0.0862890854477882,-0.3554835319519043,33.30461120605469,97.17486572265624,-5.938690185546875
292211,-0.354766845703125,0.8650665283203125,0.2129669189453125,-0.0990514829754829,0.0102683501318097,-0.3592332601547241,33.20475769042969,97.13314819335938,-5.91131591796875
292212,-0.354766845703125,0.8650665283203125,0.2129669189453125,-0.0990514829754829,0.0102683501318097,-0.3592332601547241,33.20475769042969,97.13314819335938,-5.91131591796875
292213,-0.35821533203125,0.8428192138671875,0.1837615966796875,-0.0771999806165695,-0.1314570903778076,-0.3774074614048004,33.09605407714844,97.04786682128906,-5.893600463867188
292214,-0.3395233154296875,0.791473388671875,0.0937652587890625,-0.1050851419568062,-0.1879155784845352,-0.3899043500423431,32.79542541503906,96.7732391357422,-5.814102172851562
292215,-0.319366455078125,0.7634124755859375,0.050079345703125,-0.1696590781211853,-0.2191773504018784,-0.4038489460945129,32.59767150878906,96.79484558105467,-5.628921508789062
292216,-0.319366455078125,0.7634124755859375,0.050079345703125,-0.1696590781211853,-0.2191773504018784,-0.4038489460945129,32.59767150878906,96.79484558105467,-5.628921508789062
292217,-0.2602081298828125,0.740966796875,0.016326904296875,-0.3841737806797028,-0.2300052344799042,-0.4017980396747589,32.26019287109375,96.81454467773438,-5.466171264648438
292218,-0.2337799072265625,0.7607421875,0.02880859375,-0.5401023626327515,-0.2213385105133057,-0.3950900733470917,32.08401489257812,96.82421875,-5.3673095703125
292219,-0.2225494384765625,0.8092193603515625,0.0488433837890625,-0.7289849519729614,-0.2101748138666153,-0.3790069818496704,31.72364807128906,96.7891845703125,-5.011917114257812
292220,-0.2324981689453125,0.906890869140625,0.064666748046875,-0.9053652882575988,-0.1951561719179153,-0.345606654882431,31.57359313964844,96.83407592773438,-4.85821533203125
292221,-0.2324981689453125,0.906890869140625,0.064666748046875,-0.9053652882575988,-0.1951561719179153,-0.345606654882431,31.57359313964844,96.83407592773438,-4.85821533203125
292222,-0.2069091796875,1.090835571289062,0.0061492919921875,-1.154544830322266,-0.330852746963501,-0.2706296145915985,31.15447998046875,96.55426025390624,-4.108627319335938
292223,-0.1471099853515625,1.187850952148438,0.0029296875,-1.100306868553162,-0.2790960967540741,-0.1330877393484116,30.98847961425781,96.44294738769533,-3.550033569335938
292224,-0.127197265625,1.260513305664062,-0.0516357421875,-0.9591140151023864,-0.2211928367614746,-0.0640165358781814,30.82188415527344,96.28179931640624,-2.858352661132812
292225,-0.127197265625,1.260513305664062,-0.0516357421875,-0.9591140151023864,-0.2211928367614746,-0.0640165358781814,30.82188415527344,96.28179931640624,-2.858352661132812
292226,-0.07879638671875,1.221908569335938,-0.0190277099609375,-0.6950845122337341,-0.3449352979660034,-0.0224813409149646,30.54621887207031,96.25270080566406,-1.886276245117188
292227,-0.0587158203125,1.17083740234375,-0.0314788818359375,-0.5653656721115112,-0.3806938230991364,-0.0099823269993066,30.49201965332031,96.16764831542967,-1.437820434570312
292228,-0.026458740234375,1.098617553710938,-0.0672607421875,-0.3828123509883881,-0.4608770608901978,-0.0132798524573445,30.52375793457031,96.09786987304688,-1.043411254882812
292229,-0.026458740234375,1.098617553710938,-0.0672607421875,-0.3828123509883881,-0.4608770608901978,-0.0132798524573445,30.52375793457031,96.09786987304688,-1.043411254882812
292230,0.017791748046875,0.939971923828125,-0.190338134765625,-0.0636415630578994,-0.5236080884933472,-0.0018530274974182,30.36671447753906,96.09919738769533,-0.470306396484375
292231,0.0543060302734375,0.90203857421875,-0.2951507568359375,0.0243072044104337,-0.5922811627388,0.0234837550669908,30.44682312011719,96.09451293945312,-0.0618896484375
292232,0.1033782958984375,0.8891143798828125,-0.3602294921875,0.0855926647782325,-0.645481526851654,0.0375388525426387,30.448974609375,96.03865051269533,0.0057525634765625
292233,0.1406097412109375,0.8876495361328125,-0.3916473388671875,0.1852207183837891,-0.6355612874031067,0.0691859945654869,30.59658813476562,95.92434692382812,0.1121826171875
292234,0.1700286865234375,0.901397705078125,-0.398162841796875,0.3182096779346466,-0.6318365335464478,0.1924605220556259,30.69656372070312,96.0430908203125,0.2039031982421875
292235,0.178436279296875,0.9446258544921876,-0.3717803955078125,0.3182096779346466,-0.6318365335464478,0.1924605220556259,30.84335327148438,95.9614715576172,0.2705078125
292236,0.178436279296875,0.9446258544921876,-0.3717803955078125,0.3182096779346466,-0.6318365335464478,0.1924605220556259,30.84335327148438,95.9614715576172,0.2705078125
292237,0.1719207763671875,0.9730377197265624,-0.342010498046875,0.3334855437278748,-0.5287602543830872,0.2288337200880051,31.07756042480469,95.9023895263672,0.6201171875
292238,0.161834716796875,1.04364013671875,-0.24224853515625,0.3755664229393005,-0.4365168809890747,0.2407654672861099,31.49330139160156,95.73834228515624,0.561309814453125
292239,0.142730712890625,1.093307495117188,-0.1750640869140625,0.4231211543083191,-0.3277128934860229,0.2350497990846634,31.67979431152344,95.78994750976562,0.483734130859375
292240,0.142730712890625,1.093307495117188,-0.1750640869140625,0.4231211543083191,-0.3277128934860229,0.2350497990846634,31.67979431152344,95.78994750976562,0.483734130859375
292241,0.0608062744140625,1.224777221679688,-0.0189971923828125,0.3690914809703827,-0.2335762679576874,0.1681740880012512,32.02799987792969,96.01350402832033,-0.0624847412109375
292242,0.012542724609375,1.297958374023438,0.1137237548828125,0.2070115059614182,-0.2421947866678238,0.0792996138334274,32.185791015625,96.07289123535156,-0.3603515625
292243,-0.063751220703125,1.381576538085938,0.26727294921875,-0.0127924941480159,-0.2327850461006165,0.0013677994720637,32.35043334960938,96.24630737304688,-0.523773193359375
292244,-0.063751220703125,1.381576538085938,0.26727294921875,-0.0127924941480159,-0.2327850461006165,0.0013677994720637,32.35043334960938,96.24630737304688,-0.523773193359375
292245,-0.13909912109375,1.4876708984375,0.3977203369140625,-0.1481998562812805,-0.1701989024877548,-0.1139622554183006,32.51113891601562,96.24324035644533,-0.6463623046875
292246,-0.1851654052734375,1.659317016601562,0.48828125,0.0815827399492263,0.0188368037343025,-0.2307280153036118,32.67436218261719,96.22129821777344,-0.50299072265625
292247,-0.19976806640625,1.675537109375,0.4649810791015625,0.3283784091472626,0.0773033127188682,-0.22913758456707,32.68424987792969,96.15217590332033,-0.381195068359375
292248,-0.19976806640625,1.675537109375,0.4649810791015625,0.3283784091472626,0.0773033127188682,-0.22913758456707,32.68424987792969,96.15217590332033,-0.381195068359375
292249,-0.2205657958984375,1.335189819335938,0.227996826171875,0.7589332461357117,0.2266488522291183,-0.2021427154541016,32.62968444824219,96.0758819580078,-0.7970123291015625
292250,-0.2236328125,1.18707275390625,0.116455078125,0.9432224035263062,0.1628435105085373,-0.119586318731308,32.57662963867188,96.09246826171876,-1.051116943359375
292251,-0.234405517578125,1.031463623046875,0.03857421875,1.068517446517944,0.0376259386539459,-0.084573209285736,32.57810974121094,96.1690673828125,-1.314208984375
292252,-0.2315826416015625,0.873199462890625,-0.0001373291015625,1.091765761375427,-0.1204997822642326,-0.0502993911504745,32.5205078125,96.21142578125,-1.6883544921875
292253,-0.2315826416015625,0.873199462890625,-0.0001373291015625,1.091765761375427,-0.1204997822642326,-0.0502993911504745,32.5205078125,96.21142578125,-1.6883544921875
292254,-0.21124267578125,0.7156982421875,-0.0196380615234375,0.8625850677490234,-0.2143863290548325,0.0147043773904442,32.56019592285156,96.32868957519533,-2.605010986328125
292255,-0.2021331787109375,0.68377685546875,-0.052703857421875,0.7252615690231323,-0.2107148915529251,0.0112422676756978,32.68577575683594,96.47134399414062,-3.107025146484375
292256,-0.1939849853515625,0.6897735595703125,-0.0782928466796875,0.6148770451545715,-0.1806882917881012,-0.0352195054292678,32.72993469238281,96.50299072265624,-3.38763427734375
292257,-0.1939849853515625,0.6897735595703125,-0.0782928466796875,0.6148770451545715,-0.1806882917881012,-0.0352195054292678,32.72993469238281,96.50299072265624,-3.38763427734375
292258,-0.1771392822265625,0.7229766845703125,-0.107147216796875,0.5696477293968201,-0.1736101359128952,-0.0547252967953681,32.91218566894531,96.70584106445312,-4.0224609375
292259,-0.15625,0.7406005859375,-0.08038330078125,0.4980297684669495,-0.1466970294713974,-0.0491936467587947,32.85726928710938,96.76319885253906,-4.118072509765625
292260,-0.15625,0.7406005859375,-0.08038330078125,0.4980297684669495,-0.1466970294713974,-0.0491936467587947,32.85726928710938,96.76319885253906,-4.118072509765625
292261,-0.1148834228515625,0.7528839111328125,-0.0164031982421875,0.3796916604042053,-0.1120003014802933,-0.0022407837677747,32.89260864257812,96.82833862304688,-4.405853271484375
292262,-0.039764404296875,0.7758941650390625,0.168609619140625,0.0614796057343483,-0.0261200182139873,0.1487857550382614,32.97738647460938,96.7699737548828,-4.772430419921875
292263,-0.0207672119140625,0.7734375,0.24755859375,-0.0755272507667541,0.0281104631721973,0.2218860536813736,33.01603698730469,96.79078674316406,-4.845321655273438
292264,-0.0207672119140625,0.7734375,0.24755859375,-0.0755272507667541,0.0281104631721973,0.2218860536813736,33.01603698730469,96.79078674316406,-4.845321655273438
292265,-0.0085906982421875,0.7659912109375,0.305328369140625,-0.184996485710144,0.0924646854400634,0.2745596468448639,33.04795837402344,96.7808837890625,-4.930313110351562
292266,-0.024139404296875,0.7645416259765625,0.3593902587890625,-0.3462341129779816,0.2415841221809387,0.3074662089347839,33.20156860351562,96.91795349121094,-4.89886474609375
292267,-0.0735321044921875,0.78912353515625,0.3600311279296875,-0.3805081844329834,0.271860271692276,0.2952734529972076,33.40306091308594,96.9192352294922,-4.75189208984375
292268,-0.0735321044921875,0.78912353515625,0.3600311279296875,-0.3805081844329834,0.271860271692276,0.2952734529972076,33.40306091308594,96.9192352294922,-4.75189208984375
292269,-0.1150360107421875,0.8879547119140625,0.3462982177734375,-0.3799867331981659,0.1882822960615158,0.2511757612228394,33.5289306640625,96.95303344726562,-4.700241088867188
292270,-0.0894622802734375,0.9779205322265624,0.355682373046875,-0.3539500832557678,-0.1683072447776794,0.14493028819561,33.69035339355469,96.9339599609375,-4.37066650390625
292271,-0.0455169677734375,0.9794921875,0.356353759765625,-0.3753530979156494,-0.2741106450557709,0.0983241721987724,33.74191284179688,96.91360473632812,-4.201416015625
292272,-0.0455169677734375,0.9794921875,0.356353759765625,-0.3753530979156494,-0.2741106450557709,0.0983241721987724,33.74191284179688,96.91360473632812,-4.201416015625
292273,-0.00836181640625,0.98114013671875,0.348724365234375,-0.44878950715065,-0.4194457232952118,-0.0032722260802984,33.79067993164062,96.92927551269533,-4.031753540039062
292274,0.0323486328125,0.9576416015625,0.3037872314453125,-0.4979466795921326,-0.4398263692855835,-0.0628287643194198,33.80906677246094,97.00088500976562,-3.7265625
292275,0.01702880859375,0.9425048828125,0.2722930908203125,-0.5405364632606506,-0.4106826186180115,-0.1223959550261497,33.83558654785156,97.0449676513672,-3.510955810546875
292276,0.01702880859375,0.9425048828125,0.2722930908203125,-0.5405364632606506,-0.4106826186180115,-0.1223959550261497,33.83558654785156,97.0449676513672,-3.510955810546875
292277,-0.1029815673828125,0.9122161865234376,0.19085693359375,-0.6718204617500305,-0.2950252592563629,-0.3071189224720001,33.7799072265625,96.90072631835938,-2.830459594726562
292278,-0.18109130859375,0.9401702880859376,0.1427001953125,-0.7416277527809143,-0.2714442908763885,-0.380841076374054,33.61759948730469,96.82540893554688,-2.494064331054688
292279,-0.20928955078125,0.9279632568359376,0.1083831787109375,-0.788714587688446,-0.2984862923622131,-0.4576325416564941,33.55062866210938,96.85977172851562,-2.285629272460938
292280,-0.2217864990234375,0.9224090576171876,0.1034088134765625,-0.8241700530052185,-0.3054720461368561,-0.4889020323753357,33.24208068847656,96.93594360351562,-1.97869873046875
292281,-0.2217864990234375,0.9224090576171876,0.1034088134765625,-0.8241700530052185,-0.3054720461368561,-0.4889020323753357,33.24208068847656,96.93594360351562,-1.97869873046875
292282,-0.208465576171875,1.032623291015625,-0.0086212158203125,-0.6940085887908936,-0.027598338201642,-0.459255188703537,32.9600830078125,96.55474853515624,-1.232467651367188
292283,-0.188507080078125,1.109695434570312,-0.110626220703125,-0.4893324077129364,0.1230670735239983,-0.3927235901355743,32.64755249023438,96.42596435546876,-0.633880615234375
292284,-0.188507080078125,1.109695434570312,-0.110626220703125,-0.4893324077129364,0.1230670735239983,-0.3927235901355743,32.64755249023438,96.42596435546876,-0.633880615234375
292285,-0.167633056640625,1.139968872070312,-0.1721954345703125,-0.3026916980743408,0.1841930150985718,-0.337315708398819,32.43379211425781,96.20417785644533,-0.3804931640625
292286,-0.13446044921875,1.134429931640625,-0.168975830078125,-0.1969194561243057,0.2024031728506088,-0.2493472397327423,32.17198181152344,96.1370086669922,0.04827880859375
292287,-0.04840087890625,1.091049194335938,-0.1761322021484375,-0.1532769054174423,0.1971418261528015,-0.1980323940515518,31.66261291503906,96.05044555664062,0.2244873046875
292288,-0.04840087890625,1.091049194335938,-0.1761322021484375,-0.1532769054174423,0.1971418261528015,-0.1980323940515518,31.66261291503906,96.05044555664062,0.2244873046875
292289,-0.0034942626953125,1.0450439453125,-0.2130889892578125,0.0583187006413936,0.1821495592594147,-0.0880283936858177,31.35693359375,95.96188354492188,0.4305267333984375
292290,0.0594482421875,0.9748992919921876,-0.30389404296875,0.1405922621488571,0.1743369102478027,-0.0004183826094958,30.99925231933594,95.85231018066406,0.5499420166015625
292291,0.0653839111328125,0.9889373779296876,-0.3488616943359375,0.1702218055725098,0.2009387016296387,0.1058907434344292,30.95796203613281,95.87200927734376,0.4318695068359375
292292,0.0653839111328125,0.9889373779296876,-0.3488616943359375,0.1702218055725098,0.2009387016296387,0.1058907434344292,30.95796203613281,95.87200927734376,0.4318695068359375
292293,0.039337158203125,1.044143676757812,-0.371795654296875,0.2040753662586212,0.277842253446579,0.1914935261011124,30.84056091308594,96.03358459472656,0.31634521484375
292294,-0.0394744873046875,1.119979858398438,-0.3198699951171875,0.3766740262508392,0.5213193893432617,0.273914635181427,30.99137878417969,95.88345336914062,0.0441741943359375
292295,-0.08050537109375,1.16583251953125,-0.2792510986328125,0.4294970333576202,0.6037729978561401,0.2682711482048035,31.05194091796875,96.02378845214844,-0.122314453125
292296,-0.1281890869140625,1.194534301757812,-0.2350006103515625,0.4177615642547607,0.6709136366844177,0.2130033522844315,31.11550903320312,96.17022705078124,-0.4468536376953125
292297,-0.1623687744140625,1.208526611328125,-0.175262451171875,0.4177615642547607,0.6709136366844177,0.2130033522844315,31.09024047851562,96.313232421875,-0.7760772705078125
292298,-0.200439453125,1.23272705078125,-0.1035614013671875,0.3951689004898071,0.691503643989563,0.1860692054033279,31.20121765136719,96.4056396484375,-1.150802612304688
292299,-0.2337188720703125,1.249130249023438,-0.0272369384765625,0.3489755690097809,0.7162348031997681,0.1575376987457275,31.24794006347656,96.52742004394533,-1.374099731445312
292300,-0.2337188720703125,1.249130249023438,-0.0272369384765625,0.3489755690097809,0.7162348031997681,0.1575376987457275,31.24794006347656,96.52742004394533,-1.374099731445312
292301,-0.2412261962890625,1.258193969726562,0.0291748046875,0.2885652184486389,0.739845871925354,0.1358622312545776,31.27972412109375,96.55397033691406,-1.742401123046875
292302,-0.1547698974609375,1.237442016601562,0.0565948486328125,0.2557140588760376,0.6647737622261047,0.1653458178043365,31.32138061523438,96.58349609375,-2.458343505859375
292303,-0.0912933349609375,1.1866455078125,0.0611724853515625,0.3048142194747925,0.3850821852684021,0.3444141149520874,31.25814819335938,96.70359802246094,-2.751068115234375
292304,-0.0912933349609375,1.1866455078125,0.0611724853515625,0.3048142194747925,0.3850821852684021,0.3444141149520874,31.25814819335938,96.70359802246094,-2.751068115234375
292305,-0.0242919921875,1.109909057617188,0.066650390625,0.3048142194747925,0.3850821852684021,0.3444141149520874,31.36996459960938,96.7696533203125,-3.088546752929688
292306,0.0333404541015625,1.013153076171875,0.1402130126953125,0.2957235276699066,0.0383955910801887,0.5648514032363892,31.7247314453125,96.77076721191406,-3.54547119140625
292307,0.0454559326171875,0.9514007568359376,0.1806640625,0.2546751499176025,-0.0282412245869636,0.607155978679657,31.96713256835938,96.81056213378906,-3.6558837890625
292308,0.0454559326171875,0.9514007568359376,0.1806640625,0.2546751499176025,-0.0282412245869636,0.607155978679657,31.96713256835938,96.81056213378906,-3.6558837890625
292309,0.05316162109375,0.897796630859375,0.2261199951171875,0.1959854811429977,-0.0453997068107128,0.5997244119644165,32.29168701171875,96.83383178710938,-3.766571044921875
292310,0.0556488037109375,0.8656005859375,0.2415618896484375,0.1014358103275299,-0.0186170935630798,0.5023611187934875,32.90594482421875,96.96009826660156,-3.842056274414062
292311,0.0439453125,0.8899383544921875,0.235748291015625,0.0994813144207,-0.008967662230134,0.4359251260757446,33.16290283203125,96.99845886230467,-3.782882690429688
292312,0.0439453125,0.8899383544921875,0.235748291015625,0.0994813144207,-0.008967662230134,0.4359251260757446,33.16290283203125,96.99845886230467,-3.782882690429688
292313,0.0177459716796875,0.9413909912109376,0.2142486572265625,0.0950143933296203,0.0088259819895029,0.3724904656410217,33.36259460449219,96.96067810058594,-3.86932373046875
292314,-0.005645751953125,0.964813232421875,0.1297607421875,0.0721745938062667,0.0211188681423664,0.311458021402359,33.8349609375,97.0336456298828,-3.72198486328125
292315,0.019073486328125,0.9492645263671876,0.1348876953125,0.0924540311098098,0.0451549626886844,0.2892043888568878,34.07266235351562,97.003173828125,-3.7291259765625
292316,0.019073486328125,0.9492645263671876,0.1348876953125,0.0924540311098098,0.0451549626886844,0.2892043888568878,34.07266235351562,97.003173828125,-3.7291259765625
292317,0.0158233642578125,0.96044921875,0.1666259765625,0.1061559990048409,0.1177476719021797,0.2608393132686615,34.197509765625,97.07089233398438,-3.772354125976562
292318,-0.103424072265625,0.9835205078125,0.2183837890625,0.0848267376422882,0.2787954211235046,0.1234612166881561,34.45576477050781,97.08073425292967,-3.889633178710938
292319,-0.1673126220703125,0.975860595703125,0.199798583984375,0.0649795308709144,0.2702005803585052,0.0284734535962343,34.59471130371094,97.16783142089844,-3.960098266601562
292320,-0.2175140380859375,0.94415283203125,0.1531982421875,0.0711783096194267,0.180812656879425,-0.0805755332112312,34.6712646484375,97.11553955078124,-4.009796142578125
292321,-0.2175140380859375,0.94415283203125,0.1531982421875,0.0711783096194267,0.180812656879425,-0.0805755332112312,34.6712646484375,97.11553955078124,-4.009796142578125
292322,-0.3121337890625,0.832061767578125,0.062744140625,0.1733685880899429,0.0396765731275081,-0.2714589238166809,34.64808654785156,97.16700744628906,-4.089706420898438
292323,-0.3201141357421875,0.79461669921875,0.047760009765625,0.2241425514221191,0.0575722157955169,-0.3090648949146271,34.49374389648438,97.11997985839844,-4.213348388671875
292324,-0.3201141357421875,0.79461669921875,0.047760009765625,0.2241425514221191,0.0575722157955169,-0.3090648949146271,34.49374389648438,97.11997985839844,-4.213348388671875
292325,-0.280059814453125,0.75091552734375,0.067596435546875,0.1604429334402084,0.0692123621702194,-0.3414521217346191,34.27700805664062,97.07176208496094,-4.379867553710938
292326,-0.2649078369140625,0.74713134765625,0.0958251953125,0.09272301197052,0.0704312920570373,-0.3649028539657593,34.19587707519531,97.01554870605467,-4.32611083984375
292327,-0.259246826171875,0.734771728515625,0.102935791015625,0.0204837042838335,0.0779022574424743,-0.3822789192199707,34.07115173339844,97.0230712890625,-4.523193359375
292328,-0.259246826171875,0.734771728515625,0.102935791015625,0.0204837042838335,0.0779022574424743,-0.3822789192199707,34.07115173339844,97.0230712890625,-4.523193359375
292329,-0.2905426025390625,0.755218505859375,0.092620849609375,-0.1958699077367783,0.0601373724639415,-0.3851910829544067,33.68978881835938,97.04550170898438,-4.637237548828125
292330,-0.3145599365234375,0.7715301513671875,0.077178955078125,-0.1958699077367783,0.0601373724639415,-0.3851910829544067,33.48365783691406,97.12652587890624,-4.61126708984375
292331,-0.327850341796875,0.7805023193359375,0.0656280517578125,-0.2557774484157562,0.0180562324821949,-0.3824054300785065,33.29766845703125,97.1098175048828,-4.644134521484375
292332,-0.3226776123046875,0.78570556640625,0.0633697509765625,-0.3207745552062988,-0.0393862873315811,-0.3772575259208679,33.10791015625,97.19647216796876,-4.557952880859375
292333,-0.303253173828125,0.7865753173828125,0.068115234375,-0.3890537321567535,-0.0935592427849769,-0.3656038045883179,32.82984924316406,97.05918884277344,-4.498519897460938
292334,-0.2654571533203125,0.7885284423828125,0.0814666748046875,-0.544768750667572,-0.1669003069400787,-0.3291738927364349,32.52880859375,97.00596618652344,-4.237075805664062
292335,-0.22589111328125,0.792327880859375,0.1063232421875,-0.544768750667572,-0.1669003069400787,-0.3291738927364349,32.38240051269531,96.94245910644533,-3.949081420898438
