time_idx,accelerometerAccelerationX(G),accelerometerAccelerationY(G),accelerometerAccelerationZ(G),gyroRotationX(rad/s),gyroRotationY(rad/s),gyroRotationZ(rad/s),magnetometerX(µT),magnetometerY(µT),magnetometerZ(µT)
238192,-0.01373291015625,-0.1394500732421875,0.184051513671875,-0.3948509097099304,-0.1871419250965118,-0.276680052280426,63.44342041015625,94.02618408203124,-38.95735168457031
238193,-0.02728271484375,-0.1402587890625,0.185943603515625,-0.6554729342460632,-0.1794094443321228,-0.3327047228813171,63.56448364257812,94.0395965576172,-38.51962280273438
238194,-0.02728271484375,-0.1402587890625,0.185943603515625,-0.6554729342460632,-0.1794094443321228,-0.3327047228813171,63.56448364257812,94.0395965576172,-38.51962280273438
238195,-0.130889892578125,-0.0772857666015625,0.20562744140625,-1.263076305389404,-0.4990076720714569,-0.520930826663971,63.70317077636719,94.25717163085938,-37.39347839355469
238196,-0.17193603515625,0.131988525390625,0.24713134765625,-1.481782078742981,-0.7205991744995117,-0.655945360660553,63.61784362792969,94.44558715820312,-36.71786499023438
238197,-0.1725006103515625,0.2967987060546875,0.3199005126953125,-1.875724792480469,-0.6273110508918762,-0.987076699733734,63.34049987792969,95.0234832763672,-36.18696594238281
238198,-0.1725006103515625,0.2967987060546875,0.3199005126953125,-1.875724792480469,-0.6273110508918762,-0.987076699733734,63.34049987792969,95.0234832763672,-36.18696594238281
238199,-0.33062744140625,0.7490997314453125,0.911041259765625,-2.209631204605103,-0.024656344205141,-1.256345987319946,61.98890686035156,96.3898468017578,-35.48698425292969
238200,-0.5001678466796875,1.164779663085938,1.127243041992188,-2.5684974193573,0.3398859202861786,-1.475503921508789,61.20455932617188,97.08334350585938,-35.35812377929688
238201,-0.56719970703125,4.15960693359375,1.409683227539062,-2.254032850265503,0.6912317276000977,-1.438402533531189,60.32357788085938,97.62034606933594,-35.02458190917969
238202,-0.56719970703125,4.15960693359375,1.409683227539062,-2.254032850265503,0.6912317276000977,-1.438402533531189,60.32357788085938,97.62034606933594,-35.02458190917969
238203,-0.714599609375,7.441970825195312,0.5574951171875,0.8770803809165955,2.207904815673828,1.449578046798706,59.83247375488281,98.8872528076172,-34.86296081542969
238204,-0.037109375,3.622634887695312,-0.7907867431640625,0.8091604709625244,-0.6943933963775635,0.1209578439593315,60.52638244628906,99.10720825195312,-34.84370422363281
238205,0.2752685546875,1.159423828125,-1.01214599609375,-0.6023881435394287,-4.600101470947266,-0.3955854177474976,61.38465881347656,98.97332763671876,-34.895263671875
238206,0.2752685546875,1.159423828125,-1.01214599609375,-0.6023881435394287,-4.600101470947266,-0.3955854177474976,61.38465881347656,98.97332763671876,-34.895263671875
238207,0.7227020263671875,0.635833740234375,0.1265869140625,-1.939797520637512,-3.485956192016602,-0.5003648400306702,60.63858032226562,98.4044189453125,-34.21696472167969
238208,1.049484252929688,1.661270141601562,-0.8861846923828125,-1.504880905151367,0.0521494857966899,-0.1266127973794937,59.08352661132812,98.6064910888672,-33.84468078613281
238209,0.6390380859375,2.646331787109375,-1.802047729492188,1.994653105735779,-1.377183437347412,-0.2719255089759827,57.96586608886719,98.84953308105467,-33.13226318359375
238210,0.6390380859375,2.646331787109375,-1.802047729492188,1.994653105735779,-1.377183437347412,-0.2719255089759827,57.96586608886719,98.84953308105467,-33.13226318359375
238211,0.0658111572265625,2.20465087890625,-0.23828125,2.491976261138916,-0.8672504425048828,-0.1082630902528763,57.28390502929688,98.814208984375,-32.09880065917969
238212,0.057952880859375,1.824722290039062,-0.5017547607421875,2.217339992523193,-0.8714179992675781,0.0848845317959785,57.09182739257812,98.4935302734375,-32.6318359375
238213,0.1866607666015625,1.444808959960938,-0.361968994140625,1.990397810935974,-0.9922541379928588,0.2318502813577652,56.8824462890625,98.03285217285156,-33.77610778808594
238214,0.2477874755859375,1.138137817382812,-0.1472320556640625,2.057538986206055,-0.971855103969574,0.3548800647258759,56.79733276367188,97.4642333984375,-34.88685607910156
238215,0.2318572998046875,0.8518218994140625,-0.0710601806640625,2.22819447517395,-0.8549162745475769,0.4959934949874878,56.70333862304688,96.94073486328124,-35.95062255859375
238216,0.182220458984375,0.6233367919921875,-0.0703125,2.306662559509277,-0.7748157978057861,0.5897583365440369,56.77838134765625,96.42935180664062,-36.88786315917969
238217,0.120086669921875,0.4173583984375,-0.0599365234375,2.004753828048706,-0.6085706353187561,0.6206390261650085,56.84733581542969,95.75686645507812,-37.93736267089844
238218,0.0365753173828125,0.2483367919921875,-0.017730712890625,2.004753828048706,-0.6085706353187561,0.6206390261650085,56.86909484863281,95.1581573486328,-39.04385375976562
238219,-0.0529937744140625,0.1378936767578125,0.0459136962890625,1.68673300743103,-0.3721570372581482,0.5422509908676147,57.04449462890625,94.61073303222656,-40.0904541015625
238220,-0.0529937744140625,0.1378936767578125,0.0459136962890625,1.68673300743103,-0.3721570372581482,0.5422509908676147,57.04449462890625,94.61073303222656,-40.0904541015625
238221,-0.2403717041015625,-0.0863800048828125,0.1269989013671875,0.8133725523948669,0.4256215989589691,0.0657534450292587,57.31076049804688,93.27195739746094,-42.36126708984375
238222,-0.2403717041015625,-0.0863800048828125,0.1269989013671875,0.8133725523948669,0.4256215989589691,0.0657534450292587,57.31076049804688,93.27195739746094,-42.36126708984375
238223,-0.263397216796875,-0.1228790283203125,0.110687255859375,0.6423286199569702,0.4741731584072113,-0.062458049505949,57.44483947753906,92.83998107910156,-42.7508544921875
238224,-0.269622802734375,-0.1578216552734375,0.110504150390625,0.5531151294708252,0.513752818107605,-0.13017238676548,57.60391235351562,92.6288604736328,-43.08767700195312
238225,-0.2687835693359375,-0.1810150146484375,0.0993499755859375,0.4998092949390411,0.573309600353241,-0.164941817522049,57.7373046875,92.49227905273438,-43.44047546386719
238226,-0.2619781494140625,-0.1985931396484375,0.06640625,0.4542391300201416,0.6361770033836365,-0.1862678825855255,57.86399841308594,92.39340209960938,-43.56820678710938
238227,-0.24359130859375,-0.2102813720703125,0.0230865478515625,0.3901336491107941,0.7152068018913269,-0.1982558369636536,57.95884704589844,92.44758605957033,-43.76205444335938
238228,-0.24359130859375,-0.2102813720703125,0.0230865478515625,0.3901336491107941,0.7152068018913269,-0.1982558369636536,57.95884704589844,92.44758605957033,-43.76205444335938
238229,-0.1819610595703125,-0.1961212158203125,-0.0572967529296875,0.1225690618157387,0.7416669130325317,-0.2573114335536957,58.22210693359375,92.50437927246094,-43.98953247070312
238230,-0.1318359375,-0.169281005859375,-0.03582763671875,-0.079741433262825,0.6340078115463257,-0.2972351312637329,58.33871459960938,92.47640991210938,-44.04017639160156
238231,-0.089935302734375,-0.1453704833984375,0.016845703125,-0.3124431073665619,0.5405418276786804,-0.3376914858818054,58.51327514648438,92.57345581054688,-44.04878234863281
238232,-0.089935302734375,-0.1453704833984375,0.016845703125,-0.3124431073665619,0.5405418276786804,-0.3376914858818054,58.51327514648438,92.57345581054688,-44.04878234863281
238233,-0.0584869384765625,-0.135986328125,0.039154052734375,-0.7774209380149841,0.4275281727313995,-0.3756958544254303,58.59518432617188,92.82386779785156,-43.80099487304688
238234,-0.013092041015625,-0.1481781005859375,0.01678466796875,-0.9601582288742064,0.3948506414890289,-0.3649223148822784,58.81527709960938,93.33065795898438,-42.86515808105469
238235,-0.0067138671875,-0.158538818359375,-0.0126953125,-1.108652353286743,0.3811976909637451,-0.351171612739563,58.95101928710938,93.65940856933594,-42.08444213867188
238236,-0.005035400390625,-0.1877593994140625,-0.1184844970703125,-1.231485366821289,0.4102439880371094,-0.3385692536830902,59.18148803710938,93.9373016357422,-41.12211608886719
238237,0.0087127685546875,-0.3155670166015625,-0.5951995849609375,-1.327558398246765,-0.0137251336127519,-0.2815499305725098,59.31130981445312,94.23611450195312,-39.93653869628906
238238,-0.0238494873046875,-0.515899658203125,-0.891815185546875,-1.369346022605896,-0.8761667013168335,-0.1471633464097977,59.59280395507812,94.54159545898438,-38.75057983398438
238239,-0.138763427734375,-0.5447998046875,-0.682708740234375,-1.584237337112427,0.0706376805901527,-0.1262559443712234,59.90092468261719,94.61265563964844,-37.39161682128906
238240,-0.2277984619140625,-0.1784820556640625,-0.5837249755859375,-1.340976476669312,0.0108582405373454,-0.1404189020395279,60.1732177734375,94.81541442871094,-36.22445678710938
238241,-0.2012939453125,0.306732177734375,-0.157684326171875,-1.395810961723328,0.9654033184051514,0.0747661143541336,60.16929626464844,95.11711120605467,-35.16571044921875
238242,-0.1781463623046875,0.401641845703125,0.1723175048828125,-1.395810961723328,0.9654033184051514,0.0747661143541336,60.06953430175781,95.53086853027344,-34.41960144042969
238243,-0.170867919921875,0.4181060791015625,0.5633392333984375,-1.91633129119873,1.359148502349854,0.1004472449421883,59.83738708496094,95.90467834472656,-33.92713928222656
238244,-0.170867919921875,0.4181060791015625,0.5633392333984375,-1.91633129119873,1.359148502349854,0.1004472449421883,59.83738708496094,95.90467834472656,-33.92713928222656
238245,-0.2228546142578125,0.5392608642578125,0.7532196044921875,-2.362335920333862,1.016477227210999,0.0637422278523445,59.42225646972656,96.515380859375,-33.68901062011719
238246,-0.4827117919921875,3.361923217773438,1.712921142578125,-2.155192136764526,0.5610350966453552,0.0839074179530143,58.68730163574219,97.75755310058594,-33.96025085449219
238247,-0.738922119140625,7.819046020507812,2.492324829101562,-1.232133030891418,1.931323051452637,1.977738261222839,58.42840576171875,98.22061157226562,-34.21649169921875
238248,-1.16717529296875,8.082077026367188,2.1531982421875,0.0925224795937538,4.572766780853271,3.075926303863525,58.67295837402344,98.92320251464844,-34.73495483398438
238249,-1.051101684570312,7.156021118164062,0.539154052734375,0.4845520257949829,3.777193546295166,-0.2761953771114349,61.10554504394531,100.0053863525391,-35.88871765136719
238250,-0.334381103515625,3.33953857421875,-0.5775604248046875,-0.0549889504909515,1.234506726264954,-2.067544460296631,62.47148132324219,99.5587921142578,-35.27311706542969
238251,0.1353912353515625,0.51849365234375,-2.522705078125,-2.191216945648193,-1.777026176452637,-1.724260926246643,62.62962341308594,99.04180908203124,-34.31919860839844
238252,0.42633056640625,0.0745086669921875,-2.434707641601562,-3.921821117401123,-5.548880577087402,-0.6425033211708069,61.65478515625,98.99258422851562,-33.21408081054688
238253,0.7912139892578125,0.785247802734375,-0.450897216796875,-2.548918724060059,-2.113431692123413,-0.1108929589390755,60.48841857910156,99.19302368164062,-31.96299743652344
238254,0.9576873779296876,1.268630981445312,-0.76861572265625,0.8224291205406189,-0.0582222938537597,0.6292727589607239,59.54669189453125,99.3723602294922,-30.77496337890625
238255,0.4776153564453125,1.540435791015625,-0.33856201171875,2.884861707687378,0.0053167347796261,1.038400530815125,59.22311401367188,99.34513854980467,-30.4749755859375
238256,0.2349395751953125,1.648666381835938,-0.3014068603515625,3.226271390914917,0.4647357165813446,1.012965559959412,59.52565002441406,98.8445281982422,-31.09732055664062
238257,0.32366943359375,1.588241577148438,-0.6130523681640625,2.441420793533325,0.2153051197528839,0.8005001544952393,60.01847839355469,98.24510192871094,-32.33930969238281
238258,0.337921142578125,1.400238037109375,-0.3123779296875,1.478990197181702,-0.1476880013942719,0.5634348392486572,60.42129516601562,97.72279357910156,-33.58944702148438
238259,0.27960205078125,1.145645141601562,0.0262298583984375,1.007474422454834,-0.1734961569309235,0.4313202500343323,60.75614929199219,97.25672912597656,-34.60842895507812
238260,0.25115966796875,0.8375701904296875,0.028533935546875,0.8796290755271912,-0.2640561461448669,0.4341482520103455,60.99278259277344,96.87481689453124,-35.196533203125
238261,0.2681732177734375,0.5562896728515625,-0.15289306640625,0.8787765502929688,-0.7440112829208374,0.5118928551673889,61.13694763183594,96.59107971191406,-35.63954162597656
238262,0.2744293212890625,0.3353118896484375,-0.272247314453125,0.939046025276184,-1.52289617061615,0.606776773929596,61.29252624511719,96.32489013671876,-36.02674865722656
238263,0.241180419921875,0.1923828125,-0.1564483642578125,1.058924794197083,-2.017776489257812,0.6365910768508911,61.22926330566406,95.91964721679688,-36.46664428710938
238264,0.1845550537109375,0.077911376953125,0.00482177734375,1.138816118240356,-1.8768150806427,0.5986916422843933,61.06097412109375,95.75244140625,-37.00799560546875
238265,0.1241302490234375,-0.0719451904296875,0.002288818359375,1.050350189208984,-1.290066957473755,0.5151016712188721,60.79086303710938,95.48992919921876,-37.72962951660156
238266,0.0828857421875,-0.1995697021484375,-0.117828369140625,0.8306809663772583,-0.7575747966766357,0.4177272021770477,60.65191650390625,95.18727111816406,-38.31077575683594
238267,0.0669708251953125,-0.2146453857421875,-0.124267578125,0.715493381023407,-0.7012361288070679,0.3166746199131012,60.71817016601562,94.8716278076172,-38.87948608398438
238268,0.0669708251953125,-0.2146453857421875,-0.124267578125,0.715493381023407,-0.7012361288070679,0.3166746199131012,60.71817016601562,94.8716278076172,-38.87948608398438
238269,0.10089111328125,-0.1840057373046875,0.05596923828125,0.792155921459198,-0.8428303003311157,0.097427487373352,60.76347351074219,94.31727600097656,-39.46073913574219
238270,0.11895751953125,-0.1963348388671875,0.0579681396484375,0.6962435245513916,-0.8757286071777344,0.0076664416119456,60.77384948730469,94.04811096191406,-39.68345642089844
238271,0.1156005859375,-0.2121734619140625,0.059906005859375,0.5494692325592041,-0.8224831819534302,-0.010121876373887,60.66912841796875,93.91194152832033,-39.98480224609375
238272,0.10760498046875,-0.2210845947265625,0.06121826171875,0.350466400384903,-0.7155641913414001,-0.0141336619853973,60.51686096191406,93.78425598144533,-40.4271240234375
238273,0.0890350341796875,-0.224853515625,0.041900634765625,0.1382569372653961,-0.6324453353881836,-0.0076797576621174,60.25419616699219,93.65480041503906,-40.69725036621094
238274,0.0650787353515625,-0.221466064453125,0.0108642578125,0.1382569372653961,-0.6324453353881836,-0.0076797576621174,60.00038146972656,93.67059326171876,-40.85041809082031
238275,0.040191650390625,-0.20965576171875,-0.001190185546875,-0.0702224969863891,-0.6287736892700195,-0.0017403757665306,59.91839599609375,93.5707550048828,-40.82540893554688
238276,0.00885009765625,-0.1947021484375,0.0245513916015625,-0.2581971883773804,-0.6481958031654358,-0.0107823405414819,59.79360961914062,93.68743896484376,-40.9710693359375
238277,-0.027374267578125,-0.176788330078125,0.0599212646484375,-0.4156097173690796,-0.6277201175689697,-0.052672266960144,59.63522338867188,93.81462097167967,-41.14410400390625
238278,-0.0683441162109375,-0.1586761474609375,0.09552001953125,-0.5599008798599243,-0.5202991366386414,-0.138157069683075,59.56446838378906,93.82513427734376,-41.06915283203125
238279,-0.1100006103515625,-0.14495849609375,0.09295654296875,-0.7028335332870483,-0.3477638363838196,-0.2682263851165771,59.42561340332031,94.12605285644533,-40.75506591796875
238280,-0.158538818359375,-0.13555908203125,0.022369384765625,-0.8555732369422913,-0.2022023648023605,-0.4348156452178955,59.46588134765625,94.28494262695312,-40.35516357421875
238281,-0.2288818359375,-0.1148681640625,-0.106903076171875,-1.019029021263123,-0.1983791291713715,-0.6286282539367676,59.29734802246094,94.58799743652344,-39.91168212890625
238282,-0.3291778564453125,-0.002777099609375,-0.2086334228515625,-1.16827392578125,-0.3508400321006775,-0.8423221707344055,59.18663024902344,95.01844787597656,-39.47795104980469
238283,-0.3579864501953125,0.227264404296875,-0.1274566650390625,-1.307703375816345,-0.3397082984447479,-0.9270586371421814,58.94451904296875,95.34762573242188,-39.02725219726562
238284,-0.38226318359375,0.4805145263671875,0.092620849609375,-1.500462532043457,0.2362716495990753,-0.946526050567627,58.52397155761719,95.9118194580078,-38.65199279785156
238285,-0.463470458984375,0.7626495361328125,0.178558349609375,-2.175336599349976,1.001753091812134,-1.019814610481262,58.00405883789062,96.44337463378906,-37.99946594238281
238286,-0.5276031494140625,0.9332122802734376,0.0882720947265625,-2.175336599349976,1.001753091812134,-1.019814610481262,57.63325500488281,96.91026306152344,-37.22676086425781
238287,-0.6960296630859375,1.964752197265625,0.58990478515625,-2.225585222244263,0.2369773983955383,-1.284783244132996,57.38345336914062,97.40046691894533,-36.3372802734375
238288,-0.6960296630859375,1.964752197265625,0.58990478515625,-2.225585222244263,0.2369773983955383,-1.284783244132996,57.38345336914062,97.40046691894533,-36.3372802734375
238289,-0.571746826171875,5.969985961914062,1.19061279296875,-0.5871713757514954,0.1071179285645485,0.9294322729110718,56.82380676269531,98.66481018066406,-35.31065368652344
238290,-0.6254119873046875,6.279464721679688,0.970916748046875,0.3356315195560455,-0.0904153808951377,0.870759129524231,56.69169616699219,99.2826690673828,-35.03105163574219
238291,-0.22479248046875,3.836395263671875,0.587158203125,0.2328455001115799,-0.7895729541778564,-0.3364605605602264,56.98783874511719,99.67863464355467,-34.99798583984375
238292,0.0966339111328125,2.018569946289062,0.26190185546875,0.0248899031430482,-0.8705008029937744,-0.4751462936401367,57.10247802734375,99.56004333496094,-35.13304138183594
238293,0.2891693115234375,1.390243530273438,-0.291015625,-0.4274085760116577,-1.581229209899902,-0.2788923382759094,56.92819213867188,99.26399230957033,-35.05038452148438
238294,0.2891693115234375,1.390243530273438,-0.291015625,-0.4274085760116577,-1.581229209899902,-0.2788923382759094,56.92819213867188,99.26399230957033,-35.05038452148438
238295,0.7404937744140625,1.872283935546875,-0.66497802734375,-0.9620898365974426,-1.170915246009827,-0.6643455028533936,56.22050476074219,98.57652282714844,-34.48878479003906
238296,0.7805938720703125,1.938064575195312,-0.8036651611328125,-0.1502155959606171,-1.015755414962769,-0.4493666291236877,55.68896484375,98.53269958496094,-34.1326904296875
238297,0.4120941162109375,1.852035522460938,-0.6079254150390625,1.732709050178528,-0.8737008571624756,-0.1822837889194489,55.20526123046875,98.55288696289062,-33.86688232421875
238298,0.4120941162109375,1.852035522460938,-0.6079254150390625,1.732709050178528,-0.8737008571624756,-0.1822837889194489,55.20526123046875,98.55288696289062,-33.86688232421875
238299,-0.0244903564453125,1.44476318359375,-0.404022216796875,1.836029291152954,-0.7414594888687134,-0.148578017950058,54.56159973144531,98.2903289794922,-34.45179748535156
238300,-0.0244903564453125,1.44476318359375,-0.404022216796875,1.836029291152954,-0.7414594888687134,-0.148578017950058,54.56159973144531,98.2903289794922,-34.45179748535156
238301,-0.0599365234375,1.263031005859375,-0.3192138671875,1.757337927818298,-0.6103253960609436,-0.0486967004835605,54.28326416015625,97.93864440917967,-35.26194763183594
238302,-0.06793212890625,0.9207916259765624,-0.280517578125,1.839742302894592,-0.2299841940402985,0.2406474947929382,54.01979064941406,97.1743621826172,-36.94549560546875
238303,-0.104034423828125,0.7401580810546875,-0.27703857421875,1.918070077896118,-0.0257746055722236,0.3548089563846588,53.97657775878906,96.7200927734375,-37.88163757324219
238304,-0.151092529296875,0.5692291259765625,-0.2256317138671875,1.894212484359741,0.2189057171344757,0.4303202331066132,53.95413208007812,96.41294860839844,-38.72164916992188
238305,-0.1831817626953125,0.423736572265625,-0.1539764404296875,1.756934523582458,0.4420695602893829,0.4347264170646667,54.10385131835938,95.96914672851562,-39.58982849121094
238306,-0.21234130859375,0.3041839599609375,-0.093658447265625,1.531178116798401,0.595944881439209,0.3721410632133484,54.25430297851562,95.54222106933594,-40.43971252441406
238307,-0.2381744384765625,0.202545166015625,-0.0640716552734375,1.269554972648621,0.6616517305374146,0.2607490420341492,54.48562622070312,95.1322021484375,-41.0211181640625
238308,-0.257354736328125,0.0959014892578125,-0.051177978515625,1.04060971736908,0.6204771399497986,0.1433494389057159,54.74842834472656,94.82388305664062,-41.61061096191406
238309,-0.257354736328125,0.0959014892578125,-0.051177978515625,1.04060971736908,0.6204771399497986,0.1433494389057159,54.74842834472656,94.82388305664062,-41.61061096191406
238310,-0.2613067626953125,-0.005767822265625,-0.038970947265625,0.8622071743011475,0.5213910341262817,0.0579040460288524,54.97549438476562,94.5862274169922,-42.12265014648438
238311,-0.2294921875,-0.143768310546875,0.0419158935546875,0.6475790143013,0.4260104298591614,-0.0141728101298213,55.36457824707031,94.08798217773438,-42.91796875
238312,-0.20904541015625,-0.1671600341796875,0.0877227783203125,0.5381510853767395,0.5244022607803345,-0.0452569611370563,55.51409912109375,94.04571533203124,-43.1827392578125
238313,-0.1929168701171875,-0.17742919921875,0.1052093505859375,0.364027738571167,0.6434101462364197,-0.1025708466768265,55.73593139648438,93.80477905273438,-43.44563293457031
238314,-0.1929168701171875,-0.17742919921875,0.1052093505859375,0.364027738571167,0.6434101462364197,-0.1025708466768265,55.73593139648438,93.80477905273438,-43.44563293457031
238315,-0.145660400390625,-0.1706390380859375,0.0543212890625,-0.0814836770296096,0.8073604702949524,-0.2246826440095901,55.93431091308594,93.69598388671876,-43.64054870605469
238316,-0.111358642578125,-0.16864013671875,0.004791259765625,-0.318856805562973,0.7687851190567017,-0.2786012589931488,56.04792785644531,93.80160522460938,-43.69065856933594
238317,-0.075775146484375,-0.1674957275390625,-0.0499267578125,-0.7005184292793274,0.4148097038269043,-0.3386843204498291,56.17251586914062,94.03092956542967,-43.50056457519531
238318,-0.075775146484375,-0.1674957275390625,-0.0499267578125,-0.7005184292793274,0.4148097038269043,-0.3386843204498291,56.17251586914062,94.03092956542967,-43.50056457519531
238319,-0.01220703125,-0.1607513427734375,-0.05242919921875,-0.8500019311904907,0.2262736111879349,-0.3438407182693481,56.34773254394531,94.40257263183594,-42.61257934570312
238320,-0.01220703125,-0.1607513427734375,-0.05242919921875,-0.8500019311904907,0.2262736111879349,-0.3438407182693481,56.34773254394531,94.40257263183594,-42.61257934570312
238321,0.0316162109375,-0.1712646484375,-0.096405029296875,-1.172271013259888,-0.3232728540897369,-0.2700866162776947,56.49124145507812,95.06550598144533,-41.45463562011719
238322,0.062713623046875,-0.195404052734375,-0.1959075927734375,-1.242891192436218,-0.7816337943077087,-0.2029408663511276,56.386962890625,95.36605834960938,-40.7154541015625
238323,0.0987701416015625,-0.2133941650390625,-0.2368011474609375,-1.242891192436218,-0.7816337943077087,-0.2029408663511276,56.31085205078125,95.74732971191406,-39.90667724609375
238324,0.137420654296875,-0.19183349609375,-0.140228271484375,-1.296870231628418,-1.141091227531433,-0.1436951160430908,56.15292358398438,96.13619995117188,-39.14411926269531
238325,0.1502838134765625,-0.0066986083984375,0.0933380126953125,-1.38804829120636,-1.105326890945435,-0.1290240287780762,55.9793701171875,96.50343322753906,-38.44993591308594
238326,0.1502838134765625,-0.0066986083984375,0.0933380126953125,-1.38804829120636,-1.105326890945435,-0.1290240287780762,55.9793701171875,96.50343322753906,-38.44993591308594
238327,-0.032440185546875,0.2445831298828125,0.5999298095703125,-1.607166051864624,0.0240206476300954,-0.1906184107065201,55.46395874023438,97.19352722167967,-37.38888549804688
238328,-0.0502777099609375,0.36767578125,0.823974609375,-1.810782551765442,0.4186100363731384,-0.3012362718582153,55.0048828125,97.37644958496094,-36.87620544433594
238329,-0.0807342529296875,0.73675537109375,1.076873779296875,-2.120842933654785,0.562471866607666,-0.4717454314231873,54.71261596679688,97.63973999023438,-36.64253234863281
238330,-0.0807342529296875,0.73675537109375,1.076873779296875,-2.120842933654785,0.562471866607666,-0.4717454314231873,54.71261596679688,97.63973999023438,-36.64253234863281
238331,-0.5909423828125,5.253433227539062,2.038253784179688,-2.184359550476074,1.192674875259399,0.3118867874145508,54.43116760253906,98.60630798339844,-36.43702697753906
238332,-0.5909423828125,5.253433227539062,2.038253784179688,-2.184359550476074,1.192674875259399,0.3118867874145508,54.43116760253906,98.60630798339844,-36.43702697753906
238333,-1.571731567382812,7.671295166015625,1.996139526367188,0.5288726091384888,6.316267013549805,1.046927452087402,55.09614562988281,100.0806579589844,-36.44001770019531
238334,-0.909332275390625,4.40185546875,0.0523223876953125,1.156387090682983,5.230562210083008,-0.5809376835823059,56.50946044921875,100.4171142578125,-36.04013061523438
238335,-0.5910186767578125,1.841842651367188,-0.65179443359375,0.7362931966781616,2.179431676864624,-1.215421438217163,58.15959167480469,100.2951202392578,-35.6185302734375
238336,-0.4139556884765625,0.329010009765625,-2.053009033203125,-4.16858959197998,-2.410251617431641,-0.9657029509544371,58.69847106933594,100.1618194580078,-35.09129333496094
238337,-0.4139556884765625,0.329010009765625,-2.053009033203125,-4.16858959197998,-2.410251617431641,-0.9657029509544371,58.69847106933594,100.1618194580078,-35.09129333496094
238338,-0.4139556884765625,0.329010009765625,-2.053009033203125,-4.16858959197998,-2.410251617431641,-0.9657029509544371,58.69847106933594,100.1618194580078,-35.09129333496094
238339,0.26416015625,1.947799682617188,-0.99298095703125,-2.354700088500977,-2.926271200180054,0.0806466415524482,56.14973449707031,100.8332672119141,-33.04931640625
238340,0.26416015625,1.947799682617188,-0.99298095703125,-2.354700088500977,-2.926271200180054,0.0806466415524482,56.14973449707031,100.8332672119141,-33.04931640625
238341,0.541107177734375,2.428756713867188,-0.114593505859375,2.002233028411865,0.0580403991043567,1.300581574440002,54.80133056640625,100.7570343017578,-30.22540283203125
238342,0.4567413330078125,2.018722534179688,-0.4275665283203125,2.247158288955688,0.753606915473938,1.122990012168884,54.87055969238281,100.2173767089844,-30.0927734375
238343,0.3852996826171875,1.549652099609375,-0.5359039306640625,1.868155598640442,0.5533963441848755,0.9293979406356812,55.32145690917969,99.58674621582033,-30.80499267578125
238344,0.3852996826171875,1.549652099609375,-0.5359039306640625,1.868155598640442,0.5533963441848755,0.9293979406356812,55.32145690917969,99.58674621582033,-30.80499267578125
238345,0.243560791015625,1.181533813476562,-0.378143310546875,1.518202900886536,0.2185528427362442,0.7739007472991943,55.88528442382812,99.17185974121094,-31.630126953125
238346,0.1275634765625,0.915924072265625,-0.2342987060546875,1.519066333770752,-0.1096130460500717,0.6825940012931824,56.37716674804688,99.01055908203124,-32.55339050292969
238347,-0.0046234130859375,0.5658416748046875,-0.2059173583984375,1.575429916381836,-0.3822368383407593,0.6587145328521729,57.15614318847656,98.42184448242188,-33.83293151855469
238348,-0.032470703125,0.3957977294921875,-0.2023773193359375,1.527022957801819,-0.6070870161056519,0.6278074383735657,57.37945556640625,98.16954040527344,-34.44691467285156
238349,-0.050506591796875,0.2042236328125,-0.2445220947265625,1.357844591140747,-0.6675301194190979,0.5761924982070923,57.66508483886719,97.7813720703125,-35.14639282226562
238350,-0.0351104736328125,0.0329742431640625,-0.306427001953125,1.155805826187134,-0.6179543137550354,0.5077534914016724,57.86859130859375,97.410888671875,-35.96514892578125
238351,0.0146026611328125,-0.0553741455078125,-0.259796142578125,1.052402138710022,-0.5980064272880554,0.4173887073993683,58.02351379394531,97.0814971923828,-36.58218383789062
238352,0.0146026611328125,-0.0553741455078125,-0.259796142578125,1.052402138710022,-0.5980064272880554,0.4173887073993683,58.02351379394531,97.0814971923828,-36.58218383789062
238353,0.086395263671875,-0.0716094970703125,0.1066436767578125,1.313031673431396,-0.3887027502059937,0.0639747232198715,58.25802612304688,96.47618103027344,-37.54725646972656
238354,0.1094818115234375,-0.1128387451171875,0.1598663330078125,1.313031673431396,-0.3887027502059937,0.0639747232198715,58.30339050292969,96.11441040039062,-38.01914978027344
238355,0.1168212890625,-0.13433837890625,0.1501922607421875,1.315837740898132,-0.4315404891967773,-0.0164191871881485,58.375732421875,95.76458740234376,-38.67256164550781
238356,0.1057281494140625,-0.141204833984375,0.16290283203125,1.089008927345276,-0.4108352065086365,-0.1183450222015381,58.4117431640625,95.16412353515624,-39.83657836914062
238357,0.1057281494140625,-0.141204833984375,0.16290283203125,1.089008927345276,-0.4108352065086365,-0.1183450222015381,58.4117431640625,95.16412353515624,-39.83657836914062
238358,0.1074066162109375,-0.150482177734375,0.12042236328125,1.089008927345276,-0.4108352065086365,-0.1183450222015381,58.19212341308594,94.84611511230467,-40.29965209960938
238359,0.1065826416015625,-0.1634979248046875,-0.0050201416015625,0.9758549332618712,-0.5583301186561584,-0.1242306083440781,58.06622314453125,94.70086669921876,-40.70285034179688
238360,0.1065826416015625,-0.1634979248046875,-0.0050201416015625,0.9758549332618712,-0.5583301186561584,-0.1242306083440781,58.06622314453125,94.70086669921876,-40.70285034179688
238361,0.0850677490234375,-0.168365478515625,0.004180908203125,0.4025620818138123,-1.158264994621277,-0.1367562562227249,57.64143371582031,94.38169860839844,-41.28199768066406
238362,0.072174072265625,-0.1657257080078125,0.09417724609375,0.4025620818138123,-1.158264994621277,-0.1367562562227249,57.3829345703125,94.36224365234376,-41.2806396484375
238363,0.05755615234375,-0.1706695556640625,0.150390625,0.1241427212953568,-1.019170761108398,-0.1538489460945129,57.25718688964844,94.24583435058594,-41.32017517089844
238364,0.03765869140625,-0.175384521484375,0.1710205078125,-0.1788421869277954,-0.7681081295013428,-0.1772831678390503,57.02510070800781,94.16651916503906,-41.08442687988281
238365,0.0081787109375,-0.1800994873046875,0.1572418212890625,-0.5027627348899841,-0.4773340821266174,-0.2063230723142624,56.76617431640625,94.24130249023438,-40.95144653320312
238366,-0.0340576171875,-0.1923675537109375,0.0907440185546875,-0.8123804926872253,-0.2337909191846848,-0.2488737404346466,56.71749877929688,94.33708190917967,-40.6815185546875
238367,-0.1035003662109375,-0.1988677978515625,-0.02239990234375,-1.073694944381714,-0.1006765440106392,-0.3078539669513702,56.80276489257812,94.47982788085938,-39.93902587890625
238368,-0.1035003662109375,-0.1988677978515625,-0.02239990234375,-1.073694944381714,-0.1006765440106392,-0.3078539669513702,56.80276489257812,94.47982788085938,-39.93902587890625
238369,-0.2376861572265625,-0.1229095458984375,-0.10943603515625,-1.265679240226746,-0.0059524313546717,-0.4102290570735931,56.99116516113281,94.705078125,-39.11897277832031
238370,-0.37750244140625,0.371429443359375,0.0182647705078125,-2.012571573257446,1.412636280059814,-0.9365402460098268,57.1971435546875,95.58541870117188,-37.41685485839844
238371,-0.475341796875,0.4642181396484375,0.3041839599609375,-2.385356426239014,1.493344187736511,-1.024560928344727,56.99650573730469,96.1693115234375,-36.47132873535156
238372,-0.9720001220703124,0.6214599609375,0.726043701171875,-2.385356426239014,1.493344187736511,-1.024560928344727,56.55873107910156,96.6614990234375,-35.97758483886719
238373,-0.9720001220703124,0.6214599609375,0.726043701171875,-2.385356426239014,1.493344187736511,-1.024560928344727,56.55873107910156,96.6614990234375,-35.97758483886719
238374,-0.8808746337890625,1.44305419921875,0.853179931640625,-1.984543919563293,-0.3973766565322876,-0.239673838019371,55.51852416992188,97.4592742919922,-35.07846069335938
238375,-1.116943359375,4.764404296875,1.422134399414062,-1.117215275764465,-0.6737861633300781,0.696057915687561,55.30941772460938,97.71429443359376,-34.7025146484375
238376,-0.931640625,7.73016357421875,1.525146484375,0.4520851671695709,1.578486680984497,2.395148038864136,55.34336853027344,98.33757019042967,-34.77888488769531
238377,-0.5731048583984375,6.618118286132812,0.4089508056640625,0.7010933756828308,1.88337504863739,1.460843205451965,55.68736267089844,99.13885498046876,-35.47079467773438
238378,-0.5731048583984375,6.618118286132812,0.4089508056640625,0.7010933756828308,1.88337504863739,1.460843205451965,55.68736267089844,99.13885498046876,-35.47079467773438
238379,0.3813323974609375,1.498550415039062,-0.593292236328125,-0.9263938665390016,-2.346775770187378,-0.5215955376625061,57.18489074707031,99.46029663085938,-36.38569641113281
238380,0.5440673828125,0.932159423828125,-0.4493865966796875,-1.527744770050049,-3.005887746810913,-0.2989331781864166,57.25483703613281,99.22329711914062,-35.87657165527344
238381,0.7465057373046875,1.628646850585938,-0.49365234375,-1.846320033073425,-0.7506673336029053,-0.4932616353034973,56.61656188964844,98.92300415039062,-35.26654052734375
238382,0.7465057373046875,1.628646850585938,-0.49365234375,-1.846320033073425,-0.7506673336029053,-0.4932616353034973,56.61656188964844,98.92300415039062,-35.26654052734375
238383,0.4039306640625,2.565963745117188,-1.328826904296875,1.655452370643616,-1.004637002944946,-0.0558536797761917,55.30567932128906,98.80474853515624,-33.67489624023438
238384,0.1121063232421875,2.228622436523438,-0.146728515625,2.53203272819519,-0.3337324261665344,0.1767060607671738,54.97613525390625,98.74252319335938,-33.23463439941406
238385,0.063262939453125,1.8038330078125,-0.2787322998046875,1.819240689277649,0.269843190908432,0.2816106379032135,54.76486206054688,98.57269287109376,-33.56681823730469
238386,0.063262939453125,1.8038330078125,-0.2787322998046875,1.819240689277649,0.269843190908432,0.2816106379032135,54.76486206054688,98.57269287109376,-33.56681823730469
238387,0.09564208984375,1.167694091796875,-0.231597900390625,1.621167302131653,0.1294179111719131,0.3773131966590881,54.83995056152344,97.72622680664062,-35.73843383789062
238388,0.1076507568359375,0.93292236328125,-0.2365570068359375,1.766358375549316,-0.1379485428333282,0.4643330574035645,55.2210693359375,97.12109375,-36.77360534667969
238389,0.101806640625,0.7174224853515625,-0.2220611572265625,2.122471570968628,-0.4681128859519958,0.5795533657073975,55.59648132324219,96.63668823242188,-37.62962341308594
238390,0.101806640625,0.7174224853515625,-0.2220611572265625,2.122471570968628,-0.4681128859519958,0.5795533657073975,55.59648132324219,96.63668823242188,-37.62962341308594
238391,0.0394134521484375,0.3533172607421875,-0.0202789306640625,2.00365948677063,-0.1602722257375717,0.5505861639976501,55.84449768066406,95.7252960205078,-39.30987548828125
238392,-0.0363922119140625,0.177490234375,0.0322723388671875,1.726359844207764,0.2937775552272797,0.4905425608158112,55.99569702148438,95.28596496582033,-40.16427612304688
238393,-0.1029205322265625,0.044464111328125,0.0494384765625,1.418581247329712,0.6317763924598694,0.3996310234069824,56.1092529296875,94.838623046875,-41.13548278808594
238394,-0.1029205322265625,0.044464111328125,0.0494384765625,1.418581247329712,0.6317763924598694,0.3996310234069824,56.1092529296875,94.838623046875,-41.13548278808594
238395,-0.150146484375,-0.135101318359375,-0.0379486083984375,0.8190453052520752,0.5718733668327332,0.1634363234043121,56.72450256347656,93.86154174804688,-42.49209594726562
238396,-0.1338043212890625,-0.1649169921875,-0.0128631591796875,0.5823185443878174,0.4091638028621674,0.0666274949908256,57.11740112304688,93.56861877441406,-42.87167358398438
238397,-0.108551025390625,-0.1691436767578125,0.0374603271484375,0.4272789061069489,0.33884596824646,0.005395564250648,57.48110961914062,93.26536560058594,-43.18463134765625
238398,-0.10595703125,-0.170623779296875,0.094818115234375,0.3344530761241913,0.3414058089256287,-0.0345917977392673,57.703857421875,92.9989776611328,-43.40597534179688
238399,-0.1287384033203125,-0.1747283935546875,0.1407470703125,0.2954518795013428,0.4123380184173584,-0.0844413787126541,57.90951538085938,92.8197784423828,-43.60408020019531
238400,-0.1617431640625,-0.1764984130859375,0.1462249755859375,0.2514868378639221,0.5072842240333557,-0.1531069874763489,58.01220703125,92.75482177734376,-43.52357482910156
238401,-0.1988525390625,-0.1787261962890625,0.119171142578125,0.1609912812709808,0.592725396156311,-0.2501507103443146,58.10931396484375,92.88014221191406,-43.52702331542969
238402,-0.1988525390625,-0.1787261962890625,0.119171142578125,0.1609912812709808,0.592725396156311,-0.2501507103443146,58.10931396484375,92.88014221191406,-43.52702331542969
238403,-0.2039337158203125,-0.1868743896484375,0.0824127197265625,-0.1165846660733223,0.7996050715446472,-0.4482422471046448,58.16592407226562,92.91339111328124,-43.54069519042969
238404,-0.1683349609375,-0.1902313232421875,0.0530242919921875,-0.2888813316822052,0.9284924864768982,-0.5062328577041626,58.2735595703125,92.92428588867188,-43.34880065917969
238405,-0.129730224609375,-0.192596435546875,0.003875732421875,-0.4766080975532532,0.9844518899917604,-0.5170285105705261,58.34315490722656,93.19744873046876,-43.18185424804688
238406,-0.129730224609375,-0.192596435546875,0.003875732421875,-0.4766080975532532,0.9844518899917604,-0.5170285105705261,58.34315490722656,93.19744873046876,-43.18185424804688
238407,-0.0500946044921875,-0.1917266845703125,-0.09686279296875,-0.7874708771705627,0.8045989871025085,-0.4259571731090546,58.52969360351562,93.7701416015625,-42.44572448730469
238408,-0.0122222900390625,-0.1968231201171875,-0.1974945068359375,-0.828235924243927,0.4509525299072266,-0.3736295104026794,58.58868408203125,93.95661926269533,-41.84934997558594
238409,0.02740478515625,-0.21490478515625,-0.32659912109375,-0.7519035935401917,-0.8324090838432312,-0.1993573158979416,58.71104431152344,94.32443237304688,-41.12242126464844
238410,0.0689849853515625,-0.241729736328125,-0.4653472900390625,-0.7519035935401917,-0.8324090838432312,-0.1993573158979416,58.82562255859375,94.68572998046876,-40.42312622070312
238411,0.0910491943359375,-0.2598876953125,-0.5390777587890625,-0.7117843627929688,-1.563389778137207,-0.0950879007577896,58.57673645019531,95.4478759765625,-38.7518310546875
238412,0.092193603515625,-0.1865692138671875,-0.3450927734375,-0.7118983864784241,-1.705304861068726,-0.0638514161109924,58.44047546386719,95.72500610351562,-38.32554626464844
238413,-0.012237548828125,0.26080322265625,-0.3673095703125,-1.164591550827026,0.0490437075495719,-0.2456630319356918,58.17588806152344,96.04069519042967,-38.03244018554688
238414,-0.175628662109375,0.5035858154296875,-0.376190185546875,-1.292742371559143,0.2583878636360168,-0.2027619034051895,57.76617431640625,96.2349090576172,-37.65736389160156
238415,-0.2455596923828125,0.514068603515625,0.40087890625,-1.761879205703735,0.903626263141632,-0.2309525310993195,57.31825256347656,96.416015625,-37.3458251953125
238416,-0.318450927734375,0.5946044921875,0.8645477294921875,-2.610025644302368,1.288715839385986,-0.2989701926708221,56.85475158691406,96.66033935546876,-37.12254333496094
238417,-0.5140533447265625,1.189285278320312,1.225570678710938,-3.213791370391846,1.145744323730469,-0.540203869342804,56.54876708984375,96.86422729492188,-36.64183044433594
238418,-0.5140533447265625,1.189285278320312,1.225570678710938,-3.213791370391846,1.145744323730469,-0.540203869342804,56.54876708984375,96.86422729492188,-36.64183044433594
238419,-2.382308959960938,7.4434814453125,1.80059814453125,-2.564531087875366,2.239595413208008,0.505165159702301,56.7091064453125,98.44049072265624,-35.48829650878906
238420,-2.382308959960938,7.4434814453125,1.80059814453125,-2.564531087875366,2.239595413208008,0.505165159702301,56.7091064453125,98.44049072265624,-35.48829650878906
238421,-2.583358764648438,7.045730590820312,0.9378814697265624,-0.740220844745636,1.973226308822632,1.325508236885071,57.23355102539062,99.63430786132812,-35.05561828613281
238422,0.1223602294921875,1.6475830078125,0.2696533203125,-0.1451617181301117,-0.8127837181091309,0.0533311329782009,58.11549377441406,100.0848999023438,-33.92495727539062
238423,0.3213348388671875,1.194091796875,-0.199676513671875,-0.2421985268592834,-0.2764041721820831,0.6260114312171936,58.00933837890625,99.52088928222656,-33.38246154785156
238424,0.610443115234375,1.676498413085938,-1.624618530273438,-0.5102224946022034,0.540885865688324,0.5885109305381775,57.94711303710938,99.09036254882812,-33.03623962402344
238425,0.9063262939453124,2.07659912109375,-2.477203369140625,-0.0310689695179462,-0.4254711270332336,0.3037665486335754,58.18450927734375,98.63134765625,-32.85276794433594
238426,0.4493408203125,1.586578369140625,-0.60076904296875,1.083411693572998,-0.3677513897418976,0.4103364050388336,58.26719665527344,98.42898559570312,-32.78125
238427,0.15130615234375,1.236801147460938,-0.1092376708984375,1.478277087211609,0.4913915693759918,0.7192473411560059,58.471435546875,98.17684936523438,-33.07138061523438
238428,0.1170501708984375,1.145431518554688,-0.4615020751953125,1.439246773719788,0.7405949831008911,0.82786625623703,58.69371032714844,97.82069396972656,-33.53543090820312
238429,0.1295013427734375,1.113693237304688,-0.632171630859375,1.229449868202209,0.3208065032958984,0.786999523639679,59.13290405273438,97.5882568359375,-34.29244995117188
238430,0.1525726318359375,1.0894775390625,-0.48992919921875,0.9643924236297609,-0.0530075579881668,0.6716835498809814,59.65121459960938,97.22053527832033,-34.98130798339844
238431,0.15252685546875,0.98553466796875,-0.27923583984375,0.7488473653793335,-0.1509583592414856,0.5810953378677368,60.022705078125,96.95103454589844,-35.43479919433594
238432,0.139190673828125,0.8307342529296875,-0.19146728515625,0.6394106149673462,-0.134322389960289,0.5278065800666809,60.38529968261719,96.58824157714844,-35.81336975097656
238433,0.13006591796875,0.6143646240234375,-0.2334136962890625,0.6635441780090332,-0.2009821087121964,0.500758707523346,60.64338684082031,96.41207885742188,-36.27586364746094
238434,0.120208740234375,0.3843841552734375,-0.327972412109375,0.7993219494819641,-0.4129425585269928,0.4940858781337738,60.81326293945312,96.19839477539062,-36.64118957519531
238435,0.115478515625,0.21875,-0.3474884033203125,0.9961767196655272,-0.6598514318466187,0.48091921210289,60.92994689941406,96.04605102539062,-36.87887573242188
238436,0.115478515625,0.21875,-0.3474884033203125,0.9961767196655272,-0.6598514318466187,0.48091921210289,60.92994689941406,96.04605102539062,-36.87887573242188
238437,0.11981201171875,0.0983428955078125,-0.1383819580078125,1.152109026908875,-0.7568019032478333,0.3620650172233582,61.04286193847656,95.80158996582033,-37.73866271972656
238438,0.114471435546875,0.0538787841796875,-0.0393829345703125,1.044228434562683,-0.679173469543457,0.283365935087204,60.94967651367188,95.51776123046876,-38.16818237304688
238439,0.1190338134765625,0.0172271728515625,0.0430145263671875,0.8805297613143921,-0.5889138579368591,0.2135469019412994,61.02825927734375,95.12556457519533,-38.68280029296875
238440,0.12420654296875,-0.0264739990234375,0.098968505859375,0.7299721837043762,-0.5095990896224976,0.1558146327733994,61.01840209960938,94.90403747558594,-39.20509338378906
238441,0.1320037841796875,-0.085235595703125,0.1405792236328125,0.4967477023601532,-0.5721511244773865,0.0554422214627265,61.09553527832031,94.757080078125,-39.70892333984375
238442,0.123199462890625,-0.1126251220703125,0.1840362548828125,0.4967477023601532,-0.5721511244773865,0.0554422214627265,61.13316345214844,94.52333068847656,-39.92424011230469
238443,0.0989837646484375,-0.1234130859375,0.2248077392578125,0.4229259490966797,-0.603498637676239,-0.0185023117810487,61.16555786132812,94.3379364013672,-40.13525390625
238444,0.0989837646484375,-0.1234130859375,0.2248077392578125,0.4229259490966797,-0.603498637676239,-0.0185023117810487,61.16555786132812,94.3379364013672,-40.13525390625
238445,0.0737152099609375,-0.12640380859375,0.2020111083984375,0.3396710157394409,-0.4731310606002808,-0.1596905887126923,61.10783386230469,94.09226989746094,-40.11293029785156
238446,0.0612945556640625,-0.1255950927734375,0.1229095458984375,0.2725945115089417,-0.4765138030052185,-0.2081457376480103,61.02928161621094,93.9938507080078,-40.1351318359375
238447,0.051513671875,-0.1354217529296875,0.0367584228515625,0.0399807058274745,-0.8530603051185608,-0.2604659497737885,60.9139404296875,93.94964599609376,-40.04104614257812
238448,0.037994384765625,-0.1446685791015625,-0.0179443359375,0.0399807058274745,-0.8530603051185608,-0.2604659497737885,60.67514038085938,93.85487365722656,-39.90519714355469
238449,0.0168609619140625,-0.148468017578125,-0.012298583984375,-0.2256568223237991,-1.153669714927673,-0.2990913689136505,60.50845336914062,93.9908447265625,-39.72877502441406
238450,-0.0104522705078125,-0.1420440673828125,0.03741455078125,-0.2256568223237991,-1.153669714927673,-0.2990913689136505,60.17658996582031,94.19743347167967,-39.738037109375
238451,-0.04547119140625,-0.1292724609375,0.0931396484375,-0.4022236168384552,-1.006863713264465,-0.3618950843811035,59.96531677246094,94.28700256347656,-39.64137268066406
238452,-0.0980987548828125,-0.111572265625,0.1102142333984375,-0.6182480454444885,-0.68135005235672,-0.4619947969913483,59.64523315429688,94.40705871582033,-39.4210205078125
238453,-0.1928253173828125,-0.072418212890625,0.1174163818359375,-0.8868427276611328,-0.2051864415407181,-0.6087688207626343,59.44332885742188,94.6116180419922,-39.209228515625
238454,-0.3303375244140625,0.0630950927734375,0.15838623046875,-1.211080193519592,0.5622367262840271,-0.8198357820510864,59.18634033203125,95.15011596679688,-38.82925415039062
238455,-0.4041748046875,0.2958984375,0.1605987548828125,-1.593931198120117,1.523340702056885,-0.9839019179344176,58.98501586914062,95.66897583007812,-38.4168701171875
238456,-0.7483673095703125,0.7229766845703125,0.14312744140625,-2.274301767349243,1.828986883163452,-1.275205969810486,58.67939758300781,96.5055694580078,-37.02503967285156
238457,-0.7483673095703125,0.7229766845703125,0.14312744140625,-2.274301767349243,1.828986883163452,-1.275205969810486,58.67939758300781,96.5055694580078,-37.02503967285156
238458,-0.83935546875,0.8246917724609375,0.46466064453125,-2.262423515319824,0.977003276348114,-1.111243367195129,58.57566833496094,96.96517944335938,-36.3614501953125
238459,-0.9253997802734376,1.986709594726562,0.8303985595703125,-1.80514121055603,0.0192980635911226,-0.8260334730148315,58.36822509765625,97.39114379882812,-35.85993957519531
238460,-0.8906402587890625,4.535812377929688,1.187973022460938,-0.896393358707428,-0.4732735455036163,-0.0631414204835891,58.12538146972656,98.0618133544922,-35.42271423339844
238461,-0.8906402587890625,4.535812377929688,1.187973022460938,-0.896393358707428,-0.4732735455036163,-0.0631414204835891,58.12538146972656,98.0618133544922,-35.42271423339844
238462,-0.549530029296875,6.481796264648438,1.529739379882812,0.1402460634708405,0.2627599835395813,1.573850154876709,58.00927734375,98.66929626464844,-35.40878295898438
238463,-0.1907806396484375,3.394256591796875,0.12548828125,0.1191783249378204,-0.0386168994009494,-0.2499086409807205,58.59257507324219,99.25942993164062,-36.13706970214844
238464,-0.1907806396484375,3.394256591796875,0.12548828125,0.1191783249378204,-0.0386168994009494,-0.2499086409807205,58.59257507324219,99.25942993164062,-36.13706970214844
238465,0.1167449951171875,1.660614013671875,-0.3294219970703125,-0.9425430297851562,-1.192858576774597,-0.7591606974601746,59.01593017578125,98.99282836914062,-36.092529296875
238466,0.715545654296875,1.274124145507812,-0.5173187255859375,-1.91057813167572,-1.494858384132385,-0.8573706150054932,58.41232299804688,98.60948181152344,-35.20184326171875
238467,0.98370361328125,1.843963623046875,-0.9725494384765624,-1.386223554611206,-1.347466588020325,-0.4827165901660919,57.59849548339844,98.66177368164062,-34.30186462402344
238468,0.992523193359375,2.27069091796875,-1.211257934570312,0.2345491200685501,-1.191023111343384,-0.1272732615470886,56.79107666015625,98.80917358398438,-33.5345458984375
238469,0.6088714599609375,2.202850341796875,-0.7271881103515625,1.750841975212097,-0.9411121010780334,0.1440258771181107,56.22528076171875,98.7822265625,-33.10694885253906
238470,0.6088714599609375,2.202850341796875,-0.7271881103515625,1.750841975212097,-0.9411121010780334,0.1440258771181107,56.22528076171875,98.7822265625,-33.10694885253906
238471,0.2332305908203125,1.548858642578125,-0.39813232421875,1.989619612693787,-0.4969351887702942,0.4429089725017548,55.84060668945312,98.30032348632812,-33.87014770507812
238472,0.2332305908203125,1.548858642578125,-0.39813232421875,1.989619612693787,-0.4969351887702942,0.4429089725017548,55.84060668945312,98.30032348632812,-33.87014770507812
238473,0.1085357666015625,1.055877685546875,-0.17083740234375,2.032031536102295,-0.5248603224754333,0.4992055594921112,56.11656188964844,97.363525390625,-35.64588928222656
238474,0.0307464599609375,0.834991455078125,-0.1186676025390625,2.145689487457275,-0.4822715818881989,0.5489078760147095,56.35421752929688,96.9569091796875,-36.58914184570312
238475,-0.0099334716796875,0.593841552734375,-0.146270751953125,2.121886730194092,-0.4824207127094269,0.6086183190345764,56.54293823242188,96.3681640625,-37.57476806640625
238476,-0.165191650390625,0.1969757080078125,-0.1326904296875,1.536229014396667,-0.2632785141468048,0.5616971254348755,56.82917785644531,95.57382202148438,-39.77865600585938
238477,-0.165191650390625,0.1969757080078125,-0.1326904296875,1.536229014396667,-0.2632785141468048,0.5616971254348755,56.82917785644531,95.57382202148438,-39.77865600585938
238478,-0.165191650390625,0.1969757080078125,-0.1326904296875,1.536229014396667,-0.2632785141468048,0.5616971254348755,56.82917785644531,95.57382202148438,-39.77865600585938
238479,-0.2958831787109375,-0.065216064453125,-0.123565673828125,0.7402802109718323,0.4643903076648712,0.3602868020534515,57.09303283691406,94.91958618164062,-41.24772644042969
238480,-0.2958831787109375,-0.065216064453125,-0.123565673828125,0.7402802109718323,0.4643903076648712,0.3602868020534515,57.09303283691406,94.91958618164062,-41.24772644042969
238481,-0.3232421875,-0.106170654296875,-0.105712890625,0.5498844385147095,0.5208602547645569,0.2632089853286743,57.31071472167969,94.56430053710938,-41.68644714355469
238482,-0.31524658203125,-0.1318511962890625,-0.0193023681640625,0.5152739882469177,0.4894072413444519,0.161616325378418,57.56675720214844,94.30450439453124,-41.89439392089844
238483,-0.2412872314453125,-0.14453125,0.1312408447265625,0.4676276445388794,0.5877116918563843,0.1325290203094482,58.10244750976562,94.10952758789062,-42.24739074707031
238484,-0.2412872314453125,-0.14453125,0.1312408447265625,0.4676276445388794,0.5877116918563843,0.1325290203094482,58.10244750976562,94.10952758789062,-42.24739074707031
238485,-0.2120819091796875,-0.1751708984375,0.0614776611328125,0.1840095221996307,0.7227100133895874,0.0282281748950481,58.5244140625,94.09158325195312,-42.56376647949219
238486,-0.2120819091796875,-0.1751708984375,0.0614776611328125,0.1840095221996307,0.7227100133895874,0.0282281748950481,58.5244140625,94.09158325195312,-42.56376647949219
238487,-0.18316650390625,-0.197052001953125,0.0379486083984375,-0.1506736576557159,0.68426513671875,-0.0836557447910308,58.90298461914062,94.07673645019533,-42.66262817382812
238488,-0.18316650390625,-0.197052001953125,0.0379486083984375,-0.1506736576557159,0.68426513671875,-0.0836557447910308,58.90298461914062,94.07673645019533,-42.66262817382812
238489,-0.134307861328125,-0.1571807861328125,0.0871124267578125,-0.559104323387146,0.7867129445075989,-0.1809692531824112,59.43045043945312,94.30374145507812,-42.25550842285156
238490,-0.134307861328125,-0.1571807861328125,0.0871124267578125,-0.559104323387146,0.7867129445075989,-0.1809692531824112,59.43045043945312,94.30374145507812,-42.25550842285156
238491,-0.0946197509765625,-0.1425323486328125,0.09100341796875,-0.8075652718544006,0.9702524542808532,-0.283784031867981,59.64988708496094,94.95295715332033,-41.58316040039062
238492,-0.0946197509765625,-0.1425323486328125,0.09100341796875,-0.8075652718544006,0.9702524542808532,-0.283784031867981,59.64988708496094,94.95295715332033,-41.58316040039062
238493,-0.0734100341796875,-0.1369781494140625,0.0063934326171875,-0.982306718826294,0.6295151114463806,-0.3723935484886169,59.83351135253906,95.02862548828124,-41.06782531738281
238494,-0.045989990234375,-0.13873291015625,-0.1182708740234375,-0.982306718826294,0.6295151114463806,-0.3723935484886169,59.99497985839844,95.17352294921876,-40.48097229003906
238495,0.03253173828125,-0.1541595458984375,-0.290740966796875,-1.209055662155151,-0.3356432616710663,-0.3557445108890533,60.05087280273438,95.91653442382812,-39.30314636230469
238496,0.03253173828125,-0.1541595458984375,-0.290740966796875,-1.209055662155151,-0.3356432616710663,-0.3557445108890533,60.05087280273438,95.91653442382812,-39.30314636230469
238497,0.0465087890625,0.0959625244140625,-0.085540771484375,-1.460439920425415,-0.691210150718689,-0.2925780713558197,59.66664123535156,96.59161376953124,-38.42390441894531
238498,-0.0580596923828125,0.23297119140625,0.0869140625,-1.616424560546875,-0.3733919560909271,-0.2605729997158051,59.32675170898438,96.89749145507812,-37.9896240234375
238499,-0.1126861572265625,0.3227081298828125,0.3422393798828125,-1.782713055610657,0.0219617579132318,-0.2669880092144012,58.92147827148438,97.14076232910156,-37.50341796875
238500,-0.1126861572265625,0.3227081298828125,0.3422393798828125,-1.782713055610657,0.0219617579132318,-0.2669880092144012,58.92147827148438,97.14076232910156,-37.50341796875
238501,-0.1834716796875,0.420623779296875,0.662506103515625,-1.872705340385437,0.3881075084209442,-0.2936084568500519,58.69236755371094,97.30436706542967,-37.032470703125
238502,-0.2438507080078125,1.387832641601562,0.9360198974609376,-1.669891715049744,0.7097926139831543,-0.2175136804580688,58.47946166992188,97.55140686035156,-36.63993835449219
238503,-0.5380706787109375,5.143890380859375,1.680023193359375,-1.022202968597412,0.8410704731941223,0.8927962779998779,58.30360412597656,98.47390747070312,-36.02374267578125
238504,-0.5380706787109375,5.143890380859375,1.680023193359375,-1.022202968597412,0.8410704731941223,0.8927962779998779,58.30360412597656,98.47390747070312,-36.02374267578125
238505,-0.775299072265625,7.012451171875,2.2330322265625,-0.5284073948860168,1.88145112991333,1.06387186050415,58.56385803222656,98.95187377929688,-35.85626220703125
238506,-0.774017333984375,7.029037475585938,1.83551025390625,0.298910528421402,3.873010396957397,0.491647481918335,59.10498046875,99.3273468017578,-35.78240966796875
238507,-0.6332855224609375,1.937103271484375,0.0462799072265625,-0.597660481929779,1.957763433456421,-1.916122317314148,60.77685546875,99.5893096923828,-35.11996459960938
238508,-0.6332855224609375,1.937103271484375,0.0462799072265625,-0.597660481929779,1.957763433456421,-1.916122317314148,60.77685546875,99.5893096923828,-35.11996459960938
238509,-0.14501953125,0.6948699951171875,-2.451873779296875,-3.02257227897644,-1.386787056922913,-1.804288148880005,60.62339782714844,99.89137268066406,-33.95767211914062
238510,0.327484130859375,1.624710083007812,-1.904281616210938,-3.122299194335938,-3.487322807312012,-0.6957942247390747,59.57107543945312,100.1380462646484,-33.02937316894531
238511,0.7239837646484375,2.128692626953125,-0.718353271484375,-1.31408703327179,-2.247780561447144,0.2934015095233917,58.49253845214844,100.24609375,-31.658935546875
238512,0.8965301513671875,2.14227294921875,-0.3430938720703125,0.948085606098175,-0.3502264618873596,0.9889150857925416,57.79814147949219,100.1147003173828,-30.37406921386719
238513,0.8965301513671875,2.14227294921875,-0.3430938720703125,0.948085606098175,-0.3502264618873596,0.9889150857925416,57.79814147949219,100.1147003173828,-30.37406921386719
238514,0.5978851318359375,1.931686401367188,-0.1261444091796875,2.082523822784424,0.3186818361282349,1.030445694923401,57.56619262695312,99.89697265625,-29.67645263671875
238515,0.4070281982421875,1.292831420898438,-0.42559814453125,1.705996751785278,0.4406564831733704,0.8987643718719482,58.25308227539062,99.08213806152344,-30.580078125
238516,0.4070281982421875,1.292831420898438,-0.42559814453125,1.705996751785278,0.4406564831733704,0.8987643718719482,58.25308227539062,99.08213806152344,-30.580078125
238517,0.1920623779296875,0.9215087890625,-0.1388702392578125,1.106581449508667,-0.4496704936027527,0.5078195333480835,59.28509521484375,98.57203674316406,-32.37382507324219
238518,0.1376190185546875,0.7173004150390625,-0.1047515869140625,1.106581449508667,-0.4496704936027527,0.5078195333480835,59.68911743164062,98.26426696777344,-32.9691162109375
238519,0.0716094970703125,0.5251007080078125,-0.1612701416015625,1.014285445213318,-0.6948935389518738,0.4624693691730499,59.97862243652344,98.00857543945312,-33.4539794921875
238520,0.0716094970703125,0.5251007080078125,-0.1612701416015625,1.014285445213318,-0.6948935389518738,0.4624693691730499,59.97862243652344,98.00857543945312,-33.4539794921875
238521,-0.0316009521484375,0.314910888671875,-0.245086669921875,0.8613808155059814,-0.7686300873756409,0.4121492207050323,60.20033264160156,97.79367065429688,-33.99101257324219
238522,-0.1386566162109375,-0.0497894287109375,-0.46514892578125,0.6164538860321045,-0.3923177123069763,0.3592031598091125,60.36669921875,97.2159423828125,-34.93650817871094
238523,-0.0897979736328125,-0.0665283203125,-0.381378173828125,0.8158658146858215,-0.3936663269996643,0.2999771237373352,60.44596862792969,96.96052551269533,-35.16053771972656
238524,-0.0897979736328125,-0.0665283203125,-0.381378173828125,0.8158658146858215,-0.3936663269996643,0.2999771237373352,60.44596862792969,96.96052551269533,-35.16053771972656
238525,0.0308685302734375,0.019927978515625,0.0286712646484375,1.165873646736145,-0.4732807278633118,0.0969579741358757,60.67805480957031,96.46896362304688,-35.94677734375
238526,0.06005859375,-0.0072784423828125,0.1284942626953125,1.111284375190735,-0.3949012458324432,0.0218770690262317,60.82780456542969,96.03668212890624,-36.48106384277344
238527,0.0863800048828125,-0.073089599609375,0.15521240234375,0.9976837635040284,-0.3646767735481262,-0.0254720710217952,60.7921142578125,95.70291137695312,-37.0443115234375
238528,0.095977783203125,-0.1173553466796875,0.1710968017578125,0.901092290878296,-0.3491500020027161,-0.0641329139471054,60.84262084960938,95.44410705566406,-37.51609802246094
238529,0.095977783203125,-0.1173553466796875,0.1710968017578125,0.901092290878296,-0.3491500020027161,-0.0641329139471054,60.84262084960938,95.44410705566406,-37.51609802246094
238530,0.0901947021484375,-0.1279144287109375,0.17608642578125,0.8654986023902893,-0.3015012443065643,-0.1092207655310631,60.75885009765625,95.33009338378906,-38.19764709472656
238531,0.08013916015625,-0.11773681640625,0.113372802734375,0.8265352249145508,-0.2348362058401108,-0.1724846810102463,60.53303527832031,95.3000030517578,-38.87925720214844
238532,0.08013916015625,-0.11773681640625,0.113372802734375,0.8265352249145508,-0.2348362058401108,-0.1724846810102463,60.53303527832031,95.3000030517578,-38.87925720214844
238533,0.0511016845703125,-0.11181640625,0.018524169921875,0.6039474010467529,-0.4377730786800385,-0.1960171759128571,60.16415405273438,95.27674865722656,-39.27798461914062
238534,0.03216552734375,-0.1085968017578125,-0.02520751953125,0.3899610936641693,-0.7209786772727966,-0.2188077121973038,60.04595947265625,95.22305297851562,-39.42073059082031
238535,0.0099639892578125,-0.107574462890625,-0.037628173828125,0.1158818602561951,-1.11646580696106,-0.2658545672893524,59.85284423828125,95.10336303710938,-39.50132751464844
238536,0.0099639892578125,-0.107574462890625,-0.037628173828125,0.1158818602561951,-1.11646580696106,-0.2658545672893524,59.85284423828125,95.10336303710938,-39.50132751464844
238537,-0.0174560546875,-0.1069793701171875,-0.012298583984375,-0.1903505027294159,-1.516088843345642,-0.338314414024353,59.61311340332031,95.134765625,-39.45266723632812
238538,-0.054046630859375,-0.105987548828125,0.04583740234375,-0.7214396595954895,-1.743912935256958,-0.5621134042739868,59.32600402832031,95.21565246582033,-39.46037292480469
238539,-0.2693328857421875,-0.067962646484375,0.1723785400390625,-0.9152344465255736,-1.297286748886108,-0.751653790473938,58.44158935546875,95.52449035644533,-38.85369873046875
238540,-0.2693328857421875,-0.067962646484375,0.1723785400390625,-0.9152344465255736,-1.297286748886108,-0.751653790473938,58.44158935546875,95.52449035644533,-38.85369873046875
238541,-0.856170654296875,0.42315673828125,0.0546722412109375,-1.354007601737976,2.055015563964844,-1.08269727230072,57.36203002929688,96.34016418457033,-38.18115234375
238542,-0.7018280029296875,0.6474761962890625,-0.288604736328125,-1.661964893341064,2.059262037277222,-1.081591963768005,56.95883178710938,96.73712158203124,-37.72148132324219
238543,-0.7460784912109375,0.8338470458984375,-0.0518951416015625,-2.064995050430298,0.5986850261688232,-1.105037689208984,56.73272705078125,96.85684204101562,-37.0299072265625
238544,-0.7460784912109375,0.8338470458984375,-0.0518951416015625,-2.064995050430298,0.5986850261688232,-1.105037689208984,56.73272705078125,96.85684204101562,-37.0299072265625
238545,-0.62091064453125,2.170700073242188,1.013153076171875,-1.360232710838318,-1.030807375907898,0.0395133197307586,56.20278930664062,97.44343566894533,-35.57260131835938
238546,-0.564300537109375,4.999893188476562,1.232833862304688,-1.360232710838318,-1.030807375907898,0.0395133197307586,55.78324890136719,98.12971496582033,-35.06892395019531
238547,-0.465911865234375,6.37188720703125,1.20220947265625,-0.6750005483627319,-0.9102151989936828,1.468526124954224,55.26596069335938,98.85684204101562,-34.48899841308594
238548,-0.465911865234375,6.37188720703125,1.20220947265625,-0.6750005483627319,-0.9102151989936828,1.468526124954224,55.26596069335938,98.85684204101562,-34.48899841308594
238549,-0.15924072265625,5.282974243164062,0.915069580078125,-0.2638587951660156,-0.829959511756897,0.5712464451789856,55.01614379882812,99.62771606445312,-34.33369445800781
238550,0.3280487060546875,2.908355712890625,0.4857177734375,0.0540872029960155,-0.8088779449462891,0.1444104462862015,54.95722961425781,100.1350708007812,-34.241455078125
238551,0.464141845703125,1.194503784179688,0.0900726318359375,0.0234653782099485,-1.045882701873779,0.4883483648300171,55.13766479492188,99.78781127929688,-33.79029846191406
238552,0.5212860107421875,1.513565063476562,-0.2600250244140625,-0.0054024886339902,-0.2520841658115387,-0.3587909042835236,55.23271179199219,99.26268005371094,-33.58909606933594
238553,0.5212860107421875,1.513565063476562,-0.2600250244140625,-0.0054024886339902,-0.2520841658115387,-0.3587909042835236,55.23271179199219,99.26268005371094,-33.58909606933594
238554,0.3983306884765625,2.209060668945312,-1.487655639648438,1.019675850868225,-1.488406896591187,-0.5099213123321533,55.21072387695312,98.85525512695312,-33.2998046875
238555,0.023101806640625,1.8426513671875,-0.4499359130859375,1.927481412887573,-0.9590093493461608,-0.2787618637084961,55.02616882324219,98.74594116210938,-33.2716064453125
238556,-0.1249542236328125,1.608261108398438,-0.3385772705078125,1.891878724098206,-0.5879061222076416,-0.1332259625196457,54.71238708496094,98.69749450683594,-33.58023071289062
238557,-0.1249542236328125,1.608261108398438,-0.3385772705078125,1.891878724098206,-0.5879061222076416,-0.1332259625196457,54.71238708496094,98.69749450683594,-33.58023071289062
238558,-0.1663818359375,1.342529296875,-0.4028472900390625,1.384912490844727,-0.6122732758522034,0.1583193391561508,54.31330871582031,98.34524536132812,-34.12539672851562
238559,-0.10992431640625,0.987945556640625,-0.3007354736328125,1.54830801486969,-0.4361637234687805,0.2479389607906342,54.20057678222656,97.63450622558594,-36.02189636230469
238560,-0.10992431640625,0.987945556640625,-0.3007354736328125,1.54830801486969,-0.4361637234687805,0.2479389607906342,54.20057678222656,97.63450622558594,-36.02189636230469
238561,-0.1213836669921875,0.796142578125,-0.32861328125,1.796372413635254,-0.2205787152051926,0.2847190797328949,54.21176147460938,97.19371032714844,-36.69305419921875
238562,-0.128692626953125,0.6409454345703125,-0.312957763671875,1.863857507705688,0.14222452044487,0.2792659997940063,54.19918823242188,96.7569580078125,-37.37754821777344
238563,-0.1866455078125,0.3984527587890625,-0.160369873046875,1.63999617099762,0.3774527609348297,0.2496311366558075,54.51727294921875,95.70208740234376,-39.08531188964844
238564,-0.2091827392578125,0.287628173828125,-0.1021881103515625,1.371166348457336,0.6457965970039368,0.2087609320878983,54.55714416503906,95.33419799804688,-39.98857116699219
238565,-0.2091827392578125,0.287628173828125,-0.1021881103515625,1.371166348457336,0.6457965970039368,0.2087609320878983,54.55714416503906,95.33419799804688,-39.98857116699219
238566,-0.1793975830078125,0.0998992919921875,-0.1071014404296875,0.8926945328712463,0.6517583131790161,0.0563828498125076,55.01945495605469,94.55032348632812,-41.275390625
238567,-0.1699981689453125,0.0094146728515625,-0.0574798583984375,0.7359927892684937,0.5449243187904358,-0.0170942991971969,55.24867248535156,94.22320556640624,-41.658203125
238568,-0.1699981689453125,0.0094146728515625,-0.0574798583984375,0.7359927892684937,0.5449243187904358,-0.0170942991971969,55.24867248535156,94.22320556640624,-41.658203125
238569,-0.174285888671875,-0.05767822265625,0.01385498046875,0.5996980667114258,0.5081798434257507,-0.0600124709308147,55.49497985839844,93.998291015625,-42.17048645019531
238570,-0.205078125,-0.1287384033203125,0.1151580810546875,0.2907325029373169,0.728951632976532,-0.1595760732889175,55.67689514160156,93.75355529785156,-43.00611877441406
238571,-0.2072601318359375,-0.1515045166015625,0.1413116455078125,0.1886796355247498,0.8267008662223816,-0.1977370530366898,55.71395874023438,93.58285522460938,-42.96670532226562
238572,-0.2072601318359375,-0.1515045166015625,0.1413116455078125,0.1886796355247498,0.8267008662223816,-0.1977370530366898,55.71395874023438,93.58285522460938,-42.96670532226562
238573,-0.1560211181640625,-0.163330078125,0.128814697265625,-0.0772995799779892,0.8920748233795166,-0.2582712173461914,56.13546752929688,93.54779052734376,-43.31959533691406
238574,-0.119140625,-0.15728759765625,0.09832763671875,-0.0772995799779892,0.8920748233795166,-0.2582712173461914,56.33001708984375,93.60398864746094,-43.12486267089844
238575,-0.0813751220703125,-0.14508056640625,0.066558837890625,-0.2093609422445297,0.8318423628807068,-0.2771141529083252,56.52508544921875,93.525146484375,-42.83285522460938
238576,-0.0813751220703125,-0.14508056640625,0.066558837890625,-0.2093609422445297,0.8318423628807068,-0.2771141529083252,56.52508544921875,93.525146484375,-42.83285522460938
238577,-0.0455780029296875,-0.1291656494140625,0.0380096435546875,-0.327640175819397,0.6885504126548767,-0.3063157200813293,56.60403442382812,93.81471252441406,-42.70259094238281
238578,-0.015533447265625,-0.1175079345703125,0.02386474609375,-0.436941921710968,0.4847248792648315,-0.3383902907371521,56.6932373046875,94.14102172851562,-42.49618530273438
238579,0.017181396484375,-0.110595703125,0.00439453125,-0.6642094254493713,0.1453510671854019,-0.3679207563400269,56.79254150390625,94.55101013183594,-41.57093811035156
238580,0.017181396484375,-0.110595703125,0.00439453125,-0.6642094254493713,0.1453510671854019,-0.3679207563400269,56.79254150390625,94.55101013183594,-41.57093811035156
238581,0.02099609375,-0.118377685546875,-0.0404052734375,-1.067876219749451,-0.1300687938928604,-0.3533090651035309,56.66004943847656,95.03842163085938,-40.40745544433594
238582,0.013580322265625,-0.1399993896484375,-0.1092529296875,-1.277409434318542,-0.2144880592823029,-0.3519687056541443,56.55036926269531,95.29318237304688,-39.60832214355469
238583,0.00860595703125,-0.1539306640625,-0.396514892578125,-1.357361555099487,-0.3997737765312195,-0.3134157061576843,56.34518432617188,95.6644287109375,-38.85258483886719
238584,0.00860595703125,-0.1539306640625,-0.396514892578125,-1.357361555099487,-0.3997737765312195,-0.3134157061576843,56.34518432617188,95.6644287109375,-38.85258483886719
238585,-0.0780792236328125,0.1509857177734375,-0.5108489990234375,-1.343487739562988,-0.5488154292106628,-0.2323416322469711,56.14797973632812,96.17092895507812,-38.08657836914062
238586,-0.2043304443359375,0.32427978515625,-0.057037353515625,-1.425681948661804,0.0819811522960662,-0.0625888109207153,55.79107666015625,96.63108825683594,-37.44700622558594
238587,-0.199737548828125,0.4787139892578125,0.9104766845703124,-1.943791508674622,2.007646083831787,0.109786681830883,55.27711486816406,97.23239135742188,-36.69847106933594
238588,-0.199737548828125,0.4787139892578125,0.9104766845703124,-1.943791508674622,2.007646083831787,0.109786681830883,55.27711486816406,97.23239135742188,-36.69847106933594
238589,-0.350311279296875,0.914947509765625,1.014923095703125,-2.045721054077148,1.984640598297119,0.0559519492089748,55.4066162109375,97.42391967773438,-36.45306396484375
238590,-0.690216064453125,3.29931640625,1.353317260742188,-1.842931389808655,1.767126202583313,0.3022538721561432,55.78480529785156,97.83146667480467,-36.34605407714844
238591,-1.47857666015625,8.11328125,1.78741455078125,1.43185818195343,6.30590295791626,3.307552337646484,57.51406860351562,99.2290496826172,-36.78057861328125
238592,-1.47857666015625,8.11328125,1.78741455078125,1.43185818195343,6.30590295791626,3.307552337646484,57.51406860351562,99.2290496826172,-36.78057861328125
238593,-1.1053466796875,6.622406005859375,-0.4380340576171875,2.333823919296265,5.205912113189697,0.4226396679878235,59.505859375,99.51388549804688,-37.00502014160156
238594,-0.36676025390625,2.678009033203125,-2.114517211914062,0.8917427062988281,-0.692251443862915,-1.38086211681366,61.37957763671875,99.02651977539062,-36.97883605957031
238595,0.2127227783203125,0.443267822265625,-0.168212890625,-3.887118577957153,-4.040789127349854,-1.875813722610474,60.16497802734375,98.7712860107422,-36.48228454589844
238596,0.9078369140625,1.017684936523438,-0.8462982177734375,-3.996744394302368,-1.090387105941772,-1.05107855796814,58.28073120117188,98.99847412109376,-35.60786437988281
238597,0.9078369140625,1.017684936523438,-0.8462982177734375,-3.996744394302368,-1.090387105941772,-1.05107855796814,58.28073120117188,98.99847412109376,-35.60786437988281
238598,0.758544921875,1.65594482421875,-0.8349761962890625,2.279011487960815,-0.8466132879257202,0.9769718647003174,56.66484069824219,98.9162139892578,-32.80519104003906
238599,0.3151092529296875,1.537643432617188,-0.21533203125,2.988216161727905,-0.0781741663813591,0.946079432964325,56.87727355957031,98.47093200683594,-32.82791137695312
238600,0.3151092529296875,1.537643432617188,-0.21533203125,2.988216161727905,-0.0781741663813591,0.946079432964325,56.87727355957031,98.47093200683594,-32.82791137695312
238601,0.2393646240234375,1.289154052734375,-0.35821533203125,2.311585426330566,0.4228881299495697,0.9352672696113586,57.20736694335938,97.8217315673828,-33.78471374511719
238602,0.16314697265625,1.094879150390625,-0.52142333984375,1.348464488983154,0.3370558023452759,0.8018903136253357,57.64384460449219,97.35392761230467,-35.11550903320312
238603,0.082183837890625,0.75262451171875,-0.33563232421875,0.7262344360351562,-0.3575693070888519,0.4891388118267059,58.58815002441406,96.72500610351562,-36.49012756347656
238604,0.082183837890625,0.75262451171875,-0.33563232421875,0.7262344360351562,-0.3575693070888519,0.4891388118267059,58.58815002441406,96.72500610351562,-36.49012756347656
238605,0.0817718505859375,0.5393218994140625,-0.366607666015625,0.9439142942428588,-0.9984886050224304,0.4259435832500458,58.86239624023438,96.67349243164062,-36.82191467285156
238606,0.052886962890625,0.343780517578125,-0.3349761962890625,1.169712543487549,-1.482467770576477,0.3638187050819397,58.87937927246094,96.4690399169922,-37.32046508789062
238607,0.0540008544921875,0.006072998046875,-0.261993408203125,1.156673431396484,-1.054606676101685,0.1692918241024017,58.64640808105469,95.88214111328124,-38.48397827148438
238608,0.0590972900390625,-0.056121826171875,-0.2143096923828125,1.043261408805847,-0.8270633220672607,0.103793241083622,58.41714477539062,95.55201721191406,-39.18537902832031
238609,0.0590972900390625,-0.056121826171875,-0.2143096923828125,1.043261408805847,-0.8270633220672607,0.103793241083622,58.41714477539062,95.55201721191406,-39.18537902832031
238610,0.0560150146484375,-0.03955078125,0.1225128173828125,0.8481332063674927,-0.5471195578575134,-0.1279079020023346,58.23611450195312,94.86442565917967,-40.32119750976562
238611,0.05859375,-0.07098388671875,0.191864013671875,0.7649538516998291,-0.4054191410541534,-0.2061518430709839,58.15657043457031,94.61563110351562,-40.611572265625
238612,0.05859375,-0.07098388671875,0.191864013671875,0.7649538516998291,-0.4054191410541534,-0.2061518430709839,58.15657043457031,94.61563110351562,-40.611572265625
238613,0.060791015625,-0.1082305908203125,0.209197998046875,0.698235034942627,-0.2890089154243469,-0.2381728887557983,57.92970275878906,94.3856201171875,-40.98606872558594
238614,0.0573577880859375,-0.15350341796875,0.176727294921875,0.612604022026062,-0.2420863956212997,-0.2602179944515228,57.72509765625,94.32669067382812,-41.48153686523438
238615,0.043487548828125,-0.1477203369140625,0.1593017578125,0.5849020481109619,-0.3040104806423187,-0.2901332974433899,57.62959289550781,94.26165771484376,-41.57789611816406
238616,0.043487548828125,-0.1477203369140625,0.1593017578125,0.5849020481109619,-0.3040104806423187,-0.2901332974433899,57.62959289550781,94.26165771484376,-41.57789611816406
238617,0.028900146484375,-0.147674560546875,0.1403656005859375,0.5234280824661255,-0.3781214654445648,-0.3080768585205078,57.54496765136719,94.18124389648438,-41.75541687011719
238618,-0.0062103271484375,-0.141265869140625,0.0582275390625,0.226205974817276,-0.6367232203483582,-0.3445778787136078,57.09992980957031,94.19953918457033,-42.19265747070312
238619,-0.026214599609375,-0.13885498046875,0.055694580078125,-0.0122907543554902,-0.7829911708831787,-0.3832965195178986,56.7901611328125,94.156005859375,-42.05059814453125
238620,-0.026214599609375,-0.13885498046875,0.055694580078125,-0.0122907543554902,-0.7829911708831787,-0.3832965195178986,56.7901611328125,94.156005859375,-42.05059814453125
238621,-0.0497589111328125,-0.139556884765625,0.0793609619140625,-0.5916364192962646,-0.7124190330505371,-0.5050751566886902,56.48995971679688,94.26661682128906,-41.96665954589844
238622,-0.1184234619140625,-0.153594970703125,0.0920867919921875,-0.8945704698562622,-0.424134224653244,-0.5715921521186829,55.81277465820312,94.74237060546876,-41.45437622070312
238623,-0.1927337646484375,-0.172119140625,0.0399322509765625,-1.17782723903656,-0.0674107298254966,-0.6370171904563904,55.60496520996094,95.14288330078124,-41.09654235839844
238624,-0.1927337646484375,-0.172119140625,0.0399322509765625,-1.17782723903656,-0.0674107298254966,-0.6370171904563904,55.60496520996094,95.14288330078124,-41.09654235839844
238625,-0.33367919921875,-0.1478424072265625,-0.043212890625,-1.409121990203857,0.2992210686206818,-0.6911382079124451,55.41227722167969,95.64044189453124,-40.56497192382812
238626,-0.429229736328125,0.0852813720703125,-0.11090087890625,-1.507198929786682,0.703095018863678,-0.4108149707317352,55.25944519042969,95.9972686767578,-39.93527221679688
238627,-0.51519775390625,0.604095458984375,0.0904998779296875,-1.494303345680237,0.8350591659545898,-0.2704977989196777,54.89950561523438,96.80078125,-38.4959716796875
238628,-0.51519775390625,0.604095458984375,0.0904998779296875,-1.494303345680237,0.8350591659545898,-0.2704977989196777,54.89950561523438,96.80078125,-38.4959716796875
238629,-0.7747955322265625,1.197418212890625,0.70416259765625,-1.644751787185669,0.4311324954032898,0.1379903554916382,54.93077087402344,97.31047058105467,-37.59689331054688
238630,-0.8897247314453125,3.451156616210938,1.0816650390625,-1.22402286529541,0.5044389367103577,0.16297347843647,55.13389587402344,97.66618347167967,-37.36360168457031
238631,-0.7084503173828125,5.378311157226562,1.184677124023438,-0.7333719730377197,0.2653842568397522,0.5100118517875671,55.54560852050781,98.17526245117188,-37.37986755371094
238632,-0.7084503173828125,5.378311157226562,1.184677124023438,-0.7333719730377197,0.2653842568397522,0.5100118517875671,55.54560852050781,98.17526245117188,-37.37986755371094
238633,-0.2639312744140625,6.403884887695312,1.314666748046875,-0.1451369524002075,0.352069079875946,1.410065174102783,55.69296264648438,98.74748229980467,-37.3062744140625
238634,-0.1466217041015625,5.140762329101562,0.8329925537109375,0.1964888274669647,0.6687708497047424,0.7399044632911682,56.11053466796875,99.20799255371094,-37.51797485351562
238635,0.012115478515625,1.439773559570312,-0.284393310546875,-0.8676334023475647,-1.234738707542419,-0.5688338875770569,57.04957580566406,99.38330078125,-37.07957458496094
238636,0.2210845947265625,1.039749145507812,-0.5801239013671875,-1.461012840270996,-2.820343017578125,-1.090435028076172,56.966552734375,99.22282409667967,-36.50364685058594
238637,0.2210845947265625,1.039749145507812,-0.5801239013671875,-1.461012840270996,-2.820343017578125,-1.090435028076172,56.966552734375,99.22282409667967,-36.50364685058594
238638,0.680206298828125,2.100128173828125,-0.618896484375,-1.816113710403442,-1.915919661521912,-0.5611283183097839,55.41795349121094,99.00302124023438,-35.30325317382812
238639,0.832916259765625,2.56756591796875,-1.309921264648438,-0.5838075280189514,-1.044128775596619,-0.2180910557508469,54.38787841796875,99.05227661132812,-34.53459167480469
238640,0.832916259765625,2.56756591796875,-1.309921264648438,-0.5838075280189514,-1.044128775596619,-0.2180910557508469,54.38787841796875,99.05227661132812,-34.53459167480469
238641,0.3989105224609375,2.316558837890625,-0.8949127197265625,1.358208179473877,-1.021713256835938,-0.0289416369050741,53.63414001464844,99.06344604492188,-33.77568054199219
238642,0.0243377685546875,1.841476440429688,-0.34405517578125,2.317843914031982,-0.4965836703777313,0.1811519414186478,53.28825378417969,98.95614624023438,-33.44792175292969
238643,-0.144744873046875,1.360061645507812,-0.3994293212890625,2.063460826873779,-0.4043480157852173,0.331935852766037,53.15415954589844,98.41043090820312,-35.24688720703125
238644,-0.144744873046875,1.360061645507812,-0.3994293212890625,2.063460826873779,-0.4043480157852173,0.331935852766037,53.15415954589844,98.41043090820312,-35.24688720703125
238645,-0.1065216064453125,1.087936401367188,-0.2226104736328125,1.912770748138428,-0.5876456499099731,0.3895336389541626,53.19960021972656,97.83357238769533,-36.38046264648438
238646,-0.1019744873046875,0.556732177734375,-0.05517578125,1.870674610137939,-0.246601790189743,0.5439943075180054,53.39689636230469,96.92912292480467,-38.30317687988281
238647,-0.14013671875,0.3339385986328125,-0.09637451171875,1.797769784927368,0.0730829983949661,0.5906944274902344,53.50277709960938,96.49919128417967,-39.20220947265625
238648,-0.14013671875,0.3339385986328125,-0.09637451171875,1.797769784927368,0.0730829983949661,0.5906944274902344,53.50277709960938,96.49919128417967,-39.20220947265625
238649,-0.2393035888671875,0.031890869140625,-0.1689300537109375,0.9915313720703124,0.7079619765281677,0.3251725137233734,53.85960388183594,95.6203155517578,-40.8663330078125
238650,-0.2764434814453125,-0.0472259521484375,-0.180419921875,0.9915313720703124,0.7079619765281677,0.3251725137233734,54.05680847167969,95.17666625976562,-41.45611572265625
238651,-0.29095458984375,-0.1069793701171875,-0.162506103515625,0.7090319991111755,0.7120105028152466,0.2067313343286514,54.46646118164062,94.85841369628906,-42.00271606445312
238652,-0.26239013671875,-0.14141845703125,-0.0887908935546875,0.5316715836524963,0.6306074857711792,0.1424349099397659,54.82546997070312,94.47625732421876,-42.4744873046875
238653,-0.26239013671875,-0.14141845703125,-0.0887908935546875,0.5316715836524963,0.6306074857711792,0.1424349099397659,54.82546997070312,94.47625732421876,-42.4744873046875
238654,-0.2247314453125,-0.1460113525390625,0.015289306640625,0.4613750874996185,0.6005969047546387,0.12381462007761,55.07244873046875,94.1553955078125,-42.69332885742188
238655,-0.1644744873046875,-0.1399078369140625,0.1154022216796875,0.337348997592926,0.7877955436706543,0.0792391598224639,55.56893920898438,93.75965881347656,-42.866943359375
238656,-0.1455841064453125,-0.1506805419921875,0.099639892578125,-0.0171933677047491,0.9789220690727234,0.0066336677409708,55.92051696777344,93.71267700195312,-43.008544921875
238657,-0.1455841064453125,-0.1506805419921875,0.099639892578125,-0.0171933677047491,0.9789220690727234,0.0066336677409708,55.92051696777344,93.71267700195312,-43.008544921875
238658,-0.1086273193359375,-0.1654052734375,0.02374267578125,-0.2069555819034576,1.017687320709229,-0.0160836279392242,56.23597717285156,93.76776123046876,-43.08076477050781
238659,-0.0868988037109375,-0.174285888671875,-0.04144287109375,-0.3833599090576172,0.9477508664131165,-0.0195766314864158,56.58538818359375,93.88670349121094,-43.01203918457031
238660,-0.0868988037109375,-0.174285888671875,-0.04144287109375,-0.3833599090576172,0.9477508664131165,-0.0195766314864158,56.58538818359375,93.88670349121094,-43.01203918457031
238661,-0.0696258544921875,-0.1810455322265625,-0.0813751220703125,-0.5317491292953491,0.7966433763504028,-0.0062363240867853,56.81129455566406,94.03865051269533,-42.73512268066406
238662,-0.0168304443359375,-0.1639862060546875,-0.057891845703125,-0.8001083731651306,0.4675903618335724,0.0151137057691812,57.14631652832031,94.59310913085938,-42.13374328613281
238663,0.0079193115234375,-0.1500244140625,-0.0326385498046875,-0.9198135137557985,0.3436665534973145,0.0079407477751374,57.30628967285156,94.79505920410156,-41.5982666015625
238664,0.0079193115234375,-0.1500244140625,-0.0326385498046875,-0.9198135137557985,0.3436665534973145,0.0079407477751374,57.30628967285156,94.79505920410156,-41.5982666015625
238665,0.0471649169921875,-0.140625,-0.027099609375,-1.068495631217957,0.1244870647788048,-0.0364733226597309,57.56462097167969,95.34138488769533,-40.49415588378906
238666,0.068634033203125,-0.140533447265625,-0.04815673828125,-1.068495631217957,0.1244870647788048,-0.0364733226597309,57.70747375488281,95.69674682617188,-39.92355346679688
238667,0.0963592529296875,-0.1039886474609375,-0.04443359375,-1.131523132324219,0.074665181338787,-0.059215385466814,57.82745361328125,96.04449462890624,-39.28421020507812
238668,0.0963592529296875,-0.1039886474609375,-0.04443359375,-1.131523132324219,0.074665181338787,-0.059215385466814,57.82745361328125,96.04449462890624,-39.28421020507812
238669,-0.12139892578125,0.2337188720703125,0.04095458984375,-1.492977380752563,0.192303404211998,-0.1012629717588425,57.82594299316406,96.4760284423828,-38.10043334960938
238670,-0.1966094970703125,0.3316192626953125,0.2005767822265625,-1.777513027191162,0.3364286124706268,-0.1712188869714737,57.72903442382812,96.62393188476562,-37.39755249023438
238671,-0.2543182373046875,0.475830078125,0.46795654296875,-2.105278015136719,0.8083338141441345,-0.2549712955951691,57.6829833984375,96.74942016601562,-36.821044921875
238672,-0.2543182373046875,0.475830078125,0.46795654296875,-2.105278015136719,0.8083338141441345,-0.2549712955951691,57.6829833984375,96.74942016601562,-36.821044921875
238673,-0.4953765869140625,1.928634643554688,0.84832763671875,-1.928271412849426,2.115403413772583,-0.1587470322847366,57.66291809082031,97.5494384765625,-35.79209899902344
238674,-0.50482177734375,3.863372802734375,0.7916107177734375,-1.400108456611633,1.949608325958252,0.3877418637275696,57.78225708007812,98.11073303222656,-35.14778137207031
238675,-0.7178497314453125,5.31829833984375,0.9698638916015624,-0.9781033992767334,0.4125902354717255,0.911929488182068,58.16548156738281,98.70822143554688,-34.60728454589844
238676,-0.7178497314453125,5.31829833984375,0.9698638916015624,-0.9781033992767334,0.4125902354717255,0.911929488182068,58.16548156738281,98.70822143554688,-34.60728454589844
238677,-0.9921722412109376,6.784469604492188,1.43572998046875,-0.5540102124214172,-0.354424923658371,0.6079472303390503,58.59797668457031,99.2702178955078,-34.24224853515625
238678,-0.820037841796875,6.108108520507812,1.361221313476562,-0.6369897723197937,1.039920687675476,-0.1469990313053131,59.10710144042969,99.53800964355467,-34.35995483398438
238679,-0.3700714111328125,1.8946533203125,-0.9336090087890624,-2.251420974731445,2.744526863098145,-0.9846814274787904,59.58650207519531,99.43260192871094,-33.75555419921875
238680,-0.3700714111328125,1.8946533203125,-0.9336090087890624,-2.251420974731445,2.744526863098145,-0.9846814274787904,59.58650207519531,99.43260192871094,-33.75555419921875
238681,0.0909271240234375,1.526290893554688,-2.885421752929688,-1.927814841270447,-1.080239415168762,-0.2509331703186035,59.64544677734375,99.41329956054688,-32.76045227050781
238682,0.554107666015625,1.970458984375,-0.12945556640625,1.874872803688049,-1.28268563747406,1.010158777236938,59.18666076660156,99.69580078125,-30.65345764160156
238683,0.5016632080078125,1.851486206054688,-0.0792999267578125,2.36469292640686,-0.3913746774196625,1.180339097976685,58.85246276855469,99.75949096679688,-30.48309326171875
238684,0.5016632080078125,1.851486206054688,-0.0792999267578125,2.36469292640686,-0.3913746774196625,1.180339097976685,58.85246276855469,99.75949096679688,-30.48309326171875
238685,0.392974853515625,1.511978149414062,-0.3613433837890625,0.8432763814926147,-0.9933521747589112,0.4376074373722076,59.04061889648438,98.87721252441406,-32.27610778808594
238686,0.3401641845703125,1.316696166992188,-0.04547119140625,0.8432763814926147,-0.9933521747589112,0.4376074373722076,59.3604736328125,98.39913940429688,-33.18931579589844
238687,0.34173583984375,1.046463012695312,0.0218963623046875,0.7018939256668091,-0.7332286834716797,0.2980735003948212,59.66593933105469,97.8252410888672,-33.80421447753906
238688,0.369476318359375,0.7537078857421875,-0.1668853759765625,0.6960387229919434,-0.6686528921127319,0.3308431804180145,59.71156311035156,97.55632019042967,-34.048583984375
238689,0.369476318359375,0.7537078857421875,-0.1668853759765625,0.6960387229919434,-0.6686528921127319,0.3308431804180145,59.71156311035156,97.55632019042967,-34.048583984375
238690,0.34271240234375,0.2565155029296875,-0.4311370849609375,1.110201597213745,-1.229267954826355,0.5649920105934143,59.7303466796875,97.097412109375,-34.84228515625
238691,0.2681427001953125,0.126861572265625,-0.33807373046875,1.305193662643433,-1.097061991691589,0.562696099281311,59.6612548828125,96.97410583496094,-35.22233581542969
238692,0.2681427001953125,0.126861572265625,-0.33807373046875,1.305193662643433,-1.097061991691589,0.562696099281311,59.6612548828125,96.97410583496094,-35.22233581542969
238693,0.203582763671875,0.04742431640625,-0.30572509765625,1.323726654052734,-0.7385923266410828,0.4548119902610779,59.70704650878906,96.82901000976562,-35.62478637695312
238694,0.1568603515625,0.1085052490234375,-0.1214447021484375,0.9766660928726196,-0.5075220465660095,0.088179662823677,59.74650573730469,96.1781005859375,-36.68106079101562
238695,0.1845550537109375,0.1150360107421875,-0.027801513671875,0.7775961756706238,-0.5603751540184021,-0.0488309226930141,59.91409301757812,95.83590698242188,-37.2041015625
238696,0.1845550537109375,0.1150360107421875,-0.027801513671875,0.7775961756706238,-0.5603751540184021,-0.0488309226930141,59.91409301757812,95.83590698242188,-37.2041015625
238697,0.20806884765625,0.0907440185546875,0.0229034423828125,0.6498984098434448,-0.6035769581794739,-0.1050276160240173,59.82582092285156,95.56291198730467,-37.67247009277344
238698,0.22430419921875,0.04217529296875,0.0514068603515625,0.598115861415863,-0.6096979975700378,-0.1056318879127502,59.74201965332031,95.3833465576172,-38.13386535644531
238699,0.2242279052734375,-0.0567626953125,0.1300048828125,0.5605506896972656,-0.5775296688079834,0.0126691898331046,59.65158081054688,95.1199188232422,-38.63787841796875
238700,0.2242279052734375,-0.0567626953125,0.1300048828125,0.5605506896972656,-0.5775296688079834,0.0126691898331046,59.65158081054688,95.1199188232422,-38.63787841796875
238701,0.14288330078125,-0.109832763671875,0.1760406494140625,0.4042031466960907,-0.3092790246009827,0.0931858718395233,59.56402587890625,94.8861846923828,-39.19000244140625
238702,0.0966339111328125,-0.111328125,0.1670989990234375,0.4042031466960907,-0.3092790246009827,0.0931858718395233,59.43692016601562,94.69998168945312,-39.25306701660156
238703,0.0614776611328125,-0.1072540283203125,0.179840087890625,0.2673246562480927,-0.2190556526184082,0.058221761137247,59.43962097167969,94.51690673828124,-39.32695007324219
238704,0.0267486572265625,-0.102935791015625,0.181427001953125,0.0611696131527423,-0.170447364449501,0.0102664856240153,59.5118408203125,94.2835693359375,-39.35768127441406
238705,0.0267486572265625,-0.102935791015625,0.181427001953125,0.0611696131527423,-0.170447364449501,0.0102664856240153,59.5118408203125,94.2835693359375,-39.35768127441406
238706,-0.05999755859375,-0.0823822021484375,0.164215087890625,-0.4355850219726562,-0.3685815036296844,-0.1616802364587784,59.64389038085938,94.45420837402344,-39.27088928222656
238707,-0.1021728515625,-0.0732421875,0.170135498046875,-0.6548947691917419,-0.589440107345581,-0.2940044701099396,59.72584533691406,94.71310424804688,-39.09269714355469
238708,-0.1021728515625,-0.0732421875,0.170135498046875,-0.6548947691917419,-0.589440107345581,-0.2940044701099396,59.72584533691406,94.71310424804688,-39.09269714355469
238709,-0.2212066650390625,-0.0254364013671875,0.2301177978515625,-1.002641558647156,-1.025720477104187,-0.6887030601501465,59.54252624511719,95.19294738769533,-38.291748046875
238710,-0.3461151123046875,0.0529327392578125,0.28924560546875,-1.158807635307312,-1.114981174468994,-1.006421566009521,59.32530212402344,95.71829223632812,-38.00523376464844
238711,-0.6513214111328125,0.2107391357421875,0.485504150390625,-1.245534300804138,-0.5840823650360107,-1.381085276603699,59.03703308105469,96.17097473144533,-37.41075134277344
238712,-0.6513214111328125,0.2107391357421875,0.485504150390625,-1.245534300804138,-0.5840823650360107,-1.381085276603699,59.03703308105469,96.17097473144533,-37.41075134277344
238713,-0.7996826171875,0.385650634765625,0.6261749267578125,-1.234378933906555,1.798649430274963,-1.42038893699646,58.60581970214844,96.57771301269533,-36.99176025390625
238714,-0.7776031494140625,0.5605010986328125,0.544342041015625,-1.234378933906555,1.798649430274963,-1.42038893699646,57.93205261230469,97.04019165039062,-36.67132568359375
238715,-0.983001708984375,1.579010009765625,0.265106201171875,-1.482768416404724,0.3586913049221039,-1.065618634223938,57.02703857421875,97.76193237304688,-36.09194946289062
238716,-1.090866088867188,3.646942138671875,0.5809326171875,-1.387637138366699,-0.9865363240242004,-0.5535523891448975,56.83334350585938,97.91017150878906,-35.75160217285156
238717,-1.090866088867188,3.646942138671875,0.5809326171875,-1.387637138366699,-0.9865363240242004,-0.5535523891448975,56.83334350585938,97.91017150878906,-35.75160217285156
238718,-0.2529449462890625,6.328262329101562,0.676910400390625,-0.1142344325780869,0.0563466288149356,1.422846555709839,56.534912109375,98.67274475097656,-35.44090270996094
238719,0.1816558837890625,3.714187622070312,-0.0868988037109375,-0.3902239501476288,-1.036819219589233,0.1654776483774185,56.53718566894531,99.06491088867188,-35.34617614746094
238720,0.1816558837890625,3.714187622070312,-0.0868988037109375,-0.3902239501476288,-1.036819219589233,0.1654776483774185,56.53718566894531,99.06491088867188,-35.34617614746094
238721,0.4141693115234375,1.9608154296875,0.0391082763671875,-0.8699175715446472,-0.8521641492843628,-0.3701077401638031,56.72335815429688,99.17825317382812,-35.13803100585938
238722,0.39654541015625,1.287322998046875,-0.2533416748046875,-0.4296107590198517,-0.3293163776397705,-0.3645193576812744,56.61756896972656,99.0779266357422,-34.44126892089844
238723,0.0159912109375,1.814407348632812,-0.4915313720703125,0.3671194016933441,-0.2865835726261139,-0.1463372409343719,56.32514953613281,99.03736877441406,-33.88075256347656
238724,0.0159912109375,1.814407348632812,-0.4915313720703125,0.3671194016933441,-0.2865835726261139,-0.1463372409343719,56.32514953613281,99.03736877441406,-33.88075256347656
238725,-0.114654541015625,1.832794189453125,-0.529388427734375,1.244030952453613,-0.3494860827922821,-0.0497997812926769,55.84275817871094,98.97380065917967,-33.53802490234375
238726,-0.0648345947265625,1.576187133789062,-0.442657470703125,1.381256222724915,-0.1928418874740601,0.04715446382761,55.67845153808594,98.73287963867188,-33.82012939453125
238727,0.037750244140625,1.365814208984375,-0.386871337890625,1.531000137329102,-0.1704998314380646,0.1942158192396164,55.58427429199219,98.53123474121094,-34.24446105957031
238728,0.037750244140625,1.365814208984375,-0.386871337890625,1.531000137329102,-0.1704998314380646,0.1942158192396164,55.58427429199219,98.53123474121094,-34.24446105957031
238729,0.0840301513671875,1.1722412109375,-0.2996978759765625,1.929874897003174,0.0845010355114936,0.4430107176303864,55.55929565429688,98.235107421875,-34.81434631347656
238730,0.0704498291015625,1.002487182617188,-0.2562408447265625,1.929874897003174,0.0845010355114936,0.4430107176303864,55.72125244140625,97.45779418945312,-36.4549560546875
238731,0.0214691162109375,0.6431884765625,-0.1767578125,1.913315534591675,0.3310008347034454,0.5469067692756653,55.79852294921875,97.13084411621094,-37.33277893066406
238732,-0.01849365234375,0.4622039794921875,-0.148651123046875,1.733723759651184,0.4618051648139954,0.5526645183563232,55.977783203125,96.62391662597656,-38.15730285644531
238733,-0.01849365234375,0.4622039794921875,-0.148651123046875,1.733723759651184,0.4618051648139954,0.5526645183563232,55.977783203125,96.62391662597656,-38.15730285644531
238734,-0.0359344482421875,0.11688232421875,-0.27947998046875,1.274677276611328,0.5545364618301392,0.4598999619483948,56.41645812988281,95.90174865722656,-39.83084106445312
238735,-0.0245208740234375,0.0041961669921875,-0.2761688232421875,1.053724408149719,0.4903556108474731,0.3763017356395721,56.91552734375,95.22779846191406,-41.06651306152344
238736,-0.015106201171875,-0.0457916259765625,-0.1761932373046875,0.876964271068573,0.4389707148075104,0.2884579002857208,57.08177185058594,95.01629638671876,-41.4224853515625
238737,-0.0116424560546875,-0.052093505859375,-0.0471038818359375,0.7515163421630859,0.4412583708763123,0.2080317586660385,57.2724609375,94.62367248535156,-41.77444458007812
238738,-0.0153961181640625,-0.0594329833984375,0.048492431640625,0.6607057452201843,0.4779958724975586,0.1455436199903488,57.49716186523438,94.45326232910156,-42.1669921875
238739,-0.0156707763671875,-0.0909423828125,0.0735626220703125,0.5712912082672119,0.5225790739059448,0.1076369807124138,57.67922973632812,94.20719909667967,-42.31822204589844
238740,-0.0156707763671875,-0.0909423828125,0.0735626220703125,0.5712912082672119,0.5225790739059448,0.1076369807124138,57.67922973632812,94.20719909667967,-42.31822204589844
238741,-0.042999267578125,-0.1648101806640625,-0.00811767578125,0.3045961260795593,0.4289060831069946,0.0164189208298921,57.8843994140625,94.16433715820312,-42.68907165527344
238742,-0.064178466796875,-0.1860198974609375,-0.0577850341796875,0.1191993579268456,0.3187156617641449,-0.0449576191604137,58.03538513183594,94.22297668457033,-42.6494140625
238743,-0.07275390625,-0.1926727294921875,-0.070098876953125,-0.1140141859650612,0.1786200702190399,-0.1056167036294937,58.10813903808594,94.35357666015624,-42.68916320800781
238744,-0.07275390625,-0.1926727294921875,-0.070098876953125,-0.1140141859650612,0.1786200702190399,-0.1056167036294937,58.10813903808594,94.35357666015624,-42.68916320800781
238745,-0.071075439453125,-0.1897125244140625,-0.045806884765625,-0.389316588640213,0.1205511838197708,-0.1481862664222717,58.22068786621094,94.52520751953124,-42.55917358398438
238746,-0.0653228759765625,-0.18145751953125,-0.05291748046875,-0.9466395378112792,0.1868577599525452,-0.20453742146492,58.25401306152344,94.9419403076172,-41.95738220214844
238747,-0.0526580810546875,-0.1981964111328125,-0.1429290771484375,-1.179029583930969,0.1826723366975784,-0.2175331264734268,58.22666931152344,95.11911010742188,-41.35630798339844
238748,-0.0526580810546875,-0.1981964111328125,-0.1429290771484375,-1.179029583930969,0.1826723366975784,-0.2175331264734268,58.22666931152344,95.11911010742188,-41.35630798339844
238749,-0.0173187255859375,-0.2254638671875,-0.29461669921875,-1.331498503684998,-0.0502948611974716,-0.2074637115001678,58.23652648925781,95.43717956542967,-40.83071899414062
238750,0.0998992919921875,-0.14898681640625,-0.2057647705078125,-1.301326990127563,-0.5259117484092712,-0.2058264017105103,58.33767700195312,96.13363647460938,-39.32841491699219
238751,0.0438385009765625,0.150238037109375,0.0114288330078125,-1.233853220939636,-0.3244526386260986,-0.2260943800210953,58.14788818359375,96.4296875,-38.66293334960938
238752,0.0438385009765625,0.150238037109375,0.0114288330078125,-1.233853220939636,-0.3244526386260986,-0.2260943800210953,58.14788818359375,96.4296875,-38.66293334960938
238753,-0.086822509765625,0.25909423828125,0.23321533203125,-1.314879059791565,0.10294209420681,-0.3111661374568939,57.93344116210938,96.84303283691406,-38.31556701660156
238754,-0.1721038818359375,0.413665771484375,0.716217041015625,-1.527603268623352,0.5729641914367676,-0.3931233286857605,57.47993469238281,97.46949768066406,-37.46134948730469
238755,-0.2672271728515625,0.747222900390625,0.8549957275390625,-1.764485597610474,0.9686846137046814,-0.4446608126163483,57.27015686035156,97.86662292480467,-37.07884216308594
238756,-0.4571685791015625,2.60357666015625,1.149856567382812,-1.542130827903748,1.307478070259094,0.3010168373584747,57.23370361328125,98.18896484375,-36.91876220703125
238757,-0.4571685791015625,2.60357666015625,1.149856567382812,-1.542130827903748,1.307478070259094,0.3010168373584747,57.23370361328125,98.18896484375,-36.91876220703125
238758,-1.281936645507812,5.712112426757812,1.902618408203125,-1.240809321403503,1.038681030273438,0.689118504524231,57.78913879394531,99.03077697753906,-36.76968383789062
238759,-1.607452392578125,6.327239990234375,1.93231201171875,-0.9280477166175842,1.008612632751465,0.165987104177475,58.3626708984375,99.36717224121094,-36.27494812011719
238760,-0.900634765625,2.773651123046875,0.8809814453125,-1.854160904884338,1.651285886764526,-1.678842306137085,58.95428466796875,99.71949768066406,-35.07089233398438
238761,-0.900634765625,2.773651123046875,0.8809814453125,-1.854160904884338,1.651285886764526,-1.678842306137085,58.95428466796875,99.71949768066406,-35.07089233398438
238762,-0.476776123046875,1.721282958984375,0.378753662109375,-2.387054443359375,2.743048906326294,-1.682124495506287,58.55769348144531,100.0157470703125,-34.05290222167969
238763,0.0796051025390625,1.576751708984375,-1.947052001953125,-2.854657411575317,2.630786418914795,-1.111755728721619,58.17330932617188,100.2164001464844,-32.86068725585938
238764,0.6738739013671875,1.960617065429688,-3.8604736328125,-2.651756286621094,-2.741085529327393,-0.4968934059143066,57.91288757324219,100.4026031494141,-31.36036682128906
238765,0.6738739013671875,1.960617065429688,-3.8604736328125,-2.651756286621094,-2.741085529327393,-0.4968934059143066,57.91288757324219,100.4026031494141,-31.36036682128906
238766,0.5920867919921875,1.868194580078125,0.1392059326171875,1.674314498901367,-0.6623204350471497,1.229154825210571,57.16952514648438,100.1786956787109,-29.0809326171875
238767,0.3812408447265625,1.77471923828125,0.4444580078125,1.799427628517151,1.826584696769714,1.341011047363281,57.12492370605469,99.88560485839844,-29.20335388183594
238768,0.3455810546875,1.526763916015625,-0.0075225830078125,1.799427628517151,1.826584696769714,1.341011047363281,57.58952331542969,99.54046630859376,-29.90892028808594
238769,0.3455810546875,1.526763916015625,-0.0075225830078125,1.799427628517151,1.826584696769714,1.341011047363281,57.58952331542969,99.54046630859376,-29.90892028808594
238770,0.090240478515625,1.135910034179688,-0.2879180908203125,0.8353095054626465,0.2115884125232697,0.5880528688430786,59.21253967285156,99.01290893554688,-31.24847412109375
238771,-0.01416015625,0.9226226806640624,-0.05859375,0.8353095054626465,0.2115884125232697,0.5880528688430786,59.84976196289062,98.7606201171875,-31.557861328125
238772,-0.0681915283203125,0.7386016845703125,-0.0123443603515625,0.943390727043152,-0.1768706440925598,0.5229138135910034,60.2354736328125,98.70668029785156,-31.9017333984375
238773,-0.0681915283203125,0.7386016845703125,-0.0123443603515625,0.943390727043152,-0.1768706440925598,0.5229138135910034,60.2354736328125,98.70668029785156,-31.9017333984375
238774,-0.204193115234375,0.319000244140625,-0.2919464111328125,0.9729041457176208,-0.4480262398719788,0.4536982476711273,60.80946350097656,98.3459930419922,-32.58345031738281
238775,-0.263671875,0.054534912109375,-0.369110107421875,0.91791170835495,-0.5119024515151978,0.360590398311615,60.9991455078125,98.09048461914062,-32.91255187988281
238776,-0.263671875,0.054534912109375,-0.369110107421875,0.91791170835495,-0.5119024515151978,0.360590398311615,60.9991455078125,98.09048461914062,-32.91255187988281
238777,-0.2520599365234375,-0.158477783203125,-0.3487396240234375,0.817487359046936,-0.1678068488836288,0.2944383025169373,61.00999450683594,97.93885803222656,-33.64402770996094
238778,-0.185455322265625,-0.2274627685546875,-0.318634033203125,0.8520554900169373,0.0739751607179641,0.2537204325199127,60.97547912597656,97.85975646972656,-34.27801513671875
238779,-0.013397216796875,-0.175262451171875,-0.07244873046875,1.148107409477234,-0.1804182380437851,0.0690592303872108,61.250732421875,97.23501586914062,-35.05987548828125
238780,-0.013397216796875,-0.175262451171875,-0.07244873046875,1.148107409477234,-0.1804182380437851,0.0690592303872108,61.250732421875,97.23501586914062,-35.05987548828125
238781,0.0675811767578125,-0.1207275390625,0.1669464111328125,1.200801730155945,-0.3684217035770416,-0.1558255553245544,61.43955993652344,96.75529479980467,-36.26583862304688
238782,0.0774993896484375,-0.0943145751953125,0.236724853515625,1.19011390209198,-0.2178018391132355,-0.2693390548229218,61.44438171386719,96.55500793457033,-36.91481018066406
238783,0.0888671875,-0.0778045654296875,0.2595062255859375,1.147000551223755,0.2120062559843063,-0.3883179128170013,61.17939758300781,96.61912536621094,-37.58796691894531
238784,0.0888671875,-0.0778045654296875,0.2595062255859375,1.147000551223755,0.2120062559843063,-0.3883179128170013,61.17939758300781,96.61912536621094,-37.58796691894531
238785,0.09149169921875,-0.068756103515625,0.2498626708984375,1.147000551223755,0.2120062559843063,-0.3883179128170013,61.02438354492188,96.68840026855467,-38.23568725585938
238786,0.0931854248046875,-0.066680908203125,0.1593170166015625,1.076090216636658,0.5991249680519104,-0.4466760158538818,60.7205810546875,96.71279907226562,-38.99320983886719
238787,0.0962371826171875,-0.073455810546875,0.07574462890625,0.910137951374054,0.3963193893432617,-0.4791604578495026,60.72198486328125,96.60661315917967,-39.18611145019531
238788,0.0995635986328125,-0.0857696533203125,0.0055084228515625,0.6606812477111816,-0.2517582178115845,-0.529594361782074,60.49888610839844,96.36149597167967,-39.20487976074219
238789,0.0953369140625,-0.0985870361328125,0.004974365234375,0.3264122009277344,-1.181261897087097,-0.6047077178955078,60.37454223632812,96.2103271484375,-39.18963623046875
238790,0.09637451171875,-0.123382568359375,0.07568359375,-0.0619206242263317,-2.042040586471558,-0.6772482395172119,59.96035766601562,95.865478515625,-38.95198059082031
238791,0.09918212890625,-0.1434478759765625,0.16925048828125,-0.4558103978633881,-2.563250303268433,-0.7205680012702942,59.39411926269531,95.7061767578125,-38.72225952148438
238792,0.09918212890625,-0.1434478759765625,0.16925048828125,-0.4558103978633881,-2.563250303268433,-0.7205680012702942,59.39411926269531,95.7061767578125,-38.72225952148438
238793,0.0926055908203125,-0.1540679931640625,0.2342376708984375,-0.7831970453262329,-2.687116622924805,-0.735524594783783,58.62728881835938,95.74031066894533,-38.589111328125
238794,0.0813751220703125,-0.1608734130859375,0.2120361328125,-1.005382776260376,-2.551220655441284,-0.7239760756492615,57.69256591796875,95.91983032226562,-38.3916015625
238795,-0.001129150390625,0.0968017578125,-0.1865386962890625,-1.148917555809021,-2.810922145843506,-0.7658894658088684,55.94157409667969,96.6215362548828,-37.78800964355469
238796,-0.001129150390625,0.0968017578125,-0.1865386962890625,-1.148917555809021,-2.810922145843506,-0.7658894658088684,55.94157409667969,96.6215362548828,-37.78800964355469
238797,-0.045257568359375,0.274627685546875,0.0175018310546875,-1.647768616676331,-0.4992116689682007,-0.9097928404808044,54.91940307617188,97.10324096679688,-37.38102722167969
238798,-0.104583740234375,0.744781494140625,0.9215545654296876,-2.330248832702637,1.794590473175049,-1.109826803207397,52.79756164550781,97.8347625732422,-36.70242309570312
238799,-0.1006011962890625,0.9771575927734376,0.9522552490234376,-3.122763395309448,3.003587245941162,-1.499028086662292,52.0126953125,98.30558776855467,-36.02102661132812
238800,-0.1006011962890625,0.9771575927734376,0.9522552490234376,-3.122763395309448,3.003587245941162,-1.499028086662292,52.0126953125,98.30558776855467,-36.02102661132812
238801,-1.181640625,6.47235107421875,0.7664794921875,-3.074250459671021,-0.2644819915294647,-2.514724969863892,51.75277709960938,99.29280090332033,-33.98236083984375
238802,-2.532928466796875,7.704818725585938,1.038665771484375,-1.800238013267517,-2.783479928970337,-3.078453779220581,51.19168090820312,100.2273406982422,-33.12254333496094
238803,-1.182510375976562,4.876571655273438,1.19671630859375,-0.175509512424469,-1.728715658187866,-0.7395025491714478,49.89779663085938,101.2980651855469,-32.45001220703125
238804,-1.182510375976562,4.876571655273438,1.19671630859375,-0.175509512424469,-1.728715658187866,-0.7395025491714478,49.89779663085938,101.2980651855469,-32.45001220703125
238805,0.10784912109375,1.515853881835938,-0.775177001953125,1.532803416252136,-0.640487551689148,0.9811482429504396,47.70893859863281,101.6061248779297,-31.88914489746094
238806,0.2785491943359375,1.382919311523438,-0.9172821044921876,1.705663323402405,-2.267831802368164,1.502317667007446,47.90452575683594,100.8212280273438,-31.75588989257812
238807,0.424530029296875,1.650909423828125,-0.5629425048828125,1.307685375213623,-1.77388334274292,1.086285591125488,48.26287841796875,100.1311950683594,-32.07318115234375
238808,0.619140625,1.752685546875,-0.59246826171875,0.6803231239318848,-0.2007999420166016,0.3621536791324615,48.30235290527344,99.66000366210938,-32.59815979003906
238809,0.619140625,1.752685546875,-0.59246826171875,0.6803231239318848,-0.2007999420166016,0.3621536791324615,48.30235290527344,99.66000366210938,-32.59815979003906
238810,0.2584075927734375,1.530563354492188,-0.4630279541015625,1.143604516983032,-0.0931736230850219,0.1663290560245514,48.47982788085938,99.4300537109375,-33.43988037109375
238811,0.0401458740234375,1.380615234375,-0.2933349609375,1.449420928955078,0.109243668615818,0.2136952430009842,48.66799926757812,99.12127685546876,-33.76251220703125
238812,0.0401458740234375,1.380615234375,-0.2933349609375,1.449420928955078,0.109243668615818,0.2136952430009842,48.66799926757812,99.12127685546876,-33.76251220703125
238813,-0.02880859375,1.254364013671875,-0.289306640625,1.63390839099884,0.1091818809509277,0.2106043696403503,48.97172546386719,98.7397918701172,-34.02909851074219
238814,-0.064605712890625,0.947296142578125,-0.2218017578125,1.75197970867157,0.1289292126893997,0.2239942103624344,49.457275390625,97.89607238769533,-35.652587890625
238815,-0.0566253662109375,0.744659423828125,-0.2306671142578125,1.820242404937744,0.2734741568565369,0.3029904961585999,49.69581604003906,97.42575073242188,-36.23133850097656
238816,-0.0566253662109375,0.744659423828125,-0.2306671142578125,1.820242404937744,0.2734741568565369,0.3029904961585999,49.69581604003906,97.42575073242188,-36.23133850097656
238817,-0.04705810546875,0.5360870361328125,-0.258880615234375,1.796085119247437,0.4625793695449829,0.4014989733695984,49.75994873046875,97.17495727539062,-37.1484375
238818,-0.0579071044921875,0.213287353515625,-0.1957550048828125,1.408341884613037,1.169708013534546,0.5769453644752502,50.13876342773438,96.490234375,-39.00624084472656
238819,-0.0861358642578125,0.120452880859375,-0.218963623046875,1.17350971698761,1.306025147438049,0.6210553050041199,50.47134399414062,96.25985717773438,-39.70648193359375
238820,-0.1280517578125,0.0682830810546875,-0.1800689697265625,0.9595776796340942,1.237955808639526,0.615157961845398,50.90071105957031,95.95523071289062,-40.29937744140625
238821,-0.171600341796875,0.0594635009765625,-0.07000732421875,0.5997334718704224,1.253391146659851,0.5145378708839417,51.42100524902344,95.7414093017578,-40.7542724609375
238822,-0.20562744140625,0.0939483642578125,0.04736328125,0.5997334718704224,1.253391146659851,0.5145378708839417,52.03068542480469,95.604736328125,-41.24897766113281
238823,-0.213043212890625,0.1220550537109375,0.122314453125,0.4587457478046417,1.395406126976013,0.4541363418102264,52.552734375,95.37979125976562,-41.50827026367188
238824,-0.213043212890625,0.1220550537109375,0.122314453125,0.4587457478046417,1.395406126976013,0.4541363418102264,52.552734375,95.37979125976562,-41.50827026367188
238825,-0.2078094482421875,0.135345458984375,0.1270751953125,0.3277677595615387,1.495203495025635,0.4029730260372162,53.07847595214844,95.1744384765625,-41.80136108398438
238826,-0.1601104736328125,0.044097900390625,0.0431976318359375,0.1328478008508682,1.29749584197998,0.4059576392173767,54.18467712402344,95.05226135253906,-42.24310302734375
238827,-0.1131591796875,-0.0257110595703125,0.0418548583984375,0.0641930997371673,1.079610586166382,0.4318113327026367,54.74259948730469,94.86785888671876,-42.15902709960938
238828,-0.1131591796875,-0.0257110595703125,0.0418548583984375,0.0641930997371673,1.079610586166382,0.4318113327026367,54.74259948730469,94.86785888671876,-42.15902709960938
238829,-0.067962646484375,-0.074462890625,0.04693603515625,-0.0013483584625646,0.9004624485969543,0.4518097937107086,55.25090026855469,94.7799835205078,-42.18310546875
238830,-0.014617919921875,-0.1211700439453125,0.04486083984375,-0.1605955362319946,0.6914998888969421,0.4727917909622192,56.2432861328125,94.5702667236328,-42.05155944824219
238831,-0.0061187744140625,-0.1175537109375,0.05255126953125,-0.2697952687740326,0.626657247543335,0.454240471124649,56.69137573242188,94.48565673828124,-42.09309387207031
238832,-0.0061187744140625,-0.1175537109375,0.05255126953125,-0.2697952687740326,0.626657247543335,0.454240471124649,56.69137573242188,94.48565673828124,-42.09309387207031
238833,-0.0124969482421875,-0.1005706787109375,0.0927886962890625,-0.5355768799781799,0.663410484790802,0.3222028017044067,57.15017700195312,94.47482299804688,-41.86163330078125
238834,-0.01776123046875,-0.102783203125,0.1201934814453125,-0.6597917675971985,0.7729899287223816,0.2409407049417496,57.77107238769531,94.5623779296875,-41.351318359375
238835,-0.0146484375,-0.114471435546875,0.0311737060546875,-0.7766773700714111,0.8354054093360901,0.1738671362400055,58.03109741210938,94.68870544433594,-41.01446533203125
238836,-0.0028533935546875,-0.142822265625,-0.126312255859375,-0.8558592796325684,0.7446432709693909,0.1454354971647263,58.43513488769531,94.830322265625,-40.54464721679688
238837,-0.0028533935546875,-0.142822265625,-0.126312255859375,-0.8558592796325684,0.7446432709693909,0.1454354971647263,58.43513488769531,94.830322265625,-40.54464721679688
238838,0.017547607421875,-0.1945648193359375,-0.4920501708984375,-0.7918121218681335,-0.4760807752609253,0.2264067679643631,58.89967346191406,95.48770141601562,-39.78485107421875
238839,0.0015869140625,-0.0322113037109375,-0.3069305419921875,-0.837130606174469,-0.8273724913597107,0.1514212191104889,58.94679260253906,95.8553466796875,-39.25776672363281
238840,0.0015869140625,-0.0322113037109375,-0.3069305419921875,-0.837130606174469,-0.8273724913597107,0.1514212191104889,58.94679260253906,95.8553466796875,-39.25776672363281
238841,-0.045562744140625,0.2915802001953125,0.2134552001953125,-1.344042778015137,0.1495237052440643,-0.0900081843137741,58.68049621582031,96.49624633789062,-38.72019958496094
238842,-0.0292205810546875,0.3708038330078125,0.6549224853515625,-1.647594451904297,0.9149401783943176,-0.2333016991615295,58.47288513183594,96.86540222167967,-38.34439086914062
238843,-0.0186920166015625,0.4830474853515625,0.975830078125,-2.131505966186523,1.89398181438446,-0.4857874810695648,58.365478515625,97.19920349121094,-37.79928588867188
238844,-0.0186920166015625,0.4830474853515625,0.975830078125,-2.131505966186523,1.89398181438446,-0.4857874810695648,58.365478515625,97.19920349121094,-37.79928588867188
238845,-0.12451171875,1.620010375976562,1.190093994140625,-2.526865005493164,2.719056606292725,-0.7392029762268066,58.45706176757812,97.43618774414062,-37.12020874023438
238846,-0.9722137451171876,5.936447143554688,1.757339477539062,-1.674873471260071,0.8815675377845764,0.2981544733047485,58.92694091796875,98.41204833984376,-35.84184265136719
238847,-1.306488037109375,7.949859619140625,2.203781127929688,-0.2443591356277466,1.602002739906311,1.182143092155457,59.356201171875,98.98379516601562,-35.09690856933594
238848,-1.306488037109375,7.949859619140625,2.203781127929688,-0.2443591356277466,1.602002739906311,1.182143092155457,59.356201171875,98.98379516601562,-35.09690856933594
238849,-0.64508056640625,2.9515380859375,-0.1292724609375,0.9459747672080994,2.349226474761963,-1.350656270980835,60.6138916015625,99.73965454101562,-34.64639282226562
238850,-0.4356231689453125,1.026168823242188,-0.867828369140625,-0.1123268082737923,0.1587803214788437,-2.006419658660889,60.97628784179688,99.7597198486328,-34.53730773925781
238851,-0.1500701904296875,0.172149658203125,-2.084014892578125,-2.446982860565186,-0.9774919748306274,-1.493230104446411,60.75968933105469,99.74923706054688,-34.22628784179688
238852,-0.1500701904296875,0.172149658203125,-2.084014892578125,-2.446982860565186,-0.9774919748306274,-1.493230104446411,60.75968933105469,99.74923706054688,-34.22628784179688
238853,0.20733642578125,1.097991943359375,-2.174545288085938,-0.7950824499130249,-2.590910196304321,0.6313039064407349,59.87675476074219,99.67140197753906,-33.69717407226562
238854,0.24407958984375,2.04815673828125,0.0653228759765625,1.695531845092773,-0.7825714945793152,1.259717583656311,58.3377685546875,99.97097778320312,-31.70011901855469
238855,0.2748870849609375,2.013870239257812,0.1416168212890625,2.66504693031311,0.5529302954673767,1.470985531806946,57.98298645019531,99.9487762451172,-31.10908508300781
238856,0.301025390625,1.833831787109375,-0.0781707763671875,2.694310426712036,1.044663548469543,1.365656495094299,58.01461791992188,99.78793334960938,-31.39010620117188
238857,0.301025390625,1.833831787109375,-0.0781707763671875,2.694310426712036,1.044663548469543,1.365656495094299,58.01461791992188,99.78793334960938,-31.39010620117188
238858,0.3929290771484375,1.2747802734375,-0.5968017578125,1.850541353225708,-0.1296077966690063,1.116294860839844,59.12278747558594,98.64494323730467,-33.45614624023438
238859,0.424713134765625,1.053436279296875,-0.5706329345703125,1.519187211990356,-0.7301878929138184,1.007238626480103,59.76689147949219,98.09219360351562,-34.50300598144531
238860,0.424713134765625,1.053436279296875,-0.5706329345703125,1.519187211990356,-0.7301878929138184,1.007238626480103,59.76689147949219,98.09219360351562,-34.50300598144531
238861,0.433990478515625,0.8691864013671875,-0.4686279296875,1.280772805213928,-0.9902122616767884,0.9080764055252076,60.34017944335938,97.59019470214844,-35.38211059570312
238862,0.444671630859375,0.505950927734375,-0.5126953125,1.411730766296387,-1.025392889976501,0.9640496373176576,61.04200744628906,96.45700073242188,-36.53004455566406
238863,0.4287567138671875,0.4092864990234375,-0.36810302734375,1.53271472454071,-0.8064552545547485,1.020979523658752,61.21031188964844,96.07167053222656,-37.10765075683594
238864,0.4287567138671875,0.4092864990234375,-0.36810302734375,1.53271472454071,-0.8064552545547485,1.020979523658752,61.21031188964844,96.07167053222656,-37.10765075683594
238865,0.3921966552734375,0.3612213134765625,-0.201904296875,1.450901627540588,-0.3124982416629791,0.9708718657493592,61.40310668945312,95.72525024414062,-37.77763366699219
238866,0.275390625,0.278350830078125,-0.12933349609375,0.9567358493804932,-0.0130076771602034,0.6737027764320374,61.99320983886719,94.75018310546876,-38.81980895996094
238867,0.225616455078125,0.205657958984375,-0.1063232421875,0.7278653383255005,-0.2251835912466049,0.5286366939544678,62.42826843261719,94.2698974609375,-39.21147155761719
238868,0.225616455078125,0.205657958984375,-0.1063232421875,0.7278653383255005,-0.2251835912466049,0.5286366939544678,62.42826843261719,94.2698974609375,-39.21147155761719
238869,0.1905059814453125,0.1126861572265625,-0.075592041015625,0.4266668856143951,-0.6541024446487427,0.3501084744930267,62.80577087402344,93.89947509765624,-39.38484191894531
238870,0.1241455078125,-0.032073974609375,0.0334625244140625,0.3647569119930267,-0.6394161581993103,0.2671312987804413,63.09309387207031,93.4079132080078,-39.81629943847656
238871,0.0886993408203125,-0.0809173583984375,0.1072998046875,0.3647569119930267,-0.6394161581993103,0.2671312987804413,63.26048278808594,93.26652526855467,-39.94552612304688
238872,0.0579986572265625,-0.125213623046875,0.1288909912109375,0.3508802652359009,-0.4738077819347382,0.2273804247379303,63.2537841796875,93.19148254394533,-39.91156005859375
238873,0.0579986572265625,-0.125213623046875,0.1288909912109375,0.3508802652359009,-0.4738077819347382,0.2273804247379303,63.2537841796875,93.19148254394533,-39.91156005859375
238874,0.034149169921875,-0.1562347412109375,0.0151824951171875,0.308767169713974,-0.4002376794815063,0.1741864532232285,63.35807800292969,92.84342956542967,-40.03410339355469
238875,0.021514892578125,-0.1542510986328125,-0.0440521240234375,0.2670673727989197,-0.6088287234306335,0.1572253108024597,63.49740600585938,92.73912048339844,-39.95893859863281
238876,0.0034637451171875,-0.1500701904296875,-0.01885986328125,0.1177226379513741,-0.987760066986084,0.0575615651905536,63.60598754882812,92.6128387451172,-40.04791259765625
238877,0.0034637451171875,-0.1500701904296875,-0.01885986328125,0.1177226379513741,-0.987760066986084,0.0575615651905536,63.60598754882812,92.6128387451172,-40.04791259765625
238878,-0.017730712890625,-0.136199951171875,0.076141357421875,-0.0126686571165919,-0.9048135280609132,-0.0381732173264026,63.60231018066406,92.5478515625,-40.33222961425781
238879,-0.0579986572265625,-0.12579345703125,0.1707305908203125,-0.1769196540117264,-0.7087281346321106,-0.1561797559261322,63.61943054199219,92.4650421142578,-40.40127563476562
238880,-0.0579986572265625,-0.12579345703125,0.1707305908203125,-0.1769196540117264,-0.7087281346321106,-0.1561797559261322,63.61943054199219,92.4650421142578,-40.40127563476562
238881,-0.0815277099609375,-0.122467041015625,0.153533935546875,-0.3523889482021332,-0.4890604913234711,-0.2979557812213898,63.64561462402344,92.51611328125,-40.37811279296875
