time_idx,accelerometerAccelerationX(G),accelerometerAccelerationY(G),accelerometerAccelerationZ(G),gyroRotationX(rad/s),gyroRotationY(rad/s),gyroRotationZ(rad/s),magnetometerX(µT),magnetometerY(µT),magnetometerZ(µT)
248714,0.537750244140625,0.9326171875,0.07403564453125,-0.0711953490972518,-0.6884087324142456,0.8138276934623718,46.57069396972656,99.52210998535156,-32.57835388183594
248715,0.6088409423828125,1.07843017578125,-0.1230926513671875,0.5553452372550964,-0.5996621251106262,0.7723872661590576,46.79342651367188,99.71607971191406,-32.18533325195312
248716,0.6088409423828125,1.07843017578125,-0.1230926513671875,0.5553452372550964,-0.5996621251106262,0.7723872661590576,46.79342651367188,99.71607971191406,-32.18533325195312
248717,0.6253509521484375,1.111602783203125,-0.1100616455078125,0.6190152764320374,-0.7599412798881531,0.5894904136657715,47.00154113769531,99.69589233398438,-32.14469909667969
248718,0.6207122802734375,1.14361572265625,-0.0595855712890625,0.4715403616428375,-0.7082749009132385,0.360243946313858,47.27049255371094,99.70729064941406,-32.21084594726562
248719,0.4889373779296875,1.160690307617188,-0.0408935546875,0.1703107506036758,-0.6397349834442139,0.1488275676965714,47.40217590332031,99.59901428222656,-32.41789245605469
248720,0.4889373779296875,1.160690307617188,-0.0408935546875,0.1703107506036758,-0.6397349834442139,0.1488275676965714,47.40217590332031,99.59901428222656,-32.41789245605469
248721,0.1246795654296875,1.186904907226562,0.0932159423828125,-0.244049146771431,-0.5602007508277893,0.0882486328482627,47.53939819335938,99.51011657714844,-32.63288879394531
248722,0.0170135498046875,1.282012939453125,0.0709075927734375,-0.3160583674907684,-0.5148521661758423,-0.0140042323619127,47.50259399414062,99.59136962890624,-32.79635620117188
248723,-0.0816497802734375,1.381561279296875,0.043548583984375,-0.4075161218643188,-0.3473912477493286,-0.3336919546127319,47.51850891113281,99.57687377929688,-32.75143432617188
248724,-0.1703033447265625,1.494384765625,0.0454254150390625,-0.4599729180335999,-0.1197266653180122,-0.4297960996627808,47.51849365234375,99.64833068847656,-32.67333984375
248725,-0.249114990234375,1.58453369140625,0.084564208984375,-0.4599729180335999,-0.1197266653180122,-0.4297960996627808,47.37641906738281,99.78125,-32.53152465820312
248726,-0.3107147216796875,1.60797119140625,0.1885833740234375,-0.5294244289398193,0.1231104806065559,-0.4510398805141449,47.25755310058594,99.8030242919922,-32.34785461425781
248727,-0.3537445068359375,1.531585693359375,0.325225830078125,-0.5184599161148071,0.3163334727287292,-0.2052215933799744,47.18107604980469,99.78337097167967,-32.08753967285156
248728,-0.39581298828125,1.402725219726562,0.3948211669921875,-0.5184599161148071,0.3163334727287292,-0.2052215933799744,46.93388366699219,99.99122619628906,-31.98030090332031
248729,-0.358306884765625,1.222259521484375,0.3229217529296875,-0.3513423204421997,0.2113258242607117,0.0034677020739763,46.85920715332031,100.0141143798828,-31.84988403320312
248730,-0.1373748779296875,1.145782470703125,0.2419891357421875,-0.1669117510318756,0.1120580956339836,0.0829659923911094,46.88705444335938,100.0626831054688,-31.65621948242188
248731,0.000244140625,1.152008056640625,0.2001800537109375,-0.0829899609088897,0.1177961379289627,0.0454226098954677,46.96157836914062,100.1244049072266,-31.4345703125
248732,0.0189056396484375,1.109527587890625,0.1292572021484375,-0.0492466427385807,0.1212460026144981,0.0178493037819862,46.98295593261719,100.1873474121094,-31.37831115722656
248733,0.046783447265625,1.079116821289062,0.034271240234375,0.0023334617726504,0.0282681230455637,0.0015576828736811,47.05262756347656,100.2246856689453,-31.35836791992188
248734,0.0932464599609375,1.0390625,-0.0563201904296875,0.113693006336689,-0.1162064969539642,-0.0184429232031106,47.05458068847656,100.1590423583984,-31.21025085449219
248735,0.12933349609375,0.992034912109375,-0.126678466796875,0.2540658414363861,-0.2486313879489899,-0.0281008761376142,47.023681640625,100.0760498046875,-31.16116333007812
248736,0.1441650390625,0.95733642578125,-0.178192138671875,0.4680367112159729,-0.4421851336956024,-0.0458071678876876,46.91264343261719,100.2193603515625,-31.30267333984375
248737,0.1454315185546875,0.9258575439453124,-0.2165679931640625,0.4680367112159729,-0.4421851336956024,-0.0458071678876876,46.83552551269531,100.2537841796875,-31.37603759765625
248738,0.14190673828125,0.8955230712890625,-0.2566986083984375,0.497281402349472,-0.488426148891449,-0.0465667024254798,46.77409362792969,100.2396087646484,-31.53558349609375
248739,0.13214111328125,0.8773193359375,-0.3001708984375,0.4947617948055267,-0.4963652789592743,-0.0377817340195179,46.51693725585938,100.1882629394531,-31.77239990234375
248740,0.116851806640625,0.863525390625,-0.3251953125,0.4633745849132538,-0.4912086129188538,-0.0318793691694736,46.31838989257812,99.93565368652344,-32.22476196289062
248741,0.0960540771484375,0.8528594970703125,-0.307861328125,0.4010592699050903,-0.4787338376045227,-0.0259168185293674,46.223388671875,99.8735809326172,-32.30471801757812
248742,0.06768798828125,0.8499908447265625,-0.29327392578125,0.3347178101539612,-0.4868652522563934,-0.0321395620703697,46.08572387695312,99.7884521484375,-32.35723876953125
248743,0.03729248046875,0.8526153564453125,-0.27490234375,0.266702800989151,-0.5289333462715149,-0.0523428320884704,45.92344665527344,99.63192749023438,-32.66363525390625
248744,0.03729248046875,0.8526153564453125,-0.27490234375,0.266702800989151,-0.5289333462715149,-0.0523428320884704,45.92344665527344,99.63192749023438,-32.66363525390625
248745,0.032012939453125,0.8655853271484375,-0.226348876953125,0.2042932212352753,-0.5139954090118408,-0.0449480339884758,45.82862854003906,99.6083526611328,-32.69137573242188
248746,0.0349273681640625,0.894866943359375,-0.169677734375,0.1004957109689713,-0.467805802822113,-0.0298266056925058,45.65757751464844,99.57376098632812,-32.60382080078125
248747,0.04388427734375,0.9922637939453124,-0.062713623046875,-0.1309700012207031,-0.3468628823757172,0.0141901215538382,45.4599609375,99.59828186035156,-32.68769836425781
248748,0.04388427734375,0.9922637939453124,-0.062713623046875,-0.1309700012207031,-0.3468628823757172,0.0141901215538382,45.4599609375,99.59828186035156,-32.68769836425781
248749,0.0511627197265625,1.04052734375,-0.0112457275390625,-0.2300241440534592,-0.3263083398342133,0.0203939545899629,45.49296569824219,99.67098999023438,-32.67819213867188
248750,0.067413330078125,1.08343505859375,0.0745849609375,-0.3100697100162506,-0.3382307887077332,0.0062262043356895,45.42706298828125,99.654296875,-32.64889526367188
248751,0.07794189453125,1.110671997070312,0.17938232421875,-0.3672672212123871,-0.3408385515213013,-0.0343625023961067,45.37826538085938,99.79823303222656,-32.44570922851562
248752,0.077728271484375,1.117095947265625,0.2315521240234375,-0.3727453351020813,-0.3232725858688354,-0.0887852609157562,45.19937133789062,99.77821350097656,-32.25724792480469
248753,0.0727691650390625,1.099609375,0.2273406982421875,-0.2938454747200012,-0.3030815720558167,-0.1435470432043076,45.24111938476562,99.734375,-32.10466003417969
248754,0.076995849609375,1.065155029296875,0.2016754150390625,-0.1607939451932907,-0.3061703145503998,-0.2034822851419449,45.12934875488281,99.786865234375,-31.85960388183594
248755,0.072052001953125,0.9623565673828124,0.181243896484375,0.0078211715444922,-0.3379759192466736,-0.28923100233078,44.89277648925781,99.83273315429688,-31.77888488769531
248756,0.072052001953125,0.9623565673828124,0.181243896484375,0.0078211715444922,-0.3379759192466736,-0.28923100233078,44.89277648925781,99.83273315429688,-31.77888488769531
248757,0.0755462646484375,0.91827392578125,0.1677703857421875,0.0182141568511724,-0.3567088544368744,-0.3166101574897766,44.82792663574219,99.77989196777344,-31.6650390625
248758,0.0832366943359375,0.8858795166015625,0.138916015625,0.0130151342600584,-0.3773536682128906,-0.3367756307125092,44.63191223144531,99.67417907714844,-31.50823974609375
248759,0.0869598388671875,0.863372802734375,0.08721923828125,0.0071990569122135,-0.4101760685443878,-0.3605539202690125,44.32470703125,99.73086547851562,-31.58799743652344
248760,0.092010498046875,0.8437042236328125,0.0139007568359375,0.0132902385666966,-0.453457236289978,-0.3811795711517334,44.18359375,99.72381591796876,-31.59638977050781
248761,0.103363037109375,0.8303985595703125,-0.072265625,0.0337073616683483,-0.5003142356872559,-0.3954551815986633,43.9410400390625,99.70425415039062,-31.58421325683594
248762,0.1124420166015625,0.8322906494140625,-0.1617431640625,0.0530317910015583,-0.5639920234680176,-0.4048039317131042,43.74658203125,99.7568359375,-31.59019470214844
248763,0.1372833251953125,0.860137939453125,-0.2778472900390625,0.0928292721509933,-0.7125071883201599,-0.4008012115955353,43.1611328125,99.6877899169922,-31.46409606933594
248764,0.1372833251953125,0.860137939453125,-0.2778472900390625,0.0928292721509933,-0.7125071883201599,-0.4008012115955353,43.1611328125,99.6877899169922,-31.46409606933594
248765,0.159332275390625,0.9048309326171876,-0.2743682861328125,0.0825910195708274,-0.7472518086433411,-0.3922375440597534,42.94361877441406,99.668212890625,-31.3782958984375
248766,0.1722259521484375,0.9749298095703124,-0.2438812255859375,0.0398299694061279,-0.7662593722343445,-0.3776801824569702,42.60659790039062,99.54942321777344,-31.22334289550781
248767,0.1779632568359375,1.044815063476562,-0.1849822998046875,-0.0673564001917839,-0.7784947156906128,-0.2797181904315948,42.33804321289062,99.58294677734376,-31.10899353027344
248768,0.1905364990234375,1.098098754882812,-0.1068878173828125,-0.0673564001917839,-0.7784947156906128,-0.2797181904315948,42.00564575195312,99.56700134277344,-30.90719604492188
248769,0.18603515625,1.134963989257812,-0.0563507080078125,-0.1163108944892883,-0.7922038435935974,-0.1927915513515472,41.75630187988281,99.47628784179688,-30.63801574707031
248770,0.1748046875,1.143844604492188,-0.046173095703125,-0.1360116302967072,-0.8240299820899963,-0.1074263229966164,41.52505493164062,99.47337341308594,-30.49678039550781
248771,0.182952880859375,1.098663330078125,0.0212860107421875,-0.0316330268979072,-0.9053280353546144,0.0066800070926547,41.17720031738281,99.53497314453124,-30.6651611328125
248772,0.182952880859375,1.098663330078125,0.0212860107421875,-0.0316330268979072,-0.9053280353546144,0.0066800070926547,41.17720031738281,99.53497314453124,-30.6651611328125
248773,0.2038421630859375,1.069931030273438,0.070709228515625,0.0146367335692048,-0.9388633370399476,0.0194836854934692,41.10726928710938,99.62126159667967,-30.71200561523438
248774,0.22528076171875,1.051483154296875,0.1253662109375,0.0286481566727161,-0.9627521634101868,0.017272463068366,40.94081115722656,99.58419799804688,-30.65045166015625
248775,0.2484893798828125,1.031341552734375,0.238311767578125,-0.0150689641013741,-0.928303360939026,-0.0259919185191392,40.81581115722656,99.38790893554688,-30.54829406738281
248776,0.2484893798828125,1.031341552734375,0.238311767578125,-0.0150689641013741,-0.928303360939026,-0.0259919185191392,40.81581115722656,99.38790893554688,-30.54829406738281
248777,0.2552947998046875,1.017074584960938,0.2429046630859375,-0.0377138219773769,-0.8696051836013794,-0.04812678322196,40.70661926269531,99.33457946777344,-30.35813903808594
248778,0.2596588134765625,1.007354736328125,0.210357666015625,-0.0426603779196739,-0.8249719142913818,-0.0593085959553718,40.64823913574219,99.34547424316406,-30.20048522949219
248779,0.2603759765625,0.9992523193359376,0.15869140625,-0.0147983869537711,-0.7920405864715576,-0.0584934018552303,40.5946044921875,99.3238525390625,-30.01876831054688
248780,0.25994873046875,0.983306884765625,0.1197357177734375,0.0519332401454448,-0.7665078043937683,-0.0419932566583156,40.5709228515625,99.30751037597656,-29.91357421875
248781,0.252777099609375,0.9683837890625,0.1038360595703125,0.1288916766643524,-0.7244932651519775,-0.015907060354948,40.4117431640625,99.32366943359376,-29.79345703125
248782,0.2317962646484375,0.9631500244140624,0.089599609375,0.1971735209226608,-0.6791321635246277,0.0062536350451409,40.28865051269531,99.22544860839844,-29.71405029296875
248783,0.1618499755859375,0.940155029296875,0.057281494140625,0.2656596302986145,-0.6254881024360657,0.0609056949615478,40.20716857910156,99.17912292480467,-29.87567138671875
248784,0.1618499755859375,0.940155029296875,0.057281494140625,0.2656596302986145,-0.6254881024360657,0.0609056949615478,40.20716857910156,99.17912292480467,-29.87567138671875
248785,0.134796142578125,0.92486572265625,0.0426177978515625,0.2689888477325439,-0.6235911250114441,0.0789741799235343,40.11814880371094,99.21192932128906,-29.87509155273438
248786,0.1204071044921875,0.908203125,0.014404296875,0.2557542622089386,-0.6297025680541992,0.0886305347084999,40.04270935058594,99.1619110107422,-29.79759216308594
248787,0.1158294677734375,0.9019012451171876,-0.0359649658203125,0.2507448792457581,-0.6539610624313354,0.0769080966711044,40.0762939453125,99.13763427734376,-29.95603942871094
248788,0.11712646484375,0.905853271484375,-0.0826416015625,0.2402874380350113,-0.7303487658500671,0.0090438285842537,40.05598449707031,98.9892120361328,-30.04367065429688
248789,0.1302032470703125,0.8976593017578125,-0.046722412109375,0.2402874380350113,-0.7303487658500671,0.0090438285842537,40.00222778320312,99.00807189941406,-30.07626342773438
248790,0.1403961181640625,0.8891448974609375,0.0526123046875,0.1896319836378098,-0.7629191875457764,-0.0283749159425497,40.00099182128906,98.91438293457033,-30.05197143554688
248791,0.1636505126953125,0.9597320556640624,0.0420989990234375,0.0707564577460289,-0.8513444066047668,-0.0944300964474678,39.82389831542969,98.79216003417967,-30.11618041992188
248792,0.1636505126953125,0.9597320556640624,0.0420989990234375,0.0707564577460289,-0.8513444066047668,-0.0944300964474678,39.82389831542969,98.79216003417967,-30.11618041992188
248793,0.156219482421875,1.062149047851562,-0.013702392578125,0.0924732089042663,-0.8189928531646729,-0.0686112865805625,39.74362182617188,98.72312927246094,-30.05307006835938
248794,0.147796630859375,1.153793334960938,-0.0326385498046875,0.0924732089042663,-0.8189928531646729,-0.0686112865805625,39.66253662109375,98.74044799804688,-29.99700927734375
248795,0.129638671875,1.252761840820312,-0.009918212890625,0.0215966384857893,-0.7944161295890808,-0.030969101935625,39.53813171386719,98.7593994140625,-29.82675170898438
248796,0.098419189453125,1.351364135742188,0.0447998046875,-0.1135169714689255,-0.7757697701454163,0.0050221891142427,39.402587890625,98.6087646484375,-29.66139221191406
248797,0.059906005859375,1.436370849609375,0.135955810546875,-0.2626518607139587,-0.732300341129303,0.0209774542599916,39.25486755371094,98.65982055664062,-29.58056640625
248798,0.003204345703125,1.489059448242188,0.235992431640625,-0.3683900237083435,-0.6264396905899048,0.0298202130943536,39.19692993164062,98.7358856201172,-29.55068969726562
248799,-0.0608978271484375,1.295684814453125,0.2403564453125,-0.1592687517404556,-0.3792572915554047,-0.0243721846491098,39.08053588867188,98.70127868652344,-29.06846618652344
248800,-0.0608978271484375,1.295684814453125,0.2403564453125,-0.1592687517404556,-0.3792572915554047,-0.0243721846491098,39.08053588867188,98.70127868652344,-29.06846618652344
248801,-0.055694580078125,1.140182495117188,0.1066741943359375,0.0487307868897914,-0.3814730644226074,-8.974852971732616e-05,39.03895568847656,98.83235168457033,-28.84466552734375
248802,-0.0387420654296875,1.059524536132812,0.0023651123046875,0.1566884070634842,-0.4478840231895447,0.0051164650358259,39.01261901855469,98.81637573242188,-28.85346984863281
248803,0.002105712890625,0.996368408203125,0.004180908203125,0.1419121325016022,-0.4984281659126282,0.0308900047093629,39.03019714355469,98.734375,-28.74064636230469
248804,0.06915283203125,0.95965576171875,0.04876708984375,0.0569082908332347,-0.5312095284461975,0.0796793848276138,38.99343872070312,98.74275207519533,-28.83352661132812
248805,0.150115966796875,0.974609375,0.0829315185546875,-0.0425301492214202,-0.5327746868133545,0.1213559880852699,38.966796875,98.65916442871094,-28.84132385253906
248806,0.2114410400390625,1.003341674804688,0.0761871337890625,-0.0721378400921821,-0.5302260518074036,0.1507594138383865,38.86212158203125,98.7008819580078,-28.82147216796875
248807,0.2690582275390625,1.003585815429688,0.0406036376953125,0.0531401820480823,-0.5213284492492676,0.1831431835889816,38.92201232910156,98.71728515625,-28.63882446289062
248808,0.2690582275390625,1.003585815429688,0.0406036376953125,0.0531401820480823,-0.5213284492492676,0.1831431835889816,38.92201232910156,98.71728515625,-28.63882446289062
248809,0.249237060546875,0.965301513671875,0.036163330078125,0.1286916732788086,-0.5621863603591919,0.1853232532739639,38.90501403808594,98.69367980957033,-28.60464477539062
248810,0.2210540771484375,0.8992462158203125,0.0412750244140625,0.1760091185569763,-0.6188920140266418,0.1916546523571014,38.99822998046875,98.66218566894533,-28.42262268066406
248811,0.1764068603515625,0.76513671875,0.0258941650390625,0.2408775985240936,-0.6528347730636597,0.1912791430950165,39.08903503417969,98.6593017578125,-28.40238952636719
248812,0.1764068603515625,0.76513671875,0.0258941650390625,0.2408775985240936,-0.6528347730636597,0.1912791430950165,39.08903503417969,98.6593017578125,-28.40238952636719
248813,0.154541015625,0.719940185546875,0.02362060546875,0.3156775236129761,-0.5298880934715271,0.15247742831707,39.11305236816406,98.71038818359376,-28.4056396484375
248814,0.1348114013671875,0.7117462158203125,0.0128173828125,0.3156775236129761,-0.5298880934715271,0.15247742831707,39.09814453125,98.77029418945312,-28.57081604003906
248815,0.0912017822265625,0.7291107177734375,-0.0614013671875,0.3235610127449036,-0.4719414412975311,0.0671406909823417,39.15255737304688,98.82112121582033,-28.74574279785156
248816,0.0912017822265625,0.7291107177734375,-0.0614013671875,0.3235610127449036,-0.4719414412975311,0.0671406909823417,39.15255737304688,98.82112121582033,-28.74574279785156
248817,0.0697021484375,0.752532958984375,-0.100067138671875,0.3251000642776489,-0.4897579848766327,0.0147744184359908,39.103271484375,98.80117797851562,-28.84812927246094
248818,0.0411529541015625,0.752532958984375,-0.0779876708984375,0.327408492565155,-0.4512031376361847,-0.0448590852320194,39.04513549804688,98.6572265625,-28.82188415527344
248819,0.002685546875,0.759918212890625,-0.0083160400390625,0.2953416407108307,-0.2977243661880493,-0.0928489789366722,38.95878601074219,98.70254516601562,-28.953369140625
248820,0.002685546875,0.759918212890625,-0.0083160400390625,0.2953416407108307,-0.2977243661880493,-0.0928489789366722,38.95878601074219,98.70254516601562,-28.953369140625
248821,0.024017333984375,0.8051910400390625,0.0020751953125,0.0784340873360633,-0.1446330845355988,-0.1532342880964279,38.78871154785156,98.63851928710938,-29.04684448242188
248822,0.0309906005859375,0.8780364990234375,0.0599822998046875,-0.0604489631950855,-0.1059306934475899,-0.1663125455379486,38.76724243164062,98.51751708984376,-29.07589721679688
248823,0.0187835693359375,0.9884033203125,0.147796630859375,-0.2162918150424957,0.0002090581401716,-0.1826243996620178,38.69847106933594,98.479248046875,-29.07200622558594
248824,0.0155029296875,1.087982177734375,0.2172698974609375,-0.3763786852359772,0.1478856056928635,-0.2300292104482651,38.59872436523438,98.64329528808594,-29.09275817871094
248825,-0.0017242431640625,1.146072387695312,0.262451171875,-0.503064751625061,0.2660210430622101,-0.3064843118190765,38.42399597167969,98.63723754882812,-28.94248962402344
248826,-0.0274810791015625,1.155197143554688,0.25933837890625,-0.5147607922554016,0.2813259363174438,-0.3889288306236267,38.40203857421875,98.61212158203124,-28.7691650390625
248827,-0.040618896484375,1.119644165039062,0.1810760498046875,-0.0131501564756035,0.1119987070560455,-0.3572950065135956,38.30430603027344,98.67591857910156,-28.62110900878906
248828,-0.010833740234375,1.056182861328125,0.09332275390625,-0.0131501564756035,0.1119987070560455,-0.3572950065135956,38.31678771972656,98.66755676269533,-28.50914001464844
248829,0.0195159912109375,0.9976043701171876,0.042694091796875,0.2367997616529465,0.0719791203737258,-0.2729125022888184,38.22329711914062,98.63775634765624,-28.19717407226562
248830,0.0099945068359375,0.9422149658203124,0.054931640625,0.2672306299209595,0.0736105740070343,-0.1780613511800766,38.04891967773438,98.69522094726562,-28.28556823730469
248831,0.001068115234375,0.92584228515625,0.0355682373046875,0.0559514164924621,0.0713665932416915,-0.0654447898268699,37.93690490722656,98.60858154296876,-28.40597534179688
248832,0.0046234130859375,0.9564208984375,-0.0537872314453125,0.0559514164924621,0.0713665932416915,-0.0654447898268699,37.85194396972656,98.57160949707033,-28.56306457519531
248833,0.024658203125,1.001724243164062,-0.136810302734375,0.024838238954544,0.0163685865700244,-0.0704089179635047,37.74008178710938,98.61764526367188,-28.623291015625
248834,0.06439208984375,1.042083740234375,-0.1947021484375,0.0503454618155956,-0.0685108825564384,-0.0941549912095069,37.62655639648438,98.63034057617188,-28.72917175292969
248835,0.171142578125,1.146255493164062,-0.3654327392578125,0.2392456084489822,-0.2154944688081741,-0.2490108907222748,37.5299072265625,98.62692260742188,-28.804443359375
248836,0.171142578125,1.146255493164062,-0.3654327392578125,0.2392456084489822,-0.2154944688081741,-0.2490108907222748,37.5299072265625,98.62692260742188,-28.804443359375
248837,0.2169342041015625,1.179092407226562,-0.4300689697265625,0.2392456084489822,-0.2154944688081741,-0.2490108907222748,37.32801818847656,98.6508331298828,-28.7972412109375
248838,0.2308197021484375,1.190872192382812,-0.4400787353515625,0.2684863209724426,-0.240686371922493,-0.2915434241294861,37.24549865722656,98.513427734375,-28.69413757324219
248839,0.1987762451171875,1.16741943359375,-0.423583984375,0.2745002806186676,-0.2980612516403198,-0.3096989989280701,37.13987731933594,98.30369567871094,-28.73294067382812
248840,0.1987762451171875,1.16741943359375,-0.423583984375,0.2745002806186676,-0.2980612516403198,-0.3096989989280701,37.13987731933594,98.30369567871094,-28.73294067382812
248841,0.0548858642578125,1.0302734375,-0.365814208984375,0.3137257099151611,-0.3976629376411438,-0.2967243492603302,36.82740783691406,98.32635498046876,-28.84077453613281
248842,-0.022705078125,0.949676513671875,-0.338134765625,0.3499318957328796,-0.3756892085075378,-0.2713289856910706,36.69361877441406,98.25161743164062,-28.88188171386719
248843,-0.1475067138671875,0.78912353515625,-0.2852325439453125,0.4016544818878174,-0.2758757770061493,-0.1585062891244888,36.34732055664062,98.05911254882812,-29.04437255859375
248844,-0.1475067138671875,0.78912353515625,-0.2852325439453125,0.4016544818878174,-0.2758757770061493,-0.1585062891244888,36.34732055664062,98.05911254882812,-29.04437255859375
248845,-0.180816650390625,0.7187957763671875,-0.257568359375,0.3559370636940002,-0.2332977056503296,-0.0869849622249603,36.269287109375,97.9498291015625,-29.12289428710938
248846,-0.1862945556640625,0.6709747314453125,-0.2283935546875,0.2533672749996185,-0.1977887153625488,-0.010006827302277,36.33370971679688,97.86753845214844,-29.2781982421875
248847,-0.09649658203125,0.680755615234375,-0.141357421875,-0.0602119415998458,-0.1670505106449127,0.1381986141204834,36.311767578125,97.70198059082033,-29.64598083496094
248848,-0.09649658203125,0.680755615234375,-0.141357421875,-0.0602119415998458,-0.1670505106449127,0.1381986141204834,36.311767578125,97.70198059082033,-29.64598083496094
248849,-0.003387451171875,0.700653076171875,-0.0422821044921875,-0.2123852372169495,-0.1213317513465881,0.2065997868776321,36.32423400878906,97.80824279785156,-29.82101440429688
248850,-0.003387451171875,0.700653076171875,-0.0422821044921875,-0.2123852372169495,-0.1213317513465881,0.2065997868776321,36.32423400878906,97.80824279785156,-29.82101440429688
248851,0.06982421875,0.715301513671875,0.051971435546875,-0.4309425950050354,-0.0527297891676425,0.300362765789032,36.26162719726562,97.7577667236328,-29.6644287109375
248852,0.13092041015625,0.7861480712890625,0.1543731689453125,-0.4743481278419495,-0.0454481765627861,0.2999710142612457,36.41130065917969,97.87503051757812,-29.472900390625
248853,0.1519775390625,0.8501739501953125,0.174224853515625,-0.4557954967021942,0.0002492718631401,0.2685345113277435,36.57244873046875,98.00994873046876,-29.24037170410156
248854,0.182159423828125,0.9186553955078124,0.1273040771484375,-0.36170494556427,0.1006693542003632,0.2473189830780029,36.75590515136719,98.06526184082033,-28.99151611328125
248855,0.15240478515625,0.9818115234375,0.0743255615234375,-0.096318282186985,0.199253186583519,0.2622672915458679,36.91799926757812,98.25607299804688,-28.63600158691406
248856,0.15240478515625,0.9818115234375,0.0743255615234375,-0.096318282186985,0.199253186583519,0.2622672915458679,36.91799926757812,98.25607299804688,-28.63600158691406
248857,0.109161376953125,0.983306884765625,0.1810302734375,-0.097247190773487,0.2211017608642578,0.2487903833389282,37.0982666015625,98.29280090332033,-28.48855590820312
248858,0.0875244140625,0.9600067138671876,0.25439453125,-0.1510558277368546,0.2469035238027573,0.2363225221633911,37.27297973632812,98.33200073242188,-28.59890747070312
248859,0.0947418212890625,0.9060821533203124,0.2248992919921875,-0.2140691429376602,0.2337435185909271,0.2352543324232101,37.59632873535156,98.33502197265624,-28.53724670410156
248860,0.0947418212890625,0.9060821533203124,0.2248992919921875,-0.2140691429376602,0.2337435185909271,0.2352543324232101,37.59632873535156,98.33502197265624,-28.53724670410156
248861,0.1204833984375,0.8989715576171875,0.17340087890625,-0.2305466532707214,0.1551288664340973,0.2539696991443634,37.67848205566406,98.43464660644533,-28.65092468261719
248862,0.1766357421875,0.89813232421875,0.0977325439453125,-0.209767073392868,0.0859263613820076,0.2900901436805725,37.80538940429688,98.53727722167967,-28.43608093261719
248863,0.2530517578125,0.9116058349609376,0.0100555419921875,-0.1446405351161957,0.0598252490162849,0.3569685220718384,37.90455627441406,98.57112121582033,-28.42071533203125
248864,0.3107147216796875,0.9651947021484376,-0.0726776123046875,-0.0016639430541545,0.0749783739447593,0.4254090785980225,38.02249145507812,98.55665588378906,-28.39256286621094
248865,0.310699462890625,1.083236694335938,-0.1085205078125,0.0187582410871982,0.0874688625335693,0.3773070871829987,38.1171875,98.61534118652344,-28.25823974609375
248866,0.310699462890625,1.083236694335938,-0.1085205078125,0.0187582410871982,0.0874688625335693,0.3773070871829987,38.1171875,98.61534118652344,-28.25823974609375
248867,0.2211151123046875,1.391403198242188,-0.1380767822265625,0.0453365892171859,0.0538256801664829,0.281238853931427,38.41152954101562,98.80606079101562,-28.17739868164062
248868,0.1788482666015625,1.503692626953125,-0.123291015625,0.1032773852348328,-0.0394981391727924,0.1690553277730942,38.62039184570312,98.8766632080078,-28.15306091308594
248869,0.166473388671875,1.573211669921875,-0.1090545654296875,0.194623276591301,-0.1589704751968384,0.0952865704894065,38.78269958496094,98.89892578125,-28.00703430175781
248870,0.1636199951171875,1.595474243164062,-0.096221923828125,0.3302396833896637,-0.2552602589130402,0.0651313289999961,38.84861755371094,98.8677215576172,-27.93771362304688
248871,0.0458221435546875,1.342559814453125,-0.074951171875,0.5719606876373291,-0.3979548215866089,0.0625182390213012,38.89418029785156,98.93975830078124,-28.46498107910156
248872,0.0458221435546875,1.342559814453125,-0.074951171875,0.5719606876373291,-0.3979548215866089,0.0625182390213012,38.89418029785156,98.93975830078124,-28.46498107910156
248873,-0.05352783203125,1.198471069335938,-0.064117431640625,0.5719606876373291,-0.3979548215866089,0.0625182390213012,38.86503601074219,98.94168090820312,-28.6729736328125
248874,-0.1396331787109375,1.095840454101562,-0.07891845703125,0.4478238523006439,-0.350384384393692,0.0784098505973815,38.84634399414062,98.9016571044922,-28.833984375
248875,-0.198699951171875,1.04278564453125,-0.109283447265625,0.2713484168052673,-0.2877598702907562,0.0718329101800918,38.84559631347656,98.82795715332033,-29.06619262695312
248876,-0.22784423828125,1.020904541015625,-0.1234893798828125,0.1871195584535599,-0.2526793777942657,0.0503619723021984,38.9051513671875,98.7568359375,-29.15702819824219
248877,-0.2251434326171875,0.99652099609375,-0.1242523193359375,0.1968819051980972,-0.2392559945583344,0.0190964620560407,38.83404541015625,98.80772399902344,-29.38226318359375
248878,-0.2045745849609375,0.9666900634765624,-0.1173095703125,0.2270496636629105,-0.2340311408042908,-0.0039779637008905,38.78837585449219,98.725341796875,-29.40065002441406
248879,-0.116607666015625,0.91943359375,-0.1147308349609375,0.217538446187973,-0.2105335295200348,-0.0596103332936763,38.86737060546875,98.7812042236328,-29.54461669921875
248880,-0.116607666015625,0.91943359375,-0.1147308349609375,0.217538446187973,-0.2105335295200348,-0.0596103332936763,38.86737060546875,98.7812042236328,-29.54461669921875
248881,-0.0676422119140625,0.8932647705078125,-0.1339874267578125,0.2127980142831802,-0.2223832756280899,-0.0946570038795471,38.83648681640625,98.68943786621094,-29.56694030761719
248882,-0.01898193359375,0.8596649169921875,-0.1584014892578125,0.2436472773551941,-0.2468800842761993,-0.1238620206713676,38.76988220214844,98.65457153320312,-29.49794006347656
248883,0.0244140625,0.8270263671875,-0.162353515625,0.2948300540447235,-0.2710091173648834,-0.1369336098432541,38.80540466308594,98.57008361816406,-29.59664916992188
248884,0.0506439208984375,0.814361572265625,-0.1328277587890625,0.3245924711227417,-0.2693883180618286,-0.1460000872612,38.62159729003906,98.4731903076172,-29.60723876953125
248885,0.0538482666015625,0.8247528076171875,-0.0859222412109375,0.293153315782547,-0.2276328951120377,-0.1641660332679749,38.566162109375,98.43229675292967,-29.78083801269531
248886,0.0365447998046875,0.8455963134765625,-0.0531463623046875,0.1934999525547028,-0.1608554571866989,-0.1813841760158539,38.51718139648438,98.42613220214844,-29.83547973632812
248887,0.004119873046875,0.8785247802734375,-0.0253448486328125,-0.0289144720882177,0.0342375971376895,-0.2060050964355469,38.35771179199219,98.48356628417967,-30.0460205078125
248888,-0.02813720703125,0.9175567626953124,-0.0042877197265625,-0.0289144720882177,0.0342375971376895,-0.2060050964355469,38.18992614746094,98.43313598632812,-30.20918273925781
248889,-0.0598297119140625,0.9433441162109376,-0.009185791015625,-0.0500645004212856,0.1542042195796967,-0.1856889128684998,38.12197875976562,98.4787139892578,-30.29644775390625
248890,-0.0803680419921875,0.9752044677734376,-0.037078857421875,-0.0252800565212965,0.2349462062120438,-0.1243038401007652,38.05186462402344,98.3704071044922,-30.23896789550781
248891,-0.056640625,1.050369262695312,-0.08349609375,0.0049124667420983,0.1495972126722336,0.0499409288167953,37.90126037597656,98.41920471191406,-30.192626953125
248892,-0.056640625,1.050369262695312,-0.08349609375,0.0049124667420983,0.1495972126722336,0.0499409288167953,37.90126037597656,98.41920471191406,-30.192626953125
248893,-0.0260467529296875,1.075775146484375,-0.056884765625,-0.0035031221341341,0.0411157459020614,0.1568434089422226,37.86997985839844,98.53114318847656,-30.15583801269531
248894,0.01190185546875,1.10162353515625,-0.0307159423828125,-0.029446305707097,-0.0465901382267475,0.2665896117687225,37.83050537109375,98.61944580078124,-30.257080078125
248895,0.0760345458984375,1.109756469726562,-0.0433502197265625,-0.001604021876119,-0.2705241739749908,0.3892500102519989,37.82220458984375,98.72853088378906,-30.23820495605469
248896,0.1557464599609375,1.109466552734375,-0.0625457763671875,0.056737583130598,-0.3826387226581573,0.3380792438983917,37.8197021484375,98.81785583496094,-30.25068664550781
248897,0.2414398193359375,1.098770141601562,-0.070892333984375,0.056737583130598,-0.3826387226581573,0.3380792438983917,37.91058349609375,98.88630676269533,-30.24488830566406
248898,0.298553466796875,1.03900146484375,-0.1024017333984375,0.1417787075042725,-0.5018056035041809,0.2334694713354111,38.01658630371094,98.95378112792967,-30.26087951660156
248899,0.3443603515625,0.9379425048828124,-0.1657867431640625,0.2184604406356812,-0.6241304278373718,0.1125310733914375,38.13536071777344,98.96371459960938,-30.21195983886719
248900,0.37371826171875,0.8195037841796875,-0.235443115234375,0.2947522699832916,-0.7250855565071106,-0.0112883411347866,38.24617004394531,98.9655303955078,-30.22401428222656
248901,0.363677978515625,0.70330810546875,-0.299713134765625,0.3655598759651184,-0.7839859127998352,-0.1103667244315147,38.162109375,98.92950439453124,-30.23683166503906
248902,0.363677978515625,0.70330810546875,-0.299713134765625,0.3655598759651184,-0.7839859127998352,-0.1103667244315147,38.162109375,98.92950439453124,-30.23683166503906
248903,0.25946044921875,0.619415283203125,-0.503387451171875,0.2391694337129593,-0.880540132522583,-0.2524229288101196,37.65631103515625,98.66152954101562,-30.25016784667969
248904,0.25946044921875,0.619415283203125,-0.503387451171875,0.2391694337129593,-0.880540132522583,-0.2524229288101196,37.65631103515625,98.66152954101562,-30.25016784667969
248905,0.2275390625,0.70391845703125,-0.5331573486328125,0.2062887251377106,-0.9254481792449952,-0.2604763209819794,37.39341735839844,98.5684814453125,-30.1368408203125
248906,0.200439453125,0.8089599609375,-0.5437164306640625,0.2074519842863083,-0.9503157138824464,-0.2618590295314789,37.19563293457031,98.51254272460938,-30.11842346191406
248907,0.177886962890625,0.9253692626953124,-0.5425262451171875,0.2432185113430023,-0.9582165479660034,-0.2555835545063019,36.98260498046875,98.50001525878906,-30.07037353515625
248908,0.170562744140625,1.03564453125,-0.5217437744140625,0.3067476749420166,-0.9366167187690736,-0.2426262199878693,36.69285583496094,98.39794921875,-29.98062133789062
248909,0.1649017333984375,1.114654541015625,-0.467742919921875,0.3654602766036987,-0.8794152140617371,-0.218550443649292,36.48793029785156,98.22622680664062,-30.11135864257812
248910,0.136444091796875,1.159576416015625,-0.3975372314453125,0.395334005355835,-0.8089900612831116,-0.1999378800392151,36.33375549316406,98.09675598144533,-30.0234375
248911,0.0889739990234375,1.178237915039062,-0.31884765625,0.38016277551651,-0.7157394289970398,-0.1823338568210602,36.14851379394531,97.9701690673828,-30.05247497558594
248912,0.03863525390625,1.176651000976562,-0.246063232421875,0.3466045558452606,-0.5934092998504639,-0.1642595082521439,35.97991943359375,97.86639404296876,-30.08558654785156
248913,-0.0126953125,1.173751831054688,-0.1710662841796875,0.3097911477088928,-0.4777801632881165,-0.1506089419126511,35.97409057617188,97.8720245361328,-30.38215637207031
248914,-0.0720672607421875,1.18389892578125,-0.0928802490234375,0.2568469643592834,-0.3568372130393982,-0.1266703307628632,35.77529907226562,97.76481628417967,-30.449462890625
248915,-0.1849517822265625,1.208740234375,0.0388336181640625,0.149938628077507,-0.1510086953639984,-0.1134671717882156,35.70309448242188,97.75811767578124,-30.61729431152344
248916,-0.1849517822265625,1.208740234375,0.0388336181640625,0.149938628077507,-0.1510086953639984,-0.1134671717882156,35.70309448242188,97.75811767578124,-30.61729431152344
248917,-0.231048583984375,1.199798583984375,0.0725250244140625,0.1006533727049828,-0.0645267963409423,-0.1327021270990372,35.74104309082031,97.71319580078124,-30.56643676757812
248918,-0.25799560546875,1.166275024414062,0.0465545654296875,0.0810655578970909,0.003155313199386,-0.1560876071453094,35.67340087890625,97.71994018554688,-30.70477294921875
248919,-0.1872100830078125,1.09136962890625,-0.123504638671875,0.2132699340581894,-0.0173140093684196,-0.1913214921951294,35.64886474609375,97.60919189453124,-30.81686401367188
248920,-0.1872100830078125,1.09136962890625,-0.123504638671875,0.2132699340581894,-0.0173140093684196,-0.1913214921951294,35.64886474609375,97.60919189453124,-30.81686401367188
248921,-0.0910797119140625,1.0496826171875,-0.1854400634765625,0.2832109332084656,-0.0948306396603584,-0.242103174328804,35.59513854980469,97.55221557617188,-30.89442443847656
248922,-0.0910797119140625,1.0496826171875,-0.1854400634765625,0.2832109332084656,-0.0948306396603584,-0.242103174328804,35.59513854980469,97.55221557617188,-30.89442443847656
248923,0.0792999267578125,0.9713897705078124,-0.139190673828125,0.1238215416669846,-0.3806293606758118,-0.3106912970542908,35.34854125976562,97.5364227294922,-31.14744567871094
248924,0.1414031982421875,0.98431396484375,-0.1361236572265625,-0.0653355941176414,-0.4620667099952698,-0.3339657187461853,35.1351318359375,97.50453186035156,-31.16311645507812
248925,0.1650543212890625,1.009872436523438,-0.1610107421875,-0.14814393222332,-0.5333622097969055,-0.3409892916679382,35.03004455566406,97.45852661132812,-31.07328796386719
248926,0.11627197265625,1.04541015625,-0.1468048095703125,-0.1051005870103836,-0.5485443472862244,-0.3399778008460999,34.79287719726562,97.44172668457033,-30.9556884765625
248927,-0.0553436279296875,1.1136474609375,-0.0175628662109375,-0.1826286613941193,-0.421443372964859,-0.2864943444728851,34.37815856933594,97.34480285644533,-30.6705322265625
248928,-0.0553436279296875,1.1136474609375,-0.0175628662109375,-0.1826286613941193,-0.421443372964859,-0.2864943444728851,34.37815856933594,97.34480285644533,-30.6705322265625
248929,-0.1605377197265625,1.163864135742188,0.0324554443359375,-0.3269626796245575,-0.331410676240921,-0.2643679976463318,34.26779174804688,97.2988739013672,-30.50492858886719
248930,-0.2446136474609375,1.20428466796875,0.045166015625,-0.39828160405159,-0.2602118849754333,-0.2419388592243195,34.08226013183594,97.25523376464844,-30.26266479492188
248931,-0.2460174560546875,1.189254760742188,0.0087890625,-0.2539387941360474,-0.2804700136184692,-0.0720869749784469,33.80406188964844,97.2494659423828,-29.90267944335938
248932,-0.2460174560546875,1.189254760742188,0.0087890625,-0.2539387941360474,-0.2804700136184692,-0.0720869749784469,33.80406188964844,97.2494659423828,-29.90267944335938
248933,-0.1760406494140625,1.162750244140625,-0.0042572021484375,-0.1477231532335281,-0.3083168268203735,0.0345161668956279,33.73849487304688,97.27001953125,-29.63862609863281
248934,-0.098846435546875,1.096832275390625,0.0137176513671875,-0.0717889666557312,-0.3876127004623413,0.1145052760839462,33.71427917480469,97.2584991455078,-29.50872802734375
248935,-0.0205078125,1.005630493164062,0.0622406005859375,-0.0286271180957555,-0.4929977059364319,0.1900602132081985,33.73529052734375,97.28465270996094,-29.49386596679688
248936,0.0608673095703125,0.9057159423828124,0.1149749755859375,-0.0077628483995795,-0.5867966413497925,0.2411441802978516,33.65400695800781,97.33258056640624,-29.37803649902344
248937,0.1129150390625,0.8456878662109375,0.1726531982421875,-0.0173576846718788,-0.5953134298324585,0.2497813403606415,33.69709777832031,97.20343017578124,-29.26393127441406
248938,0.140594482421875,0.7983551025390625,0.17236328125,-0.0642245262861251,-0.5931139588356018,0.2073089778423309,33.69255065917969,97.14768981933594,-29.17225646972656
248939,0.1685943603515625,0.71697998046875,0.127288818359375,-0.1624805182218552,-0.6591824293136597,0.132515162229538,33.75729370117188,97.030029296875,-28.99603271484375
248940,0.210601806640625,0.6111297607421875,0.0972900390625,-0.3051833510398865,-0.7421960830688477,0.0534853301942348,33.79603576660156,97.16400146484376,-28.88941955566406
248941,0.2574310302734375,0.522369384765625,0.085296630859375,-0.4682566821575165,-0.7848790884017944,0.000202400246053,33.69732666015625,97.30598449707033,-28.68013000488281
248942,0.300750732421875,0.480743408203125,0.083740234375,-0.5838930010795593,-0.7542207837104797,-0.0223300736397504,33.55087280273438,97.25755310058594,-28.40055847167969
248943,0.2892303466796875,0.5439605712890625,0.075836181640625,-0.5981395840644836,-0.6105728149414062,-0.0259594283998012,33.50572204589844,97.2659912109375,-28.05410766601562
248944,0.1821441650390625,0.6584930419921875,0.0230865478515625,-0.5324700474739075,-0.4622818827629089,-0.0330996289849281,33.44261169433594,97.38386535644533,-27.59640502929688
248945,0.08819580078125,0.725921630859375,-0.0106201171875,-0.4472286403179169,-0.4054116904735565,-0.0308133065700531,33.36647033691406,97.41351318359376,-27.237548828125
248946,0.0423583984375,0.7809906005859375,-0.0196533203125,-0.3579501509666443,-0.3064419627189636,-0.011674765497446,33.2626953125,97.42356872558594,-27.02894592285156
248947,-0.0013885498046875,0.8358306884765625,-0.0518798828125,-0.2699579894542694,-0.1675847321748734,0.0258094929158687,33.25204467773438,97.5368194580078,-26.71990966796875
248948,-0.0384368896484375,0.903350830078125,-0.0828857421875,-0.2040881514549255,-0.0275788977742195,0.0713548734784126,33.23143005371094,97.4561004638672,-26.42022705078125
248949,-0.073577880859375,0.982147216796875,-0.076324462890625,-0.1827573031187057,0.0950929597020149,0.0963369235396385,33.25430297851562,97.56184387207033,-26.34074401855469
248950,-0.1118621826171875,1.060760498046875,-0.0520172119140625,-0.2104818671941757,0.2083111256361008,0.1172078475356102,33.34390258789062,97.56103515625,-26.11944580078125
248951,-0.1642913818359375,1.272048950195312,0.0272064208984375,-0.2895617783069611,0.4012813866138458,0.0860187709331512,33.40376281738281,97.7686004638672,-25.91566467285156
248952,-0.1642913818359375,1.272048950195312,0.0272064208984375,-0.2895617783069611,0.4012813866138458,0.0860187709331512,33.40376281738281,97.7686004638672,-25.91566467285156
248953,-0.196563720703125,1.36053466796875,0.077301025390625,-0.2815714776515961,0.4734416007995605,0.0443474911153316,33.42276000976562,97.80496215820312,-25.76789855957031
248954,-0.23529052734375,1.425262451171875,0.1015777587890625,-0.224492222070694,0.5248064994812012,-0.0321408919990062,33.48818969726562,97.86666870117188,-25.70086669921875
248955,-0.262603759765625,1.391708374023438,0.0051727294921875,0.0585714355111122,0.5877761840820312,-0.1243451237678528,33.5439453125,98.0329132080078,-25.88084411621094
248956,-0.262603759765625,1.391708374023438,0.0051727294921875,0.0585714355111122,0.5877761840820312,-0.1243451237678528,33.5439453125,98.0329132080078,-25.88084411621094
248957,-0.2224578857421875,1.224899291992188,-0.00054931640625,0.2181546986103058,0.6059527397155762,-0.150834247469902,33.55599975585938,98.04141235351562,-25.912109375
248958,-0.2224578857421875,1.224899291992188,-0.00054931640625,0.2181546986103058,0.6059527397155762,-0.150834247469902,33.55599975585938,98.04141235351562,-25.912109375
248959,-0.1150054931640625,0.9589996337890624,-0.002655029296875,0.2368429005146027,0.4446397721767426,-0.1696361750364304,33.58747863769531,97.98886108398438,-26.21461486816406
248960,-0.01507568359375,0.8929290771484375,-0.0205230712890625,0.2368429005146027,0.4446397721767426,-0.1696361750364304,33.55555725097656,97.795654296875,-26.39398193359375
248961,0.093017578125,0.8552703857421875,-0.027099609375,0.2067102938890457,0.3962618410587311,-0.1370262950658798,33.54042053222656,97.7829132080078,-26.71910095214844
248962,0.1807403564453125,0.8751373291015625,-0.106048583984375,0.1942911893129349,0.38129061460495,-0.1051756888628006,33.42178344726562,97.81661987304688,-26.90550231933594
248963,0.2075347900390625,1.023239135742188,-0.2826690673828125,0.1872135698795319,0.4343639612197876,-0.0533902533352375,33.34774780273438,97.69305419921876,-27.14825439453125
248964,0.2075347900390625,1.023239135742188,-0.2826690673828125,0.1872135698795319,0.4343639612197876,-0.0533902533352375,33.34774780273438,97.69305419921876,-27.14825439453125
248965,0.191436767578125,1.09747314453125,-0.3100738525390625,0.1872135698795319,0.4343639612197876,-0.0533902533352375,33.4000244140625,97.64118957519533,-27.27168273925781
248966,0.191436767578125,1.09747314453125,-0.3100738525390625,0.1872135698795319,0.4343639612197876,-0.0533902533352375,33.4000244140625,97.64118957519533,-27.27168273925781
248967,0.1389007568359375,1.251373291015625,-0.4211578369140625,0.190248504281044,0.5515909790992737,-0.0553303658962249,33.43925476074219,97.60418701171876,-27.46293640136719
248968,0.0980072021484375,1.294509887695312,-0.42059326171875,0.2266078442335129,0.5968745946884155,-0.0447970330715179,33.43998718261719,97.39389038085938,-27.35548400878906
248969,0.0602874755859375,1.276382446289062,-0.3906402587890625,0.2548796832561493,0.6175252795219421,-0.0271583832800388,33.4403076171875,97.44268798828124,-27.44349670410156
248970,0.0288238525390625,1.186569213867188,-0.370025634765625,0.2556264400482178,0.6180533766746521,-0.0293200723826885,33.52336120605469,97.32188415527344,-27.61863708496094
248971,0.0106353759765625,1.065826416015625,-0.3641204833984375,0.2138009667396545,0.5760936737060547,-0.063647948205471,33.56716918945312,97.44554138183594,-28.07545471191406
248972,-0.0221405029296875,1.0025634765625,-0.3479156494140625,0.2138009667396545,0.5760936737060547,-0.063647948205471,33.64463806152344,97.54318237304688,-28.40324401855469
248973,-0.0498199462890625,0.972991943359375,-0.2838134765625,0.2182425856590271,0.5491046905517578,-0.1316296607255936,33.64752197265625,97.6819305419922,-28.58712768554688
248974,-0.0722808837890625,0.9514312744140624,-0.237701416015625,0.2143431901931763,0.5563652515411377,-0.2261963784694672,33.71788024902344,97.5175323486328,-28.80909729003906
248975,-0.09619140625,0.9266815185546876,-0.2114105224609375,0.2140017747879028,0.545359194278717,-0.3132138550281525,33.79081726074219,97.50827026367188,-29.04034423828125
248976,-0.110504150390625,0.91046142578125,-0.170623779296875,0.2236940711736679,0.5294691920280457,-0.3604098558425903,33.77618408203125,97.4529266357422,-29.31117248535156
248977,-0.112884521484375,0.889190673828125,-0.13641357421875,0.2350963950157166,0.4985626637935638,-0.3560763597488403,33.70106506347656,97.35678100585938,-29.48176574707031
248978,-0.11248779296875,0.8658905029296875,-0.10919189453125,0.2223142981529236,0.431412398815155,-0.2970279455184937,33.69476318359375,97.34288024902344,-29.76055908203125
248979,-0.0964813232421875,0.8386077880859375,-0.0894775390625,0.1821881830692291,0.1950296759605408,0.0352472029626369,33.60888671875,97.12416076660156,-30.01576232910156
248980,-0.0964813232421875,0.8386077880859375,-0.0894775390625,0.1821881830692291,0.1950296759605408,0.0352472029626369,33.60888671875,97.12416076660156,-30.01576232910156
248981,-0.077972412109375,0.807220458984375,-0.099212646484375,0.1821881830692291,0.1950296759605408,0.0352472029626369,33.61920166015625,97.04505920410156,-30.20828247070312
248982,-0.073516845703125,0.7759246826171875,-0.10357666015625,0.2037709653377533,0.199609249830246,0.1526113748550415,33.49226379394531,97.0242919921875,-30.29672241210938
248983,-0.09674072265625,0.7084197998046875,-0.068634033203125,0.2216788679361343,0.3373109102249146,0.284445583820343,33.6656494140625,97.0107421875,-30.70167541503906
248984,-0.09674072265625,0.7084197998046875,-0.068634033203125,0.2216788679361343,0.3373109102249146,0.284445583820343,33.6656494140625,97.0107421875,-30.70167541503906
248985,-0.1110382080078125,0.6743316650390625,-0.035430908203125,0.1692212522029877,0.4959061443805695,0.2703888714313507,33.83412170410156,97.00888061523438,-30.77015686035156
248986,-0.120574951171875,0.6399383544921875,0.003875732421875,0.0681921020150184,0.6915677785873413,0.2291466295719147,33.97506713867188,97.02439880371094,-30.93598937988281
248987,-0.13323974609375,0.6208648681640625,0.039886474609375,-0.0538744181394577,0.8971095085144043,0.1661170721054077,34.10870361328125,97.13934326171876,-31.0504150390625
248988,-0.150421142578125,0.628173828125,0.062225341796875,-0.2962870597839355,1.121109366416931,0.0176120176911354,34.28567504882812,97.19219970703124,-31.25204467773438
248989,-0.157440185546875,0.683349609375,0.0654449462890625,-0.2962870597839355,1.121109366416931,0.0176120176911354,34.49293518066406,97.16932678222656,-31.37400817871094
248990,-0.157440185546875,0.683349609375,0.0654449462890625,-0.2962870597839355,1.121109366416931,0.0176120176911354,34.49293518066406,97.16932678222656,-31.37400817871094
248991,0.084869384765625,1.029067993164062,0.016265869140625,-0.3394981622695923,0.8893160223960876,-0.1036960333585739,34.88546752929688,97.21983337402344,-31.50485229492188
248992,0.084869384765625,1.029067993164062,0.016265869140625,-0.3394981622695923,0.8893160223960876,-0.1036960333585739,34.88546752929688,97.21983337402344,-31.50485229492188
248993,0.1708526611328125,1.116363525390625,0.02520751953125,-0.2424334138631821,0.8600971698760986,-0.1190134733915329,35.07171630859375,97.23338317871094,-31.49925231933594
248994,0.2071380615234375,1.191452026367188,0.061676025390625,-0.1459729224443436,0.8074043989181519,-0.1687229722738266,35.06825256347656,97.24551391601562,-31.41731262207031
248995,0.176849365234375,1.221145629882812,0.106689453125,-0.0466958656907081,0.6754604578018188,-0.3579634726047516,35.11048889160156,97.29460144042967,-31.43519592285156
248996,0.0803375244140625,1.2039794921875,0.107757568359375,-0.0466958656907081,0.6754604578018188,-0.3579634726047516,35.13618469238281,97.32647705078124,-31.4635009765625
248997,-0.0400543212890625,1.168609619140625,0.04913330078125,0.0021166803780943,0.5783267021179199,-0.4008536636829376,35.11381530761719,97.3045654296875,-31.45326232910156
248998,-0.1442108154296875,1.137222290039062,-0.02264404296875,0.0872616693377494,0.4408623576164246,-0.4219134151935577,35.06198120117188,97.26161193847656,-31.49655151367188
248999,-0.21917724609375,1.099945068359375,-0.0535888671875,0.1804957389831543,0.2845419943332672,-0.4408040344715118,35.07087707519531,97.20689392089844,-31.66058349609375
249000,-0.26397705078125,1.055007934570312,-0.0438995361328125,0.239654928445816,0.1847458779811859,-0.453798919916153,34.93873596191406,97.2962646484375,-31.79815673828125
249001,-0.2679595947265625,0.9916229248046876,-0.0592498779296875,0.2463975250720978,0.1085232794284821,-0.4614464640617371,34.72109985351562,97.10580444335938,-31.91523742675781
249002,-0.2679595947265625,0.9916229248046876,-0.0592498779296875,0.2463975250720978,0.1085232794284821,-0.4614464640617371,34.72109985351562,97.10580444335938,-31.91523742675781
249003,-0.124847412109375,0.8735809326171875,-0.1751708984375,0.1956784278154373,-0.0313155800104141,-0.4150917232036591,34.39289855957031,96.91520690917967,-31.99908447265625
249004,-0.0396575927734375,0.8480072021484375,-0.222259521484375,0.1807181090116501,-0.0694019794464111,-0.3770117163658142,34.1937255859375,96.77183532714844,-32.11697387695312
249005,-0.00079345703125,0.826385498046875,-0.2432403564453125,0.1668233424425125,-0.1010690927505493,-0.3412548005580902,34.08314514160156,96.67047119140624,-32.19216918945312
249006,-0.0001678466796875,0.7995452880859375,-0.235382080078125,0.1240750774741173,-0.079171247780323,-0.3252713084220886,33.91746520996094,96.50543212890624,-32.2764892578125
249007,-0.0676116943359375,0.7667999267578125,-0.2237091064453125,0.0764335244894027,-0.026257436722517,-0.3347934484481812,33.5714111328125,96.3154296875,-32.41917419433594
249008,-0.0676116943359375,0.7667999267578125,-0.2237091064453125,0.0764335244894027,-0.026257436722517,-0.3347934484481812,33.5714111328125,96.3154296875,-32.41917419433594
249009,-0.1099090576171875,0.775543212890625,-0.2523956298828125,0.0121378889307379,0.0447629429399967,-0.3443504571914673,33.51094055175781,96.29498291015624,-32.38174438476562
249010,-0.14239501953125,0.8150634765625,-0.3069000244140625,-0.0574310682713985,0.1110474243760109,-0.3450364768505096,33.3016357421875,96.24757385253906,-32.43370056152344
249011,-0.16729736328125,0.8839263916015625,-0.3668060302734375,-0.2619011104106903,0.2192175686359406,-0.3257994055747986,33.14675903320312,96.16200256347656,-32.39505004882812
249012,-0.1794281005859375,0.9784088134765624,-0.418975830078125,-0.2619011104106903,0.2192175686359406,-0.3257994055747986,32.99252319335938,96.06015014648438,-32.41123962402344
249013,-0.1800689697265625,1.081069946289062,-0.4319915771484375,-0.4479596614837646,0.2537912726402283,-0.2790199220180511,32.8583984375,96.10752868652344,-32.30155944824219
249014,-0.159912109375,1.16094970703125,-0.39111328125,-0.4479596614837646,0.2537912726402283,-0.2790199220180511,32.73263549804688,96.16178894042967,-32.25538635253906
249015,-0.1330718994140625,1.220657348632812,-0.3331756591796875,-0.4598040878772736,0.2836487591266632,-0.2380623668432236,32.61079406738281,96.165771484375,-32.16122436523438
249016,-0.1196746826171875,1.2711181640625,-0.2657318115234375,-0.3838046491146088,0.3361212909221649,-0.2006337642669678,32.51927185058594,96.25251770019533,-32.09188842773438
249017,-0.1174774169921875,1.302871704101562,-0.1926422119140625,-0.2807466983795166,0.4116637110710144,-0.1575962901115417,32.4869384765625,96.3401336669922,-31.85087585449219
249018,-0.133819580078125,1.323455810546875,-0.171356201171875,-0.1919795572757721,0.4500207006931305,-0.1228319108486176,32.39814758300781,96.37223815917967,-31.69728088378906
249019,-0.146453857421875,1.333175659179688,-0.177886962890625,-0.1332145184278488,0.4071834683418274,-0.090323768556118,32.40284729003906,96.41387939453124,-31.71568298339844
249020,-0.1405792236328125,1.290939331054688,-0.195068359375,-0.0756873041391372,0.3302319645881653,-0.0541465915739536,32.36824035644531,96.42292785644533,-31.72911071777344
249021,-0.1214141845703125,1.1976318359375,-0.190399169921875,-0.0042133871465921,0.2753607332706451,-0.0243633966892957,32.3857421875,96.50567626953124,-31.59796142578125
249022,-0.1214141845703125,1.1976318359375,-0.190399169921875,-0.0042133871465921,0.2753607332706451,-0.0243633966892957,32.3857421875,96.50567626953124,-31.59796142578125
249023,-0.0335693359375,0.935455322265625,-0.29779052734375,0.2830815017223358,0.0889575704932212,0.0168809797614812,32.40457153320312,96.50798034667967,-31.81298828125
249024,-0.0335693359375,0.935455322265625,-0.29779052734375,0.2830815017223358,0.0889575704932212,0.0168809797614812,32.40457153320312,96.50798034667967,-31.81298828125
249025,0.0054168701171875,0.86895751953125,-0.34332275390625,0.3385554254055023,0.0099450424313545,0.0352687761187553,32.41615295410156,96.48526000976562,-31.85566711425781
249026,0.0506134033203125,0.8291778564453125,-0.392059326171875,0.3747802674770355,-0.0733509138226509,0.0490229353308677,32.48162841796875,96.43597412109376,-31.93316650390625
249027,0.11029052734375,0.840179443359375,-0.4450531005859375,0.3938109576702118,-0.1940760016441345,0.0806325301527977,32.36941528320312,96.3730010986328,-32.34797668457031
249028,0.11029052734375,0.840179443359375,-0.4450531005859375,0.3938109576702118,-0.1940760016441345,0.0806325301527977,32.36941528320312,96.3730010986328,-32.34797668457031
249029,0.1107940673828125,0.8745269775390625,-0.4417572021484375,0.4045533537864685,-0.2366650104522705,0.0951382368803024,32.443115234375,96.31095886230467,-32.44944763183594
249030,0.1107940673828125,0.8745269775390625,-0.4417572021484375,0.4045533537864685,-0.2366650104522705,0.0951382368803024,32.443115234375,96.31095886230467,-32.44944763183594
249031,0.1650848388671875,0.93701171875,-0.374969482421875,0.3791036307811737,-0.3070712685585022,0.1947385966777802,32.46293640136719,95.89529418945312,-32.91313171386719
249032,0.1650848388671875,0.93701171875,-0.374969482421875,0.3791036307811737,-0.3070712685585022,0.1947385966777802,32.46293640136719,95.89529418945312,-32.91313171386719
249033,0.180328369140625,0.9497833251953124,-0.329620361328125,0.3330045938491821,-0.309776246547699,0.2514846920967102,32.49940490722656,95.86224365234376,-33.05754089355469
249034,0.1794586181640625,0.9769287109375,-0.2498779296875,0.262371152639389,-0.2785837054252625,0.3167582452297211,32.49787902832031,95.75526428222656,-33.10443115234375
249035,0.144561767578125,1.024276733398438,-0.1521453857421875,0.1683650463819504,-0.2179917246103287,0.3459320962429047,32.60494995117188,95.75418090820312,-33.38850402832031
249036,0.0704345703125,1.082748413085938,-0.056732177734375,0.0461581721901893,-0.1612416207790375,0.3386741876602173,32.71714782714844,95.81732177734376,-33.49046325683594
249037,-0.0315093994140625,1.146438598632812,0.0365447998046875,-0.0851694867014884,-0.1210044547915459,0.2793008685112,32.8612060546875,95.87092590332033,-33.49417114257812
249038,-0.1340484619140625,1.20635986328125,0.14166259765625,-0.1945335268974304,-0.0758271217346191,0.1817612797021866,32.991943359375,95.84048461914062,-33.51301574707031
249039,-0.2288818359375,1.259872436523438,0.210052490234375,-0.244175910949707,0.0085335671901702,0.0524264574050903,33.20021057128906,96.01016235351562,-33.53926086425781
249040,-0.2993621826171875,1.28704833984375,0.1819305419921875,0.0370610803365707,0.0558867007493972,-0.1556785404682159,33.28059387207031,96.02743530273438,-33.48841857910156
249041,-0.3165740966796875,1.264114379882812,0.0956573486328125,0.0370610803365707,0.0558867007493972,-0.1556785404682159,33.35456848144531,95.99044799804688,-33.35884094238281
249042,-0.2771759033203125,1.1964111328125,-0.0084075927734375,0.3408124446868896,0.0437826327979564,-0.1683831512928009,33.41775512695312,96.08016967773438,-33.25259399414062
249043,-0.215484619140625,1.093048095703125,-0.1099090576171875,0.6130037307739258,-0.0375151522457599,-0.1568420827388763,33.44110107421875,96.11172485351562,-33.36611938476562
249044,-0.1819915771484375,0.9725799560546876,-0.1522064208984375,0.7805488109588623,-0.1563014537096024,-0.1533671915531158,33.35006713867188,96.10787963867188,-33.47785949707031
249045,-0.193817138671875,0.8474578857421875,-0.1597747802734375,0.826904296875,-0.2133295834064484,-0.1632038354873657,33.30380249023438,95.9323272705078,-33.59330749511719
249046,-0.2301483154296875,0.7451934814453125,-0.1771392822265625,0.7628906965255737,-0.181770071387291,-0.1788810640573502,33.24411010742188,95.75831604003906,-33.8201904296875
249047,-0.27655029296875,0.6817169189453125,-0.200775146484375,0.6423179507255554,-0.0917658731341362,-0.1857014298439026,33.18113708496094,95.53598022460938,-34.21812438964844
249048,-0.3189697265625,0.6571197509765625,-0.219207763671875,0.4773023724555969,-0.0007813714328221,-0.1711831986904144,33.03959655761719,95.42080688476562,-34.53411865234375
249049,-0.3445587158203125,0.668670654296875,-0.2257080078125,0.2815794944763184,0.0982386842370033,-0.1366912722587585,32.99757385253906,95.39065551757812,-34.96867370605469
249050,-0.344451904296875,0.720001220703125,-0.226409912109375,0.0776005163788795,0.2026828080415726,-0.0976378768682479,32.89840698242188,95.20982360839844,-35.03593444824219
249051,-0.2823028564453125,0.8600616455078125,-0.2220611572265625,-0.2639522850513458,0.3541522324085236,-0.0422547794878482,32.84786987304688,94.96099853515624,-35.19833374023438
249052,-0.2823028564453125,0.8600616455078125,-0.2220611572265625,-0.2639522850513458,0.3541522324085236,-0.0422547794878482,32.84786987304688,94.96099853515624,-35.19833374023438
249053,-0.2284698486328125,0.92584228515625,-0.207550048828125,-0.3808035254478455,0.3970975577831268,0.0028096348978579,32.79949951171875,94.94998168945312,-35.26173400878906
249054,-0.1593780517578125,0.9803009033203124,-0.1619873046875,-0.4861760437488556,0.4179077744483948,0.0571905858814716,32.84075927734375,94.98957824707033,-35.27391052246094
249055,0.0055694580078125,0.9930267333984376,-0.005859375,-0.6404460072517395,0.3522579073905945,0.1857022196054459,32.93666076660156,95.00291442871094,-35.06072998046875
249056,0.0055694580078125,0.9930267333984376,-0.005859375,-0.6404460072517395,0.3522579073905945,0.1857022196054459,32.93666076660156,95.00291442871094,-35.06072998046875
249057,0.068634033203125,0.949859619140625,0.0770263671875,-0.6354962587356567,0.2577205002307892,0.2641664147377014,33.01405334472656,95.11187744140624,-34.92495727539062
249058,0.122772216796875,0.9092559814453124,0.1337738037109375,-0.5783395171165466,0.1625785231590271,0.3342874348163605,33.19685363769531,95.24763488769533,-34.72233581542969
249059,0.182464599609375,0.8525238037109375,0.1523895263671875,-0.5197440981864929,0.0080025326460599,0.4024837911128998,33.21577453613281,95.44435119628906,-34.3668212890625
249060,0.2304534912109375,0.80523681640625,0.1466217041015625,-0.5197440981864929,0.0080025326460599,0.4024837911128998,33.43632507324219,95.76741027832033,-34.16854858398438
249061,0.2595672607421875,0.793121337890625,0.1398773193359375,-0.4896144270896912,-0.0407756604254245,0.4082964062690735,33.74032592773438,95.8356475830078,-33.79840087890625
249062,0.277069091796875,0.805145263671875,0.1387939453125,-0.4711084067821503,-0.0544360764324665,0.3857319951057434,33.80427551269531,95.93551635742188,-33.70072937011719
249063,0.2786865234375,0.861480712890625,0.155181884765625,-0.4456203579902649,0.0322724506258964,0.2175088822841644,33.97608947753906,96.00155639648438,-33.50108337402344
249064,0.2732696533203125,0.951141357421875,0.1656646728515625,-0.4456203579902649,0.0322724506258964,0.2175088822841644,34.23831176757812,96.27897644042967,-32.96685791015625
249065,0.22021484375,1.0579833984375,0.162261962890625,-0.4178787469863892,0.0295459069311618,0.1226052790880203,34.23831176757812,96.27897644042967,-32.96685791015625
249066,0.1521148681640625,1.127548217773438,0.1345977783203125,-0.4042774438858032,-0.0753416270017623,0.0516552031040191,34.34881591796875,96.49484252929688,-32.81144714355469
249067,0.10888671875,1.17095947265625,0.1187896728515625,-0.3957489430904388,-0.2280121296644211,-0.0422992520034313,34.48500061035156,96.52386474609376,-32.50372314453125
249068,0.0751800537109375,1.21307373046875,0.1146392822265625,-0.3590694665908813,-0.3614878952503204,-0.1317532360553741,34.56623840332031,96.61131286621094,-31.93148803710938
249069,0.0330657958984375,1.23944091796875,0.159912109375,-0.2950433492660522,-0.3858078718185425,-0.2063060402870178,34.44131469726562,96.66392517089844,-31.61506652832031
249070,-0.0107269287109375,1.234466552734375,0.2249755859375,-0.2622310817241669,-0.275032639503479,-0.2497544437646866,34.27897644042969,96.65013122558594,-31.49916076660156
249071,-0.1085662841796875,1.132568359375,0.2290191650390625,-0.369744747877121,-0.0714619308710098,-0.2021144777536392,33.90660095214844,96.87783813476562,-31.55763244628906
249072,-0.1085662841796875,1.132568359375,0.2290191650390625,-0.369744747877121,-0.0714619308710098,-0.2021144777536392,33.90660095214844,96.87783813476562,-31.55763244628906
249073,-0.1604461669921875,1.118331909179688,0.151611328125,-0.4654853940010071,-0.0414473079144954,-0.1527258902788162,33.79121398925781,96.84683227539062,-31.3515625
249074,-0.1604461669921875,1.118331909179688,0.151611328125,-0.4654853940010071,-0.0414473079144954,-0.1527258902788162,33.79121398925781,96.84683227539062,-31.3515625
249075,-0.2519378662109375,1.186874389648438,-0.1536102294921875,-0.4105782210826874,0.1616972833871841,-0.0282968860119581,33.52940368652344,97.04010009765624,-30.9373779296875
249076,-0.2796173095703125,1.228713989257812,-0.2454833984375,-0.2480164617300034,0.2954886257648468,0.0367569476366043,33.44500732421875,97.22151184082033,-30.81005859375
249077,-0.271026611328125,1.249588012695312,-0.22479248046875,-0.1014683023095131,0.4346723556518555,0.0803843215107917,33.45802307128906,97.25715637207033,-30.63894653320312
249078,-0.23681640625,1.227630615234375,-0.1990203857421875,0.0040083238855004,0.5306020975112915,0.0768633559346199,33.54402160644531,97.3604736328125,-30.55482482910156
249079,-0.18798828125,1.156585693359375,-0.2086944580078125,0.1065834313631058,0.5717306137084961,0.0500312075018882,33.61686706542969,97.363525390625,-30.60429382324219
249080,-0.145294189453125,1.047042846679688,-0.240447998046875,0.2329893112182617,0.5678618550300598,0.0236635170876979,33.75691223144531,97.35520935058594,-30.70176696777344
249081,-0.1279449462890625,0.91473388671875,-0.2822265625,0.3625739216804504,0.5597218871116638,0.006116481963545,33.82295227050781,97.361328125,-30.74034118652344
249082,-0.1279449462890625,0.91473388671875,-0.2822265625,0.3625739216804504,0.5597218871116638,0.006116481963545,33.82295227050781,97.361328125,-30.74034118652344
249083,-0.0668487548828125,0.7017669677734375,-0.3932037353515625,0.268607497215271,0.7049456834793091,-0.0665710344910621,34.1251220703125,97.03970336914062,-31.64480590820312
249084,-0.0668487548828125,0.7017669677734375,-0.3932037353515625,0.268607497215271,0.7049456834793091,-0.0665710344910621,34.1251220703125,97.03970336914062,-31.64480590820312
249085,0.00982666015625,0.7478179931640625,-0.346405029296875,0.0870584696531295,0.817791223526001,-0.0807116255164146,34.16600036621094,97.06466674804688,-31.76466369628906
249086,0.09051513671875,0.797210693359375,-0.2688140869140625,-0.0921781286597251,0.8979883790016174,-0.07061318308115,34.25082397460938,96.98918151855467,-32.01199340820312
249087,0.139739990234375,0.8878326416015625,-0.2364044189453125,-0.2358157187700272,0.877771258354187,-0.0277157835662365,34.29959106445312,97.059814453125,-32.22979736328125
249088,0.15789794921875,1.034225463867188,-0.228790283203125,-0.2879758477210999,0.8372304439544678,0.0472154505550861,34.470703125,96.97837829589844,-32.30694580078125
249089,0.1362152099609375,1.207931518554688,-0.2217864990234375,-0.2257199436426163,0.8690584301948547,0.0771863982081413,34.538330078125,96.87989807128906,-32.33377075195312
249090,0.1362152099609375,1.207931518554688,-0.2217864990234375,-0.2257199436426163,0.8690584301948547,0.0771863982081413,34.538330078125,96.87989807128906,-32.33377075195312
249091,-0.114990234375,1.485198974609375,-0.36016845703125,0.2827102541923523,0.9865296483039856,0.0274721048772335,35.01165771484375,97.1717529296875,-32.60623168945312
249092,-0.114990234375,1.485198974609375,-0.36016845703125,0.2827102541923523,0.9865296483039856,0.0274721048772335,35.01165771484375,97.1717529296875,-32.60623168945312
249093,-0.1682891845703125,1.401641845703125,-0.286285400390625,0.3900929093360901,0.9728924036026,-0.0215178094804287,35.19029235839844,97.213623046875,-32.88128662109375
249094,-0.1682891845703125,1.401641845703125,-0.286285400390625,0.3900929093360901,0.9728924036026,-0.0215178094804287,35.19029235839844,97.213623046875,-32.88128662109375
249095,-0.142608642578125,1.03643798828125,-0.040496826171875,0.3562656939029694,0.9134826064109802,-0.0575541071593761,35.76947021484375,97.00355529785156,-33.76933288574219
249096,-0.142608642578125,1.03643798828125,-0.040496826171875,0.3562656939029694,0.9134826064109802,-0.0575541071593761,35.76947021484375,97.00355529785156,-33.76933288574219
249097,-0.0985107421875,0.912750244140625,-0.050750732421875,0.2451058924198151,0.706384539604187,-0.0694376602768898,35.84732055664062,96.92645263671876,-34.11026000976562
249098,-0.0619659423828125,0.8134765625,-0.033050537109375,0.1194081529974937,0.4825477302074432,-0.0307528525590896,35.95794677734375,96.94044494628906,-34.52104187011719
249099,0.011505126953125,0.750518798828125,-0.00860595703125,-0.1868676245212555,0.2994466423988342,0.1747925877571106,36.05619812011719,96.96568298339844,-34.80683898925781
249100,0.011505126953125,0.750518798828125,-0.00860595703125,-0.1868676245212555,0.2994466423988342,0.1747925877571106,36.05619812011719,96.96568298339844,-34.80683898925781
249101,-0.006927490234375,0.813568115234375,-0.02740478515625,-0.2919109463691711,0.3313246667385101,0.2579559087753296,36.16244506835938,97.09669494628906,-34.92012023925781
249102,-0.063568115234375,0.93267822265625,-0.0567169189453125,-0.3130018413066864,0.4018462300300598,0.2998767197132111,36.37290954589844,96.95140075683594,-34.94053649902344
249103,-0.09356689453125,0.9400177001953124,-0.0995635986328125,-0.2244149893522263,0.4035013914108276,0.328713446855545,36.52278137207031,97.03738403320312,-34.85295104980469
249104,-0.08819580078125,0.865447998046875,-0.117034912109375,-0.0575887262821197,0.3475363850593567,0.3289730846881866,36.73976135253906,97.1081085205078,-34.90251159667969
249105,-0.0855560302734375,0.7787628173828125,-0.119049072265625,0.1103507429361343,0.285454660654068,0.302600085735321,37.06246948242188,97.0690460205078,-34.72016906738281
249106,-0.0875396728515625,0.70428466796875,-0.1224212646484375,0.2102762758731842,0.2584448754787445,0.2566624283790588,37.28536987304688,97.15357971191406,-34.75242614746094
249107,-0.089385986328125,0.69500732421875,-0.11212158203125,0.2433154433965683,0.3429259359836578,0.1904447823762894,37.41719055175781,97.09866333007812,-34.88533020019531
249108,-0.1002960205078125,0.7547149658203125,-0.088409423828125,0.2255473732948303,0.528546154499054,0.0976400077342987,37.50506591796875,97.2124481201172,-35.05703735351562
249109,-0.111236572265625,0.863525390625,-0.089935302734375,0.1657522171735764,0.6880050301551819,0.0044410875998437,37.64218139648438,97.16490173339844,-35.1942138671875
249110,-0.095855712890625,0.9677734375,-0.0865020751953125,0.0873378366231918,0.7309991121292114,-0.0746473371982574,37.86061096191406,97.13697814941406,-35.41590881347656
249111,-0.062286376953125,1.046768188476562,-0.0372161865234375,0.0042493399232625,0.7173477411270142,-0.128045842051506,37.92561340332031,97.26910400390624,-35.73130798339844
249112,-0.0341339111328125,1.095947265625,0.0272369384765625,-0.0814413279294967,0.6610069870948792,-0.1676345318555832,37.9530029296875,97.33151245117188,-35.79647827148438
249113,-0.0297088623046875,1.112213134765625,0.093170166015625,-0.1771252453327179,0.5701258182525635,-0.2028433978557587,38.07749938964844,97.341064453125,-35.76356506347656
249114,-0.0670166015625,1.092636108398438,0.13507080078125,-0.2800063490867615,0.4905542731285095,-0.2321379035711288,38.12513732910156,97.2864990234375,-35.69999694824219
249115,-0.149993896484375,1.064605712890625,0.1349945068359375,-0.3604955971240997,0.4327141344547272,-0.2388954013586044,38.19122314453125,97.258544921875,-35.79618835449219
249116,-0.252288818359375,1.063140869140625,0.126678466796875,-0.386628657579422,0.4388002753257751,-0.2540921866893768,38.214111328125,97.32244873046876,-35.86354064941406
249117,-0.3347015380859375,1.058761596679688,0.109588623046875,-0.3616287708282471,0.5109415650367737,-0.283965140581131,38.13201904296875,97.40782165527344,-35.73635864257812
249118,-0.4005889892578125,1.029373168945312,0.0919342041015625,-0.3080070912837982,0.5391694903373718,-0.3138695061206818,38.07917785644531,97.41854858398438,-35.72271728515625
249119,-0.45452880859375,0.9612274169921876,0.075225830078125,-0.2551097869873047,0.4893409311771393,-0.3249775469303131,38.16336059570312,97.45045471191406,-35.51481628417969
249120,-0.4669189453125,0.8759765625,0.0623016357421875,-0.2211177349090576,0.3994451463222504,-0.3332131206989288,38.131591796875,97.57688903808594,-35.53434753417969
249121,-0.428131103515625,0.7866058349609375,0.0261993408203125,-0.2009341716766357,0.3261528015136719,-0.3247429430484772,38.08067321777344,97.59222412109376,-35.35868835449219
249122,-0.383880615234375,0.7387237548828125,-0.031829833984375,-0.1601433306932449,0.3413322865962982,-0.3192749321460724,38.01438903808594,97.57078552246094,-35.37510681152344
249123,-0.340179443359375,0.708740234375,-0.1354827880859375,-0.005953496787697,0.4165761768817902,-0.2373710125684738,37.85887145996094,97.41033935546876,-35.18832397460938
249124,-0.3082122802734375,0.670745849609375,-0.2334136962890625,-0.005953496787697,0.4165761768817902,-0.2373710125684738,37.77076721191406,97.42474365234376,-35.33389282226562
249125,-0.293121337890625,0.6305999755859375,-0.272735595703125,0.0921451076865196,0.4414948523044586,-0.1996752917766571,37.70672607421875,97.386962890625,-35.26385498046875
249126,-0.28851318359375,0.5981292724609375,-0.2749786376953125,0.1395440399646759,0.4732916653156281,-0.1730061322450638,37.65054321289062,97.42428588867188,-35.27891540527344
249127,-0.2663421630859375,0.6019439697265625,-0.313385009765625,0.0534965135157108,0.5314441919326782,-0.1254697740077972,37.66520690917969,97.3062744140625,-35.52006530761719
249128,-0.2663421630859375,0.6019439697265625,-0.313385009765625,0.0534965135157108,0.5314441919326782,-0.1254697740077972,37.66520690917969,97.3062744140625,-35.52006530761719
249129,-0.2275543212890625,0.6714019775390625,-0.324737548828125,-0.0399873629212379,0.5650809407234192,-0.1089147627353668,37.66856384277344,97.2777862548828,-35.60137939453125
249130,-0.1617431640625,0.769683837890625,-0.3156890869140625,-0.3001070916652679,0.6614812612533569,-0.0926963835954666,37.76481628417969,97.23471069335938,-35.62359619140625
249131,-0.0971221923828125,0.8717803955078125,-0.3088226318359375,-0.4003205001354218,0.6653084754943848,-0.0783978700637817,37.75204467773438,97.19839477539062,-35.59713745117188
249132,-0.061614990234375,0.9795074462890624,-0.290191650390625,-0.4003205001354218,0.6653084754943848,-0.0783978700637817,37.74533081054688,97.26383972167967,-35.70372009277344
249133,-0.0467681884765625,1.088485717773438,-0.237884521484375,-0.4403907060623169,0.6560345888137817,-0.0560523495078086,37.79563903808594,97.42454528808594,-35.68756103515625
249134,-0.032470703125,1.182540893554688,-0.1895599365234375,-0.4575787484645844,0.5489099621772766,-0.035662654787302,37.76191711425781,97.571533203125,-35.58488464355469
249135,0.0448150634765625,1.301025390625,-0.0024566650390625,-0.4938523173332214,0.2124177217483521,0.0128412302583456,37.96128845214844,97.59591674804688,-35.21867370605469
249136,0.0448150634765625,1.301025390625,-0.0024566650390625,-0.4938523173332214,0.2124177217483521,0.0128412302583456,37.96128845214844,97.59591674804688,-35.21867370605469
249137,0.0947418212890625,1.38165283203125,0.0537261962890625,-0.4849608242511749,0.1966928243637085,0.0461264811456203,38.02632141113281,97.62698364257812,-35.15530395507812
249138,0.08160400390625,1.495620727539062,0.0009613037109375,-0.417181521654129,0.1588072180747986,0.042246788740158,38.12026977539062,97.59124755859376,-34.82028198242188
249139,-0.023345947265625,1.522537231445312,-0.1322021484375,-0.2067350745201111,0.0794660598039627,0.0139448437839746,38.17012023925781,97.72267150878906,-34.55557250976562
249140,-0.099578857421875,1.397491455078125,-0.250396728515625,0.4520516097545624,-0.2198572605848312,-0.0294492356479167,38.14509582519531,97.94480895996094,-34.49752807617188
249141,-0.11328125,1.23895263671875,-0.2419891357421875,0.4520516097545624,-0.2198572605848312,-0.0294492356479167,38.17723083496094,97.98545837402344,-34.44293212890625
249142,-0.136688232421875,1.08514404296875,-0.2040863037109375,0.6053378582000732,-0.3540022969245911,-0.0414963103830814,38.17695617675781,97.9707489013672,-34.52420043945312
249143,-0.1253814697265625,0.8564453125,-0.29742431640625,0.6128815412521362,-0.3617954850196838,0.0705593898892402,38.06205749511719,98.02732849121094,-34.94819641113281
249144,-0.1253814697265625,0.8564453125,-0.29742431640625,0.6128815412521362,-0.3617954850196838,0.0705593898892402,38.06205749511719,98.02732849121094,-34.94819641113281
249145,-0.0963134765625,0.8430328369140625,-0.373138427734375,0.5665838122367859,-0.2879180610179901,0.1595156192779541,37.91546630859375,97.89410400390624,-35.07814025878906
249146,-0.0735931396484375,0.885040283203125,-0.422698974609375,0.5148683786392212,-0.2513256967067719,0.2325653284788132,37.89683532714844,97.71759033203124,-35.32025146484375
249147,-0.045501708984375,0.932037353515625,-0.41546630859375,0.4344728887081146,-0.2401287108659744,0.2615818083286285,37.92059326171875,97.6369171142578,-35.5618896484375
249148,-0.0220184326171875,0.9743499755859376,-0.363677978515625,0.31721231341362,-0.2315003424882889,0.2544818222522736,37.86958312988281,97.71185302734376,-35.73577880859375
249149,0.00274658203125,1.02325439453125,-0.2915496826171875,0.2060125470161438,-0.2097279280424118,0.2456403970718384,38.01878356933594,97.65208435058594,-35.94573974609375
249150,0.0454864501953125,1.067489624023438,-0.2238006591796875,0.1342233121395111,-0.1932248473167419,0.2391204386949539,38.10128784179688,97.65371704101562,-35.83087158203125
249151,0.0891571044921875,1.089004516601562,-0.1717987060546875,0.1051621064543724,-0.2194284945726395,0.2674532830715179,38.21119689941406,97.59414672851562,-35.88177490234375
249152,0.1197509765625,1.09942626953125,-0.129852294921875,0.1051621064543724,-0.2194284945726395,0.2674532830715179,38.36500549316406,97.57350158691406,-35.97702026367188
249153,0.1137847900390625,1.1114501953125,-0.0575103759765625,0.1199037656188011,-0.237488180398941,0.2953379154205322,38.3946533203125,97.47727966308594,-36.06617736816406
249154,0.0721435546875,1.120819091796875,0.0477142333984375,0.1223136633634567,-0.2432312965393066,0.3247351944446564,38.49884033203125,97.55181884765624,-36.06686401367188
249155,0.0055999755859375,1.139846801757812,0.1439971923828125,0.129992350935936,-0.2173014283180237,0.3575980961322784,38.67698669433594,97.55549621582033,-36.07225036621094
249156,-0.060699462890625,1.162567138671875,0.1977386474609375,0.1599838137626648,-0.191875159740448,0.379075676202774,38.78375244140625,97.57119750976562,-36.21975708007812
249157,-0.1148834228515625,1.156509399414062,0.210296630859375,0.219889760017395,-0.1567502021789551,0.3865495622158051,38.99778747558594,97.55690002441406,-36.31074523925781
249158,-0.149444580078125,1.126754760742188,0.1959228515625,0.2893247604370117,-0.1126807406544685,0.3926865756511688,39.21038818359375,97.55393981933594,-36.45231628417969
249159,-0.19232177734375,1.0875244140625,0.1705169677734375,0.3752074241638184,0.0501385331153869,0.358904629945755,39.54145812988281,97.60237121582033,-36.67024230957031
249160,-0.19232177734375,1.0875244140625,0.1705169677734375,0.3752074241638184,0.0501385331153869,0.358904629945755,39.54145812988281,97.60237121582033,-36.67024230957031
249161,-0.2104034423828125,1.0479736328125,0.154876708984375,0.3691855072975159,0.1685575842857361,0.3067215979099274,39.73973083496094,97.45077514648438,-36.65898132324219
249162,-0.223663330078125,0.9959564208984376,0.1377410888671875,0.3512938618659973,0.2670396864414215,0.2557108700275421,39.88560485839844,97.47215270996094,-36.86866760253906
249163,-0.221435546875,0.918426513671875,0.1205902099609375,0.3229735195636749,0.354309618473053,0.1978172063827515,40.18710327148438,97.52618408203124,-37.20243835449219
249164,-0.21795654296875,0.843780517578125,0.0901031494140625,0.2727814614772797,0.4185144305229187,0.1306698620319366,40.36245727539062,97.46141052246094,-37.35626220703125
249165,-0.2184906005859375,0.8127288818359375,0.04345703125,0.212197482585907,0.4444959759712219,0.0742678418755531,40.61225891113281,97.33987426757812,-37.46807861328125
249166,-0.2155914306640625,0.850433349609375,-0.0171356201171875,0.1548633426427841,0.4531861245632172,0.0275304280221462,40.79351806640625,97.3537139892578,-37.4908447265625
249167,-0.20916748046875,0.91607666015625,-0.0839385986328125,0.1295292228460312,0.4535523056983948,0.0013552826130762,40.83139038085938,97.32896423339844,-37.55946350097656
249168,-0.18212890625,0.9193115234375,-0.156402587890625,0.2724666893482208,0.398508220911026,-0.0301560387015342,40.95066833496094,97.39128112792967,-37.75152587890625
249169,-0.14508056640625,0.8965606689453125,-0.20269775390625,0.2724666893482208,0.398508220911026,-0.0301560387015342,41.10597229003906,97.2427978515625,-37.58451843261719
249170,-0.10870361328125,0.8782806396484375,-0.2150115966796875,0.3898236751556396,0.4231792092323303,-0.0331116132438182,41.21345520019531,97.19264221191406,-37.5098876953125
249171,-0.0840301513671875,0.8741912841796875,-0.2010498046875,0.4470376968383789,0.4677922427654266,-0.0395620577037334,41.27229309082031,97.07408142089844,-37.99688720703125
249172,-0.0691680908203125,0.8756256103515625,-0.1826934814453125,0.4220934510231018,0.5252968072891235,-0.0491840578615665,41.27403259277344,97.02342224121094,-38.38296508789062
249173,-0.059417724609375,0.8833770751953125,-0.1601715087890625,0.3385000228881836,0.5956388711929321,-0.0571937821805477,41.26811218261719,96.89625549316406,-38.64720153808594
249174,-0.047576904296875,0.9122314453125,-0.1217193603515625,0.2374815344810486,0.6610285639762878,-0.053099438548088,41.35380554199219,96.70127868652344,-38.91867065429688
249175,-0.0032501220703125,0.96734619140625,-0.0129547119140625,0.0374778658151626,0.7173762321472168,0.0222954526543617,41.58871459960938,96.52107238769533,-39.31123352050781
249176,-0.0032501220703125,0.96734619140625,-0.0129547119140625,0.0374778658151626,0.7173762321472168,0.0222954526543617,41.58871459960938,96.52107238769533,-39.31123352050781
249177,0.045928955078125,0.946807861328125,0.025604248046875,-0.0779278203845024,0.7264626622200012,0.0956207960844039,41.60035705566406,96.5158233642578,-39.35700988769531
249178,0.0947113037109375,0.9182281494140624,0.0160675048828125,-0.1928791701793671,0.7245803475379944,0.1987485140562057,41.79164123535156,96.43301391601562,-39.47163391113281
249179,0.153167724609375,0.8687591552734375,-0.0125274658203125,-0.286653608083725,0.6157212257385254,0.3834270238876343,42.08441162109375,96.51472473144533,-39.60171508789062
249180,0.153167724609375,0.8687591552734375,-0.0125274658203125,-0.286653608083725,0.6157212257385254,0.3834270238876343,42.08441162109375,96.51472473144533,-39.60171508789062
249181,0.184600830078125,0.84747314453125,-0.015472412109375,-0.2426187694072723,0.5057814121246338,0.4460746943950653,42.35073852539062,96.6133270263672,-39.41531372070312
249182,0.2049407958984375,0.8392486572265625,-0.01617431640625,-0.2094853222370148,0.36029452085495,0.4842154085636139,42.52667236328125,96.7641143798828,-39.45248413085938
249183,0.2377166748046875,0.858673095703125,0.0254669189453125,-0.1661865711212158,0.2107431292533875,0.4722141325473785,43.103271484375,96.88981628417967,-39.36605834960938
249184,0.2377166748046875,0.858673095703125,0.0254669189453125,-0.1661865711212158,0.2107431292533875,0.4722141325473785,43.103271484375,96.88981628417967,-39.36605834960938
249185,0.25714111328125,0.8768310546875,0.034881591796875,-0.146853893995285,0.1789111644029617,0.4505501389503479,43.300048828125,96.98492431640624,-39.26475524902344
249186,0.2783660888671875,0.905975341796875,0.0346527099609375,-0.1312155425548553,0.1145713180303574,0.4008680582046509,43.62025451660156,96.99986267089844,-39.16665649414062
249187,0.3054046630859375,0.9427642822265624,0.0330657958984375,-0.1128493174910545,0.043397806584835,0.3420761227607727,43.89593505859375,97.01545715332033,-39.04278564453125
249188,0.3304595947265625,1.00799560546875,0.0338134765625,-0.0848861262202262,0.0167933609336614,0.2621543705463409,44.03172302246094,97.068603515625,-38.98837280273438
249189,0.3502349853515625,1.09649658203125,0.066864013671875,-0.0635102689266204,0.1036704704165459,0.1766916811466217,44.16587829589844,97.23338317871094,-39.09010314941406
249190,0.3384552001953125,1.1636962890625,0.1146240234375,-0.0698270201683044,0.3201809227466583,0.0945483446121215,44.25257873535156,97.16017150878906,-39.05140686035156
249191,0.241943359375,1.255340576171875,0.148406982421875,-0.2588459253311157,0.8356208205223083,-0.0780940055847168,44.33680725097656,97.39697265625,-38.99803161621094
249192,0.241943359375,1.255340576171875,0.148406982421875,-0.2588459253311157,0.8356208205223083,-0.0780940055847168,44.33680725097656,97.39697265625,-38.99803161621094
249193,0.1634368896484375,1.251388549804688,0.127593994140625,-0.5334588885307312,0.9454245567321776,-0.2703896760940552,44.38294982910156,97.40902709960938,-38.89974975585938
249194,0.1634368896484375,1.251388549804688,0.127593994140625,-0.5334588885307312,0.9454245567321776,-0.2703896760940552,44.38294982910156,97.40902709960938,-38.89974975585938
249195,-0.025115966796875,1.199371337890625,0.056915283203125,-0.5523907542228699,0.7876181602478027,-0.389869213104248,44.6568603515625,97.6727294921875,-38.64796447753906
249196,-0.1287078857421875,1.17059326171875,0.0033416748046875,-0.5523907542228699,0.7876181602478027,-0.389869213104248,44.84757995605469,97.66015625,-38.40093994140625
249197,-0.2061614990234375,1.176345825195312,-0.0709686279296875,-0.488469272851944,0.8454183340072632,-0.3974488377571106,44.84088134765625,97.84324645996094,-38.31832885742188
249198,-0.2567901611328125,1.175094604492188,-0.1610260009765625,-0.3506256639957428,0.9360169768333436,-0.3392534255981445,44.86424255371094,98.01388549804688,-38.21975708007812
249199,-0.2538604736328125,1.135604858398438,-0.182403564453125,-0.3506256639957428,0.9360169768333436,-0.3392534255981445,44.84774780273438,98.09880065917967,-38.03225708007812
249200,-0.182373046875,1.043716430664062,-0.1388702392578125,-0.2777919471263885,0.88151615858078,-0.298985093832016,44.82893371582031,98.25067138671876,-37.96693420410156
249201,-0.1029052734375,0.97174072265625,-0.087982177734375,-0.2282203882932663,0.7930528521537781,-0.243674710392952,44.94032287597656,98.3450927734375,-37.74697875976562
249202,-0.0611724853515625,0.9621124267578124,-0.059478759765625,-0.2195488661527634,0.7218612432479858,-0.2017144709825516,44.89756774902344,98.41786193847656,-37.60467529296875
249203,-0.0489959716796875,1.00347900390625,-0.0390472412109375,-0.2619019150733948,0.6773552894592285,-0.1789558976888657,44.96194458007812,98.36151123046876,-37.37962341308594
249204,-0.0404205322265625,1.037673950195312,-0.0417327880859375,-0.3748569786548615,0.7055139541625977,-0.1258175820112228,45.04421997070312,98.38461303710938,-37.44386291503906
249205,-0.016387939453125,1.048721313476562,-0.1085052490234375,-0.3748569786548615,0.7055139541625977,-0.1258175820112228,44.99430847167969,98.46754455566406,-37.32344055175781
249206,0.0216064453125,1.051712036132812,-0.1990509033203125,-0.3388696610927582,0.6974001526832581,-0.0952887013554573,45.18269348144531,98.46693420410156,-37.13972473144531
249207,0.0635833740234375,1.057159423828125,-0.2825469970703125,-0.2288986891508102,0.7347339391708374,-0.0407359786331653,45.22219848632812,98.66000366210938,-37.01756286621094
249208,0.0884246826171875,1.057144165039062,-0.3349761962890625,-0.0646479651331901,0.8258044123649597,0.0157411452382803,45.33154296875,98.63816833496094,-36.917724609375
249209,0.08538818359375,1.046920776367188,-0.3538055419921875,0.1017431393265724,0.9040119051933287,0.0622340776026248,45.52175903320312,98.65797424316406,-36.90365600585938
249210,0.049285888671875,1.040145874023438,-0.3536224365234375,0.2055856436491013,0.9302861094474792,0.0635379627346992,45.6348876953125,98.5281219482422,-36.81486511230469
249211,0.00994873046875,1.0316162109375,-0.329620361328125,0.2090139389038086,0.993731677532196,-0.05090818926692,45.86573791503906,98.57749938964844,-36.72367858886719
249212,-0.025604248046875,1.021926879882812,-0.284637451171875,0.2090139389038086,0.993731677532196,-0.05090818926692,46.04373168945312,98.65060424804688,-36.93106079101562
249213,-0.066925048828125,1.02764892578125,-0.25750732421875,0.179580420255661,1.070451259613037,-0.1087421923875809,46.16831970214844,98.61314392089844,-37.05642700195312
249214,-0.1273345947265625,1.055648803710938,-0.27203369140625,0.1697352379560471,1.127656936645508,-0.1388726681470871,46.32655334472656,98.52780151367188,-37.18382263183594
249215,-0.200469970703125,1.10540771484375,-0.3100128173828125,0.2012470960617065,1.191270589828491,-0.1435923129320145,46.52810668945312,98.42424011230467,-37.33111572265625
249216,-0.264678955078125,1.139205932617188,-0.312591552734375,0.2568728029727936,1.28251576423645,-0.140544593334198,46.7403564453125,98.42601013183594,-37.5328369140625
249217,-0.3040771484375,1.135650634765625,-0.238739013671875,0.3004623651504517,1.333597302436829,-0.1448799520730972,46.90969848632812,98.4296875,-37.75520324707031
249218,-0.3212738037109375,1.125259399414062,-0.1267242431640625,0.2863310873508453,1.333689212799072,-0.1645567268133163,47.08985900878906,98.3428192138672,-37.81378173828125
249219,-0.3125,1.114501953125,-0.0397491455078125,0.1607113778591156,1.350282073020935,-0.1218707785010338,47.31346130371094,98.35379028320312,-37.994140625
249220,-0.2762298583984375,1.065277099609375,0.037689208984375,0.1607113778591156,1.350282073020935,-0.1218707785010338,47.47308349609375,98.3769073486328,-38.29742431640625
249221,-0.2349090576171875,1.013290405273438,0.1007080078125,0.1116982996463776,1.438618540763855,-0.0088331727311015,47.672607421875,98.28988647460938,-38.39593505859375
249222,-0.1745758056640625,0.978424072265625,0.066009521484375,0.0356317646801471,1.464939117431641,0.1158736050128937,47.89137268066406,98.27902221679688,-38.48994445800781
249223,-0.1328887939453125,0.9335174560546876,0.029571533203125,-0.1469676047563553,1.173726439476013,0.1226018145680428,48.21226501464844,98.25398254394533,-38.76416015625
249224,-0.1194915771484375,0.881011962890625,0.060333251953125,-0.1469676047563553,1.173726439476013,0.1226018145680428,48.58566284179688,98.296875,-38.93571472167969
249225,-0.1215057373046875,0.804779052734375,0.090728759765625,-0.2222133576869965,1.075153827667236,0.0495353303849697,49.04692077636719,98.33212280273438,-39.12181091308594
249226,-0.1132659912109375,0.6668548583984375,0.0312957763671875,-0.2606046795845032,0.912004828453064,-0.0447480306029319,49.42950439453125,98.35821533203124,-39.01998901367188
249227,-0.129364013671875,0.510498046875,-0.0609588623046875,-0.2388282865285873,0.6841511726379395,-0.1229253932833672,49.74913024902344,98.37442016601562,-39.09857177734375
249228,-0.16534423828125,0.425994873046875,-0.1183013916015625,-0.1768424212932587,0.5706517696380615,-0.0975225642323494,50.00949096679688,98.41461181640624,-39.05950927734375
249229,-0.2145538330078125,0.483917236328125,-0.14605712890625,-0.0891751497983932,0.7257010340690613,-0.0341063030064106,50.18838500976562,98.55924987792967,-38.97747802734375
249230,-0.2440032958984375,0.556427001953125,-0.1881103515625,-0.0088118677958846,1.254180788993835,-0.0043263053521513,50.28663635253906,98.52182006835938,-38.82272338867188
249231,-0.2767486572265625,0.6015472412109375,-0.1482696533203125,-0.0088118677958846,1.254180788993835,-0.0043263053521513,50.41424560546875,98.55650329589844,-38.71000671386719
249232,-0.3034820556640625,0.7161712646484375,0.0159759521484375,-0.0681862458586692,1.476326584815979,-0.0304151643067598,50.61785888671875,98.6708984375,-38.61076354980469
249233,-0.32110595703125,0.8788604736328125,0.165435791015625,-0.1846548020839691,1.798831820487976,-0.1026217192411423,50.91683959960938,98.6871337890625,-38.54124450683594
249234,-0.332855224609375,1.062454223632812,0.218658447265625,-0.3226400911808014,2.090542554855347,-0.2155376076698303,51.24263000488281,98.8170928955078,-38.580322265625
249235,-0.32379150390625,1.240493774414062,0.1869964599609375,-0.4141969084739685,2.180271148681641,-0.3292756378650665,51.51982116699219,99.0048370361328,-38.50148010253906
249236,-0.2916259765625,1.362030029296875,0.1453857421875,-0.4162233173847198,2.022012710571289,-0.3850044012069702,51.84089660644531,99.21731567382812,-38.29864501953125
249237,-0.2378387451171875,1.380111694335938,0.1646575927734375,-0.342728316783905,1.739018559455872,-0.3756678998470306,52.03240966796875,99.29344177246094,-38.125
249238,-0.1791839599609375,1.266876220703125,0.2279815673828125,-0.2572536468505859,1.508174419403076,-0.3602426052093506,52.31085205078125,99.36204528808594,-38.04331970214844
249239,-0.1518707275390625,1.12908935546875,0.2558746337890625,-0.210082933306694,1.39350414276123,-0.3468775153160095,52.48379516601562,99.4481201171875,-37.84780883789062
249240,-0.18060302734375,1.017471313476562,0.1968841552734375,-0.1745821982622147,1.258319139480591,-0.3464924395084381,52.61857604980469,99.50633239746094,-37.69842529296875
249241,-0.2256011962890625,0.91632080078125,0.0941314697265625,-0.1054001897573471,1.059740543365479,-0.3254244327545166,52.693359375,99.62469482421876,-37.544189453125
249242,-0.25518798828125,0.842437744140625,0.0088653564453125,-0.0054536210373044,0.8355108499526978,-0.2827789783477783,52.76344299316406,99.6855010986328,-37.44755554199219
