time_idx,accelerometerAccelerationX(G),accelerometerAccelerationY(G),accelerometerAccelerationZ(G),gyroRotationX(rad/s),gyroRotationY(rad/s),gyroRotationZ(rad/s),magnetometerX(µT),magnetometerY(µT),magnetometerZ(µT)
212789,-0.0680389404296875,-0.134857177734375,0.145843505859375,-0.1331748366355896,0.2196351587772369,0.024362064898014,68.167236328125,89.42222595214844,-40.90946960449219
212790,-0.0680389404296875,-0.134857177734375,0.145843505859375,-0.1331748366355896,0.2196351587772369,0.024362064898014,68.167236328125,89.42222595214844,-40.90946960449219
212791,-0.0579681396484375,-0.124755859375,0.143798828125,-0.2852016389369965,0.4387834966182709,-0.018337994813919,68.21875,89.46310424804688,-41.00503540039062
212792,-0.0686187744140625,-0.089630126953125,0.1334228515625,-0.8816519975662231,0.8169795274734497,-0.178334578871727,68.50990295410156,89.59190368652344,-40.83418273925781
212793,-0.0804290771484375,-0.0765838623046875,0.097503662109375,-0.8816519975662231,0.8169795274734497,-0.178334578871727,68.69189453125,89.6351318359375,-40.36759948730469
212794,-0.0804290771484375,-0.0765838623046875,0.097503662109375,-0.8816519975662231,0.8169795274734497,-0.178334578871727,68.69189453125,89.6351318359375,-40.36759948730469
212795,-0.0954742431640625,-0.070587158203125,0.05963134765625,-1.331345081329346,0.7504249811172485,-0.3610141277313232,68.8790283203125,89.82443237304688,-39.86314392089844
212796,-0.1265106201171875,-0.0713043212890625,-0.013671875,-1.502132296562195,0.7074141502380371,-0.4624872207641602,69.32550048828125,90.52081298828124,-38.74740600585938
212797,-0.141693115234375,-0.0762481689453125,-0.044677734375,-1.616384625434875,0.7581486701965332,-0.5584006905555725,69.38383483886719,90.86354064941406,-37.90992736816406
212798,-0.160369873046875,-0.0821990966796875,-0.1312713623046875,-1.688693642616272,0.8924180865287781,-0.6443004012107849,69.52635192871094,91.22727966308594,-37.23249816894531
212799,-0.160369873046875,-0.0821990966796875,-0.1312713623046875,-1.688693642616272,0.8924180865287781,-0.6443004012107849,69.52635192871094,91.22727966308594,-37.23249816894531
212800,-0.101837158203125,0.07080078125,-0.430450439453125,-1.701785802841187,0.6668627262115479,-0.625161349773407,69.49560546875,92.48065185546876,-35.82798767089844
212801,0.0219573974609375,0.214569091796875,-0.4787139892578125,-1.572276473045349,0.3812706470489502,-0.5596680641174316,69.53330993652344,92.99057006835938,-35.00436401367188
212802,0.0219573974609375,0.214569091796875,-0.4787139892578125,-1.572276473045349,0.3812706470489502,-0.5596680641174316,69.53330993652344,92.99057006835938,-35.00436401367188
212803,0.091033935546875,0.296661376953125,-0.460601806640625,-1.061680555343628,0.0117136472836136,-0.620307207107544,69.47772216796875,93.37904357910156,-34.1026611328125
212804,0.111175537109375,0.3663177490234375,-0.20343017578125,-0.8533743023872375,-0.0448830537497997,-0.7012119293212891,68.8785400390625,94.06268310546876,-32.62379455566406
212805,0.1151123046875,0.425537109375,-0.147003173828125,-0.7008004784584045,-0.1493820250034332,-0.8062461614608765,68.41505432128906,94.46629333496094,-32.13737487792969
212806,0.1151123046875,0.425537109375,-0.147003173828125,-0.7008004784584045,-0.1493820250034332,-0.8062461614608765,68.41505432128906,94.46629333496094,-32.13737487792969
212807,0.135650634765625,0.6770172119140625,-0.119537353515625,-0.7486992478370667,-0.3053593933582306,-0.9998332262039183,67.80538940429688,94.79052734375,-31.83375549316406
212808,0.353363037109375,3.834609985351562,-0.168182373046875,-1.645896077156067,0.1591371893882751,-2.094050168991089,66.42422485351562,95.7938995361328,-32.03158569335938
212809,0.4233856201171875,5.4141845703125,-0.402618408203125,-1.61695396900177,0.2104139626026154,-1.84301233291626,65.32644653320312,96.47126770019533,-32.19917297363281
212810,-0.018585205078125,6.128143310546875,0.19830322265625,-1.227702379226685,0.5464265942573547,-1.507650136947632,64.03352355957031,97.4544677734375,-32.25238037109375
212811,-0.018585205078125,6.128143310546875,0.19830322265625,-1.227702379226685,0.5464265942573547,-1.507650136947632,64.03352355957031,97.4544677734375,-32.25238037109375
212812,-0.2999420166015625,5.871353149414062,0.6132049560546875,-1.057141780853271,1.741551041603088,-1.178847670555115,63.09542846679688,98.33245849609376,-32.13002014160156
212813,-0.634246826171875,3.462432861328125,0.2615203857421875,-0.9770208597183228,1.865459084510803,0.2253332585096359,62.2279052734375,99.09957885742188,-31.11015319824219
212814,-0.634246826171875,3.462432861328125,0.2615203857421875,-0.9770208597183228,1.865459084510803,0.2253332585096359,62.2279052734375,99.09957885742188,-31.11015319824219
212815,-0.6300811767578125,2.507888793945312,0.1537017822265625,-0.3688736259937286,1.118706583976746,0.348745733499527,62.98162841796875,99.25454711914062,-29.88291931152344
212816,-0.33489990234375,2.304641723632812,0.16046142578125,0.0729775354266166,0.1960717737674713,0.3611906766891479,63.43943786621094,99.22332763671876,-29.3466796875
212817,0.025360107421875,2.30743408203125,0.149017333984375,0.3071191906929016,-0.4464347362518311,0.4686548411846161,64.00430297851562,99.16819763183594,-28.86343383789062
212818,0.025360107421875,2.30743408203125,0.149017333984375,0.3071191906929016,-0.4464347362518311,0.4686548411846161,64.00430297851562,99.16819763183594,-28.86343383789062
212819,0.2526092529296875,2.23101806640625,0.1549072265625,0.3127528429031372,-0.6732673645019531,0.7450369000434875,64.21833801269531,99.0338134765625,-28.59486389160156
212820,0.4208984375,1.794403076171875,0.09765625,0.2651088833808899,-0.2361587435007095,1.357098937034607,64.6968994140625,98.501220703125,-28.99473571777344
212821,0.418243408203125,1.587295532226562,-0.0211029052734375,0.3776730000972748,-0.1179093271493912,1.438473105430603,65.12638854980469,98.26658630371094,-29.16560363769531
212822,0.3669281005859375,1.357269287109375,-0.121002197265625,0.5479472279548645,-0.2757636606693268,1.409484148025513,65.66838073730469,97.96865844726562,-29.30746459960938
212823,0.3669281005859375,1.357269287109375,-0.121002197265625,0.5479472279548645,-0.2757636606693268,1.409484148025513,65.66838073730469,97.96865844726562,-29.30746459960938
212824,0.0279388427734375,0.949188232421875,0.0796356201171875,0.9268969893455504,-0.3464226722717285,1.294705033302307,67.04154968261719,97.36944580078124,-29.71815490722656
212825,-0.0853729248046875,0.815460205078125,0.0804443359375,0.9199615716934204,-0.0955622121691703,1.208390951156616,67.68965148925781,96.94151306152344,-30.02223205566406
212826,-0.142974853515625,0.6632232666015625,-0.0226287841796875,0.7419955730438232,-0.0543404705822467,1.065679311752319,68.23403930664062,96.5765380859375,-30.39524841308594
212827,-0.1591796875,0.470672607421875,-0.042633056640625,0.439077228307724,-0.247797816991806,0.7569798231124878,68.85964965820312,96.18074035644533,-30.94158935546875
212828,-0.1641082763671875,0.29669189453125,0.063720703125,0.439077228307724,-0.247797816991806,0.7569798231124878,69.32525634765625,95.9552764892578,-31.23300170898438
212829,-0.1681671142578125,0.13671875,0.1208953857421875,0.4891534447669983,-0.1721304804086685,0.6196158528327942,69.85704040527344,95.67930603027344,-31.46653747558594
212830,-0.1681671142578125,0.13671875,0.1208953857421875,0.4891534447669983,-0.1721304804086685,0.6196158528327942,69.85704040527344,95.67930603027344,-31.46653747558594
212831,-0.18792724609375,-0.11474609375,0.0064849853515625,1.032617568969727,-0.6242254972457886,0.3099370896816254,70.64720153808594,95.22970581054688,-31.86380004882812
212832,-0.171600341796875,-0.2085418701171875,-0.060546875,1.032617568969727,-0.6242254972457886,0.3099370896816254,71.02511596679688,94.95777893066406,-32.17927551269531
212833,-0.1510009765625,-0.2560272216796875,-0.1117706298828125,1.156670808792114,-1.013921856880188,0.2684072256088257,71.41719055175781,94.70462036132812,-32.44355773925781
212834,-0.1273193359375,-0.2785491943359375,-0.1576385498046875,1.188104271888733,-1.416601896286011,0.2087915688753128,71.57131958007812,94.35690307617188,-32.95433044433594
212835,-0.1273193359375,-0.2785491943359375,-0.1576385498046875,1.188104271888733,-1.416601896286011,0.2087915688753128,71.57131958007812,94.35690307617188,-32.95433044433594
212836,-0.0282745361328125,-0.2203521728515625,0.0778350830078125,1.100549221038818,-1.339443564414978,-0.0464162342250347,71.42251586914062,94.02699279785156,-34.36874389648438
212837,0.036529541015625,-0.18621826171875,0.1785125732421875,0.948540449142456,-0.8142032027244568,-0.1964163780212402,71.18911743164062,94.05680847167967,-35.37161254882812
212838,0.036529541015625,-0.18621826171875,0.1785125732421875,0.948540449142456,-0.8142032027244568,-0.1964163780212402,71.18911743164062,94.05680847167967,-35.37161254882812
212839,0.083770751953125,-0.1474609375,0.1663055419921875,0.4409315884113312,0.2135000228881836,-0.4099851250648499,70.26673889160156,94.06324768066406,-37.10665893554688
212840,0.094818115234375,-0.1465911865234375,0.0946502685546875,0.190469816327095,0.4149641692638397,-0.4571672976016998,69.89564514160156,94.008544921875,-37.69003295898438
212841,0.0945587158203125,-0.154876708984375,0.042144775390625,0.0275812931358814,0.4652049839496613,-0.4694436490535736,69.70965576171875,93.92747497558594,-37.81430053710938
212842,0.0809173583984375,-0.1595916748046875,0.0402679443359375,-0.0796522200107574,0.4540548622608185,-0.4624568521976471,69.62443542480469,93.97354125976562,-37.62908935546875
212843,0.0809173583984375,-0.1595916748046875,0.0402679443359375,-0.0796522200107574,0.4540548622608185,-0.4624568521976471,69.62443542480469,93.97354125976562,-37.62908935546875
212844,0.05413818359375,-0.1521453857421875,0.0714111328125,-0.1519099026918411,0.4878903031349182,-0.4528827965259552,69.60281372070312,94.05999755859376,-37.38566589355469
212845,-0.004486083984375,-0.113922119140625,0.08184814453125,-0.3077093660831451,0.701228141784668,-0.4658744931221008,69.53787231445312,94.26258850097656,-36.76031494140625
212846,-0.004486083984375,-0.113922119140625,0.08184814453125,-0.3077093660831451,0.701228141784668,-0.4658744931221008,69.53787231445312,94.26258850097656,-36.76031494140625
212847,-0.0267333984375,-0.0948486328125,0.05316162109375,-0.61552894115448,0.7399600744247437,-0.5464122295379639,69.40383911132812,94.43447875976562,-36.25347900390625
212848,-0.0462799072265625,-0.0832672119140625,-0.0377655029296875,-0.7898677587509155,0.6779018044471741,-0.6034603118896484,69.39836120605469,94.68724060058594,-35.69969177246094
212849,-0.032684326171875,-0.102020263671875,-0.1485748291015625,-0.91969633102417,0.5057044625282288,-0.6442527770996094,69.40762329101562,94.91253662109376,-35.30303955078125
212850,-0.032684326171875,-0.102020263671875,-0.1485748291015625,-0.91969633102417,0.5057044625282288,-0.6442527770996094,69.40762329101562,94.91253662109376,-35.30303955078125
212851,0.1083984375,-0.0312652587890625,-0.4729461669921875,-0.9381954073905944,-0.5299549102783203,-0.65505051612854,69.10598754882812,95.36036682128906,-34.24775695800781
212852,0.1581268310546875,0.0999603271484375,-0.4898834228515625,-0.8509465456008911,-1.141425251960754,-0.721394956111908,68.88029479980469,95.66877746582033,-33.82780456542969
212853,0.1708221435546875,0.17816162109375,-0.42437744140625,-0.7257566452026367,-1.41825795173645,-0.8005161285400391,68.357666015625,96.02825927734376,-33.41033935546875
212854,0.1708221435546875,0.17816162109375,-0.42437744140625,-0.7257566452026367,-1.41825795173645,-0.8005161285400391,68.357666015625,96.02825927734376,-33.41033935546875
212855,0.1852264404296875,0.259033203125,-0.3802337646484375,-0.336300253868103,-1.010591387748718,-0.8902484178543091,67.78974914550781,96.47415161132812,-33.31912231445312
212856,0.17803955078125,0.3020172119140625,-0.3121795654296875,-0.1721227616071701,-0.8487233519554138,-0.9202060103416444,67.10116577148438,96.73820495605467,-33.26272583007812
212857,0.140228271484375,0.487701416015625,0.35113525390625,-0.4023527801036835,-0.4690849184989929,-1.009981751441956,65.51078796386719,97.48329162597656,-33.14627075195312
212858,0.140228271484375,0.487701416015625,0.35113525390625,-0.4023527801036835,-0.4690849184989929,-1.009981751441956,65.51078796386719,97.48329162597656,-33.14627075195312
212859,0.1519622802734375,1.6329345703125,0.7272186279296875,-0.9672403931617736,0.3748646974563599,-1.330262303352356,64.73052978515625,97.6375732421875,-33.11448669433594
212860,0.248565673828125,3.828521728515625,0.927154541015625,-2.002733707427979,1.997575640678406,-2.239341974258423,63.87216186523438,97.9630889892578,-33.142333984375
212861,-0.2037200927734375,6.896636962890625,0.4943084716796875,-1.617085814476013,0.3689537942409515,-2.66802716255188,61.64601135253906,99.32609558105467,-31.3140869140625
212862,-0.2037200927734375,6.896636962890625,0.4943084716796875,-1.617085814476013,0.3689537942409515,-2.66802716255188,61.64601135253906,99.32609558105467,-31.3140869140625
212863,-0.7603607177734375,7.424224853515625,0.866912841796875,-0.8721767067909241,-1.646420240402222,-2.611813306808472,60.97129821777344,99.8644561767578,-30.59515380859375
212864,-0.80255126953125,2.593292236328125,0.9190826416015624,0.1593057662248611,-1.622968196868896,-1.965216875076294,59.15184020996094,100.2884063720703,-30.35768127441406
212865,-0.81634521484375,1.364517211914062,0.6851043701171875,0.2836253345012665,-0.8161075711250305,-1.646220803260803,58.18894958496094,100.2972412109375,-30.49249267578125
212866,-0.81634521484375,1.364517211914062,0.6851043701171875,0.2836253345012665,-0.8161075711250305,-1.646220803260803,58.18894958496094,100.2972412109375,-30.49249267578125
212867,-0.382049560546875,0.970977783203125,-0.865325927734375,0.3234201371669769,1.998619556427002,0.2134989649057388,56.88600158691406,100.4812622070312,-30.75192260742188
212868,0.067657470703125,1.945571899414062,-1.914764404296875,0.4878714084625244,-1.119834423065186,0.708852231502533,56.90287780761719,100.3907470703125,-30.72795104980469
212869,0.0710601806640625,2.167617797851562,-0.4707794189453125,0.583022952079773,-1.923789262771606,0.8706014752388,57.17997741699219,100.2096862792969,-30.82856750488281
212870,0.0710601806640625,2.167617797851562,-0.4707794189453125,0.583022952079773,-1.923789262771606,0.8706014752388,57.17997741699219,100.2096862792969,-30.82856750488281
212871,0.148284912109375,2.101028442382812,0.237701416015625,0.6435813903808594,-1.382376551628113,1.120238184928894,57.30207824707031,99.94374084472656,-31.16336059570312
212872,0.1767425537109375,1.8377685546875,0.3035736083984375,0.4004842936992645,0.2311104536056519,1.187676310539246,57.98683166503906,99.3292236328125,-31.66348266601562
212873,0.1815338134765625,1.608444213867188,0.0818023681640625,0.2881905138492584,0.2841329276561737,1.04251492023468,58.58213806152344,99.0977020263672,-31.77294921875
212874,0.134063720703125,1.3433837890625,-0.103424072265625,0.3407381474971771,-0.3589959740638733,0.8022034764289856,59.20620727539062,98.8195343017578,-31.8809814453125
212875,0.0204010009765625,1.11151123046875,-0.0207977294921875,0.5275580883026123,-1.021217107772827,0.5310942530632019,59.75076293945312,98.5883331298828,-31.95085144042969
212876,-0.0586700439453125,0.877197265625,0.12457275390625,0.741871178150177,-1.233739733695984,0.4302437901496887,60.03912353515625,98.48043823242188,-32.16236877441406
212877,-0.0386962890625,0.6658935546875,0.118072509765625,0.9148640036582948,-1.223574995994568,0.4927143454551697,60.23202514648438,98.39718627929688,-32.46708679199219
212878,0.00274658203125,0.5154266357421875,0.0406341552734375,0.9868183732032776,-1.163409113883972,0.5555298328399658,60.23162841796875,98.20826721191406,-32.84799194335938
212879,0.00274658203125,0.5154266357421875,0.0406341552734375,0.9868183732032776,-1.163409113883972,0.5555298328399658,60.23162841796875,98.20826721191406,-32.84799194335938
212880,0.096893310546875,0.25042724609375,-0.123077392578125,0.8614998459815979,-1.09579861164093,0.6019982099533081,60.39295959472656,97.6370086669922,-33.87046813964844
212881,0.1376190185546875,0.1130828857421875,-0.2012176513671875,0.8117458820343018,-1.175977110862732,0.6595541834831238,60.48371887207031,97.43043518066406,-34.38938903808594
212882,0.1376190185546875,0.1130828857421875,-0.2012176513671875,0.8117458820343018,-1.175977110862732,0.6595541834831238,60.48371887207031,97.43043518066406,-34.38938903808594
212883,0.1652069091796875,-0.0189971923828125,-0.266387939453125,0.8587783575057983,-1.328779697418213,0.7436083555221558,60.61138916015625,97.16159057617188,-34.92076110839844
212884,0.138214111328125,-0.163177490234375,-0.129730224609375,1.163069605827332,-1.227924704551697,0.9076350927352904,60.66804504394531,96.62417602539062,-35.78042602539062
212885,0.0478515625,-0.1865692138671875,-0.056060791015625,1.195636868476868,-0.7201586961746216,0.8798961639404297,60.69979858398438,96.3805694580078,-36.26708984375
212886,0.0478515625,-0.1865692138671875,-0.056060791015625,1.195636868476868,-0.7201586961746216,0.8798961639404297,60.69979858398438,96.3805694580078,-36.26708984375
212887,-0.073333740234375,-0.195159912109375,-0.050262451171875,0.8432023525238037,0.3247975409030914,0.7110506892204285,60.74382019042969,96.02000427246094,-36.86250305175781
212888,-0.210784912109375,-0.0797119140625,-0.0556488037109375,0.6956839561462402,0.4213589429855347,0.6480379104614258,61.28445434570312,95.5506591796875,-37.9449462890625
212889,-0.220367431640625,-0.0662384033203125,-0.0237884521484375,0.6336126327514648,0.3420020937919617,0.581367552280426,61.63563537597656,95.35700988769533,-38.34843444824219
212890,-0.220367431640625,-0.0662384033203125,-0.0237884521484375,0.6336126327514648,0.3420020937919617,0.581367552280426,61.63563537597656,95.35700988769533,-38.34843444824219
212891,-0.210540771484375,-0.0909271240234375,0.0065155029296875,0.6295518279075623,-0.0049926280044019,0.4482033550739288,62.06326293945312,95.01402282714844,-38.729248046875
212892,-0.1863555908203125,-0.124664306640625,-0.017913818359375,0.6295518279075623,-0.0049926280044019,0.4482033550739288,62.37075805664062,94.75192260742188,-39.01560974121094
212893,-0.116851806640625,-0.1675872802734375,-0.041534423828125,0.518759548664093,-0.4102122783660889,0.3064850866794586,62.91650390625,94.2087860107422,-39.59147644042969
212894,-0.116851806640625,-0.1675872802734375,-0.041534423828125,0.518759548664093,-0.4102122783660889,0.3064850866794586,62.91650390625,94.2087860107422,-39.59147644042969
212895,-0.0753173828125,-0.168914794921875,0.0340728759765625,0.3779464960098267,-0.3640125691890717,0.23100845515728,63.1290283203125,94.1192626953125,-39.91485595703125
212896,-0.0252227783203125,-0.128448486328125,0.12396240234375,-0.0218096915632486,0.2765234708786011,0.0632314309477806,63.07365417480469,94.06369018554688,-40.17424011230469
212897,-0.0040130615234375,-0.1168975830078125,0.08892822265625,-0.2554770410060883,0.6060329079627991,-0.0120177809149026,63.15507507324219,94.13011169433594,-40.09353637695312
212898,-0.0040130615234375,-0.1168975830078125,0.08892822265625,-0.2554770410060883,0.6060329079627991,-0.0120177809149026,63.15507507324219,94.13011169433594,-40.09353637695312
212899,0.0105743408203125,-0.115631103515625,0.0432586669921875,-0.4911969006061554,0.7967426776885986,-0.0715072080492973,63.33050537109375,94.17843627929688,-40.21466064453125
212900,0.016510009765625,-0.1161041259765625,0.023773193359375,-0.7070903182029724,0.8562794923782349,-0.1186124011874199,63.44880676269531,94.4807586669922,-40.17202758789062
212901,0.0126495361328125,-0.132659912109375,-0.01763916015625,-1.066973924636841,0.7712461352348328,-0.2166846394538879,63.93617248535156,94.88885498046876,-38.83200073242188
212902,0.0126495361328125,-0.132659912109375,-0.01763916015625,-1.066973924636841,0.7712461352348328,-0.2166846394538879,63.93617248535156,94.88885498046876,-38.83200073242188
212903,0.0054168701171875,-0.159210205078125,-0.1439208984375,-1.197706341743469,0.467463344335556,-0.2621394693851471,64.09608459472656,95.06646728515624,-37.87684631347656
212904,-0.04681396484375,-0.241058349609375,-0.3946075439453125,-1.297022342681885,-0.7509453892707825,-0.327933132648468,64.34210205078125,95.55313110351562,-36.29698181152344
212905,-0.10455322265625,-0.2192230224609375,-0.3232421875,-1.314616441726685,-0.5902254581451416,-0.4336867332458496,64.21714782714844,96.01878356933594,-35.80758666992188
212906,-0.10455322265625,-0.2192230224609375,-0.3232421875,-1.314616441726685,-0.5902254581451416,-0.4336867332458496,64.21714782714844,96.01878356933594,-35.80758666992188
212907,-0.0439910888671875,0.11749267578125,-0.3511199951171875,-1.30814528465271,0.1689807623624802,-0.4949831068515778,63.93968200683594,96.42462158203124,-35.24909973144531
212908,0.1189422607421875,0.366546630859375,-0.411346435546875,-1.132872462272644,0.643771767616272,-0.450214296579361,63.42225646972656,96.9531707763672,-33.80912780761719
212909,0.117431640625,0.3643951416015625,-0.199310302734375,-1.104919672012329,0.4301135540008545,-0.4930741488933563,63.21122741699219,97.20736694335938,-33.07257080078125
212910,0.0865936279296875,0.344940185546875,0.198455810546875,-1.287455677986145,0.785649836063385,-0.7851025462150574,62.81393432617188,97.57521057128906,-32.37843322753906
212911,0.0865936279296875,0.344940185546875,0.198455810546875,-1.287455677986145,0.785649836063385,-0.7851025462150574,62.81393432617188,97.57521057128906,-32.37843322753906
212912,0.066070556640625,0.4755706787109375,0.6679534912109375,-1.287455677986145,0.785649836063385,-0.7851025462150574,62.41867065429688,97.92788696289062,-31.88450622558594
212913,0.1253662109375,4.001937866210938,1.093826293945312,-1.92546808719635,3.117608547210693,-0.948470175266266,61.07815551757812,98.84939575195312,-31.20722961425781
212914,-0.082763671875,6.910110473632812,1.016769409179688,-2.086009740829468,1.59999942779541,0.5983840823173523,60.62591552734375,99.533203125,-31.17791748046875
212915,-0.082763671875,6.910110473632812,1.016769409179688,-2.086009740829468,1.59999942779541,0.5983840823173523,60.62591552734375,99.533203125,-31.17791748046875
212916,-1.59954833984375,6.983566284179688,1.283584594726562,-1.403340220451355,0.5780766606330872,-0.971914529800415,61.11122131347656,100.5789794921875,-30.68171691894531
212917,-0.8106536865234375,3.8388671875,0.874237060546875,-0.8036773204803467,-0.7787482738494873,-1.577564477920532,61.55972290039062,100.5444488525391,-29.76289367675781
212918,-0.8106536865234375,3.8388671875,0.874237060546875,-0.8036773204803467,-0.7787482738494873,-1.577564477920532,61.55972290039062,100.5444488525391,-29.76289367675781
212919,-0.3665008544921875,1.98016357421875,0.7616119384765625,-0.4673267006874084,-1.641671776771545,-0.985974371433258,61.59745788574219,100.5023345947266,-28.93453979492188
212920,-0.278839111328125,1.314605712890625,0.88348388671875,-0.3719959259033203,-0.1669903248548508,0.2442560791969299,60.4661865234375,100.5398254394531,-27.79469299316406
212921,-0.265838623046875,1.753021240234375,0.4730377197265625,-0.5113252997398376,1.786308884620667,0.4544303417205811,60.09394836425781,100.6369781494141,-27.64854431152344
212922,-0.265838623046875,1.753021240234375,0.4730377197265625,-0.5113252997398376,1.786308884620667,0.4544303417205811,60.09394836425781,100.6369781494141,-27.64854431152344
212923,-0.1014404296875,2.290237426757812,-0.77764892578125,-0.5506333112716675,2.392319917678833,0.8066986799240112,60.17924499511719,100.645263671875,-27.53707885742188
212924,0.1679229736328125,2.04071044921875,-0.3371429443359375,0.2939527928829193,-0.8460186123847961,0.8376650810241699,60.89595031738281,100.6228942871094,-26.76837158203125
212925,0.1780853271484375,1.627777099609375,0.3820648193359375,0.6857234835624695,0.6144123077392578,1.022352695465088,61.24909973144531,100.4771118164062,-26.59811401367188
212926,0.1780853271484375,1.627777099609375,0.3820648193359375,0.6857234835624695,0.6144123077392578,1.022352695465088,61.24909973144531,100.4771118164062,-26.59811401367188
212927,0.1645355224609375,1.43487548828125,0.2821502685546875,0.6087046265602112,1.691165924072266,1.264506697654724,61.67031860351562,100.2343597412109,-26.73497009277344
212928,-0.00836181640625,1.249420166015625,-0.1114959716796875,0.2510348856449127,1.302595257759094,1.1512850522995,63.495361328125,99.34535217285156,-26.81533813476562
212929,-0.08734130859375,1.065673828125,-0.125335693359375,0.2600544691085815,0.479086697101593,0.966021716594696,64.445068359375,98.95352172851562,-26.59014892578125
212930,-0.122650146484375,0.9000091552734375,-0.0417938232421875,0.5279421210289001,-0.3936559557914734,0.8773171901702881,65.30841064453125,98.58407592773438,-26.45002746582031
212931,-0.122650146484375,0.9000091552734375,-0.0417938232421875,0.5279421210289001,-0.3936559557914734,0.8773171901702881,65.30841064453125,98.58407592773438,-26.45002746582031
212932,-0.0904541015625,0.6418304443359375,0.0031585693359375,0.6585850715637207,-0.4909867644309998,0.8124909996986389,66.35476684570312,98.25520324707033,-26.79960632324219
212933,-0.07623291015625,0.5073089599609375,-0.0390625,0.7727377414703369,-0.5184721946716309,0.7067558169364929,66.66116333007812,98.3426513671875,-27.06788635253906
212934,-0.07623291015625,0.5073089599609375,-0.0390625,0.7727377414703369,-0.5184721946716309,0.7067558169364929,66.66116333007812,98.3426513671875,-27.06788635253906
212935,-0.07110595703125,0.35626220703125,-0.08160400390625,0.9041410684585572,-0.5703396201133728,0.5774990320205688,66.94284057617188,98.1983642578125,-27.4141845703125
212936,-0.09552001953125,0.0765533447265625,-0.1372528076171875,1.130826115608215,-0.7530601620674133,0.27637779712677,67.46208190917969,97.88363647460938,-28.25877380371094
212937,-0.10101318359375,-0.05303955078125,-0.1412200927734375,1.2459636926651,-0.8931491374969482,0.1436461210250854,67.52101135253906,97.56956481933594,-28.74990844726562
212938,-0.081329345703125,-0.1594696044921875,-0.149261474609375,1.367753148078918,-1.023446083068848,0.0637606009840965,67.50161743164062,97.24053955078124,-29.38694763183594
212939,-0.081329345703125,-0.1594696044921875,-0.149261474609375,1.367753148078918,-1.023446083068848,0.0637606009840965,67.50161743164062,97.24053955078124,-29.38694763183594
212940,0.0139312744140625,-0.2407073974609375,-0.066986083984375,1.499762892723083,-1.174991965293884,0.0155187724158167,67.30291748046875,96.9120635986328,-30.93659973144531
212941,0.0670928955078125,-0.221954345703125,0.088470458984375,1.453314661979675,-0.8596066236495972,-0.0368898399174213,67.15420532226562,96.61099243164062,-31.93925476074219
212942,0.1153106689453125,-0.180419921875,0.185577392578125,1.152907729148865,0.1277062892913818,-0.1696484237909317,66.97824096679688,96.37263488769533,-32.85601806640625
212943,0.14739990234375,-0.129241943359375,0.153472900390625,0.9856172800064088,0.2848522365093231,-0.2176628112792969,66.81770324707031,96.18727111816406,-33.63934326171875
212944,0.1683349609375,-0.089080810546875,0.056488037109375,0.8353566527366638,0.1940845251083374,-0.2506878674030304,66.52133178710938,96.06185913085938,-34.10897827148438
212945,0.1756744384765625,-0.06414794921875,0.02642822265625,0.8353566527366638,0.1940845251083374,-0.2506878674030304,66.4188232421875,95.927734375,-34.56820678710938
212946,0.1756744384765625,-0.06414794921875,0.02642822265625,0.8353566527366638,0.1940845251083374,-0.2506878674030304,66.4188232421875,95.927734375,-34.56820678710938
212947,0.157135009765625,-0.0283355712890625,0.1930389404296875,0.3093533217906952,0.1305718570947647,-0.3107296526432037,66.2174072265625,95.76651000976562,-35.21435546875
212948,0.1134033203125,-0.0164794921875,0.258331298828125,0.3093533217906952,0.1305718570947647,-0.3107296526432037,66.07679748535156,95.65916442871094,-35.5224609375
212949,-0.01654052734375,0.0017242431640625,0.3269195556640625,0.0768857300281524,0.3078065514564514,-0.3394720852375031,66.01466369628906,95.59637451171876,-35.4901123046875
212950,-0.085601806640625,0.010467529296875,0.320037841796875,-0.3461757898330688,0.6917750239372253,-0.5252280831336975,65.96116638183594,95.56253051757812,-35.5244140625
212951,-0.085601806640625,0.010467529296875,0.320037841796875,-0.3461757898330688,0.6917750239372253,-0.5252280831336975,65.96116638183594,95.56253051757812,-35.5244140625
212952,-0.1023406982421875,0.0023956298828125,0.159210205078125,-0.5371952652931213,0.620002269744873,-0.6229943633079529,66.06857299804688,95.64909362792967,-35.48036193847656
212953,-0.109588623046875,-0.0089569091796875,0.105010986328125,-0.6857568025588989,0.4554506242275238,-0.7143394351005554,66.03274536132812,95.65408325195312,-35.16792297363281
212954,-0.109588623046875,-0.0089569091796875,0.105010986328125,-0.6857568025588989,0.4554506242275238,-0.7143394351005554,66.03274536132812,95.65408325195312,-35.16792297363281
212955,-0.12054443359375,-0.024383544921875,0.073883056640625,-0.7681344747543335,0.25471031665802,-0.7945860624313354,65.89897155761719,95.77517700195312,-34.89794921875
212956,-0.1223602294921875,-0.07513427734375,0.0024261474609375,-0.7376798987388611,-0.16008660197258,-0.911030650138855,65.52577209472656,96.4253387451172,-34.1416015625
212957,-0.089935302734375,-0.1201324462890625,-0.050140380859375,-0.6558569669723511,-0.3723823428153992,-0.8767848014831543,65.12565612792969,96.80751037597656,-33.74581909179688
212958,-0.089935302734375,-0.1201324462890625,-0.050140380859375,-0.6558569669723511,-0.3723823428153992,-0.8767848014831543,65.12565612792969,96.80751037597656,-33.74581909179688
212959,0.0002288818359375,-0.1351318359375,-0.117034912109375,-0.4135849177837372,-0.9616690874099731,-0.5773674845695496,64.71513366699219,97.02944946289062,-33.39463806152344
212960,0.154052734375,-0.0191497802734375,-0.36163330078125,-0.198277935385704,-1.548433542251587,-0.3854246437549591,63.76896667480469,97.50735473632812,-33.1248779296875
212961,0.2052764892578125,0.04632568359375,-0.43353271484375,0.0934135690331459,-2.244519948959351,-0.16047702729702,63.2001953125,97.74093627929688,-33.09736633300781
212962,0.2052764892578125,0.04632568359375,-0.43353271484375,0.0934135690331459,-2.244519948959351,-0.16047702729702,63.2001953125,97.74093627929688,-33.09736633300781
212963,0.2365570068359375,0.1279449462890625,-0.328765869140625,0.3236230611801147,-2.804583549499512,0.06017891690135,62.5550537109375,97.86830139160156,-33.14224243164062
212964,0.25311279296875,0.4760894775390625,0.413299560546875,-0.4459905326366425,-0.515483558177948,0.3344485461711884,61.08502197265625,98.10397338867188,-33.82675170898438
212965,0.2630462646484375,1.28936767578125,0.528350830078125,-1.152634739875793,0.9065086245536804,0.1563118398189545,60.54356384277344,98.15078735351562,-33.92300415039062
212966,0.279876708984375,2.660980224609375,0.3057708740234375,-1.801230549812317,1.596719026565552,-0.5941839814186096,60.24641418457031,98.32810974121094,-33.59956359863281
212967,0.279876708984375,2.660980224609375,0.3057708740234375,-1.801230549812317,1.596719026565552,-0.5941839814186096,60.24641418457031,98.32810974121094,-33.59956359863281
212968,0.0863800048828125,5.729812622070312,0.75982666015625,-2.351791620254517,-0.0343108363449573,-3.878275394439697,59.80718994140625,99.05189514160156,-31.82643127441406
212969,-0.11041259765625,7.510101318359375,1.037368774414062,-2.890630006790161,0.0443514846265316,-5.461893558502197,58.79844665527344,99.68434143066406,-30.85044860839844
212970,-0.11041259765625,7.510101318359375,1.037368774414062,-2.890630006790161,0.0443514846265316,-5.461893558502197,58.79844665527344,99.68434143066406,-30.85044860839844
212971,-0.64825439453125,6.476959228515625,1.236724853515625,-2.785167694091797,-0.6712992787361145,-5.022188663482666,56.90966796875,100.6469421386719,-30.16285705566406
212972,-2.244110107421875,0.9189300537109376,1.166824340820312,0.3862987160682678,3.111724853515625,-1.091119170188904,52.59341430664062,102.0997467041016,-28.78298950195312
212973,-1.434097290039062,0.584716796875,0.0272216796875,1.46513831615448,3.255820035934448,0.7446014881134033,51.60687255859375,102.3129119873047,-27.956787109375
212974,-1.434097290039062,0.584716796875,0.0272216796875,1.46513831615448,3.255820035934448,0.7446014881134033,51.60687255859375,102.3129119873047,-27.956787109375
212975,-0.51739501953125,2.246429443359375,-0.6914215087890625,-0.0388131774961948,-0.7973688244819641,1.308940410614014,52.70379638671875,101.5576782226562,-28.05995178222656
212976,-0.0113677978515625,2.378753662109375,-1.236572265625,-0.0388131774961948,-0.7973688244819641,1.308940410614014,53.75518798828125,101.0647277832031,-28.37905883789062
212977,0.1244964599609375,2.303955078125,-0.91912841796875,-0.0998099520802497,-1.699955582618713,1.451635003089905,54.33535766601562,100.8220825195312,-28.71855163574219
212978,0.0751190185546875,2.151031494140625,-0.1473846435546875,0.3195984959602356,-1.587032794952393,1.496667504310608,54.75119018554688,100.8532562255859,-28.96498107910156
212979,0.0751190185546875,2.151031494140625,-0.1473846435546875,0.3195984959602356,-1.587032794952393,1.496667504310608,54.75119018554688,100.8532562255859,-28.96498107910156
212980,0.12286376953125,1.77703857421875,0.266937255859375,0.9531767964363098,0.6791926026344299,1.186367988586426,55.51429748535156,100.5180206298828,-28.90635681152344
212981,0.107269287109375,1.53802490234375,0.303863525390625,0.9531767964363098,0.6791926026344299,1.186367988586426,55.94943237304688,100.2245178222656,-29.14689636230469
212982,0.107269287109375,1.53802490234375,0.303863525390625,0.9531767964363098,0.6791926026344299,1.186367988586426,55.94943237304688,100.2245178222656,-29.14689636230469
212983,0.084686279296875,1.32220458984375,0.240692138671875,0.7291556596755981,1.339696526527405,1.027572154998779,56.69119262695312,99.79881286621094,-29.63626098632812
212984,0.080169677734375,1.017501831054688,0.1783599853515625,0.6697186827659607,1.290559649467468,0.9875166416168212,58.24897766113281,99.1495361328125,-30.27497863769531
212985,0.066680908203125,0.8828277587890625,0.1407928466796875,0.7220636606216431,1.125515460968018,0.995385766029358,59.09465026855469,98.91009521484376,-30.49928283691406
212986,0.066680908203125,0.8828277587890625,0.1407928466796875,0.7220636606216431,1.125515460968018,0.995385766029358,59.09465026855469,98.91009521484376,-30.49928283691406
212987,0.0417022705078125,0.59332275390625,-0.0252685546875,1.127409338951111,-0.0960831195116043,1.209626436233521,60.64866638183594,98.48088073730467,-30.92529296875
212988,0.03546142578125,0.467376708984375,-0.0922698974609375,1.127409338951111,-0.0960831195116043,1.209626436233521,61.38731384277344,98.29281616210938,-31.11033630371094
212989,0.030303955078125,0.3651885986328125,-0.0538787841796875,1.177426338195801,-0.5330809354782104,1.267857432365417,62.02867126464844,97.94003295898438,-31.48478698730469
212990,0.03045654296875,0.279327392578125,-0.003326416015625,1.162883400917053,-0.7597391605377197,1.286664247512817,62.50794982910156,97.76667785644533,-31.92984008789062
212991,0.03045654296875,0.279327392578125,-0.003326416015625,1.162883400917053,-0.7597391605377197,1.286664247512817,62.50794982910156,97.76667785644533,-31.92984008789062
212992,0.0256195068359375,0.1027069091796875,0.049652099609375,0.9801969528198242,-0.8809798359870911,1.139348030090332,63.47615051269531,97.31672668457033,-33.23423767089844
212993,0.0215606689453125,0.00189208984375,-0.0354156494140625,0.9801969528198242,-0.8809798359870911,1.139348030090332,63.85507202148438,96.90164184570312,-33.69383239746094
212994,0.0174407958984375,-0.084320068359375,-0.118560791015625,0.8844895958900452,-1.321924686431885,0.9846044778823853,64.30410766601562,96.58503723144533,-34.23550415039062
212995,0.0174407958984375,-0.084320068359375,-0.118560791015625,0.8844895958900452,-1.321924686431885,0.9846044778823853,64.30410766601562,96.58503723144533,-34.23550415039062
212996,-0.012908935546875,-0.112091064453125,0.220062255859375,0.874049186706543,-1.063358426094055,0.8924028873443604,64.78038024902344,95.941650390625,-35.01856994628906
212997,-0.0330047607421875,-0.1142730712890625,0.3386993408203125,0.8677284717559814,-0.4496326744556427,0.7864493131637573,64.91253662109375,95.69297790527344,-35.51139831542969
212998,-0.0330047607421875,-0.1142730712890625,0.3386993408203125,0.8677284717559814,-0.4496326744556427,0.7864493131637573,64.91253662109375,95.69297790527344,-35.51139831542969
212999,-0.0601959228515625,-0.1135101318359375,0.3014373779296875,0.8219926357269287,0.1345671266317368,0.6822770833969116,65.05429077148438,95.3833465576172,-36.02667236328125
213000,-0.12652587890625,-0.040557861328125,0.1728668212890625,0.7071734070777893,0.5294196605682373,0.477516233921051,65.49566650390625,94.95431518554688,-37.0677490234375
213001,-0.1027374267578125,-0.051361083984375,0.197174072265625,0.6594495177268982,0.6151691675186157,0.3846331536769867,65.93305969238281,94.5403289794922,-37.38768005371094
213002,-0.1027374267578125,-0.051361083984375,0.197174072265625,0.6594495177268982,0.6151691675186157,0.3846331536769867,65.93305969238281,94.5403289794922,-37.38768005371094
213003,-0.02825927734375,-0.076263427734375,0.168365478515625,0.3152274489402771,0.6246076822280884,0.1977767199277878,66.8446044921875,94.10646057128906,-37.95486450195312
213004,-0.03271484375,-0.067047119140625,0.138946533203125,0.0578550435602664,0.5713953375816345,0.099601425230503,67.10736083984375,93.99258422851562,-38.15696716308594
213005,-0.03900146484375,-0.0579986572265625,0.1034088134765625,-0.1903560906648636,0.5130332112312317,-0.0103317331522703,67.32951354980469,93.90364074707033,-38.20048522949219
213006,-0.03900146484375,-0.0579986572265625,0.1034088134765625,-0.1903560906648636,0.5130332112312317,-0.0103317331522703,67.32951354980469,93.90364074707033,-38.20048522949219
213007,-0.0413665771484375,-0.0529937744140625,0.0703125,-0.4035155177116394,0.4573963284492493,-0.1244223490357399,67.50656127929688,93.82600402832033,-38.19187927246094
213008,-0.04302978515625,-0.0504302978515625,0.036590576171875,-0.7558711767196655,0.4204902350902557,-0.340337336063385,67.80072021484375,94.1084442138672,-37.83320617675781
213009,-0.0462799072265625,-0.052947998046875,0.0241241455078125,-0.8739807605743408,0.4807005822658539,-0.4352965950965881,67.78532409667969,94.21768188476562,-37.34260559082031
213010,-0.0555267333984375,-0.0627593994140625,-0.0066680908203125,-1.028499722480774,0.7193294167518616,-0.6130378246307373,67.84652709960938,94.94549560546876,-36.47731018066406
213011,-0.0555267333984375,-0.0627593994140625,-0.0066680908203125,-1.028499722480774,0.7193294167518616,-0.6130378246307373,67.84652709960938,94.94549560546876,-36.47731018066406
213012,-0.0592803955078125,-0.07293701171875,-0.031585693359375,-1.057260274887085,0.8563676476478577,-0.6997532844543457,67.81773376464844,95.13044738769533,-35.849609375
213013,-0.0617828369140625,-0.09136962890625,-0.098785400390625,-1.041946053504944,0.9153093099594116,-0.7738786339759827,67.87765502929688,95.54356384277344,-35.07685852050781
213014,-0.0614166259765625,-0.113922119140625,-0.1784515380859375,-0.989035427570343,0.7980968952178955,-0.830707311630249,67.84526062011719,95.76425170898438,-34.14157104492188
213015,-0.0614166259765625,-0.113922119140625,-0.1784515380859375,-0.989035427570343,0.7980968952178955,-0.830707311630249,67.84526062011719,95.76425170898438,-34.14157104492188
213016,-0.0110626220703125,-0.1604461669921875,-0.4923553466796875,-0.797460675239563,-0.1620943695306778,-0.892649233341217,67.72381591796875,96.40438842773438,-32.43557739257812
213017,0.09893798828125,-0.0840606689453125,-0.7664337158203125,-0.5873526930809021,-1.144112348556519,-0.8359191417694092,67.54930114746094,96.7646942138672,-31.62779235839844
213018,0.09893798828125,-0.0840606689453125,-0.7664337158203125,-0.5873526930809021,-1.144112348556519,-0.8359191417694092,67.54930114746094,96.7646942138672,-31.62779235839844
213019,0.2669830322265625,0.3558349609375,-1.074905395507812,-0.0226182267069816,-2.597900390625,-0.5451669096946716,66.62019348144531,97.46400451660156,-30.77458190917969
213020,0.2427978515625,0.4630279541015625,-0.714324951171875,-0.0328407697379589,-1.28527557849884,-0.2500748336315155,65.83259582519531,97.70835876464844,-30.85600280761719
213021,0.1722869873046875,0.5318756103515625,-0.2564697265625,-0.0328407697379589,-1.28527557849884,-0.2500748336315155,64.91889953613281,97.89024353027344,-31.24436950683594
213022,0.1722869873046875,0.5318756103515625,-0.2564697265625,-0.0328407697379589,-1.28527557849884,-0.2500748336315155,64.91889953613281,97.89024353027344,-31.24436950683594
213023,0.177398681640625,1.11871337890625,0.308624267578125,-1.30683422088623,0.2474185824394226,-0.4117587804794312,63.12777709960938,97.854736328125,-31.73341369628906
213024,0.25408935546875,3.380462646484375,0.47137451171875,-2.348318338394165,0.7727113962173462,-1.013736486434937,62.52432250976562,97.81967163085938,-31.76197814941406
213025,0.6044921875,7.1998291015625,-0.6278076171875,-2.024944067001343,-1.110934495925903,-1.020899653434753,61.92822265625,97.94053649902344,-31.4873046875
213026,0.6044921875,7.1998291015625,-0.6278076171875,-2.024944067001343,-1.110934495925903,-1.020899653434753,61.92822265625,97.94053649902344,-31.4873046875
213027,-0.0594024658203125,8.126754760742188,0.7062225341796875,-1.209964871406555,-2.307194232940674,-0.1367027163505554,61.25187683105469,98.535888671875,-31.25349426269531
213028,-0.9232177734375,4.688919067382812,0.8533782958984375,-0.4459159672260284,4.037447929382324,-1.24953305721283,59.78298950195312,100.0206451416016,-31.41197204589844
213029,-0.62237548828125,2.274749755859375,-0.0806121826171875,-0.4110977947711945,4.166991710662842,-1.180361151695251,59.79367065429688,100.3105926513672,-31.39006042480469
213030,-0.62237548828125,2.274749755859375,-0.0806121826171875,-0.4110977947711945,4.166991710662842,-1.180361151695251,59.79367065429688,100.3105926513672,-31.39006042480469
213031,-0.60693359375,1.31829833984375,-0.2830963134765625,0.1919997930526733,1.682326793670654,-0.5222477316856384,60.17092895507812,100.4016723632812,-30.82270812988281
213032,-0.649169921875,0.801544189453125,-0.4429779052734375,0.4005655348300934,0.5865615010261536,0.2400093972682953,61.35523986816406,100.2477569580078,-28.77151489257812
213033,-0.3251190185546875,1.434616088867188,-0.28985595703125,0.3192235231399536,0.1321527063846588,0.7835368514060974,61.59004211425781,100.0900573730469,-28.83341979980469
213034,-0.3251190185546875,1.434616088867188,-0.28985595703125,0.3192235231399536,0.1321527063846588,0.7835368514060974,61.59004211425781,100.0900573730469,-28.83341979980469
213035,-0.0189666748046875,1.930206298828125,-0.019439697265625,0.3068890869617462,-0.0260808691382408,1.087748646736145,62.25387573242188,99.6305694580078,-29.34312438964844
213036,0.0607452392578125,1.804107666015625,0.0623016357421875,0.4338811337947845,0.0924620255827903,1.131016850471497,62.7568359375,99.39613342285156,-29.50271606445312
213037,0.10491943359375,1.531219482421875,0.06439208984375,0.491302877664566,0.2296241372823715,1.119506597518921,63.30934143066406,99.14317321777344,-29.811767578125
213038,0.1032867431640625,1.256576538085938,0.00189208984375,0.5435066819190979,0.1858761310577393,1.114099621772766,63.83570861816406,98.79461669921876,-29.95976257324219
213039,0.1032867431640625,1.256576538085938,0.00189208984375,0.5435066819190979,0.1858761310577393,1.114099621772766,63.83570861816406,98.79461669921876,-29.95976257324219
213040,-0.0335540771484375,0.8532562255859375,0.0883331298828125,0.7714501023292542,-0.0377745442092418,1.096469163894653,64.91792297363281,98.03483581542967,-30.18650817871094
213041,-0.1017913818359375,0.75579833984375,0.1552886962890625,0.9423140287399292,0.0658567771315574,1.093966126441956,65.42047119140625,97.77587890625,-30.48530578613281
213042,-0.1017913818359375,0.75579833984375,0.1552886962890625,0.9423140287399292,0.0658567771315574,1.093966126441956,65.42047119140625,97.77587890625,-30.48530578613281
213043,-0.1192169189453125,0.581878662109375,0.0719451904296875,1.134117245674133,-0.098735362291336,0.9481993317604064,66.44099426269531,97.50897216796876,-31.50367736816406
213044,-0.088134765625,0.5092620849609375,0.06475830078125,1.156170606613159,-0.2209393084049225,0.848940908908844,66.83636474609375,97.24583435058594,-31.96194458007812
213045,-0.045806884765625,0.40740966796875,0.029327392578125,1.158403158187866,-0.4687922596931458,0.6651425957679749,67.22383117675781,96.94036865234376,-32.47320556640625
213046,-0.0138092041015625,0.2964019775390625,-0.0167999267578125,1.158403158187866,-0.4687922596931458,0.6651425957679749,67.56492614746094,96.65399169921876,-32.91236877441406
213047,-0.0138092041015625,0.2964019775390625,-0.0167999267578125,1.158403158187866,-0.4687922596931458,0.6651425957679749,67.56492614746094,96.65399169921876,-32.91236877441406
213048,0.0266876220703125,0.074554443359375,-0.1655426025390625,1.133546829223633,-0.966613233089447,0.4639461040496826,68.092041015625,95.9910125732422,-33.78128051757812
213049,0.0511474609375,-0.0261383056640625,-0.3469696044921875,1.064882040023804,-1.507366180419922,0.3650892972946167,68.10989379882812,95.6289520263672,-34.28019714355469
213050,0.0511474609375,-0.0261383056640625,-0.3469696044921875,1.064882040023804,-1.507366180419922,0.3650892972946167,68.10989379882812,95.6289520263672,-34.28019714355469
213051,0.0888214111328125,-0.1124420166015625,-0.4659576416015625,0.9736071825027466,-2.232196569442749,0.2832916378974915,68.05029296875,95.25820922851562,-34.984619140625
213052,0.123046875,-0.1737518310546875,-0.353424072265625,0.9401914477348328,-2.687778949737549,0.2320984750986099,67.843505859375,94.8922119140625,-35.76211547851562
213053,0.1445770263671875,-0.1788482666015625,0.1378936767578125,0.8978128433227539,-1.479860305786133,0.1122658178210258,66.98919677734375,94.10890197753906,-37.24339294433594
213054,0.1232452392578125,-0.2107391357421875,0.193328857421875,0.691881537437439,0.4255046844482422,0.1112532839179039,66.44447326660156,93.89492797851562,-37.897705078125
213055,0.1232452392578125,-0.2107391357421875,0.193328857421875,0.691881537437439,0.4255046844482422,0.1112532839179039,66.44447326660156,93.89492797851562,-37.897705078125
213056,0.0749053955078125,-0.195220947265625,-0.1748809814453125,0.5873817205429077,0.4327479600906372,0.1615702509880066,66.12738037109375,93.67791748046876,-38.85136413574219
213057,0.080810546875,-0.195220947265625,-0.1624908447265625,0.4921614825725555,0.248136043548584,0.1826955080032349,66.15530395507812,93.58381652832033,-38.91349792480469
213058,0.080810546875,-0.195220947265625,-0.1624908447265625,0.4921614825725555,0.248136043548584,0.1826955080032349,66.15530395507812,93.58381652832033,-38.91349792480469
213059,0.0823516845703125,-0.1790313720703125,-0.041534423828125,0.2689718008041382,0.1220603957772255,0.1867597699165344,66.60809326171875,93.34407043457033,-39.26123046875
213060,0.0825958251953125,-0.1559295654296875,-0.015380859375,0.09757050126791,0.1691730469465256,0.1714745461940765,66.76318359375,93.18815612792967,-39.29898071289062
213061,0.084503173828125,-0.141510009765625,-0.053924560546875,-0.1188337057828903,0.1770927608013153,0.1459816992282867,66.87638854980469,93.16867065429688,-39.38491821289062
213062,0.084503173828125,-0.141510009765625,-0.053924560546875,-0.1188337057828903,0.1770927608013153,0.1459816992282867,66.87638854980469,93.16867065429688,-39.38491821289062
213063,0.0930938720703125,-0.1345367431640625,-0.1272430419921875,-0.3062195777893066,0.048048485070467,0.1242351308465004,66.96040344238281,93.15226745605467,-39.34461975097656
213064,0.12615966796875,-0.116851806640625,-0.1143951416015625,-0.4959242641925812,-0.3718502521514893,0.0694821402430534,66.92343139648438,93.30030822753906,-38.94081115722656
213065,0.140045166015625,-0.1006622314453125,-0.034088134765625,-0.5157355070114136,-0.4223914742469788,0.0213574860244989,66.91056823730469,93.46713256835938,-38.67155456542969
213066,0.140045166015625,-0.1006622314453125,-0.034088134765625,-0.5157355070114136,-0.4223914742469788,0.0213574860244989,66.91056823730469,93.46713256835938,-38.67155456542969
213067,0.150390625,-0.0914459228515625,0.021575927734375,-0.5237425565719604,-0.3563932776451111,-0.0393767021596431,66.87953186035156,93.67916870117188,-38.54637145996094
213068,0.180267333984375,-0.069488525390625,0.0496673583984375,-0.5792402029037476,-0.0923975780606269,-0.1785801351070404,66.64079284667969,93.82283020019533,-37.72599792480469
213069,0.207855224609375,-0.042144775390625,-0.01971435546875,-0.6621763706207275,-0.1033836454153061,-0.2556221783161163,66.512451171875,93.78651428222656,-37.27644348144531
213070,0.207855224609375,-0.042144775390625,-0.01971435546875,-0.6621763706207275,-0.1033836454153061,-0.2556221783161163,66.512451171875,93.78651428222656,-37.27644348144531
213071,0.2571258544921875,0.1008148193359375,-0.14593505859375,-0.947113037109375,-0.6426303386688232,-0.4272506535053253,66.09231567382812,94.05691528320312,-36.65853881835938
213072,0.2880401611328125,0.2660064697265625,-0.048095703125,-1.176807522773743,-0.8163749575614929,-0.5453171133995056,65.78761291503906,94.28765869140624,-36.154296875
213073,0.2545623779296875,0.44000244140625,0.2944183349609375,-1.524226188659668,-0.4702455401420593,-0.717279314994812,65.27261352539062,94.60499572753906,-35.7900390625
213074,0.2545623779296875,0.44000244140625,0.2944183349609375,-1.524226188659668,-0.4702455401420593,-0.717279314994812,65.27261352539062,94.60499572753906,-35.7900390625
213075,0.137359619140625,1.384735107421875,1.156265258789062,-2.543768167495728,2.054727792739868,-1.704304337501526,64.20179748535156,95.70515441894533,-34.49786376953125
213076,0.0648193359375,2.896438598632812,1.299514770507812,-3.187996387481689,3.74879789352417,-3.149603366851807,63.59449768066406,96.46549987792967,-33.48944091796875
213077,-0.0299224853515625,5.308456420898438,0.5249176025390625,-2.835274934768677,3.534424304962158,-4.736516952514648,62.884765625,97.3944854736328,-32.13520812988281
213078,-0.55303955078125,7.496719360351562,0.491455078125,-2.17788028717041,-0.1873640269041061,-5.919107913970947,61.63143920898438,98.61051940917967,-31.00950622558594
213079,-0.55303955078125,7.496719360351562,0.491455078125,-2.17788028717041,-0.1873640269041061,-5.919107913970947,61.63143920898438,98.61051940917967,-31.00950622558594
213080,-1.336318969726562,7.580810546875,1.832748413085938,-1.535688638687134,-2.508792638778687,-5.412934303283691,59.60806274414062,99.8590850830078,-30.43536376953125
213081,-2.0736083984375,2.030609130859375,1.580917358398438,0.7291138172149658,0.0097319893538951,-2.990408182144165,54.92611694335938,101.6283111572266,-31.00454711914062
213082,-2.0736083984375,2.030609130859375,1.580917358398438,0.7291138172149658,0.0097319893538951,-2.990408182144165,54.92611694335938,101.6283111572266,-31.00454711914062
213083,-1.675857543945312,0.58203125,0.651947021484375,0.930170238018036,1.375051617622375,-1.563424468040466,53.6727294921875,101.6901702880859,-30.94467163085938
213084,-0.498077392578125,1.3572998046875,-1.470947265625,-0.1681440025568008,-0.6210193634033203,0.9285315871238708,53.18936157226562,100.9914398193359,-30.92552185058594
213085,0.068511962890625,2.276016235351562,-2.681167602539062,-0.9480714797973632,-3.603028774261475,0.8283698558807373,53.16450500488281,100.8489379882812,-30.67127990722656
213086,0.068511962890625,2.276016235351562,-2.681167602539062,-0.9480714797973632,-3.603028774261475,0.8283698558807373,53.16450500488281,100.8489379882812,-30.67127990722656
213087,0.1362762451171875,2.395278930664062,-0.9828948974609376,-1.160188794136047,-3.740698337554932,1.105234265327454,53.01962280273438,101.0342254638672,-30.78614807128906
213088,0.1637115478515625,2.157257080078125,0.399810791015625,0.3226819038391113,-0.5288353562355042,1.611631155014038,52.35690307617188,101.5522918701172,-30.00665283203125
213089,0.1350555419921875,1.941070556640625,0.4460601806640625,0.6402910351753235,1.176582455635071,1.527784705162048,52.70356750488281,101.4017791748047,-29.55862426757812
213090,-0.0015411376953125,1.537368774414062,-0.0504150390625,0.7470059990882874,1.761170744895935,1.075255036354065,54.69026184082031,100.7311096191406,-29.58937072753906
213091,-0.0015411376953125,1.537368774414062,-0.0504150390625,0.7470059990882874,1.761170744895935,1.075255036354065,54.69026184082031,100.7311096191406,-29.58937072753906
213092,-0.1088409423828125,1.3045654296875,-0.148590087890625,0.7084706425666809,0.9563968181610109,0.8032969832420349,55.74830627441406,100.2937469482422,-29.79081726074219
213093,-0.221923828125,1.09375,0.024505615234375,0.8660346865653992,0.2055816501379013,0.5445618629455566,56.682373046875,100.0059814453125,-29.91067504882812
213094,-0.211334228515625,0.6674957275390625,0.2729644775390625,1.054683208465576,0.3214978575706482,0.5507704615592957,57.91217041015625,99.56980895996094,-30.33671569824219
213095,-0.211334228515625,0.6674957275390625,0.2729644775390625,1.054683208465576,0.3214978575706482,0.5507704615592957,57.91217041015625,99.56980895996094,-30.33671569824219
213096,-0.1697540283203125,0.4819488525390625,0.240936279296875,1.200909614562988,0.4476084113121033,0.6161864995956421,58.31965637207031,99.29281616210938,-30.50241088867188
213097,-0.13226318359375,0.3474884033203125,0.1744842529296875,1.274847745895386,0.4945825636386871,0.6828691363334656,58.69419860839844,99.02336120605467,-30.82012939453125
213098,-0.08673095703125,0.22979736328125,0.1234130859375,1.168913841247559,0.3528222441673279,0.7650018334388733,59.18548583984375,98.87338256835938,-31.38136291503906
213099,-0.08673095703125,0.22979736328125,0.1234130859375,1.168913841247559,0.3528222441673279,0.7650018334388733,59.18548583984375,98.87338256835938,-31.38136291503906
213100,-0.010040283203125,0.02801513671875,0.02325439453125,1.071539878845215,0.1777132749557495,0.8033604025840759,59.86918640136719,98.481689453125,-32.75022888183594
213101,0.012298583984375,-0.0402374267578125,0.01025390625,0.9791284799575806,0.0141677502542734,0.8242992162704468,60.23416137695312,98.18482971191406,-33.22821044921875
213102,0.0238189697265625,-0.087127685546875,0.00421142578125,0.9023995995521544,-0.1452866196632385,0.816521167755127,60.73457336425781,97.92184448242188,-33.53472900390625
213103,0.0313720703125,-0.12103271484375,-0.0522918701171875,0.8675297498703003,-0.3395863175392151,0.805371880531311,60.99778747558594,97.63975524902344,-33.8504638671875
213104,0.0329437255859375,-0.1539459228515625,-0.15203857421875,0.8875895142555237,-0.7104043364524841,0.8274915218353271,61.35748291015625,97.43701171875,-34.21647644042969
213105,0.0233612060546875,-0.16326904296875,-0.112579345703125,0.947340726852417,-1.090366005897522,0.8714478015899658,61.52677917480469,97.19036865234376,-34.63569641113281
213106,0.007843017578125,-0.147369384765625,0.0193634033203125,0.9606783390045166,-1.19626796245575,0.8729146718978882,61.62725830078125,96.94381713867188,-34.91230773925781
213107,-0.0184783935546875,-0.117462158203125,0.0258636474609375,0.7766299843788147,-1.152523994445801,0.6572827696800232,61.65879821777344,96.65072631835938,-35.27914428710938
213108,-0.0594940185546875,0.04046630859375,-0.0646820068359375,0.7766299843788147,-1.152523994445801,0.6572827696800232,61.68601989746094,96.5311279296875,-35.68121337890625
213109,-0.0650177001953125,0.227508544921875,0.0370635986328125,0.62291419506073,-0.9035455584526062,0.3788535594940186,61.70182800292969,96.31413269042967,-36.11276245117188
213110,-0.0305938720703125,0.294769287109375,0.2897796630859375,0.4008209109306335,-0.0333784632384777,0.1627010256052017,61.66748046875,96.03761291503906,-36.54014587402344
213111,-0.0305938720703125,0.294769287109375,0.2897796630859375,0.4008209109306335,-0.0333784632384777,0.1627010256052017,61.66748046875,96.03761291503906,-36.54014587402344
213112,0.027313232421875,0.2567291259765625,0.23687744140625,0.0383063778281211,1.33723783493042,-0.1388526856899261,61.64144897460938,95.85391235351562,-37.13027954101562
213113,0.0471954345703125,0.24322509765625,0.1055755615234375,-0.0655872672796249,1.338545441627502,-0.271223247051239,61.75100708007812,95.66650390625,-37.18539428710938
213114,0.0601043701171875,0.224853515625,0.0066986083984375,-0.2438062727451324,1.028476357460022,-0.337315171957016,61.99749755859375,95.61766052246094,-37.10562133789062
213115,0.0445404052734375,0.18756103515625,-0.0255889892578125,-0.4719486236572266,0.6932820677757263,-0.371302455663681,62.1119384765625,95.723388671875,-37.08894348144531
213116,0.023773193359375,0.1516876220703125,-0.079925537109375,-0.6465963125228882,0.3715051114559174,-0.3889336287975311,62.16220092773438,95.88108825683594,-37.03878784179688
213117,-0.003326416015625,0.1577911376953125,-0.084991455078125,-0.7157591581344604,0.0552238412201404,-0.3603342175483704,62.171630859375,96.18698120117188,-36.97569274902344
213118,-0.049835205078125,-0.029052734375,0.0450286865234375,-0.4545829594135284,-0.3545684814453125,-0.4283217787742615,61.8978271484375,96.55075073242188,-36.51864624023438
213119,-0.049835205078125,-0.029052734375,0.0450286865234375,-0.4545829594135284,-0.3545684814453125,-0.4283217787742615,61.8978271484375,96.55075073242188,-36.51864624023438
213120,-0.0290069580078125,-0.0597076416015625,0.0858917236328125,-0.4545829594135284,-0.3545684814453125,-0.4283217787742615,61.86003112792969,96.65977478027344,-36.33279418945312
213121,-0.025726318359375,-0.051513671875,0.1051177978515625,-0.4115334749221802,-0.3638671636581421,-0.4600110054016113,61.75181579589844,96.9377899169922,-36.26394653320312
213122,-0.02349853515625,-0.0414886474609375,0.083984375,-0.4317359626293182,-0.3862555623054504,-0.510313868522644,61.51742553710938,97.03790283203124,-36.1383056640625
213123,-0.0298614501953125,-0.0404205322265625,0.051361083984375,-0.4999102056026459,-0.4480994939804077,-0.5744062662124634,61.30526733398438,97.16067504882812,-35.99830627441406
213124,-0.0457763671875,-0.0496063232421875,0.0167388916015625,-0.6125035881996155,-0.5325549840927124,-0.6234508156776428,61.09605407714844,97.3140106201172,-35.87579345703125
213125,-0.063232421875,-0.0650787353515625,-0.0350494384765625,-0.7326989769935608,-0.628008246421814,-0.6503244638442993,60.73143005371094,97.48185729980467,-35.79119873046875
213126,-0.0684661865234375,-0.07855224609375,-0.153778076171875,-0.7878996729850769,-0.8114489316940308,-0.6527807116508484,60.36723327636719,97.64007568359376,-35.55555725097656
213127,-0.0684661865234375,-0.07855224609375,-0.153778076171875,-0.7878996729850769,-0.8114489316940308,-0.6527807116508484,60.36723327636719,97.64007568359376,-35.55555725097656
213128,-0.0684967041015625,-0.0370330810546875,-0.5386199951171875,-0.4319505989551544,-1.707030892372131,-0.5923903584480286,59.423095703125,98.04798889160156,-34.93583679199219
213129,-0.0395355224609375,0.127288818359375,-0.723602294921875,-0.1711954474449158,-1.089871287345886,-0.4148161113262177,58.82829284667969,98.2746124267578,-34.66365051269531
213130,0.105377197265625,0.352752685546875,-1.193267822265625,0.2411332577466965,-0.6634754538536072,-0.0693742781877517,58.26776123046875,98.4612274169922,-34.46209716796875
213131,0.22674560546875,0.458587646484375,-0.9299468994140624,0.6596114635467529,-0.7743404507637024,0.2261013090610504,57.77311706542969,98.54844665527344,-34.28944396972656
213132,0.2297821044921875,0.5065155029296875,-0.14996337890625,0.4538846611976624,-0.2609437108039856,0.4641375839710236,57.49676513671875,98.39889526367188,-34.06349182128906
213133,0.1884918212890625,0.6209869384765625,0.4473724365234375,-0.4300571084022522,0.7418336272239685,0.5087780356407166,57.34494018554688,98.3131866455078,-33.96470642089844
213134,0.0665283203125,2.490997314453125,0.9220428466796876,-3.080334901809692,2.574936866760254,-0.0759621411561965,57.2789306640625,98.35433959960938,-33.54902648925781
213135,0.0665283203125,2.490997314453125,0.9220428466796876,-3.080334901809692,2.574936866760254,-0.0759621411561965,57.2789306640625,98.35433959960938,-33.54902648925781
213136,0.087158203125,5.692779541015625,-0.365753173828125,-3.309316396713257,0.6865248680114746,-1.123142123222351,57.37106323242188,98.70343017578124,-32.95294189453125
213137,-0.3765106201171875,7.998336791992188,0.2823028564453125,-2.795315742492676,-2.838133335113525,-2.769589424133301,57.10969543457031,99.39389038085938,-31.75558471679688
213138,-1.168075561523438,7.894088745117188,2.235687255859375,-2.599940299987793,-2.343897581100464,-3.874098062515259,56.19754028320312,100.2799987792969,-30.61784362792969
213139,-1.168075561523438,7.894088745117188,2.235687255859375,-2.599940299987793,-2.343897581100464,-3.874098062515259,56.19754028320312,100.2799987792969,-30.61784362792969
213140,-1.8153076171875,1.503646850585938,0.8555450439453125,-0.2686053514480591,3.210383415222168,-1.232266187667847,52.995361328125,101.5669555664062,-29.44325256347656
213141,-1.074050903320312,0.6489105224609375,-0.3015594482421875,0.7555369138717651,2.851501703262329,0.3411679863929749,52.17292785644531,101.9749450683594,-28.62327575683594
213142,-0.59100341796875,1.062454223632812,-0.7285919189453125,0.4862639307975769,0.1518609076738358,0.93747079372406,52.32339477539062,101.9425201416016,-28.04698181152344
213143,-0.59100341796875,1.062454223632812,-0.7285919189453125,0.4862639307975769,0.1518609076738358,0.93747079372406,52.32339477539062,101.9425201416016,-28.04698181152344
213144,-0.090545654296875,1.921829223632812,-0.8585662841796875,-0.1879376769065857,0.1984992474317551,0.9964102506637572,53.635498046875,101.3702697753906,-28.14320373535156
213145,-0.006195068359375,2.143646240234375,-1.087173461914062,-0.2212426364421844,0.0978626459836959,1.14177942276001,54.02491760253906,101.1929931640625,-28.37832641601562
213146,0.00421142578125,2.1099853515625,-0.7669830322265625,0.2451034933328629,-0.0444766543805599,1.235134124755859,54.489501953125,100.9943389892578,-28.49832153320312
213147,-0.0176239013671875,2.027420043945312,-0.3441925048828125,0.7193645238876343,0.2203571349382401,1.173543214797974,54.93061828613281,100.8597412109375,-28.364013671875
213148,0.010894775390625,1.889999389648438,-0.2032470703125,1.040245890617371,0.4815985858440399,1.12072741985321,55.69342041015625,100.8006286621094,-28.44303894042969
213149,0.0281219482421875,1.780075073242188,-0.17333984375,1.255804061889648,0.5253391265869141,1.125048160552979,56.33384704589844,100.5668182373047,-28.8604736328125
213150,0.0224151611328125,1.642501831054688,-0.065338134765625,1.056493282318115,0.7475131154060364,1.088196158409119,56.95184326171875,100.2135772705078,-29.24177551269531
213151,-0.0044403076171875,1.406723022460938,0.0407867431640625,0.6265395283699036,0.7607284784317017,1.051236748695374,57.76445007324219,99.93830871582033,-29.87239074707031
213152,0.0113372802734375,1.1627197265625,-0.050140380859375,0.6265395283699036,0.7607284784317017,1.051236748695374,58.53456115722656,99.58868408203124,-30.33731079101562
213153,0.04144287109375,0.9702911376953124,-0.1240997314453125,0.0895400047302246,0.3837689757347107,1.015278816223145,59.30596923828125,99.13728332519533,-30.93031311035156
213154,0.0238800048828125,0.868011474609375,0.1246337890625,-0.0116441389545798,0.4208111464977264,0.801348090171814,60.06282043457031,98.94107055664062,-31.189208984375
213155,0.0238800048828125,0.868011474609375,0.1246337890625,-0.0116441389545798,0.4208111464977264,0.801348090171814,60.06282043457031,98.94107055664062,-31.189208984375
213156,-0.0098876953125,0.6211090087890625,0.315338134765625,1.108075499534607,0.6209671497344971,0.7861547470092773,61.15492248535156,98.68092346191406,-31.13963317871094
213157,-0.073211669921875,0.4940948486328125,0.3171844482421875,1.108075499534607,0.6209671497344971,0.7861547470092773,61.70310974121094,98.60501098632812,-30.78704833984375
213158,-0.1732635498046875,0.3476715087890625,0.2996063232421875,1.887770771980286,0.6427350044250488,0.7316505312919617,62.99101257324219,98.07183837890624,-31.04757690429688
213159,-0.1732635498046875,0.3476715087890625,0.2996063232421875,1.887770771980286,0.6427350044250488,0.7316505312919617,62.99101257324219,98.07183837890624,-31.04757690429688
213160,-0.2089080810546875,0.2810211181640625,0.2794036865234375,1.910688877105713,0.5898653864860535,0.5975331664085388,63.57080078125,97.81980895996094,-31.52140808105469
213161,-0.22344970703125,0.1939544677734375,0.252655029296875,1.766967415809631,0.4740533232688904,0.4343075156211853,64.02696228027344,97.3318328857422,-32.26873779296875
213162,-0.2236175537109375,0.0972900390625,0.2174072265625,1.343665719032288,0.0593605302274227,0.1022177115082741,64.50851440429688,97.01449584960938,-33.150146484375
213163,-0.2236175537109375,0.0972900390625,0.2174072265625,1.343665719032288,0.0593605302274227,0.1022177115082741,64.50851440429688,97.01449584960938,-33.150146484375
213164,-0.18170166015625,-0.0842742919921875,0.1229248046875,1.176920175552368,-0.197497621178627,-0.0045982138253748,65.07624816894531,96.33741760253906,-34.55303955078125
213165,-0.179168701171875,-0.188629150390625,0.0792694091796875,1.032649755477905,-0.4113952815532684,0.002886067610234,65.11921691894531,96.14712524414062,-35.00276184082031
213166,-0.16827392578125,-0.2449951171875,0.0482177734375,0.7831608653068542,-0.3363870680332184,0.2549681067466736,65.08795166015625,95.97703552246094,-36.15534973144531
213167,-0.16827392578125,-0.2449951171875,0.0482177734375,0.7831608653068542,-0.3363870680332184,0.2549681067466736,65.08795166015625,95.97703552246094,-36.15534973144531
213168,-0.141326904296875,-0.2282257080078125,0.0565643310546875,0.7831608653068542,-0.3363870680332184,0.2549681067466736,64.94705200195312,95.92213439941406,-36.58805847167969
213169,-0.1037445068359375,-0.27740478515625,-0.12310791015625,0.4986465573310852,0.0640508905053138,0.3249882161617279,64.92782592773438,95.8724365234375,-36.96760559082031
213170,0.0833282470703125,-0.2957305908203125,-0.5793304443359375,0.0231865458190441,-1.457576274871826,0.7465308904647827,65.0931396484375,95.6121063232422,-37.4774169921875
213171,0.0833282470703125,-0.2957305908203125,-0.5793304443359375,0.0231865458190441,-1.457576274871826,0.7465308904647827,65.0931396484375,95.6121063232422,-37.4774169921875
213172,0.0509490966796875,-0.1693878173828125,0.0281982421875,0.0231865458190441,-1.457576274871826,0.7465308904647827,65.23616027832031,95.5155792236328,-37.34593200683594
213173,0.0360260009765625,-0.1066741943359375,0.339263916015625,0.1347231864929199,-0.6957404613494873,0.6655436754226685,65.39207458496094,95.26936340332033,-37.13493347167969
213174,0.048675537109375,-0.1045684814453125,0.370513916015625,0.2250000983476639,0.1654733866453171,0.5219071507453918,65.3643798828125,95.1063232421875,-37.19688415527344
213175,0.048675537109375,-0.1045684814453125,0.370513916015625,0.2250000983476639,0.1654733866453171,0.5219071507453918,65.3643798828125,95.1063232421875,-37.19688415527344
213176,0.042755126953125,-0.136749267578125,0.3053741455078125,0.0446673370897769,1.503357648849487,0.2301810085773468,65.63102722167969,94.59469604492188,-36.90162658691406
213177,0.0355072021484375,-0.141632080078125,0.2220001220703125,-0.170763224363327,1.970868110656738,0.1142461448907852,66.08749389648438,94.37387084960938,-36.51274108886719
213178,0.0302734375,-0.1420135498046875,0.10552978515625,-0.5443083047866821,2.254895210266113,-0.0757464244961738,66.45103454589844,94.27687072753906,-36.05197143554688
213179,0.0329437255859375,-0.152130126953125,-0.023529052734375,-0.5443083047866821,2.254895210266113,-0.0757464244961738,67.06626892089844,94.17527770996094,-35.51968383789062
213180,0.0510406494140625,-0.1726226806640625,-0.16339111328125,-0.6458120346069336,1.978058338165283,-0.1372036635875702,67.53022766113281,94.11582946777344,-34.50631713867188
213181,0.0771331787109375,-0.17926025390625,-0.2357635498046875,-0.6914122700691223,1.476929187774658,-0.180595338344574,68.08442687988281,94.04934692382812,-33.72178649902344
213182,0.105224609375,-0.1545867919921875,-0.2331085205078125,-0.7063552737236023,0.3596862554550171,-0.3125126361846924,68.48896789550781,94.04745483398438,-32.99237060546875
213183,0.105224609375,-0.1545867919921875,-0.2331085205078125,-0.7063552737236023,0.3596862554550171,-0.3125126361846924,68.48896789550781,94.04745483398438,-32.99237060546875
213184,0.1839447021484375,-0.0147705078125,-0.466888427734375,-0.6298881769180298,-0.5131413340568542,-0.4099925756454468,68.76008605957031,94.2851104736328,-31.69044494628906
213185,0.2267608642578125,0.1118316650390625,-0.7739715576171875,-0.4608573615550995,-1.965294122695923,-0.5127304196357727,68.59222412109375,94.4276123046875,-31.4007568359375
213186,0.3312835693359375,0.4735565185546875,-0.6463165283203125,0.2609620988368988,-5.742001056671143,-0.8572872877120972,67.64530944824219,94.90768432617188,-31.37783813476562
213187,0.3312835693359375,0.4735565185546875,-0.6463165283203125,0.2609620988368988,-5.742001056671143,-0.8572872877120972,67.64530944824219,94.90768432617188,-31.37783813476562
213188,0.2667694091796875,0.838897705078125,0.3143310546875,-0.5891399383544922,-1.778799533843994,-0.8721940517425537,66.48333740234375,95.2705535888672,-32.06214904785156
213189,0.2420196533203125,0.9762420654296876,-0.0323028564453125,-0.6458951234817505,0.0457533746957778,-1.115269303321838,64.91102600097656,95.65403747558594,-32.86834716796875
213190,0.2757568359375,1.2855224609375,0.7909393310546875,-1.253348827362061,1.194201946258545,-1.617112636566162,63.38139343261719,96.08555603027344,-33.4312744140625
213191,0.2757568359375,1.2855224609375,0.7909393310546875,-1.253348827362061,1.194201946258545,-1.617112636566162,63.38139343261719,96.08555603027344,-33.4312744140625
213192,0.3114776611328125,2.646591186523438,0.480987548828125,-2.233316659927368,1.533225774765015,-2.351948499679565,62.29090881347656,96.39260864257812,-33.39883422851562
213193,0.3334808349609375,8.101181030273438,0.24725341796875,-1.394442319869995,-5.188218116760254,-4.982285499572754,60.1876220703125,97.76068115234376,-32.64009094238281
213194,-1.600799560546875,7.403884887695312,2.081924438476562,-1.897943258285522,-2.571875810623169,-4.956560134887695,58.27595520019531,98.70753479003906,-32.61985778808594
213195,-1.600799560546875,7.403884887695312,2.081924438476562,-1.897943258285522,-2.571875810623169,-4.956560134887695,58.27595520019531,98.70753479003906,-32.61985778808594
213196,-1.398681640625,1.533599853515625,-0.9933929443359376,0.781394362449646,1.426811218261719,0.3435893356800079,52.85176086425781,100.5492858886719,-33.42472839355469
213197,-0.626129150390625,1.069473266601562,-0.8487396240234375,1.463783621788025,-0.2702450752258301,0.3592612147331238,52.13667297363281,100.7646789550781,-32.71298217773438
213198,-0.39044189453125,1.0875244140625,-0.0460052490234375,1.463783621788025,-0.2702450752258301,0.3592612147331238,52.81663513183594,100.5098266601562,-31.29501342773438
213199,-0.39044189453125,1.0875244140625,-0.0460052490234375,1.463783621788025,-0.2702450752258301,0.3592612147331238,52.81663513183594,100.5098266601562,-31.29501342773438
213200,-0.094879150390625,1.401931762695312,0.1199493408203125,0.9568079710006714,-0.3199569582939148,0.5367832779884338,53.68574523925781,100.34912109375,-30.80221557617188
213201,0.1535797119140625,2.031646728515625,-0.392059326171875,0.0531846582889556,-0.707500159740448,1.58532702922821,53.935546875,100.1867065429688,-32.12785339355469
213202,0.17291259765625,2.21746826171875,-0.3065032958984375,0.1027476862072945,-1.038748621940613,1.792644500732422,54.59458923339844,99.91552734375,-32.6021728515625
213203,0.17291259765625,2.21746826171875,-0.3065032958984375,0.1027476862072945,-1.038748621940613,1.792644500732422,54.59458923339844,99.91552734375,-32.6021728515625
213204,0.1911468505859375,2.021621704101562,-0.19873046875,-0.0886614248156547,-0.4214383065700531,1.327694416046143,55.84487915039062,99.70042419433594,-32.40350341796875
213205,0.0948333740234375,1.821990966796875,-0.0292816162109375,-0.2506114542484283,-0.1206912621855736,0.8957787156105042,56.49453735351562,99.54368591308594,-32.20820617675781
213206,-0.1103363037109375,1.62615966796875,0.2347412109375,-0.2538850009441376,0.3706832528114319,0.5264092087745667,57.026123046875,99.53994750976562,-32.15081787109375
213207,-0.22564697265625,1.41802978515625,0.26666259765625,-0.1279217451810837,0.7716277241706848,0.2922257483005524,57.62718200683594,99.48477172851562,-31.99317932128906
213208,-0.2967071533203125,1.16998291015625,0.1427459716796875,0.1220281720161438,0.637790322303772,0.1315484344959259,58.158203125,99.34828186035156,-31.77346801757812
213209,-0.3354034423828125,0.918792724609375,0.0755615234375,0.4615990519523621,0.1666283905506134,0.0586308240890502,58.54005432128906,99.11959838867188,-31.63945007324219
213210,-0.3156890869140625,0.7227020263671875,0.1128387451171875,0.8642000555992126,-0.214550644159317,0.06314168125391,58.91777038574219,99.01502990722656,-31.81025695800781
213211,-0.3156890869140625,0.7227020263671875,0.1128387451171875,0.8642000555992126,-0.214550644159317,0.06314168125391,58.91777038574219,99.01502990722656,-31.81025695800781
213212,-0.175506591796875,0.4082489013671875,0.17034912109375,1.266015648841858,-0.2288584858179092,0.1082375273108482,59.2557373046875,98.65760803222656,-32.57489013671875
213213,-0.1112823486328125,0.264739990234375,0.1052398681640625,1.184909105300903,-0.1531083285808563,0.16131192445755,59.31381225585938,98.38534545898438,-33.16526794433594
213214,-0.0627899169921875,0.1284027099609375,0.00531005859375,0.9997724890708924,-0.2283391654491425,0.2012822479009628,59.40518188476562,98.24703979492188,-33.68356323242188
213215,-0.0627899169921875,0.1284027099609375,0.00531005859375,0.9997724890708924,-0.2283391654491425,0.2012822479009628,59.40518188476562,98.24703979492188,-33.68356323242188
213216,0.02825927734375,-0.0850677490234375,-0.133941650390625,0.6507298350334167,-0.8417463898658752,0.2735585868358612,59.6600341796875,97.88427734375,-34.53024291992188
213217,0.0504913330078125,-0.1254425048828125,-0.039093017578125,0.5860773324966431,-1.046297907829285,0.301819771528244,59.80117797851562,97.54530334472656,-34.880615234375
213218,0.0550079345703125,-0.1479949951171875,0.0719451904296875,0.6205617785453796,-0.6908772587776184,0.3493334949016571,59.5867919921875,97.14857482910156,-35.22203063964844
213219,0.0550079345703125,-0.1479949951171875,0.0719451904296875,0.6205617785453796,-0.6908772587776184,0.3493334949016571,59.5867919921875,97.14857482910156,-35.22203063964844
213220,0.0674285888671875,-0.2167816162109375,-0.049835205078125,0.6815966367721558,-0.541253387928009,0.4148190319538116,59.44935607910156,97.05645751953124,-35.38020324707031
213221,0.0712432861328125,-0.27880859375,-0.1622772216796875,0.7369714975357056,-0.7054183483123779,0.5248839855194092,59.31477355957031,97.0039520263672,-35.45846557617188
213222,0.0569610595703125,-0.3019256591796875,-0.07470703125,0.7546700835227966,-0.8293514847755432,0.6364268064498901,59.39682006835938,96.791259765625,-35.59568786621094
213223,0.0569610595703125,-0.3019256591796875,-0.07470703125,0.7546700835227966,-0.8293514847755432,0.6364268064498901,59.39682006835938,96.791259765625,-35.59568786621094
213224,0.010833740234375,-0.315704345703125,0.0726318359375,0.6334751844406128,-0.3705373108386993,0.7523943781852722,59.79475402832031,96.41134643554688,-35.96205139160156
213225,-0.00616455078125,-0.3025970458984375,0.03607177734375,0.5498961806297302,-0.2313440144062042,0.7580022215843201,60.13661193847656,96.2106475830078,-36.08969116210938
213226,-0.0096435546875,-0.2793426513671875,0.0551605224609375,0.4504031240940094,-0.2066423892974854,0.7348111271858215,60.59452819824219,95.97352600097656,-36.0767822265625
213227,-0.0096435546875,-0.2793426513671875,0.0551605224609375,0.4504031240940094,-0.2066423892974854,0.7348111271858215,60.59452819824219,95.97352600097656,-36.0767822265625
213228,-0.00067138671875,-0.23333740234375,0.15716552734375,0.1082622930407524,0.0674863681197166,0.5837819576263428,61.57283020019531,95.44082641601562,-35.84500122070312
213229,-0.0009765625,-0.22802734375,0.12420654296875,-0.115567609667778,0.2295133471488953,0.4688798785209656,62.05671691894531,95.2712860107422,-35.59442138671875
213230,-0.0047149658203125,-0.217926025390625,0.0733489990234375,-0.3681250214576721,0.2763916552066803,0.324165552854538,62.48507690429688,94.99656677246094,-35.43289184570312
213231,-0.0047149658203125,-0.217926025390625,0.0733489990234375,-0.3681250214576721,0.2763916552066803,0.324165552854538,62.48507690429688,94.99656677246094,-35.43289184570312
213232,-0.02593994140625,-0.2086029052734375,0.0269012451171875,-0.9137223362922668,0.0610921159386634,0.0030538467690348,63.185791015625,94.69972229003906,-34.57789611816406
213233,-0.0449981689453125,-0.212982177734375,0.0239105224609375,-1.122512817382812,-0.0862288922071456,-0.1281116306781769,63.56846618652344,94.60350036621094,-34.13053894042969
213234,-0.1355133056640625,-0.17041015625,-0.133880615234375,-1.376827359199524,-0.4386849403381348,-0.2818114459514618,63.75703430175781,94.9346160888672,-32.80982971191406
213235,-0.1355133056640625,-0.17041015625,-0.133880615234375,-1.376827359199524,-0.4386849403381348,-0.2818114459514618,63.75703430175781,94.9346160888672,-32.80982971191406
213236,-0.1870574951171875,-0.06646728515625,-0.4071044921875,-1.387093901634216,-0.8842283487319946,-0.3447360694408417,63.77864074707031,95.14225769042967,-32.31941223144531
213237,-0.2127838134765625,0.0844879150390625,-0.5164642333984375,-1.343514680862427,-1.235014319419861,-0.4432559907436371,63.5826416015625,95.365234375,-31.55426025390625
213238,-0.1885223388671875,0.2252044677734375,-0.3162078857421875,-1.276481866836548,-0.6244995594024658,-0.4948459565639496,63.40296936035156,95.666259765625,-30.95390319824219
213239,-0.1885223388671875,0.2252044677734375,-0.3162078857421875,-1.276481866836548,-0.6244995594024658,-0.4948459565639496,63.40296936035156,95.666259765625,-30.95390319824219
213240,-0.0022430419921875,0.23846435546875,-0.074462890625,-1.119048595428467,0.2394080609083176,-0.5811094641685486,62.74147033691406,96.5283203125,-30.00422668457031
213241,0.024261474609375,0.2303924560546875,-0.048126220703125,-1.112115025520325,0.2409606873989105,-0.6060994863510132,62.32528686523438,96.7469482421875,-29.36862182617188
213242,0.04193115234375,0.2317962646484375,-0.0746917724609375,-1.096253752708435,0.028832446783781,-0.6238816976547241,61.9112548828125,97.21640014648438,-28.85417175292969
213243,0.04193115234375,0.2317962646484375,-0.0746917724609375,-1.096253752708435,0.028832446783781,-0.6238816976547241,61.9112548828125,97.21640014648438,-28.85417175292969
213244,0.049530029296875,0.2483673095703125,0.1378631591796875,-0.9911577105522156,-0.4818747639656067,-0.7524164915084839,60.74369812011719,98.10040283203124,-28.19052124023438
213245,0.0449066162109375,0.240936279296875,0.444549560546875,-0.8390856385231018,-0.0467145070433616,-0.8939081430435181,59.86666870117188,98.70982360839844,-28.10382080078125
213246,0.0416717529296875,0.3230743408203125,0.7225341796875,-0.8428747653961182,0.769577145576477,-1.036018967628479,58.86833190917969,99.21331787109376,-28.35459899902344
213247,0.111419677734375,1.514663696289062,1.002487182617188,-1.292420029640198,1.793500781059265,-1.098926305770874,57.72207641601562,99.70201110839844,-28.84042358398438
213248,0.1859130859375,5.667572021484375,1.128921508789062,-1.977808237075806,2.885024785995483,0.2262637615203857,56.83830261230469,100.3083801269531,-29.48129272460938
213249,-0.684295654296875,8.052001953125,1.1279296875,-3.267358064651489,2.259457349777222,2.060290813446045,56.19735717773438,101.0242004394531,-30.04148864746094
213250,-2.144851684570312,8.039047241210938,1.313980102539062,-2.870455503463745,1.891483306884766,0.3266350924968719,56.53785705566406,101.6671447753906,-30.29853820800781
213251,-2.144851684570312,8.039047241210938,1.313980102539062,-2.870455503463745,1.891483306884766,0.3266350924968719,56.53785705566406,101.6671447753906,-30.29853820800781
213252,-1.764968872070312,6.731918334960938,0.8154296875,-1.062522649765015,0.8822727799415588,-1.576825737953186,57.52066040039062,102.0498809814453,-29.49250793457031
213253,-0.509185791015625,1.590011596679688,0.4750823974609375,0.8799899220466614,-2.065402507781982,-1.167558550834656,57.67276000976562,102.1625061035156,-27.3250732421875
213254,-0.304229736328125,1.073471069335938,0.6416473388671875,1.195441126823425,-1.406405210494995,-0.6254729628562927,56.99684143066406,102.06298828125,-26.84097290039062
213255,-0.123931884765625,0.9838409423828124,0.5875244140625,0.7673038244247437,0.2760694026947021,0.2191509902477264,56.29190063476562,101.8592376708984,-27.09344482421875
213256,-0.025634765625,1.45654296875,0.170196533203125,0.1181125268340111,1.904049396514893,1.046357035636902,55.90869140625,101.7121734619141,-27.54417419433594
213257,0.04931640625,2.096832275390625,-0.98193359375,-0.0666597187519073,1.499097108840942,1.390584707260132,56.08798217773438,101.572265625,-27.94598388671875
213258,0.008148193359375,2.043609619140625,-0.045379638671875,0.2570379078388214,-0.4252673983573914,1.035615205764771,57.38246154785156,101.2661437988281,-27.96981811523438
213259,0.008148193359375,2.043609619140625,-0.045379638671875,0.2570379078388214,-0.4252673983573914,1.035615205764771,57.38246154785156,101.2661437988281,-27.96981811523438
213260,-0.0052947998046875,1.756698608398438,0.2108917236328125,0.3061623275279999,0.5052205920219421,0.959292471408844,57.92881774902344,101.0315093994141,-27.79866027832031
213261,-0.0101470947265625,1.479736328125,0.0797271728515625,0.1781931668519974,1.148165464401245,0.9498986601829528,58.51298522949219,100.857177734375,-27.79289245605469
213262,-0.037689208984375,1.212371826171875,-0.18408203125,0.0670466795563697,1.045729398727417,0.9363671541213988,59.30157470703125,100.5521392822266,-27.94889831542969
213263,-0.037689208984375,1.212371826171875,-0.18408203125,0.0670466795563697,1.045729398727417,0.9363671541213988,59.30157470703125,100.5521392822266,-27.94889831542969
213264,-0.1268768310546875,0.86767578125,-0.0369415283203125,0.4747031331062317,-0.1093965321779251,0.8327118754386902,60.85374450683594,99.8382568359375,-27.75724792480469
213265,-0.136138916015625,0.74609375,0.211883544921875,0.88898766040802,-0.0611680150032043,0.8660544157028198,61.45419311523438,99.6226806640625,-27.64894104003906
213266,-0.11773681640625,0.6366119384765625,0.307586669921875,1.491499662399292,0.7141122817993164,1.017793536186218,61.98086547851562,99.3975067138672,-27.84689331054688
213267,-0.11773681640625,0.6366119384765625,0.307586669921875,1.491499662399292,0.7141122817993164,1.017793536186218,61.98086547851562,99.3975067138672,-27.84689331054688
213268,-0.1347808837890625,0.430908203125,0.260467529296875,1.566812753677368,1.114017605781555,0.9750761985778807,63.10487365722656,98.75982666015624,-28.72035217285156
213269,-0.1506500244140625,0.307281494140625,0.2200927734375,1.511144995689392,1.412559032440186,0.8410068154335022,63.65513610839844,98.46067810058594,-29.37272644042969
213270,-0.1581878662109375,0.17608642578125,0.18267822265625,1.190981030464172,1.476414203643799,0.4729747474193573,64.21733093261719,98.24626159667967,-29.75274658203125
213271,-0.1581878662109375,0.17608642578125,0.18267822265625,1.190981030464172,1.476414203643799,0.4729747474193573,64.21733093261719,98.24626159667967,-29.75274658203125
213272,-0.151947021484375,-0.05108642578125,0.064300537109375,1.032430291175842,1.153047800064087,0.3058954775333405,65.54345703125,97.90870666503906,-30.43952941894531
213273,-0.1502685546875,-0.1280364990234375,0.0121917724609375,0.8976165652275085,0.5954378247261047,0.1895976215600967,65.96467590332031,97.65484619140624,-30.45166015625
213274,-0.182159423828125,-0.18597412109375,0.011505126953125,0.7975315451622009,0.0256976392120122,0.1548234075307846,66.31550598144531,97.62237548828124,-30.74594116210938
213275,-0.182159423828125,-0.18597412109375,0.011505126953125,0.7975315451622009,0.0256976392120122,0.1548234075307846,66.31550598144531,97.62237548828124,-30.74594116210938
213276,-0.235687255859375,-0.2664794921875,0.0806121826171875,0.6836129426956177,-0.6029273867607117,0.2093857079744339,66.79562377929688,97.64036560058594,-31.07379150390625
213277,-0.219696044921875,-0.2734375,0.1218109130859375,0.6292226910591125,-0.5974370241165161,0.2428331524133682,66.8719482421875,97.63264465332033,-31.39253234863281
213278,-0.1706085205078125,-0.2485198974609375,0.1546478271484375,0.5668764710426331,-0.1448234915733337,0.1845674514770508,66.9215087890625,97.63150024414062,-31.48606872558594
213279,-0.1706085205078125,-0.2485198974609375,0.1546478271484375,0.5668764710426331,-0.1448234915733337,0.1845674514770508,66.9215087890625,97.63150024414062,-31.48606872558594
213280,-0.074859619140625,-0.180511474609375,0.1761322021484375,0.5513910055160522,0.1321220844984055,0.0976969972252845,67.01817321777344,97.479248046875,-31.48249816894531
213281,-0.066650390625,-0.155517578125,0.16302490234375,0.5098904371261597,0.3262984752655029,-0.0214275270700454,67.11158752441406,97.3190460205078,-31.40426635742188
213282,-0.0949859619140625,-0.139007568359375,0.163848876953125,0.4287987649440765,0.459513783454895,-0.1615311056375504,67.26625061035156,97.16836547851562,-31.38636779785156
213283,-0.1569366455078125,-0.1166229248046875,0.177032470703125,0.2715084850788116,0.5840200185775757,-0.2956953048706055,67.27999877929688,97.02261352539062,-31.51556396484375
213284,-0.2189483642578125,-0.0507965087890625,0.215057373046875,-0.0637861713767051,0.8645910024642944,-0.3195039629936218,67.25340270996094,96.81796264648438,-31.75691223144531
213285,-0.21234130859375,0.0232086181640625,0.1759185791015625,-0.5458449721336365,1.08664858341217,-0.2343051731586456,67.22547912597656,96.76284790039062,-31.7044677734375
213286,-0.167388916015625,0.085113525390625,0.102447509765625,-0.9316906332969666,0.9100831151008606,-0.225868821144104,67.248046875,96.72068786621094,-31.61465454101562
213287,-0.167388916015625,0.085113525390625,0.102447509765625,-0.9316906332969666,0.9100831151008606,-0.225868821144104,67.248046875,96.72068786621094,-31.61465454101562
213288,-0.0101776123046875,0.0704803466796875,0.1040191650390625,-1.176312923431396,0.2870488166809082,-0.3707998991012573,67.18881225585938,96.84968566894533,-30.80422973632812
213289,0.0416412353515625,0.0355072021484375,0.1200103759765625,-1.081736326217651,0.1576508730649948,-0.4629996120929718,67.06492614746094,97.05697631835938,-30.19180297851562
213290,0.061279296875,0.02789306640625,0.128631591796875,-0.922164022922516,0.2177837193012238,-0.5391148924827576,66.89537048339844,97.29368591308594,-29.5809326171875
213291,0.061279296875,0.02789306640625,0.128631591796875,-0.922164022922516,0.2177837193012238,-0.5391148924827576,66.89537048339844,97.29368591308594,-29.5809326171875
213292,0.0707855224609375,0.0236968994140625,0.08636474609375,-0.4404050707817078,0.5914470553398132,-0.7524774670600891,66.2354736328125,97.71096801757812,-28.66767883300781
213293,0.076629638671875,0.021575927734375,0.023712158203125,-0.4404050707817078,0.5914470553398132,-0.7524774670600891,65.93641662597656,97.89454650878906,-28.37384033203125
213294,0.1010284423828125,0.021881103515625,-0.0953216552734375,-0.058175154030323,-0.1304759830236435,-0.7195272445678711,65.60757446289062,97.94190979003906,-27.88995361328125
213295,0.1010284423828125,0.021881103515625,-0.0953216552734375,-0.058175154030323,-0.1304759830236435,-0.7195272445678711,65.60757446289062,97.94190979003906,-27.88995361328125
213296,0.3509979248046875,0.0885162353515625,-0.9867401123046876,0.7074500918388367,-1.695818901062012,-0.4397265017032623,64.71540832519531,98.25375366210938,-27.4107666015625
213297,0.458343505859375,0.2239837646484375,-1.188491821289062,1.776991009712219,-4.145182132720947,-0.0996496304869651,64.14297485351562,98.35911560058594,-27.47151184082031
213298,0.4322052001953125,0.383544921875,-0.40155029296875,2.480428218841553,-5.592674255371094,0.0256805960088968,63.29324340820312,98.34359741210938,-28.09423828125
213299,0.4322052001953125,0.383544921875,-0.40155029296875,2.480428218841553,-5.592674255371094,0.0256805960088968,63.29324340820312,98.34359741210938,-28.09423828125
213300,0.5929412841796875,1.262557983398438,-0.4040374755859375,-1.098080396652222,0.563291072845459,-0.579668402671814,60.92866516113281,98.07658386230467,-31.15805053710938
213301,0.6004486083984375,2.216064453125,-0.499053955078125,-1.098080396652222,0.563291072845459,-0.579668402671814,60.13380432128906,97.96514892578124,-31.89448547363281
213302,0.4854888916015625,3.815277099609375,-0.587554931640625,-1.218728542327881,-0.6481391191482544,-2.211952447891235,59.80783081054688,97.8474578857422,-31.64932250976562
213303,0.4854888916015625,3.815277099609375,-0.587554931640625,-1.218728542327881,-0.6481391191482544,-2.211952447891235,59.80783081054688,97.8474578857422,-31.64932250976562
213304,0.5908203125,5.313980102539062,0.81878662109375,-1.252766132354736,-2.946047782897949,-5.430583953857422,58.0308837890625,98.63963317871094,-30.572265625
213305,0.187835693359375,6.061248779296875,1.130630493164062,-1.906211376190186,-1.892918944358826,-6.600123405456543,55.83273315429688,99.15524291992188,-30.25541687011719
213306,-1.25860595703125,4.528045654296875,0.9387359619140624,-2.171483278274536,-0.1519554406404495,-6.405414581298828,52.78265380859375,99.82925415039062,-29.90425109863281
213307,-1.25860595703125,4.528045654296875,0.9387359619140624,-2.171483278274536,-0.1519554406404495,-6.405414581298828,52.78265380859375,99.82925415039062,-29.90425109863281
213308,-2.483535766601562,1.434112548828125,-0.3385467529296875,0.2223606407642365,4.069743633270264,0.6123698949813843,47.21144104003906,101.197509765625,-29.88186645507812
213309,-1.179306030273438,1.164047241210938,-0.5295257568359375,1.516698718070984,1.856854438781738,1.203554630279541,46.99160766601562,101.3011474609375,-29.65953063964844
213310,-0.1454315185546875,1.90496826171875,-0.1409149169921875,-0.3291187584400177,-2.284336090087891,1.159125447273254,49.23173522949219,100.791748046875,-29.97270202636719
213311,-0.1454315185546875,1.90496826171875,-0.1409149169921875,-0.3291187584400177,-2.284336090087891,1.159125447273254,49.23173522949219,100.791748046875,-29.97270202636719
213312,0.0590057373046875,1.927688598632812,-0.41534423828125,-0.3291187584400177,-2.284336090087891,1.159125447273254,49.7750244140625,100.6097717285156,-30.41651916503906
213313,0.1114654541015625,1.991317749023438,-0.5020904541015625,-0.146617665886879,-2.892680644989014,1.361019134521484,49.98802185058594,100.5590362548828,-30.47573852539062
213314,0.0613250732421875,2.036666870117188,-0.1793975830078125,0.2057654112577438,-2.21518349647522,1.272624254226685,49.85972595214844,100.6798706054688,-30.41531372070312
213315,0.0613250732421875,2.036666870117188,-0.1793975830078125,0.2057654112577438,-2.21518349647522,1.272624254226685,49.85972595214844,100.6798706054688,-30.41531372070312
213316,-0.063934326171875,1.853591918945312,-0.3090972900390625,0.4123726487159729,0.8096268177032471,0.7330947518348694,49.94921875,100.9080200195312,-30.17890930175781
213317,-0.2283477783203125,1.839920043945312,-0.212127685546875,0.4409017562866211,0.8771547079086304,0.6477377414703369,50.38768005371094,100.8326721191406,-30.34326171875
213318,-0.3163909912109375,1.754638671875,-0.008941650390625,0.3197516202926636,0.9941052794456482,0.500679612159729,51.05900573730469,100.6860656738281,-30.43405151367188
213319,-0.3163909912109375,1.754638671875,-0.008941650390625,0.3197516202926636,0.9941052794456482,0.500679612159729,51.05900573730469,100.6860656738281,-30.43405151367188
213320,-0.3212432861328125,1.298233032226562,0.1853485107421875,0.0376523025333881,1.237084865570068,0.1472451090812683,52.56694030761719,100.3319854736328,-30.82255554199219
213321,-0.3250579833984375,1.039520263671875,0.2388763427734375,0.3250739574432373,0.9395230412483216,0.2032252848148346,53.21548461914062,100.117431640625,-30.974853515625
213322,-0.328826904296875,0.7766876220703125,0.1768035888671875,0.8226339221000671,0.4423124492168427,0.3368326127529144,53.87052917480469,99.97789001464844,-30.9783935546875
213323,-0.300506591796875,0.56524658203125,0.1335296630859375,0.8226339221000671,0.4423124492168427,0.3368326127529144,54.50985717773438,99.76272583007812,-30.96673583984375
213324,-0.2478790283203125,0.4282073974609375,0.1420440673828125,1.307466983795166,0.0043183155357837,0.4500579833984375,55.089599609375,99.46324157714844,-30.97489929199219
213325,-0.1872100830078125,0.336944580078125,0.1793365478515625,1.527312994003296,-0.250793069601059,0.5249985456466675,55.51187133789062,99.18138122558594,-31.18180847167969
213326,-0.1231842041015625,0.2479248046875,0.194244384765625,1.527312994003296,-0.250793069601059,0.5249985456466675,55.75927734375,98.96266174316406,-31.68800354003906
213327,-0.0609130859375,0.150146484375,0.1798248291015625,1.309476613998413,-0.1887206435203552,0.5450395941734314,55.94943237304688,98.76239013671876,-32.40994262695312
213328,-0.0268096923828125,0.063995361328125,0.1456146240234375,1.017914533615112,-0.0879692733287811,0.5720898509025574,56.11932373046875,98.4971923828125,-33.05439758300781
213329,-0.0044403076171875,-0.01715087890625,0.1016693115234375,0.7382399439811707,0.0154026579111814,0.5894834995269775,56.21028137207031,98.31243896484376,-33.74996948242188
213330,0.010833740234375,-0.07550048828125,0.044708251953125,0.5323909521102905,0.0952114686369895,0.6030557751655579,56.43669128417969,98.13029479980467,-34.31338500976562
213331,0.010833740234375,-0.07550048828125,0.044708251953125,0.5323909521102905,0.0952114686369895,0.6030557751655579,56.43669128417969,98.13029479980467,-34.31338500976562
213332,0.0065155029296875,-0.1206207275390625,-0.0980987548828125,0.3038070201873779,0.0836307108402252,0.6438431739807129,56.78114318847656,98.0428466796875,-34.84060668945312
213333,0.009246826171875,-0.2069091796875,-0.3095703125,0.3034214079380035,-0.3552334606647491,0.7447191476821899,57.03684997558594,97.86390686035156,-34.7701416015625
213334,-0.0229339599609375,-0.279632568359375,-0.259765625,0.2882331311702728,-0.9089267253875732,0.9096980094909668,57.22129821777344,97.85850524902344,-34.86280822753906
213335,-0.0229339599609375,-0.279632568359375,-0.259765625,0.2882331311702728,-0.9089267253875732,0.9096980094909668,57.22129821777344,97.85850524902344,-34.86280822753906
213336,-0.072418212890625,-0.3086395263671875,0.1848297119140625,0.1892724484205246,-0.4586075246334076,1.244685888290405,57.7969970703125,97.78485107421876,-34.7784423828125
213337,-0.05126953125,-0.2676544189453125,0.2149200439453125,0.3212222456932068,0.0921400487422943,1.325899720191956,58.19816589355469,97.65708923339844,-34.69294738769531
213338,-0.0289306640625,-0.2148284912109375,0.1837615966796875,0.5253061056137085,0.4907318949699402,1.299538969993591,58.77458190917969,97.49221801757812,-34.5904541015625
213339,-0.024383544921875,-0.1730194091796875,0.1377105712890625,0.6626735925674438,0.7191917300224304,1.18974506855011,59.48269653320312,97.2902374267578,-34.48538208007812
213340,-0.0260009765625,-0.1426544189453125,0.0918426513671875,0.6496621370315552,0.8162239789962769,1.051266551017761,60.28924560546875,97.0417938232422,-34.512451171875
213341,-0.0222930908203125,-0.1156463623046875,0.0576171875,0.5116015076637268,0.8158383369445801,0.8936082720756531,61.1280517578125,96.64967346191406,-34.42953491210938
213342,-0.019775390625,-0.10223388671875,0.0268096923828125,0.2921431660652161,0.7316976189613342,0.7187251448631287,61.88056945800781,96.39176940917967,-34.36811828613281
213343,-0.0184173583984375,-0.0963897705078125,0.00750732421875,0.0168708581477403,0.5823624730110168,0.5452060699462891,62.53746032714844,96.20130920410156,-34.26699829101562
213344,-0.0142364501953125,-0.1012115478515625,-0.0096282958984375,-0.2900882959365845,0.3726342916488647,0.3712973892688751,63.16972351074219,96.03346252441406,-34.13742065429688
213345,-0.004058837890625,-0.1149749755859375,-0.0481414794921875,-0.5794756412506104,0.1094327494502068,0.2180479168891907,63.69696044921875,95.90162658691406,-33.755615234375
213346,0.006683349609375,-0.131866455078125,-0.0897369384765625,-0.9916682243347168,-0.5870786905288696,-0.0317898876965045,64.09774780273438,95.64012145996094,-33.3297119140625
213347,0.006683349609375,-0.131866455078125,-0.0897369384765625,-0.9916682243347168,-0.5870786905288696,-0.0317898876965045,64.09774780273438,95.64012145996094,-33.3297119140625
213348,0.0332489013671875,-0.177520751953125,-0.210296630859375,-1.095300316810608,-1.043774008750916,-0.1224761158227921,64.64442443847656,95.58761596679688,-32.40374755859375
213349,0.056365966796875,-0.19927978515625,-0.3031463623046875,-1.121648550033569,-1.621575117111206,-0.180347666144371,64.59429931640625,95.70135498046876,-31.85691833496094
213350,0.0901336669921875,-0.20556640625,-0.3783416748046875,-1.091686964035034,-2.30307674407959,-0.2139719426631927,64.57652282714844,95.72352600097656,-31.44715881347656
213351,0.1287994384765625,-0.1360321044921875,-0.369415283203125,-1.064805865287781,-2.895654439926147,-0.2525054812431335,64.33219909667969,95.791259765625,-31.01481628417969
213352,0.1559906005859375,0.0813751220703125,-0.1728973388671875,-1.138307452201843,-2.597592115402222,-0.3481443822383881,63.98658752441406,95.89620971679688,-30.60621643066406
213353,0.1164398193359375,0.2581787109375,-0.2592620849609375,-0.7479591965675354,-0.5723804235458374,-0.2873162031173706,63.47349548339844,96.0985870361328,-30.43714904785156
213354,0.0871734619140625,0.2974090576171875,-0.4772796630859375,-0.3688579201698303,-0.3684893548488617,-0.2979089319705963,62.91677856445312,96.42034912109376,-30.27012634277344
213355,0.0871734619140625,0.2974090576171875,-0.4772796630859375,-0.3688579201698303,-0.3684893548488617,-0.2979089319705963,62.91677856445312,96.42034912109376,-30.27012634277344
213356,0.0760345458984375,0.307891845703125,0.118255615234375,-0.3257299065589905,0.0700121074914932,-0.332716166973114,61.89498901367188,97.19110107421876,-29.79031372070312
213357,0.0544586181640625,0.3260498046875,0.4748077392578125,-0.6831634044647217,0.7180971503257751,-0.4267302751541138,61.30136108398438,97.45401000976562,-29.54704284667969
213358,0.0190582275390625,0.3875732421875,0.6929779052734375,-1.305819034576416,1.436871290206909,-0.5684091448783875,60.60116577148438,97.92984008789062,-29.58303833007812
213359,0.0190582275390625,0.3875732421875,0.6929779052734375,-1.305819034576416,1.436871290206909,-0.5684091448783875,60.60116577148438,97.92984008789062,-29.58303833007812
213360,-0.08258056640625,3.049514770507812,1.126846313476562,-3.80942702293396,1.83913242816925,-1.275447249412537,59.35467529296875,98.7519073486328,-29.83505249023438
213361,-0.3462371826171875,7.37445068359375,1.120651245117188,-4.671479225158691,0.8091511726379395,-0.8247631192207336,58.66091918945312,99.32608032226562,-29.56817626953125
213362,-1.483871459960938,8.129913330078125,1.055084228515625,-3.34088134765625,-1.137054204940796,-0.1088870689272881,58.0018310546875,100.187255859375,-29.31660461425781
213363,-2.105010986328125,7.393524169921875,1.514801025390625,-0.6507282257080078,-1.178357481956482,-1.606755137443542,57.59712219238281,101.1324615478516,-28.82743835449219
213364,-0.8980255126953125,3.899826049804688,0.9152374267578124,1.093266248703003,-0.9360321164131165,-1.328814268112183,57.28581237792969,101.7315673828125,-27.94570922851562
213365,-0.4282379150390625,1.553314208984375,0.5165252685546875,1.409820795059204,0.0845042318105697,-0.6131944060325623,57.02455139160156,101.8590240478516,-27.15676879882812
213366,-0.2186126708984375,0.683441162109375,0.15240478515625,0.6618866324424744,2.028554916381836,0.3003952503204346,56.49209594726562,101.9010009765625,-26.80070495605469
213367,-0.2186126708984375,0.683441162109375,0.15240478515625,0.6618866324424744,2.028554916381836,0.3003952503204346,56.49209594726562,101.9010009765625,-26.80070495605469
213368,-0.0190582275390625,1.3544921875,-1.563873291015625,0.5742275714874268,0.1425733864307404,1.080263614654541,55.95997619628906,101.5407867431641,-27.11483764648438
213369,-0.06500244140625,2.02978515625,-0.6652984619140625,0.7843877673149109,-0.557994544506073,1.029530167579651,56.44105529785156,101.2836151123047,-26.9176025390625
213370,-0.0146942138671875,2.2703857421875,-0.1832427978515625,0.8746060729026794,0.4730048477649689,0.8176458477973938,57.03993225097656,101.0223541259766,-26.95346069335938
213371,-0.0146942138671875,2.2703857421875,-0.1832427978515625,0.8746060729026794,0.4730048477649689,0.8176458477973938,57.03993225097656,101.0223541259766,-26.95346069335938
213372,0.1432647705078125,1.879837036132812,-0.2636566162109375,0.9125715494155884,0.4181176126003265,0.8625624775886536,57.86026000976562,100.6797027587891,-27.6082763671875
213373,0.073089599609375,1.69134521484375,-0.160736083984375,0.9711185097694396,0.3117158114910126,0.9621582627296448,58.47598266601562,100.4308776855469,-28.025390625
213374,0.023284912109375,1.60162353515625,-0.0581207275390625,1.014636397361755,0.2509134411811829,0.9513197541236876,59.74116516113281,99.69662475585938,-28.938720703125
213375,0.023284912109375,1.60162353515625,-0.0581207275390625,1.014636397361755,0.2509134411811829,0.9513197541236876,59.74116516113281,99.69662475585938,-28.938720703125
213376,0.0519256591796875,1.255386352539062,0.0776214599609375,0.8893413543701172,0.0523646697402,0.820542573928833,61.03300476074219,99.02838134765624,-29.57852172851562
213377,0.043548583984375,1.04608154296875,0.159393310546875,0.8489547371864319,0.1488661766052246,0.768163800239563,61.57933044433594,98.72702026367188,-30.00578308105469
213378,0.0504913330078125,0.82916259765625,0.172821044921875,0.8302851915359497,0.3168003261089325,0.7517853379249573,62.09756469726562,98.50425720214844,-30.58236694335938
213379,0.0504913330078125,0.82916259765625,0.172821044921875,0.8302851915359497,0.3168003261089325,0.7517853379249573,62.09756469726562,98.50425720214844,-30.58236694335938
213380,0.032562255859375,0.4813995361328125,0.0986785888671875,0.8787262439727783,0.435943216085434,0.7546921968460083,63.04293823242188,98.10275268554688,-31.20671081542969
213381,0.00775146484375,0.311431884765625,0.0615386962890625,0.9779950380325316,0.3165118992328644,0.7510902285575867,63.47116088867188,97.86360168457033,-31.419677734375
213382,-0.0287322998046875,0.1842193603515625,0.0781402587890625,1.11488151550293,0.2088413685560226,0.7316044569015503,64.01809692382812,97.58757019042967,-31.71711730957031
213383,-0.0287322998046875,0.1842193603515625,0.0781402587890625,1.11488151550293,0.2088413685560226,0.7316044569015503,64.01809692382812,97.58757019042967,-31.71711730957031
213384,-0.0670013427734375,-0.0055389404296875,0.0687255859375,1.25806713104248,0.0664458721876144,0.5829685926437378,64.84712219238281,97.06617736816406,-32.42292785644531
213385,-0.0606842041015625,-0.0753173828125,0.0221405029296875,1.242115616798401,-0.1001380532979965,0.4961943030357361,65.22451782226562,96.84228515625,-32.94007873535156
213386,-0.0478973388671875,-0.117889404296875,0.0084228515625,1.190341711044312,-0.3345116674900055,0.426707923412323,65.4967041015625,96.47091674804688,-33.41773986816406
213387,-0.0478973388671875,-0.117889404296875,0.0084228515625,1.190341711044312,-0.3345116674900055,0.426707923412323,65.4967041015625,96.47091674804688,-33.41773986816406
213388,-0.03662109375,-0.1153564453125,0.0417022705078125,1.031246542930603,-0.6566343307495117,0.3101706504821777,65.84439086914062,95.99935913085938,-34.53924560546875
213389,-0.0324249267578125,-0.1192779541015625,0.04388427734375,0.942032516002655,-0.7286317944526672,0.2457104325294495,65.92228698730469,95.67115783691406,-35.0196533203125
213390,-0.0398101806640625,-0.1317291259765625,0.08233642578125,0.80223149061203,-0.6950253844261169,0.1772243082523346,65.94764709472656,95.5960693359375,-35.59049987792969
213391,-0.063201904296875,-0.166748046875,0.1441802978515625,0.613283634185791,-0.4474360942840576,0.1218039318919182,65.95355224609375,95.39016723632812,-35.889404296875
213392,-0.0850677490234375,-0.199188232421875,0.1946868896484375,0.2099050283432007,0.6092670559883118,0.1235381811857224,65.90269470214844,95.36709594726562,-36.18463134765625
213393,-0.1004638671875,-0.2332611083984375,0.2054901123046875,0.2099050283432007,0.6092670559883118,0.1235381811857224,66.02677917480469,95.4016571044922,-36.21272277832031
213394,-0.095794677734375,-0.2501068115234375,0.1510467529296875,0.0298673510551452,1.416569709777832,0.1666691452264786,66.34051513671875,95.33929443359376,-36.04646301269531
213395,-0.095794677734375,-0.2501068115234375,0.1510467529296875,0.0298673510551452,1.416569709777832,0.1666691452264786,66.34051513671875,95.33929443359376,-36.04646301269531
213396,-0.088348388671875,-0.2860565185546875,0.0483245849609375,-0.0120795657858252,1.542466163635254,0.167700320482254,67.31587219238281,95.01901245117188,-34.74397277832031
213397,-0.0972900390625,-0.3030242919921875,0.040924072265625,-0.0806812644004821,1.574742317199707,0.1527959406375885,67.87532043457031,94.74697875976562,-33.85826110839844
213398,-0.1017913818359375,-0.303985595703125,0.022125244140625,-0.1884793639183044,1.514335751533508,0.1005076989531517,68.55421447753906,94.51025390625,-33.18211364746094
213399,-0.1087188720703125,-0.2866668701171875,0.0010223388671875,-0.3190605342388153,1.357102990150452,-0.0091434307396411,69.05763244628906,94.12619018554688,-32.60716247558594
213400,-0.1150665283203125,-0.2722930908203125,-0.0068359375,-0.4508899450302124,1.163901209831238,-0.1780371069908142,69.40560913085938,93.80560302734376,-31.71360778808594
213401,-0.09661865234375,-0.24609375,-0.0211639404296875,-0.5749674439430237,0.991516411304474,-0.3754156827926636,69.68861389160156,93.501708984375,-30.981689453125
213402,-0.04754638671875,-0.2191314697265625,-0.07733154296875,-0.6913062930107117,0.7863321304321289,-0.5561396479606628,69.88047790527344,93.30162048339844,-30.28837585449219
213403,-0.04754638671875,-0.2191314697265625,-0.07733154296875,-0.6913062930107117,0.7863321304321289,-0.5561396479606628,69.88047790527344,93.30162048339844,-30.28837585449219
213404,0.11956787109375,-0.157135009765625,-0.34588623046875,-0.8123096823692322,-0.2383087128400803,-0.7729830145835876,69.61264038085938,93.35816955566406,-29.22308349609375
213405,0.1970977783203125,-0.04205322265625,-0.51080322265625,-0.722591757774353,-1.213508725166321,-0.8265743851661682,69.30680847167969,93.50466918945312,-28.88511657714844
213406,0.212310791015625,0.0780181884765625,-0.573486328125,-0.5431106686592102,-2.445190668106079,-0.874407947063446,68.77850341796875,93.95729064941406,-28.919677734375
213407,0.1963043212890625,0.153564453125,-0.31640625,-0.4174171984195709,-3.383790254592896,-0.9476302266120912,67.92256164550781,94.52313232421876,-28.99005126953125
213408,0.17047119140625,0.19158935546875,0.11767578125,-0.5029430389404297,-3.377402067184448,-1.074019551277161,66.82333374023438,95.0946044921875,-29.39224243164062
213409,0.159149169921875,0.261016845703125,0.530548095703125,-0.7538458108901978,-2.149466037750244,-1.195461273193359,65.54666137695312,95.9580078125,-30.16197204589844
213410,0.147491455078125,0.3423309326171875,0.7243499755859375,-1.019308924674988,-0.1687698364257812,-1.279488801956177,63.92741394042969,96.71485900878906,-30.72724914550781
213411,0.16326904296875,0.49407958984375,0.753936767578125,-1.46134889125824,1.279453158378601,-1.414440035820007,62.44053649902344,97.43719482421876,-31.02459716796875
213412,0.299041748046875,1.6055908203125,0.9987945556640624,-2.731318712234497,0.7205600142478943,-2.505027532577515,61.19900512695312,98.00666809082033,-30.86529541015625
213413,0.5631561279296875,5.641098022460938,-0.214569091796875,-2.731318712234497,0.7205600142478943,-2.505027532577515,60.11972045898438,98.5674285888672,-30.11546325683594
213414,0.460113525390625,8.205474853515625,-0.55328369140625,-2.132202863693237,-4.130417823791504,-3.977004766464233,58.82412719726562,99.60145568847656,-29.51602172851562
213415,0.460113525390625,8.205474853515625,-0.55328369140625,-2.132202863693237,-4.130417823791504,-3.977004766464233,58.82412719726562,99.60145568847656,-29.51602172851562
213416,-1.497909545898438,4.805694580078125,1.8963623046875,-1.650264739990234,-0.2219784706830978,-4.78896427154541,54.44224548339844,101.6798400878906,-29.99844360351562
213417,-1.858322143554688,0.500213623046875,0.39923095703125,-0.5907831192016602,4.028619766235352,-2.069427967071533,52.55267333984375,102.3106231689453,-29.86068725585938
213418,-0.8828582763671875,-0.1043548583984375,-1.051864624023438,1.059948444366455,4.110148429870605,0.4109736979007721,51.49722290039062,102.4721374511719,-29.30068969726562
213419,-0.8828582763671875,-0.1043548583984375,-1.051864624023438,1.059948444366455,4.110148429870605,0.4109736979007721,51.49722290039062,102.4721374511719,-29.30068969726562
213420,-0.0104827880859375,1.445404052734375,-1.027694702148438,1.937153577804565,-0.4889345467090607,1.786324381828308,52.45310974121094,101.8113708496094,-29.06385803222656
213421,0.130950927734375,1.772445678710938,-0.6281890869140625,1.022641062736511,-2.06653618812561,1.572289824485779,53.35783386230469,101.3838958740234,-29.82267761230469
213422,0.2187347412109375,1.763839721679688,0.0279083251953125,0.3789819478988647,-2.36469292640686,1.566196799278259,53.97468566894531,101.1780395507812,-30.72630310058594
213423,0.2187347412109375,1.763839721679688,0.0279083251953125,0.3789819478988647,-2.36469292640686,1.566196799278259,53.97468566894531,101.1780395507812,-30.72630310058594
213424,0.305511474609375,1.677871704101562,0.08917236328125,-0.2822276949882507,-0.7819826602935791,1.494232535362244,54.49476623535156,100.8684387207031,-31.31520080566406
213425,0.2720489501953125,1.596481323242188,-0.1636199951171875,-0.2945379018783569,-0.3618309199810028,1.21108603477478,54.90653991699219,100.8518371582031,-31.11282348632812
213426,0.1603546142578125,1.384872436523438,-0.2480926513671875,-0.0387418046593666,-0.4269310832023621,0.805681586265564,55.46170043945312,100.744140625,-30.79544067382812
213427,0.1603546142578125,1.384872436523438,-0.2480926513671875,-0.0387418046593666,-0.4269310832023621,0.805681586265564,55.46170043945312,100.744140625,-30.79544067382812
213428,-0.200439453125,0.986053466796875,0.021484375,0.7303977608680725,-0.3588729500770569,0.5379827618598938,56.56793212890625,100.2673492431641,-30.74974060058594
213429,-0.2358551025390625,0.82977294921875,0.03289794921875,0.9784563183784484,-0.2942912876605988,0.4966118931770325,57.00680541992188,99.95289611816406,-31.02239990234375
213430,-0.236236572265625,0.6699066162109375,0.0612335205078125,1.044742941856384,-0.2585996091365814,0.499259889125824,57.30400085449219,99.77780151367188,-31.44161987304688
213431,-0.236236572265625,0.6699066162109375,0.0612335205078125,1.044742941856384,-0.2585996091365814,0.499259889125824,57.30400085449219,99.77780151367188,-31.44161987304688
213432,-0.134002685546875,0.43426513671875,0.1489410400390625,0.8905072808265686,-0.1291593164205551,0.4942496716976166,57.96327209472656,99.19883728027344,-32.42889404296875
213433,-0.05010986328125,0.3385467529296875,0.1162109375,0.6915278434753418,-0.0478141270577907,0.4944400787353516,58.18601989746094,98.9281005859375,-32.83209228515625
213434,-0.0062103271484375,0.267242431640625,0.0881195068359375,0.5187252163887024,0.0009978864109143,0.4896847605705261,58.38494873046875,98.89088439941406,-33.24099731445312
213435,-0.0062103271484375,0.267242431640625,0.0881195068359375,0.5187252163887024,0.0009978864109143,0.4896847605705261,58.38494873046875,98.89088439941406,-33.24099731445312
213436,-0.04193115234375,0.14508056640625,0.046234130859375,0.3932498097419739,0.0863607227802276,0.4400365054607391,58.82257080078125,98.54356384277344,-33.74378967285156
213437,-0.10589599609375,0.11224365234375,0.0349884033203125,0.4278722405433655,0.1218406856060028,0.3901152908802032,58.98211669921875,98.51699829101562,-33.96833801269531
213438,-0.1831512451171875,0.1271209716796875,0.065185546875,0.5070725083351135,0.1899406462907791,0.3008802235126495,59.10830688476562,98.46403503417967,-34.19554138183594
213439,-0.1831512451171875,0.1271209716796875,0.065185546875,0.5070725083351135,0.1899406462907791,0.3008802235126495,59.10830688476562,98.46403503417967,-34.19554138183594
213440,-0.241546630859375,0.1682891845703125,0.263458251953125,0.5833244323730469,0.7138392925262451,0.0382435247302055,59.40516662597656,98.36000061035156,-34.60867309570312
213441,-0.2173004150390625,0.153106689453125,0.2676849365234375,0.5226299166679382,1.024938344955444,-0.0586071200668811,59.55563354492188,98.1243896484375,-34.88087463378906
213442,-0.197662353515625,0.131011962890625,0.2085418701171875,0.4204699993133545,1.183066487312317,-0.1241339296102524,59.72663879394531,97.94032287597656,-35.0562744140625
213443,-0.197662353515625,0.131011962890625,0.2085418701171875,0.4204699993133545,1.183066487312317,-0.1241339296102524,59.72663879394531,97.94032287597656,-35.0562744140625
213444,-0.1519775390625,0.0408172607421875,0.039886474609375,0.2525387704372406,1.036718010902405,-0.2510719001293182,60.087158203125,97.66950988769533,-35.4398193359375
213445,-0.117401123046875,-0.0228424072265625,-0.005035400390625,0.2023709416389465,0.8251751065254211,-0.2893881499767303,60.31228637695312,97.65690612792967,-35.529052734375
213446,-0.092254638671875,-0.0880126953125,-0.014984130859375,-0.0023795343004167,0.5088430047035217,-0.2408869117498398,60.35684204101562,97.63568115234376,-35.46084594726562
213447,-0.092254638671875,-0.0880126953125,-0.014984130859375,-0.0023795343004167,0.5088430047035217,-0.2408869117498398,60.35684204101562,97.63568115234376,-35.46084594726562
213448,-0.0447235107421875,-0.15582275390625,-0.035430908203125,-0.17117840051651,0.4469119906425476,-0.175228014588356,60.38908386230469,97.57119750976562,-35.39582824707031
213449,-0.0325927734375,-0.15185546875,-0.0528564453125,-0.3797308206558228,0.4717829823493958,-0.1017772257328033,60.38850402832031,97.56625366210938,-35.43070983886719
213450,-0.01519775390625,-0.144989013671875,-0.0990142822265625,-0.6995090842247009,0.3399511873722076,0.0406339801847934,60.3514404296875,97.67019653320312,-35.35652160644531
213451,-0.01519775390625,-0.144989013671875,-0.0990142822265625,-0.6995090842247009,0.3399511873722076,0.0406339801847934,60.3514404296875,97.67019653320312,-35.35652160644531
213452,0.02349853515625,-0.1259613037109375,-0.192169189453125,-0.7899779677391052,0.0807220116257667,0.0828133895993232,60.42529296875,97.8469696044922,-34.3316650390625
213453,0.0353851318359375,-0.1231842041015625,-0.1900634765625,-0.8565881848335266,-0.190829336643219,0.1142972782254219,60.58741760253906,97.89837646484376,-33.63554382324219
213454,0.052978515625,-0.1079254150390625,-0.1586151123046875,-0.929858148097992,-0.6196200847625732,0.1564798802137375,60.74131774902344,98.1693115234375,-32.31021118164062
213455,0.052978515625,-0.1079254150390625,-0.1586151123046875,-0.929858148097992,-0.6196200847625732,0.1564798802137375,60.74131774902344,98.1693115234375,-32.31021118164062
213456,0.0542144775390625,-0.0922393798828125,-0.1272125244140625,-0.9366894364356996,-0.6975972056388855,0.1526944637298584,60.82363891601562,98.30194091796876,-31.6553955078125
213457,0.0622406005859375,-0.0821685791015625,-0.143310546875,-0.9054939150810242,-0.7336170077323914,0.1418586075305939,60.80978393554688,98.4811553955078,-31.09205627441406
213458,0.0782318115234375,-0.0516357421875,-0.1829986572265625,-0.7898368239402771,-0.980001986026764,0.0270188339054584,60.69342041015625,98.53485107421876,-30.5958251953125
213459,0.0782318115234375,-0.0516357421875,-0.1829986572265625,-0.7898368239402771,-0.980001986026764,0.0270188339054584,60.69342041015625,98.53485107421876,-30.5958251953125
213460,0.07403564453125,0.1226959228515625,-0.118194580078125,-0.7577542662620544,-1.04745614528656,-0.0562206618487834,60.65557861328125,98.8847198486328,-29.68838500976562
213461,0.07318115234375,0.1517181396484375,-0.0482635498046875,-0.7359920144081116,-1.024767637252808,-0.133277103304863,60.37757873535156,99.01504516601562,-29.3951416015625
213462,0.0868988037109375,0.2113494873046875,0.0444793701171875,-0.6837559342384338,-0.96086585521698,-0.2534594237804413,60.02853393554688,99.18019104003906,-29.0692138671875
213463,0.1064910888671875,0.3509368896484375,0.3533935546875,-0.6786112785339355,-0.552010715007782,-0.4265076518058777,59.6295166015625,99.24879455566406,-28.95921325683594
213464,0.141204833984375,0.608734130859375,0.781494140625,-0.9121622443199158,0.6164818406105042,-0.6212616562843323,59.04118347167969,99.54029846191406,-28.70297241210938
213465,0.331939697265625,2.502761840820312,0.9845733642578124,-1.35567045211792,2.235299587249756,-0.639133095741272,58.36083984375,100.0306091308594,-28.76040649414062
213466,0.286407470703125,4.8878173828125,0.800537109375,-2.137169361114502,1.095816969871521,-0.1799266189336777,57.67425537109375,100.5095672607422,-28.93344116210938
213467,0.286407470703125,4.8878173828125,0.800537109375,-2.137169361114502,1.095816969871521,-0.1799266189336777,57.67425537109375,100.5095672607422,-28.93344116210938
213468,-1.148147583007812,7.885833740234375,0.8317718505859375,-1.591509103775024,-0.9843828678131104,-1.645932078361511,57.34771728515625,101.4073944091797,-28.55326843261719
213469,-1.039199829101562,5.216323852539062,1.108856201171875,-0.6991812586784363,-1.51533567905426,-2.439924240112305,57.49726867675781,101.6466217041016,-27.9625244140625
213470,-0.6038055419921875,2.516738891601562,0.427581787109375,0.0476820357143878,-2.033408164978027,-2.254498720169067,57.23358154296875,101.6404418945312,-27.38429260253906
213471,-0.6038055419921875,2.516738891601562,0.427581787109375,0.0476820357143878,-2.033408164978027,-2.254498720169067,57.23358154296875,101.6404418945312,-27.38429260253906
213472,-0.3172607421875,1.12353515625,-0.26513671875,1.133425116539001,-2.832248449325562,-1.331981897354126,55.29731750488281,101.8268737792969,-26.5897216796875
213473,-0.72210693359375,1.063507080078125,-0.443634033203125,1.156767725944519,-0.8857199549674988,-0.4518870413303375,53.84677124023438,102.08642578125,-26.87126159667969
213474,-0.777740478515625,1.534011840820312,-2.02557373046875,0.6404460072517395,0.0850405916571617,0.804790735244751,52.601806640625,102.3131713867188,-27.50613403320312
213475,-0.777740478515625,1.534011840820312,-2.02557373046875,0.6404460072517395,0.0850405916571617,0.804790735244751,52.601806640625,102.3131713867188,-27.50613403320312
213476,-0.1957550048828125,1.825775146484375,-0.276611328125,0.8666344285011292,0.5047153830528259,0.6446990966796875,52.23478698730469,102.2130584716797,-28.54249572753906
213477,-0.1548004150390625,1.641326904296875,-0.2544403076171875,0.9932219386100768,0.9996007084846495,0.7503302097320557,52.78166198730469,101.9183197021484,-28.81825256347656
213478,-0.1246490478515625,1.505325317382812,-0.4286346435546875,0.9932219386100768,0.9996007084846495,0.7503302097320557,53.35565185546875,101.6249084472656,-28.99899291992188
