time_idx,accelerometerAccelerationX(G),accelerometerAccelerationY(G),accelerometerAccelerationZ(G),gyroRotationX(rad/s),gyroRotationY(rad/s),gyroRotationZ(rad/s),magnetometerX(µT),magnetometerY(µT),magnetometerZ(µT)
265328,-0.5426025390625,1.253829956054688,-0.4804840087890625,0.3491470813751221,0.24397112429142,-0.0685111507773399,20.63980102539062,85.31401062011719,5.286209106445312
265329,-0.5426025390625,1.253829956054688,-0.4804840087890625,0.3491470813751221,0.24397112429142,-0.0685111507773399,20.63980102539062,85.31401062011719,5.286209106445312
265330,-0.626953125,1.392303466796875,-0.167236328125,0.1526816934347153,1.259309530258179,-0.2134707421064377,20.48957824707031,85.43894958496094,4.976104736328125
265331,-0.6389312744140625,1.532424926757812,-0.0959930419921875,-0.1514244079589844,1.660052180290222,-0.3125131726264954,20.2681884765625,85.49154663085938,4.602264404296875
265332,-0.619232177734375,1.7247314453125,-0.085174560546875,-0.4262740910053253,1.690672397613525,-0.270436555147171,19.94161987304688,85.40509033203125,4.126907348632812
265333,-0.619232177734375,1.7247314453125,-0.085174560546875,-0.4262740910053253,1.690672397613525,-0.270436555147171,19.94161987304688,85.40509033203125,4.126907348632812
265334,-0.8220367431640625,2.4798583984375,0.2265777587890625,-0.6875613331794739,1.129847645759583,-0.030059365555644,19.08895874023438,85.0615234375,3.053146362304688
265335,-1.06475830078125,3.179901123046875,0.4974212646484375,-0.5156508088111877,1.070210933685303,-0.0433679819107055,18.63539123535156,84.88348388671875,2.445526123046875
265336,-1.423324584960938,4.01922607421875,0.644805908203125,-0.0847439169883728,1.221556067466736,-0.2674828469753265,18.25834655761719,84.76629638671875,1.933120727539062
265337,-1.423324584960938,4.01922607421875,0.644805908203125,-0.0847439169883728,1.221556067466736,-0.2674828469753265,18.25834655761719,84.76629638671875,1.933120727539062
265338,-2.343978881835938,4.529556274414062,0.510101318359375,0.6593736410140991,1.275221943855286,-1.027036666870117,17.22929382324219,84.70233154296875,0.7571868896484375
265339,-2.950531005859375,3.426284790039062,0.34881591796875,0.3333438634872437,2.426476240158081,-0.5886800289154053,16.54306030273438,84.62547302246094,-0.0980072021484375
265340,-2.830459594726562,2.270599365234375,-0.233978271484375,0.3312849998474121,2.645908832550049,-0.0747424140572547,15.77986145019531,84.43417358398438,-1.240280151367188
265341,-2.830459594726562,2.270599365234375,-0.233978271484375,0.3312849998474121,2.645908832550049,-0.0747424140572547,15.77986145019531,84.43417358398438,-1.240280151367188
265342,-1.807601928710938,0.7537841796875,0.0247039794921875,0.7645282745361328,0.8388906717300415,0.2309471964836121,14.63082885742188,84.58390808105469,-3.537979125976562
265343,-1.412673950195312,0.410736083984375,0.0559539794921875,0.6097874641418457,0.2662122547626495,0.5497933626174927,14.59288024902344,84.920654296875,-4.479904174804688
265344,-0.8187103271484375,0.416046142578125,0.1804962158203125,0.8489052057266235,-0.1119001656770706,0.9765641093254088,14.87083435058594,85.48823547363281,-5.522003173828125
265345,-0.8187103271484375,0.416046142578125,0.1804962158203125,0.8489052057266235,-0.1119001656770706,0.9765641093254088,14.87083435058594,85.48823547363281,-5.522003173828125
265346,-0.60699462890625,0.491485595703125,0.1880950927734375,1.05964994430542,-0.0303621664643287,1.03243088722229,15.19126892089844,85.77333068847656,-5.816757202148438
265347,-0.447998046875,0.5399322509765625,0.227691650390625,1.168968677520752,0.2141306698322296,0.972890555858612,15.47795104980469,86.0081787109375,-5.970993041992188
265348,-0.3278656005859375,0.531402587890625,0.236419677734375,1.168428421020508,0.5662769675254822,0.828991711139679,15.97109985351562,86.44035339355469,-6.251510620117188
265349,-0.3278656005859375,0.531402587890625,0.236419677734375,1.168428421020508,0.5662769675254822,0.828991711139679,15.97109985351562,86.44035339355469,-6.251510620117188
265350,-0.1056976318359375,0.295806884765625,-0.1231231689453125,0.9740807414054872,0.7829225063323975,0.4728860557079315,17.39865112304688,87.2628173828125,-7.387100219726562
265351,-0.0030059814453125,0.1891021728515625,-0.2640228271484375,0.9384878277778624,0.3434135615825653,0.3345833122730255,17.87898254394531,87.47035217285156,-7.687789916992188
265352,0.0210723876953125,0.2778778076171875,-0.1513824462890625,0.8674288392066956,0.1073158010840416,0.0668932795524597,18.30789184570312,87.44511413574219,-7.968399047851562
265353,0.0210723876953125,0.2778778076171875,-0.1513824462890625,0.8674288392066956,0.1073158010840416,0.0668932795524597,18.30789184570312,87.44511413574219,-7.968399047851562
265354,0.0851898193359375,0.5162506103515625,-0.0364990234375,0.6727272868156433,0.3169023096561432,-0.6301177740097046,18.66128540039062,87.5181884765625,-8.325942993164062
265355,0.1153717041015625,0.4589385986328125,-0.0456390380859375,0.6868124604225159,0.1743608862161636,-0.6406172513961792,18.58883666992188,87.33056640625,-8.552230834960938
265356,0.114776611328125,0.2252655029296875,-0.076171875,0.7853806018829346,-0.3996371328830719,-0.3079317212104797,18.04141235351562,87.11111450195312,-9.442947387695312
265357,0.114776611328125,0.2252655029296875,-0.076171875,0.7853806018829346,-0.3996371328830719,-0.3079317212104797,18.04141235351562,87.11111450195312,-9.442947387695312
265358,0.06268310546875,0.1370697021484375,-0.1065673828125,0.828396201133728,-0.6410580277442932,-0.1764136552810669,17.95332336425781,86.95501708984375,-9.555572509765623
265359,-0.0139617919921875,0.0767669677734375,-0.1497802734375,0.8323329091072083,-0.7887510657310486,-0.1560761481523514,17.80168151855469,86.88533020019531,-9.5460205078125
265360,-0.0846099853515625,0.0432281494140625,-0.1847381591796875,0.7803171277046204,-0.8522650599479675,-0.2320857048034668,17.76083374023438,86.89321899414062,-9.600189208984377
265361,-0.152984619140625,0.02642822265625,-0.20489501953125,0.6396270990371704,-0.8474671244621277,-0.3797318935394287,17.73304748535156,86.89517211914062,-9.594711303710938
265362,-0.2317962646484375,0.05755615234375,-0.159637451171875,0.3819641470909119,-0.7325628995895386,-0.5439913868904114,17.75216674804688,86.77874755859375,-9.63671875
265363,-0.3171844482421875,0.1831817626953125,0.019927978515625,0.0464343428611755,-0.4071406126022339,-0.5779469609260559,17.62954711914062,86.79530334472656,-9.546722412109377
265364,-0.37237548828125,0.6201934814453125,0.347198486328125,-0.5371302962303162,0.7187906503677368,-0.9559664130210876,17.18052673339844,86.51931762695312,-9.344390869140623
265365,-0.37237548828125,0.6201934814453125,0.347198486328125,-0.5371302962303162,0.7187906503677368,-0.9559664130210876,17.18052673339844,86.51931762695312,-9.344390869140623
265366,-0.5020751953125,0.7857666015625,0.4013214111328125,-0.5371302962303162,0.7187906503677368,-0.9559664130210876,17.00361633300781,86.37492370605469,-9.333526611328123
265367,-0.7049713134765625,0.9318695068359376,0.43402099609375,-0.4971013963222504,0.6500336527824402,-1.008642911911011,16.62843322753906,86.07389831542969,-9.301376342773438
265368,-1.113815307617188,0.929168701171875,0.3621368408203125,-0.4317234456539154,0.0999436378479003,-1.018015146255493,15.8038330078125,85.76911926269531,-9.761459350585938
265369,-1.113815307617188,0.929168701171875,0.3621368408203125,-0.4317234456539154,0.0999436378479003,-1.018015146255493,15.8038330078125,85.76911926269531,-9.761459350585938
265370,-1.13714599609375,0.6727294921875,0.2395477294921875,-0.4385230243206024,-0.3683529794216156,-0.9823775291442872,15.39537048339844,85.47843933105469,-9.866455078125
265371,-0.9716949462890624,0.39739990234375,0.151275634765625,-0.4484238624572754,-0.8984818458557129,-0.981256067752838,14.95782470703125,85.15718078613281,-9.818878173828123
265372,-0.7522125244140625,0.220794677734375,0.16522216796875,-0.4321290552616119,-1.299715518951416,-0.8982117772102356,14.44990539550781,84.82595825195312,-9.530349731445312
265373,-0.5623016357421875,0.1380767822265625,0.2123260498046875,-0.4209094047546387,-1.366997957229614,-0.7690556645393372,14.01962280273438,84.5479736328125,-8.909133911132812
265374,-0.4105682373046875,0.12060546875,0.2057342529296875,-0.4148914515972137,-1.152874112129211,-0.6349599361419678,13.68174743652344,84.29136657714844,-8.418716430664062
265375,-0.2864837646484375,0.1265869140625,0.11572265625,-0.4025517106056213,-0.8895530700683594,-0.5342447757720947,13.49606323242188,84.19334411621094,-7.896484375
265376,-0.199462890625,0.123870849609375,0.005950927734375,-0.397612601518631,-0.716092586517334,-0.4607177972793579,13.38038635253906,83.93144226074219,-7.310638427734375
265377,-0.1140594482421875,0.094390869140625,-0.0828399658203125,-0.4135076999664307,-0.6293153762817383,-0.4312800168991089,13.38958740234375,83.69229125976562,-6.86431884765625
265378,-0.0247039794921875,0.0365447998046875,-0.1574249267578125,-0.4612528383731842,-0.5724658966064453,-0.408666580915451,13.62506103515625,83.31941223144531,-6.397567749023438
265379,0.05462646484375,-0.031463623046875,-0.2391510009765625,-0.5881892442703247,-0.5608745217323303,-0.3403690159320831,13.798828125,83.02590942382812,-5.964599609375
265380,0.1346282958984375,-0.1060333251953125,-0.330963134765625,-0.7668218016624451,-0.7214034795761108,-0.18886499106884,13.92654418945312,82.71063232421875,-5.362838745117188
265381,0.1346282958984375,-0.1060333251953125,-0.330963134765625,-0.7668218016624451,-0.7214034795761108,-0.18886499106884,13.92654418945312,82.71063232421875,-5.362838745117188
265382,0.186981201171875,-0.1625518798828125,-0.2978515625,-0.8612644076347351,-1.232354044914246,0.1968715190887451,14.13508605957031,82.2845458984375,-3.999664306640625
265383,0.194793701171875,-0.129791259765625,-0.222015380859375,-0.758987307548523,-1.323688268661499,0.3746798634529114,14.13265991210938,82.23332214355469,-3.169647216796875
265384,0.1822967529296875,0.0241241455078125,-0.086395263671875,-0.5026682019233704,-1.159019708633423,0.6569307446479797,14.29365539550781,82.23011779785156,-1.173126220703125
265385,0.1822967529296875,0.0241241455078125,-0.086395263671875,-0.5026682019233704,-1.159019708633423,0.6569307446479797,14.29365539550781,82.23011779785156,-1.173126220703125
265386,0.1696929931640625,0.1397552490234375,-0.0676422119140625,-0.5262347459793091,-0.5492181181907654,0.6827508807182312,14.48970031738281,82.18673706054688,-0.336822509765625
265387,0.121337890625,0.2645111083984375,-0.22027587890625,-0.6881778836250305,0.1195801943540573,0.6364923119544983,14.80624389648438,82.392822265625,0.267486572265625
265388,-0.106292724609375,0.527435302734375,-0.328887939453125,-0.9568122625350952,-0.010642790235579,0.3607278168201447,15.21708679199219,82.50381469726562,1.000839233398438
265389,-0.106292724609375,0.527435302734375,-0.328887939453125,-0.9568122625350952,-0.010642790235579,0.3607278168201447,15.21708679199219,82.50381469726562,1.000839233398438
265390,-0.298187255859375,0.80145263671875,-0.5937957763671875,-0.9568122625350952,-0.010642790235579,0.3607278168201447,15.41070556640625,82.30589294433594,1.421890258789062
265391,-0.5576629638671875,1.225662231445312,-1.052566528320312,-0.3281224966049194,-0.5030314326286316,0.0407500937581062,15.57136535644531,82.1778564453125,1.797149658203125
265392,-0.73028564453125,1.61724853515625,-1.086105346679688,0.5729343891143799,-0.1735792458057404,-0.122675321996212,15.62164306640625,82.03648376464844,2.083297729492188
265393,-0.73028564453125,1.61724853515625,-1.086105346679688,0.5729343891143799,-0.1735792458057404,-0.122675321996212,15.62164306640625,82.03648376464844,2.083297729492188
265394,-0.627105712890625,1.887924194335938,-0.592529296875,0.2659128904342651,2.611076593399048,0.7440032958984375,15.58357238769531,82.02493286132812,1.841293334960938
265395,-0.677642822265625,2.194595336914062,-0.839630126953125,-0.426332950592041,2.251934289932251,0.5953909158706665,15.41526794433594,82.00482177734375,1.29620361328125
265396,-0.5919647216796875,2.487838745117188,-1.021209716796875,-0.5916542410850525,0.8446300625801086,0.2881737351417542,15.24075317382812,82.12156677246094,0.4686126708984375
265397,-0.5919647216796875,2.487838745117188,-1.021209716796875,-0.5916542410850525,0.8446300625801086,0.2881737351417542,15.24075317382812,82.12156677246094,0.4686126708984375
265398,-0.57904052734375,3.10992431640625,-0.58441162109375,-0.0494367927312851,0.2525363862514496,0.8870347738265991,15.14976501464844,82.09072875976562,-0.3157501220703125
265399,-0.710723876953125,3.532318115234375,-0.4973602294921875,0.1099624559283257,0.849908709526062,1.222603440284729,15.1029052734375,82.42060852050781,-0.443145751953125
265400,-0.9467926025390624,3.763015747070312,-0.4130401611328125,0.3942855298519135,1.387225389480591,1.172995686531067,15.17021179199219,82.63778686523438,-0.7090301513671875
265401,-0.9467926025390624,3.763015747070312,-0.4130401611328125,0.3942855298519135,1.387225389480591,1.172995686531067,15.17021179199219,82.63778686523438,-0.7090301513671875
265402,-1.620742797851562,3.889511108398438,-0.506744384765625,1.306338548660278,1.382031679153442,-0.0653470456600189,15.15463256835938,83.75831604003906,-2.013214111328125
265403,-1.988479614257812,3.498001098632812,-0.375946044921875,1.357594847679138,1.368826746940613,-0.8858717679977417,15.00102233886719,84.23606872558594,-2.829391479492188
265404,-2.056472778320312,2.807861328125,-0.123626708984375,1.082391977310181,1.61319887638092,-1.337020039558411,14.64494323730469,84.53257751464844,-4.044219970703125
265405,-2.056472778320312,2.807861328125,-0.123626708984375,1.082391977310181,1.61319887638092,-1.337020039558411,14.64494323730469,84.53257751464844,-4.044219970703125
265406,-1.613937377929688,1.39019775390625,0.1182708740234375,1.61782431602478,0.8005262613296509,-1.021361708641052,13.858642578125,84.46025085449219,-6.391098022460938
265407,-1.658111572265625,0.8288421630859375,0.170166015625,1.75018310546875,0.2019054293632507,-0.3602814972400665,13.6776123046875,84.40643310546875,-7.372802734375
265408,-1.63482666015625,0.5440673828125,0.2005615234375,1.453562378883362,-0.643470048904419,0.3762394189834595,13.78219604492188,84.228515625,-8.33441162109375
265409,-1.63482666015625,0.5440673828125,0.2005615234375,1.453562378883362,-0.643470048904419,0.3762394189834595,13.78219604492188,84.228515625,-8.33441162109375
265410,-1.34222412109375,0.5186920166015625,0.5594940185546875,1.145859122276306,-0.5428318381309509,0.2292542308568954,14.19758605957031,84.44270324707031,-9.604812622070312
265411,-1.190628051757812,0.4044189453125,0.5475311279296875,0.7304425239562988,-0.3061114549636841,0.0763014256954193,14.48747253417969,84.67863464355469,-9.900543212890623
265412,-1.025421142578125,0.176177978515625,0.3001556396484375,0.3789369165897369,-0.2674783170223236,0.0302308723330497,14.60125732421875,84.87321472167969,-10.02392578125
265413,-1.025421142578125,0.176177978515625,0.3001556396484375,0.3789369165897369,-0.2674783170223236,0.0302308723330497,14.60125732421875,84.87321472167969,-10.02392578125
265414,-0.6387176513671875,-0.1860809326171875,-0.0200958251953125,0.4310219585895538,-0.5158495306968689,0.2529222667217255,14.66677856445312,84.83903503417969,-10.16896057128906
265415,-0.4511566162109375,-0.15509033203125,0.10626220703125,0.6933473348617554,-0.1238638907670975,0.3268406987190247,14.62767028808594,84.85963439941406,-10.05256652832031
265416,-0.18072509765625,0.08154296875,0.10809326171875,0.2514410316944122,1.145370125770569,0.234328880906105,15.13638305664062,84.960693359375,-10.48536682128906
265417,-0.18072509765625,0.08154296875,0.10809326171875,0.2514410316944122,1.145370125770569,0.234328880906105,15.13638305664062,84.960693359375,-10.48536682128906
265418,-0.1212310791015625,0.191680908203125,0.0281829833984375,0.2514410316944122,1.145370125770569,0.234328880906105,15.46257019042969,84.99459838867188,-10.75436401367188
265419,-0.1141357421875,0.2636566162109375,0.0289306640625,-0.1489428728818893,0.8810128569602966,0.0626391470432281,15.7734375,84.91896057128906,-11.11764526367188
265420,-0.0944976806640625,0.2595367431640625,0.0818328857421875,-0.4014251828193665,0.5412936210632324,-0.1554076969623566,15.93211364746094,84.91963195800781,-11.43180847167969
265421,-0.081573486328125,0.1910552978515625,0.1605224609375,-0.4071065187454224,0.3495611846446991,-0.3991210162639618,16.05125427246094,84.90992736816406,-11.65345764160156
265422,-0.1251220703125,0.0960540771484375,0.231964111328125,-0.4071065187454224,0.3495611846446991,-0.3991210162639618,15.93560791015625,84.81080627441406,-11.66331481933594
265423,-0.192657470703125,0.0197906494140625,0.2624359130859375,-0.2976601719856262,0.4694164991378784,-0.4458642899990082,15.81251525878906,84.68557739257812,-11.67689514160156
265424,-0.2476806640625,-0.044647216796875,0.26043701171875,-0.3883804976940155,0.4893164336681366,-0.4742264151573181,15.63963317871094,84.55125427246094,-11.63259887695312
265425,-0.304534912109375,-0.0859222412109375,0.2571868896484375,-0.6895152926445007,0.304134339094162,-0.4567760527133942,15.38015747070312,84.480712890625,-11.706787109375
265426,-0.3794097900390625,-0.064971923828125,0.2484130859375,-0.6895152926445007,0.304134339094162,-0.4567760527133942,15.30227661132812,84.35653686523438,-11.86688232421875
265427,-0.4545135498046875,0.069854736328125,0.216094970703125,-1.067383766174316,-0.0136191397905349,-0.4607265889644623,15.14866638183594,84.10603332519531,-11.74647521972656
265428,-0.5311431884765625,0.2359466552734375,0.2039794921875,-1.424802660942078,-0.4182768762111664,-0.5330806970596313,14.84193420410156,84.03347778320312,-11.54440307617188
265429,-0.6201629638671875,0.3770751953125,0.2345123291015625,-1.69634222984314,-0.7662769556045532,-0.6355788111686707,14.56001281738281,83.90374755859375,-11.20292663574219
265430,-0.7226409912109375,0.4938812255859375,0.3167877197265625,-1.825047731399536,-0.8937374353408813,-0.7895635962486267,14.14215087890625,83.77311706542969,-10.78230285644531
265431,-0.8333740234375,0.5427398681640625,0.371490478515625,-1.802311778068542,-0.7506455183029175,-0.954068958759308,13.73580932617188,83.6568603515625,-10.00959777832031
265432,-0.934417724609375,0.5451202392578125,0.342041015625,-1.278362035751343,-0.3223498165607452,-1.122749328613281,13.363037109375,83.40817260742188,-9.263168334960938
265433,-0.934417724609375,0.5451202392578125,0.342041015625,-1.278362035751343,-0.3223498165607452,-1.122749328613281,13.363037109375,83.40817260742188,-9.263168334960938
265434,-1.007247924804688,0.495269775390625,0.190643310546875,-0.9012778997421264,-0.2727654874324799,-1.119177460670471,12.62709045410156,82.55067443847656,-7.670669555664062
265435,-0.964599609375,0.4898529052734375,0.135772705078125,-0.572640061378479,-0.6193921566009521,-1.030599355697632,12.39384460449219,82.17669677734375,-7.05828857421875
265436,-0.8886260986328125,0.4869384765625,0.1020660400390625,-0.572640061378479,-0.6193921566009521,-1.030599355697632,12.12409973144531,81.67295837402344,-6.597518920898438
265437,-0.7603912353515625,0.5070037841796875,0.06781005859375,-0.7217124104499817,-0.8611946702003479,-0.9221384525299072,11.87774658203125,81.06636047363281,-6.277557373046875
265438,-0.57586669921875,0.5218658447265625,0.0146942138671875,-1.012661099433899,-0.8248459696769714,-0.7516220808029175,11.80050659179688,80.54866027832031,-5.889190673828125
265439,-0.3936767578125,0.4679107666015625,-0.0837554931640625,-1.190109968185425,-0.6613097786903381,-0.5037499666213989,11.60896301269531,80.09333801269531,-5.460922241210938
265440,-0.1810302734375,0.227630615234375,-0.123077392578125,-0.9923740029335022,-0.5161309838294983,-0.1752248108386993,11.28321838378906,79.21661376953125,-4.174972534179688
265441,-0.1810302734375,0.227630615234375,-0.123077392578125,-0.9923740029335022,-0.5161309838294983,-0.1752248108386993,11.28321838378906,79.21661376953125,-4.174972534179688
265442,-0.09393310546875,0.1146697998046875,-0.118255615234375,-0.8204435110092163,-0.4676689207553864,-0.0048125982284545,11.12881469726562,79.09637451171875,-3.621566772460938
265443,-0.0152740478515625,0.037567138671875,-0.171783447265625,-0.5842267274856567,-0.3972453474998474,0.2263881266117096,11.06874084472656,78.81698608398438,-3.004776000976562
265444,0.0463409423828125,0.0062103271484375,-0.240936279296875,-0.0436649210751056,-0.3396052420139313,0.8269365429878235,11.0806884765625,78.75904846191406,-2.461349487304688
265445,0.080810546875,0.014892578125,-0.303955078125,0.2314028590917587,-0.3483150899410248,1.063597321510315,11.292236328125,78.71220397949219,-2.158004760742188
265446,0.0828399658203125,0.053314208984375,-0.381103515625,0.2314028590917587,-0.3483150899410248,1.063597321510315,11.61045837402344,78.77755737304688,-1.692962646484375
265447,0.0495758056640625,0.1272430419921875,-0.498687744140625,0.4601058065891266,-0.4088434278964996,1.126267075538635,11.96492004394531,79.00668334960938,-1.406814575195312
265448,0.022186279296875,0.2123870849609375,-0.6572418212890625,-0.2441748529672623,-0.7196322083473206,0.5355510115623474,12.25340270996094,79.46315002441406,-1.267303466796875
265449,0.0989837646484375,0.290985107421875,-1.096725463867188,-0.2441748529672623,-0.7196322083473206,0.5355510115623474,12.55015563964844,79.91481018066406,-1.171783447265625
265450,0.039642333984375,0.3610076904296875,-0.9578094482421876,-1.24806809425354,-0.8980064392089844,-0.0975550487637519,12.74227905273438,80.25959777832031,-0.9102630615234376
265451,-0.1979522705078125,0.4117889404296875,-0.3901214599609375,-0.898701012134552,-0.0488897785544395,-0.5226110219955444,12.99484252929688,80.33567810058594,-0.5680999755859375
265452,-0.3574676513671875,0.438507080078125,-0.210174560546875,-0.898701012134552,-0.0488897785544395,-0.5226110219955444,13.128173828125,80.21466064453125,0.0716094970703125
265453,-0.4562225341796875,0.5091552734375,-0.3149871826171875,-0.6888353824615479,0.4686684012413025,-0.62299644947052,13.08358764648438,79.89608764648438,0.8217010498046875
265454,-0.542510986328125,0.6030120849609375,-0.58599853515625,-0.4823200404644012,0.52862548828125,-0.6042177081108093,13.07048034667969,79.5382080078125,1.410507202148438
265455,-0.5939788818359375,0.71978759765625,-0.78375244140625,-0.3321664929389954,0.1623779833316803,-0.4193253517150879,12.67637634277344,79.26425170898438,1.435821533203125
265456,-0.5804290771484375,0.8698577880859375,-0.7921295166015625,-0.2952971458435059,-0.2287151962518692,-0.1163966506719589,12.32106018066406,78.9853515625,1.179519653320312
265457,-0.5804290771484375,0.8698577880859375,-0.7921295166015625,-0.2952971458435059,-0.2287151962518692,-0.1163966506719589,12.32106018066406,78.9853515625,1.179519653320312
265458,-0.524505615234375,1.00738525390625,-0.7048187255859375,-0.281721442937851,-0.337203323841095,0.1592285335063934,11.97622680664062,78.75381469726562,0.9178314208984376
265459,-0.48004150390625,1.125747680664062,-0.6395263671875,0.0851817429065704,-0.1899582147598267,0.4353850185871124,11.76826477050781,78.3349609375,1.389785766601562
265460,-0.5320281982421875,1.146072387695312,-0.659698486328125,0.3985191583633423,-0.0806873887777328,0.4841610789299011,11.90040588378906,78.50645446777344,1.519882202148438
265461,-0.5320281982421875,1.146072387695312,-0.659698486328125,0.3985191583633423,-0.0806873887777328,0.4841610789299011,11.90040588378906,78.50645446777344,1.519882202148438
265462,-0.792633056640625,1.213699340820312,-0.7023773193359375,1.056488037109375,0.2677890956401825,0.4628390073776245,12.10345458984375,78.84550476074219,1.672439575195312
265463,-0.9335784912109376,1.375457763671875,-0.744659423828125,1.254003167152405,0.4565909802913666,0.3684826791286469,12.31878662109375,79.08282470703125,1.40875244140625
265464,-1.069168090820312,1.702896118164062,-0.8511199951171875,1.246896266937256,0.4461415410041809,0.1710750758647919,12.31719970703125,79.42955017089844,1.047775268554688
265465,-1.069168090820312,1.702896118164062,-0.8511199951171875,1.246896266937256,0.4461415410041809,0.1710750758647919,12.31719970703125,79.42955017089844,1.047775268554688
265466,-1.150253295898438,2.907943725585938,-0.829315185546875,1.062008500099182,0.2553481459617615,-0.1767318993806839,11.96549987792969,79.94264221191406,0.159576416015625
265467,-1.070465087890625,3.481002807617188,-0.4933624267578125,1.024804353713989,0.5728768110275269,-0.2699401378631592,11.63363647460938,80.07229614257812,-0.3676910400390625
265468,-1.5128173828125,3.9273681640625,0.156463623046875,1.293489336967468,1.815699219703674,-0.0376554988324642,10.6605224609375,80.59837341308594,-1.6856689453125
265469,-1.5128173828125,3.9273681640625,0.156463623046875,1.293489336967468,1.815699219703674,-0.0376554988324642,10.6605224609375,80.59837341308594,-1.6856689453125
265470,-1.831344604492188,3.941024780273438,0.05560302734375,1.562579154968262,1.434987306594849,0.3975236713886261,10.22067260742188,80.78448486328125,-2.680038452148438
265471,-2.134246826171875,3.55078125,0.3000946044921875,1.674730658531189,0.4107377231121063,0.8024538159370422,9.926559448242188,81.07563781738281,-4.08935546875
265472,-2.237548828125,2.8896484375,0.5554351806640625,1.8412184715271,-0.2544549107551575,1.417573690414429,9.955841064453123,81.46778869628906,-5.577957153320312
265473,-2.237548828125,2.8896484375,0.5554351806640625,1.8412184715271,-0.2544549107551575,1.417573690414429,9.955841064453123,81.46778869628906,-5.577957153320312
265474,-1.67633056640625,1.3585205078125,0.3249359130859375,2.074702501296997,-0.9371141791343688,1.598507523536682,11.05015563964844,82.7371826171875,-7.531463623046875
265475,-1.550689697265625,0.780487060546875,0.42547607421875,1.961695909500122,-0.9196584820747375,1.432664275169373,11.78369140625,83.5396728515625,-8.053253173828125
265476,-1.218902587890625,0.135955810546875,0.4052581787109375,2.068735361099243,-0.5151416659355164,1.091780781745911,13.36436462402344,84.87704467773438,-9.094146728515623
265477,-1.218902587890625,0.135955810546875,0.4052581787109375,2.068735361099243,-0.5151416659355164,1.091780781745911,13.36436462402344,84.87704467773438,-9.094146728515623
265478,-0.963165283203125,0.121978759765625,0.5152435302734375,2.068735361099243,-0.5151416659355164,1.091780781745911,14.01359558105469,85.44296264648438,-9.555191040039062
265479,-0.7549896240234375,0.1190643310546875,0.651702880859375,2.111379861831665,-0.0603317841887474,0.9938563108444214,14.71165466308594,85.7965087890625,-9.8319091796875
265480,-0.5843048095703125,0.0460968017578125,0.6348419189453125,1.896773934364319,0.5321813225746155,0.926045835018158,15.38435363769531,86.21920776367188,-10.26579284667969
265481,-0.5843048095703125,0.0460968017578125,0.6348419189453125,1.896773934364319,0.5321813225746155,0.926045835018158,15.38435363769531,86.21920776367188,-10.26579284667969
265482,-0.3425750732421875,-0.2516937255859375,0.206451416015625,1.151555895805359,0.9383328557014464,0.8350722193717957,16.63996887207031,86.93988037109375,-11.54519653320312
265483,-0.280487060546875,-0.381439208984375,0.14886474609375,0.783257246017456,0.8507422804832458,0.7994697690010071,17.05355834960938,87.14537048339844,-12.1400146484375
265484,-0.221466064453125,-0.4244537353515625,0.176849365234375,0.3958051204681396,0.8781986832618713,0.7365952134132385,17.44825744628906,87.43112182617188,-12.83131408691406
265485,-0.152069091796875,-0.41436767578125,0.214019775390625,-0.0044315000995993,1.031131982803345,0.7140105366706848,17.78515625,87.76156616210938,-13.26095581054688
265486,-0.0817718505859375,-0.2494049072265625,0.1952972412109375,-0.6766793727874756,0.7617929577827454,0.6066089868545532,18.08963012695312,87.99864196777344,-13.70729064941406
265487,-0.0543060302734375,0.0411834716796875,0.165252685546875,-0.6766793727874756,0.7617929577827454,0.6066089868545532,18.32350158691406,88.20292663574219,-14.02482604980469
265488,-0.0877685546875,0.2324981689453125,0.196807861328125,-0.9282211065292358,0.3866920471191406,0.600805401802063,18.58479309082031,88.46247863769531,-14.2867431640625
265489,-0.0877685546875,0.2324981689453125,0.196807861328125,-0.9282211065292358,0.3866920471191406,0.600805401802063,18.58479309082031,88.46247863769531,-14.2867431640625
265490,-0.0791015625,0.485809326171875,0.311981201171875,-1.165238738059998,-0.0517556071281433,0.4910592138767242,18.92837524414062,88.70814514160156,-14.07075500488281
265491,-0.05230712890625,0.572509765625,0.4034881591796875,-1.090405225753784,-0.1473862528800964,0.3999396860599518,19.16661071777344,88.85688781738281,-13.82861328125
265492,-0.0340423583984375,0.6301116943359375,0.4808807373046875,-0.985819399356842,-0.1607377529144287,0.3278034329414368,19.56643676757812,88.89469909667969,-13.308349609375
265493,-0.0340423583984375,0.6301116943359375,0.4808807373046875,-0.985819399356842,-0.1607377529144287,0.3278034329414368,19.56643676757812,88.89469909667969,-13.308349609375
265494,-0.0498809814453125,0.804931640625,0.5376434326171875,-1.069139361381531,-0.3040738701820374,0.3675058484077454,20.09132385253906,88.99299621582031,-12.41084289550781
265495,-0.0960540771484375,0.95611572265625,0.5816650390625,-1.388361573219299,-0.4679461717605591,0.3587496280670166,20.20806884765625,89.11335754394531,-11.88612365722656
265496,-0.16119384765625,1.084808349609375,0.60107421875,-2.119473218917847,-1.034948825836182,-0.1236851885914803,20.32598876953125,89.16609191894531,-11.34040832519531
265497,-0.16119384765625,1.084808349609375,0.60107421875,-2.119473218917847,-1.034948825836182,-0.1236851885914803,20.32598876953125,89.16609191894531,-11.34040832519531
265498,-0.4531402587890625,0.868743896484375,0.5232696533203125,-2.199645280838013,-1.437530398368835,-0.5013036131858826,20.62718200683594,89.10400390625,-9.696014404296877
265499,-0.5546417236328125,0.6232757568359375,0.4349822998046875,-2.199645280838013,-1.437530398368835,-0.5013036131858826,20.66999816894531,88.9931640625,-8.608062744140625
265500,-0.53936767578125,0.42926025390625,0.3515777587890625,-1.315832257270813,-1.374742388725281,-0.9644811153411864,20.38534545898438,88.69422912597656,-6.149444580078125
265501,-0.53936767578125,0.42926025390625,0.3515777587890625,-1.315832257270813,-1.374742388725281,-0.9644811153411864,20.38534545898438,88.69422912597656,-6.149444580078125
265502,-0.5089111328125,0.3938446044921875,0.284027099609375,-1.315832257270813,-1.374742388725281,-0.9644811153411864,20.11785888671875,88.55313110351562,-5.058441162109375
265503,-0.49542236328125,0.31500244140625,0.164825439453125,-0.8093804717063904,-1.034140825271606,-1.150593400001526,19.81776428222656,88.08473205566406,-4.093231201171875
265504,-0.5370330810546875,0.1499481201171875,0.05438232421875,-0.8093804717063904,-1.034140825271606,-1.150593400001526,19.45942687988281,87.71946716308594,-3.131423950195312
265505,-0.520721435546875,0.0438232421875,-0.0728607177734375,-0.6084417700767517,-0.7916401028633118,-1.024973750114441,19.03680419921875,87.50653076171875,-2.489425659179688
265506,-0.390167236328125,0.0753326416015625,-0.2076568603515625,-0.4357863664627075,-0.6043572425842285,-0.96952086687088,18.66998291015625,87.12757873535156,-2.028457641601562
265507,-0.2622222900390625,0.1494293212890625,-0.3100433349609375,-0.3204635083675385,-0.5033592581748962,-0.967141568660736,18.46951293945312,86.71437072753906,-1.487960815429688
265508,-0.08837890625,0.15325927734375,-0.3160552978515625,-0.248340830206871,-0.2505155801773071,-0.6437968015670776,18.04379272460938,85.72348022460938,-0.986663818359375
265509,-0.08837890625,0.15325927734375,-0.3160552978515625,-0.248340830206871,-0.2505155801773071,-0.6437968015670776,18.04379272460938,85.72348022460938,-0.986663818359375
265510,0.0003814697265625,0.1484832763671875,-0.3411102294921875,-0.248340830206871,-0.2505155801773071,-0.6437968015670776,18.00215148925781,85.14234924316406,-0.80194091796875
265511,0.0648040771484375,0.165863037109375,-0.39599609375,-0.2714336514472961,-0.4454850554466248,-0.3718758225440979,17.95689392089844,84.7987060546875,-0.580596923828125
265512,0.052886962890625,0.2069854736328125,-0.4372711181640625,-0.2487027645111084,-0.7511653304100037,-0.1264330446720123,17.88279724121094,84.42500305175781,-0.2062225341796875
265513,0.052886962890625,0.2069854736328125,-0.4372711181640625,-0.2487027645111084,-0.7511653304100037,-0.1264330446720123,17.88279724121094,84.42500305175781,-0.2062225341796875
265514,-0.012176513671875,0.270843505859375,-0.4832916259765625,-0.0177097544074058,-0.9193871021270752,-0.0736814141273498,17.70745849609375,84.03129577636719,0.4820556640625
265515,-0.017974853515625,0.3150177001953125,-0.5322265625,0.1620632112026215,-0.8037832975387573,-0.0832895636558532,17.63648986816406,84.05397033691406,0.9583892822265624
265516,-0.046722412109375,0.3878173828125,-0.5449066162109375,0.2706658542156219,-0.4289926290512085,-0.1023759096860886,17.69996643066406,83.96333312988281,1.4273681640625
265517,-0.046722412109375,0.3878173828125,-0.5449066162109375,0.2706658542156219,-0.4289926290512085,-0.1023759096860886,17.69996643066406,83.96333312988281,1.4273681640625
265518,-0.1431121826171875,0.5417327880859375,-0.76507568359375,0.2356279641389847,0.1444360017776489,-0.3165707588195801,17.45228576660156,83.88145446777344,2.209518432617188
265519,-0.224517822265625,0.6277618408203125,-0.8126068115234375,0.2591889500617981,-0.0033912693616002,-0.4231997430324554,17.42701721191406,83.83526611328125,2.37353515625
265520,-0.33734130859375,0.742919921875,-0.886505126953125,0.4116871654987335,-0.1536875665187836,-0.4789287745952606,17.20747375488281,83.70364379882812,2.426559448242188
265521,-0.33734130859375,0.742919921875,-0.886505126953125,0.4116871654987335,-0.1536875665187836,-0.4789287745952606,17.20747375488281,83.70364379882812,2.426559448242188
265522,-0.643310546875,1.170822143554688,-1.015121459960938,0.98283851146698,0.2639312446117401,-0.5316018462181091,16.7718505859375,83.57723999023438,2.342544555664062
265523,-0.824859619140625,1.463607788085938,-0.9984588623046876,0.9840739965438844,0.7164390683174133,-0.6398436427116394,16.46922302246094,83.51620483398438,2.18511962890625
265524,-0.9712371826171876,1.75469970703125,-0.8322296142578125,0.6519191861152649,0.9902658462524414,-0.9750088453292848,16.00643920898438,83.57804870605469,1.84332275390625
265525,-0.9712371826171876,1.75469970703125,-0.8322296142578125,0.6519191861152649,0.9902658462524414,-0.9750088453292848,16.00643920898438,83.57804870605469,1.84332275390625
265526,-1.163497924804688,2.0726318359375,-0.074737548828125,0.1746330559253693,1.617976665496826,-2.075619697570801,14.45634460449219,83.5426025390625,0.6583404541015625
265527,-1.508026123046875,2.328384399414062,0.001800537109375,-0.0012295814231038,1.971917867660522,-2.254270553588867,13.46902465820312,83.25814819335938,0.0933837890625
265528,-2.13232421875,2.776641845703125,0.052520751953125,-0.196174830198288,2.293572664260864,-1.671031594276428,12.394287109375,82.85614013671875,-0.7512054443359375
265529,-2.13232421875,2.776641845703125,0.052520751953125,-0.196174830198288,2.293572664260864,-1.671031594276428,12.394287109375,82.85614013671875,-0.7512054443359375
265530,-3.326431274414062,2.947769165039062,0.266387939453125,0.1249659061431885,0.1448903381824493,-0.2069598436355591,10.83261108398438,82.32182312011719,-2.9525146484375
265531,-3.101348876953125,2.431060791015625,0.6231842041015625,0.552986741065979,-1.007267951965332,0.6375069618225098,10.69053649902344,82.31486511230469,-3.766342163085938
265532,-1.999359130859375,1.998916625976562,0.703521728515625,0.98208886384964,-1.320363879203796,0.6665844321250916,10.94581604003906,82.61988830566406,-4.136077880859375
265533,-1.999359130859375,1.998916625976562,0.703521728515625,0.98208886384964,-1.320363879203796,0.6665844321250916,10.94581604003906,82.61988830566406,-4.136077880859375
265534,-1.120758056640625,1.600509643554688,0.44757080078125,1.169665932655334,-0.6354997158050537,0.7211129069328308,11.62213134765625,83.07659912109375,-3.92449951171875
265535,-0.9107666015625,1.524765014648438,0.190765380859375,1.406238794326782,-0.5413990616798401,0.7032308578491211,11.97860717773438,83.36717224121094,-3.980514526367188
265536,-0.7560272216796875,1.517822265625,0.16082763671875,1.515096306800842,-0.4627828299999237,0.8027646541595459,12.3677978515625,83.65090942382812,-4.096527099609375
265537,-0.763214111328125,1.447494506835938,0.1263885498046875,1.581176519393921,-0.3248800933361053,0.6198592782020569,12.99037170410156,84.04965209960938,-4.349227905273438
265538,-0.7265167236328125,1.209609985351562,0.110107421875,1.540527105331421,-0.3357292711734772,0.4928706884384155,13.54283142089844,84.22793579101562,-4.629501342773438
265539,-0.70458984375,0.9391021728515624,0.0864105224609375,1.468348026275635,-0.370597779750824,0.529375433921814,14.17950439453125,84.39639282226562,-4.918441772460938
265540,-0.6642913818359375,0.706787109375,0.09112548828125,1.452172517776489,-0.4814686179161072,0.627693235874176,14.68186950683594,84.62498474121094,-5.186996459960938
265541,-0.6642913818359375,0.706787109375,0.09112548828125,1.452172517776489,-0.4814686179161072,0.627693235874176,14.68186950683594,84.62498474121094,-5.186996459960938
265542,-0.528411865234375,0.386749267578125,0.0998382568359375,1.493066310882568,-0.1478227525949478,0.8886175155639648,15.52061462402344,85.22274780273438,-5.788650512695312
265543,-0.4578094482421875,0.2688751220703125,0.0187835693359375,1.421704888343811,0.1585848480463028,0.9655309319496156,15.90692138671875,85.54815673828125,-6.0091552734375
265544,-0.36273193359375,0.0809783935546875,-0.17010498046875,1.055150866508484,0.6737760305404663,1.022884249687195,16.61697387695312,86.15003967285156,-6.860183715820312
265545,-0.36273193359375,0.0809783935546875,-0.17010498046875,1.055150866508484,0.6737760305404663,1.022884249687195,16.61697387695312,86.15003967285156,-6.860183715820312
265546,-0.2967376708984375,0.0090484619140625,-0.351776123046875,0.8464173078536987,0.738210916519165,1.064253449440002,16.95127868652344,86.47494506835938,-7.520965576171875
265547,-0.2308502197265625,0.0240478515625,-0.43096923828125,0.5884605646133423,0.6594766974449158,1.116926550865173,17.44041442871094,86.7109375,-8.03826904296875
265548,-0.1664886474609375,0.1640625,-0.345733642578125,0.2141503691673279,0.6170826554298401,1.115421295166016,17.85533142089844,87.00367736816406,-8.496795654296875
265549,-0.094451904296875,0.3454437255859375,-0.2230072021484375,-0.1732426285743713,0.566136360168457,1.028135418891907,18.19427490234375,87.27656555175781,-8.913803100585938
265550,-0.0390777587890625,0.4673919677734375,-0.1087493896484375,-0.584515392780304,0.4522809088230133,0.8663337230682373,18.59634399414062,87.52267456054688,-9.093002319335938
265551,0.008880615234375,0.5000152587890625,-0.0057830810546875,-0.584515392780304,0.4522809088230133,0.8663337230682373,19.00456237792969,87.69927978515625,-8.964614868164062
265552,0.06341552734375,0.4936981201171875,0.060394287109375,-0.5377774238586426,0.4356987476348877,0.959225058555603,19.3970947265625,87.76498413085938,-8.853897094726562
265553,0.121185302734375,0.451324462890625,0.0821685791015625,-0.4773444533348083,0.4781050682067871,1.122440934181213,19.8466796875,87.95423889160156,-8.698989868164062
265554,0.1551361083984375,0.385223388671875,0.07769775390625,-0.4773444533348083,0.4781050682067871,1.122440934181213,20.10087585449219,88.08369445800781,-8.304733276367188
265555,0.156829833984375,0.3390045166015625,0.0668792724609375,-0.438112884759903,0.5958202481269836,1.264963746070862,20.38014221191406,88.31785583496094,-8.110946655273438
265556,0.1148834228515625,0.3955230712890625,0.1069488525390625,-0.7547408938407898,0.8944905400276184,1.298498749732971,21.14791870117188,89.07362365722656,-8.274856567382812
265557,0.1148834228515625,0.3955230712890625,0.1069488525390625,-0.7547408938407898,0.8944905400276184,1.298498749732971,21.14791870117188,89.07362365722656,-8.274856567382812
265558,0.0747833251953125,0.5231781005859375,0.130340576171875,-1.144230604171753,1.05244505405426,1.146978497505188,21.55523681640625,89.34831237792969,-8.1815185546875
265559,-0.00390625,0.789337158203125,0.1226348876953125,-1.592171430587769,1.016295313835144,0.8080919981002808,21.99371337890625,89.77778625488281,-7.982711791992188
265560,-0.1672821044921875,1.09930419921875,0.162811279296875,-2.212848663330078,0.3903379142284393,-0.3429701328277588,22.455810546875,89.9464111328125,-7.522216796875
