time_idx,accelerometerAccelerationX(G),accelerometerAccelerationY(G),accelerometerAccelerationZ(G),gyroRotationX(rad/s),gyroRotationY(rad/s),gyroRotationZ(rad/s),magnetometerX(µT),magnetometerY(µT),magnetometerZ(µT)
231082,0.065521240234375,2.296600341796875,-0.517120361328125,0.1689000725746155,0.3759597837924957,0.0899719670414924,32.47373962402344,98.9729461669922,-8.86871337890625
231083,0.079315185546875,2.359588623046875,-0.3271331787109375,0.1774506866931915,0.5478771924972534,0.3744356632232666,32.32754516601562,99.01646423339844,-9.037734985351562
231084,0.0600433349609375,2.383316040039062,-0.167449951171875,0.2450795322656631,0.7555249333381653,0.6606019139289856,32.28759765625,99.04505920410156,-9.258682250976562
231085,0.0600433349609375,2.383316040039062,-0.167449951171875,0.2450795322656631,0.7555249333381653,0.6606019139289856,32.28759765625,99.04505920410156,-9.258682250976562
231086,-0.0678863525390625,2.323455810546875,0.2022552490234375,0.2569077014923096,1.053550004959106,1.031741619110107,32.84457397460938,99.38528442382812,-9.774765014648438
231087,-0.136871337890625,2.1640625,0.3878936767578125,0.2760752737522125,1.564297676086426,1.125787734985352,33.19049072265625,99.65585327148438,-10.36366271972656
231088,-0.136871337890625,2.1640625,0.3878936767578125,0.2760752737522125,1.564297676086426,1.125787734985352,33.19049072265625,99.65585327148438,-10.36366271972656
231089,-0.14862060546875,2.158660888671875,0.41180419921875,0.6041774749755859,1.888504028320312,0.9619316458702089,34.45903015136719,99.92579650878906,-11.41839599609375
231090,-0.1035614013671875,2.100479125976562,0.450836181640625,0.9258186221122742,1.563475251197815,0.7199658751487732,35.02076721191406,100.0472717285156,-11.99087524414062
231091,-0.093994140625,1.833892822265625,0.4760589599609375,1.162428736686707,1.144819974899292,0.5386229753494263,35.71980285644531,100.0261688232422,-12.4630126953125
231092,-0.093994140625,1.833892822265625,0.4760589599609375,1.162428736686707,1.144819974899292,0.5386229753494263,35.71980285644531,100.0261688232422,-12.4630126953125
231093,-0.135345458984375,1.491744995117188,0.482421875,1.207789659500122,0.906170666217804,0.4867661893367767,36.25807189941406,100.0147247314453,-13.08357238769531
231094,-0.1258392333984375,0.98211669921875,0.315185546875,0.9792195558547974,0.2911381125450134,0.6013369560241699,37.05986022949219,99.89675903320312,-14.73060607910156
231095,-0.131561279296875,0.8013458251953125,0.132110595703125,0.882700502872467,-1.100927591323853,0.6194645762443542,37.39132690429688,99.67686462402344,-15.51876831054688
231096,-0.131561279296875,0.8013458251953125,0.132110595703125,0.882700502872467,-1.100927591323853,0.6194645762443542,37.39132690429688,99.67686462402344,-15.51876831054688
231097,-0.1488037109375,0.6651763916015625,0.060272216796875,0.882700502872467,-1.100927591323853,0.6194645762443542,37.78549194335938,99.59410095214844,-16.03262329101562
231098,-0.1616363525390625,0.57611083984375,0.16455078125,0.9371735453605652,-1.516779661178589,0.5805249214172363,38.14962768554688,99.5091552734375,-16.39422607421875
231099,-0.1529083251953125,0.4929656982421875,0.4110870361328125,0.6115224957466125,-0.1798555105924606,0.3959790170192719,38.65435791015625,99.39532470703124,-16.95867919921875
231100,-0.1529083251953125,0.4929656982421875,0.4110870361328125,0.6115224957466125,-0.1798555105924606,0.3959790170192719,38.65435791015625,99.39532470703124,-16.95867919921875
231101,-0.1790618896484375,0.5154571533203125,0.4730987548828125,0.6115224957466125,-0.1798555105924606,0.3959790170192719,38.80059814453125,99.30256652832033,-17.16812133789062
231102,-0.20953369140625,0.51129150390625,0.3972320556640625,0.195608377456665,0.6333790421485901,0.2983310222625732,38.91853332519531,99.26364135742188,-17.59989929199219
231103,-0.173126220703125,0.4430694580078125,0.2453460693359375,-0.4514995515346527,1.50993824005127,0.1669101566076279,39.298583984375,99.38584899902344,-18.20075988769531
231104,-0.122100830078125,0.390228271484375,0.19482421875,-0.4603934288024902,1.533202886581421,0.1636246144771576,39.48371887207031,99.37214660644533,-18.20919799804688
231105,-0.122100830078125,0.390228271484375,0.19482421875,-0.4603934288024902,1.533202886581421,0.1636246144771576,39.48371887207031,99.37214660644533,-18.20919799804688
231106,-0.078125,0.3333282470703125,0.171173095703125,-0.3432622849941254,1.383155345916748,0.1711816042661667,39.77012634277344,99.23524475097656,-18.22421264648438
231107,-0.025177001953125,0.2204742431640625,0.195953369140625,-0.1867373883724213,1.065928101539612,0.2185477912425995,40.08453369140625,99.170166015625,-17.88685607910156
231108,-0.01934814453125,0.198272705078125,0.2512359619140625,-0.4734775424003601,1.206627368927002,0.0925592258572578,40.26902770996094,99.28108215332033,-17.93437194824219
231109,-0.01934814453125,0.198272705078125,0.2512359619140625,-0.4734775424003601,1.206627368927002,0.0925592258572578,40.26902770996094,99.28108215332033,-17.93437194824219
231110,-0.0260772705078125,0.20281982421875,0.3399505615234375,-0.4734775424003601,1.206627368927002,0.0925592258572578,40.48641967773438,99.22140502929688,-17.79159545898438
231111,-0.0601654052734375,0.2835235595703125,0.40435791015625,-1.097467660903931,1.645275592803955,-0.3482541143894196,40.60322570800781,99.40023803710938,-17.706787109375
231112,-0.0601654052734375,0.2835235595703125,0.40435791015625,-1.097467660903931,1.645275592803955,-0.3482541143894196,40.60322570800781,99.40023803710938,-17.706787109375
231113,-0.0957794189453125,0.365936279296875,0.4021453857421875,-1.3939049243927,1.695191264152527,-0.5754883289337158,40.59489440917969,99.39227294921876,-17.43548583984375
231114,-0.1542205810546875,0.5453338623046875,0.4176025390625,-1.748842239379883,1.377375721931458,-0.8332221508026123,40.52139282226562,99.44601440429688,-16.73130798339844
231115,-0.1609954833984375,0.6564178466796875,0.4490966796875,-1.806155800819397,1.170809507369995,-0.8960687518119812,40.26667785644531,99.48179626464844,-16.19389343261719
231116,-0.1609954833984375,0.6564178466796875,0.4490966796875,-1.806155800819397,1.170809507369995,-0.8960687518119812,40.26667785644531,99.48179626464844,-16.19389343261719
231117,-0.1854095458984375,0.885528564453125,0.40576171875,-1.815504908561707,0.4908589422702789,-1.008831262588501,39.49154663085938,99.5161590576172,-14.86495971679688
231118,-0.184967041015625,0.95428466796875,0.3646392822265625,-1.840503454208374,-0.0733405277132988,-1.027863740921021,38.98211669921875,99.46363830566406,-14.2327880859375
231119,-0.1800689697265625,1.023223876953125,0.3498077392578125,-1.930665254592896,-0.7110501527786255,-1.076628088951111,38.56294250488281,99.29608154296876,-13.4346923828125
231120,-0.1800689697265625,1.023223876953125,0.3498077392578125,-1.930665254592896,-0.7110501527786255,-1.076628088951111,38.56294250488281,99.29608154296876,-13.4346923828125
231121,-0.1431732177734375,1.044158935546875,0.3918609619140625,-2.10694146156311,-1.18368399143219,-1.118444085121155,38.12725830078125,99.0432586669922,-12.56187438964844
231122,-0.0636444091796875,0.970855712890625,0.2782135009765625,-2.202996969223022,-1.052657604217529,-1.157193064689636,37.09822082519531,98.63343811035156,-10.4066162109375
231123,-0.024444580078125,0.904052734375,0.0979156494140625,-1.946902871131897,-0.6680265069007874,-1.131200551986694,36.51564025878906,98.38211059570312,-9.420745849609377
231124,-0.024444580078125,0.904052734375,0.0979156494140625,-1.946902871131897,-0.6680265069007874,-1.131200551986694,36.51564025878906,98.38211059570312,-9.420745849609377
231125,-0.0494384765625,0.659576416015625,-0.29046630859375,-0.6819567084312439,-0.2389028519392014,-0.9349524974822998,35.179931640625,98.1348114013672,-7.283203125
231126,-0.1075439453125,0.5167236328125,-0.258697509765625,-0.6819567084312439,-0.2389028519392014,-0.9349524974822998,34.59144592285156,97.9586181640625,-6.371627807617188
231127,-0.154632568359375,0.3877410888671875,-0.1685943603515625,-0.4703046679496765,0.0243010781705379,-0.8870148062705994,34.03114318847656,97.92642211914062,-5.66558837890625
231128,-0.1604766845703125,0.289093017578125,-0.1856689453125,-0.3978989124298096,0.2358399629592896,-0.7919785380363464,32.94491577148438,97.84782409667967,-4.876266479492188
231129,-0.1604766845703125,0.289093017578125,-0.1856689453125,-0.3978989124298096,0.2358399629592896,-0.7919785380363464,32.94491577148438,97.84782409667967,-4.876266479492188
231130,-0.14532470703125,0.2236328125,-0.26727294921875,-0.3806296288967133,0.2025128901004791,-0.7118586897850037,32.53761291503906,97.72769165039062,-4.817825317382812
231131,-0.087921142578125,0.197967529296875,-0.3331146240234375,-0.2032255530357361,-0.1582833826541901,-0.6614290475845337,31.79876708984375,97.39949035644533,-4.505645751953125
231132,-0.087921142578125,0.197967529296875,-0.3331146240234375,-0.2032255530357361,-0.1582833826541901,-0.6614290475845337,31.79876708984375,97.39949035644533,-4.505645751953125
231133,-0.0436859130859375,0.2165374755859375,-0.3267669677734375,-0.0037337518297135,-0.1816161274909973,-0.5911344289779663,31.51666259765625,97.32048034667967,-4.26324462890625
231134,0.012725830078125,0.283416748046875,-0.3135986328125,0.2320995479822159,-0.0683958381414413,-0.4537296891212463,31.02053833007812,97.38517761230467,-4.14764404296875
231135,0.1172943115234375,0.497039794921875,-0.3031463623046875,0.5233486890792847,0.0738617032766342,-0.0963097587227821,30.5147705078125,97.36416625976562,-4.153900146484375
231136,0.1172943115234375,0.497039794921875,-0.3031463623046875,0.5233486890792847,0.0738617032766342,-0.0963097587227821,30.5147705078125,97.36416625976562,-4.153900146484375
231137,0.14764404296875,0.5799713134765625,-0.2742462158203125,0.5346687436103821,-0.0027742148377001,0.0347473286092281,30.23422241210938,97.4636688232422,-4.230499267578125
231138,0.18853759765625,0.7866363525390625,-0.3065948486328125,0.416629433631897,-0.1652496755123138,0.1043290719389915,30.07232666015625,97.43978881835938,-4.304168701171875
231139,0.2160797119140625,0.9763336181640624,-0.525787353515625,0.5164273977279663,-0.4195088446140289,0.0592188499867916,30.0601806640625,97.4744873046875,-4.2142333984375
231140,0.2160797119140625,0.9763336181640624,-0.525787353515625,0.5164273977279663,-0.4195088446140289,0.0592188499867916,30.0601806640625,97.4744873046875,-4.2142333984375
231141,0.092254638671875,1.66876220703125,-1.05487060546875,1.157465219497681,-0.2633682489395142,-0.0689958482980728,29.9393310546875,97.49821472167967,-4.213531494140625
231142,-0.115631103515625,2.044509887695312,-1.045440673828125,1.118101835250854,0.4653439819812775,-0.0996754616498947,29.755615234375,97.55162048339844,-4.420501708984375
231143,-0.1554718017578125,2.285629272460938,-0.72967529296875,0.9393813610076904,0.5931469798088074,-0.2889548540115356,29.52613830566406,97.6154327392578,-4.905593872070312
231144,-0.18310546875,2.58233642578125,-0.525177001953125,0.6818560361862183,0.4311583340167999,-0.4581009745597839,29.45159912109375,97.61970520019533,-5.51171875
231145,-0.18310546875,2.58233642578125,-0.525177001953125,0.6818560361862183,0.4311583340167999,-0.4581009745597839,29.45159912109375,97.61970520019533,-5.51171875
231146,-0.3074951171875,2.653060913085938,-0.5278472900390625,0.8534213900566101,0.3940194845199585,-0.084929272532463,29.10719299316406,97.55690002441406,-6.608001708984375
231147,-0.4074859619140625,2.358444213867188,-0.472686767578125,1.222472667694092,1.02147376537323,0.3492818176746368,28.87525939941406,97.710693359375,-6.992568969726562
231148,-0.1758575439453125,2.250579833984375,-0.583404541015625,1.436995625495911,1.2475905418396,0.440047949552536,28.79287719726562,98.00914001464844,-7.591873168945312
231149,-0.1758575439453125,2.250579833984375,-0.583404541015625,1.436995625495911,1.2475905418396,0.440047949552536,28.79287719726562,98.00914001464844,-7.591873168945312
231150,0.014678955078125,2.351242065429688,-0.4400634765625,1.015590310096741,0.3641260266304016,0.3051093220710754,29.13058471679688,98.51646423339844,-9.324920654296877
231151,0.05999755859375,2.331451416015625,-0.220367431640625,0.7255116701126099,0.2934337556362152,0.4663802087306976,29.23056030273438,98.6359405517578,-10.096923828125
231152,0.05999755859375,2.331451416015625,-0.220367431640625,0.7255116701126099,0.2934337556362152,0.4663802087306976,29.23056030273438,98.6359405517578,-10.096923828125
231153,0.098907470703125,2.201004028320312,-0.01202392578125,0.499712347984314,0.3454223871231079,1.012377023696899,29.67149353027344,98.99305725097656,-11.22909545898438
231154,-0.01263427734375,2.142486572265625,0.266693115234375,0.3375215828418732,0.4698937237262726,1.104870438575745,30.00898742675781,99.11793518066406,-11.62196350097656
231155,-0.04656982421875,2.071563720703125,0.4189910888671875,0.3243370652198792,0.9558807015419006,1.177418947219849,30.55148315429688,99.1724090576172,-12.21505737304688
231156,-0.04656982421875,2.071563720703125,0.4189910888671875,0.3243370652198792,0.9558807015419006,1.177418947219849,30.55148315429688,99.1724090576172,-12.21505737304688
231157,-0.0142669677734375,2.064285278320312,0.5004730224609375,0.4369781315326691,1.288507342338562,1.290127158164978,31.26295471191406,99.36068725585938,-12.71232604980469
231158,-0.025482177734375,1.969345092773438,0.4765472412109375,1.283060908317566,1.099662303924561,1.133784055709839,32.82159423828125,99.3988037109375,-13.63945007324219
231159,-0.0618896484375,1.704696655273438,0.46014404296875,1.766396164894104,0.6079570651054382,0.8468425869941711,33.56510925292969,99.53562927246094,-14.334716796875
231160,-0.08349609375,1.396133422851562,0.422515869140625,1.766396164894104,0.6079570651054382,0.8468425869941711,34.264404296875,99.56388854980467,-15.22563171386719
231161,-0.0747833251953125,1.153182983398438,0.3936004638671875,1.65920078754425,0.3561743497848511,0.8357745409011841,34.86271667480469,99.58219909667967,-16.18630981445312
231162,-0.0485992431640625,0.9940032958984376,0.3727264404296875,1.443124055862427,0.1027878969907761,0.7906395196914673,35.33425903320312,99.48924255371094,-17.12846374511719
231163,-0.0281219482421875,0.8798675537109375,0.35589599609375,1.230379939079285,-0.1434114873409271,0.7221707105636597,35.76541137695312,99.3927764892578,-17.89811706542969
231164,-0.0281219482421875,0.8798675537109375,0.35589599609375,1.230379939079285,-0.1434114873409271,0.7221707105636597,35.76541137695312,99.3927764892578,-17.89811706542969
231165,-0.0313568115234375,0.758331298828125,0.3185272216796875,1.069756388664246,-0.3750300705432892,0.6344456672668457,36.20796203613281,99.33775329589844,-18.65608215332031
231166,-0.10723876953125,0.4840850830078125,0.152618408203125,0.9171809554100036,-0.9307979345321656,0.5035534501075745,36.90696716308594,99.1217041015625,-19.54444885253906
231167,-0.1428985595703125,0.375762939453125,0.14141845703125,0.8649933934211731,-1.149106025695801,0.4770826697349548,37.11451721191406,99.07269287109376,-20.02890014648438
231168,-0.1428985595703125,0.375762939453125,0.14141845703125,0.8649933934211731,-1.149106025695801,0.4770826697349548,37.11451721191406,99.07269287109376,-20.02890014648438
231169,-0.1816253662109375,0.3175506591796875,0.210845947265625,0.7922427654266357,-1.12001371383667,0.464410811662674,37.31532287597656,99.0245361328125,-20.19950866699219
231170,-0.2259368896484375,0.3001556396484375,0.3130340576171875,0.6564377546310425,-0.748224139213562,0.4569180011749268,37.4351806640625,99.02555847167967,-20.59062194824219
231171,-0.2886962890625,0.279876708984375,0.2605133056640625,0.2013986259698868,0.4191567897796631,0.5656426548957825,37.74392700195312,99.06607055664062,-21.05711364746094
231172,-0.2886962890625,0.279876708984375,0.2605133056640625,0.2013986259698868,0.4191567897796631,0.5656426548957825,37.74392700195312,99.06607055664062,-21.05711364746094
231173,-0.1862640380859375,0.3193359375,0.14996337890625,0.0250776559114456,0.7161818146705627,0.6019601821899414,37.91427612304688,99.21005249023438,-21.32514953613281
231174,0.0045166015625,0.324371337890625,0.1260223388671875,-0.0062451125122606,0.8275088667869568,0.422451376914978,38.5904541015625,99.06484985351562,-21.38877868652344
231175,0.042877197265625,0.262847900390625,0.174224853515625,-0.0062451125122606,0.8275088667869568,0.422451376914978,38.86813354492188,99.08941650390624,-21.36039733886719
231176,0.042877197265625,0.262847900390625,0.174224853515625,-0.0062451125122606,0.8275088667869568,0.422451376914978,38.86813354492188,99.08941650390624,-21.36039733886719
231177,0.0667266845703125,0.23272705078125,0.249359130859375,-0.0708371549844741,0.9950968027114868,0.4144717454910278,39.2203369140625,99.09786987304688,-21.40361022949219
231178,0.11407470703125,0.2104339599609375,0.3668060302734375,-0.462091475725174,1.587181448936462,0.3875503838062286,39.80445861816406,99.11318969726562,-21.39164733886719
231179,0.142547607421875,0.2686767578125,0.40399169921875,-0.7311639189720154,1.819676160812378,0.3456162512302399,40.14566040039062,99.1819305419922,-21.24319458007812
231180,0.142547607421875,0.2686767578125,0.40399169921875,-0.7311639189720154,1.819676160812378,0.3456162512302399,40.14566040039062,99.1819305419922,-21.24319458007812
231181,0.159820556640625,0.422515869140625,0.44110107421875,-1.028240323066711,1.861709594726562,0.2164300382137299,40.51741027832031,99.208984375,-21.25970458984375
231182,0.1720428466796875,0.62933349609375,0.5230560302734375,-1.354153513908386,1.676686763763428,0.0034818167332559,40.76602172851562,99.35140991210938,-21.06971740722656
231183,-0.0318450927734375,0.9886627197265624,0.90570068359375,-1.65797758102417,1.289138793945312,-0.5320060849189758,41.05412292480469,99.55262756347656,-20.28163146972656
231184,-0.0318450927734375,0.9886627197265624,0.90570068359375,-1.65797758102417,1.289138793945312,-0.5320060849189758,41.05412292480469,99.55262756347656,-20.28163146972656
231185,-0.27947998046875,1.135452270507812,1.03216552734375,-1.794715166091919,1.167472839355469,-0.7259686589241028,41.04327392578125,99.57676696777344,-18.82803344726562
231186,-0.3933563232421875,1.162750244140625,0.9409637451171876,-1.910702466964722,1.035308957099915,-0.8506647944450378,40.91867065429688,99.54617309570312,-18.26278686523438
231187,-0.45068359375,1.117782592773438,0.7099609375,-2.025481224060059,0.7231225371360779,-1.032189011573792,40.72761535644531,99.38777160644533,-17.468017578125
231188,-0.45068359375,1.117782592773438,0.7099609375,-2.025481224060059,0.7231225371360779,-1.032189011573792,40.72761535644531,99.38777160644533,-17.468017578125
231189,-0.3148651123046875,0.7445068359375,0.1039276123046875,-2.026042222976685,-1.132432222366333,-1.378714799880981,39.89299011230469,99.14840698242188,-15.80075073242188
231190,-0.1976470947265625,0.5846405029296875,-0.3396759033203125,-2.026042222976685,-1.132432222366333,-1.378714799880981,39.19523620605469,99.2213134765625,-15.01502990722656
231191,-0.083587646484375,0.4516448974609375,-1.166366577148438,-1.686713576316833,-2.979834794998169,-1.236509442329407,38.46807861328125,99.18296813964844,-13.95802307128906
231192,-0.083587646484375,0.4516448974609375,-1.166366577148438,-1.686713576316833,-2.979834794998169,-1.236509442329407,38.46807861328125,99.18296813964844,-13.95802307128906
231193,0.0096282958984375,0.4614410400390625,-0.6383056640625,-1.123646020889282,-4.127184867858887,-0.9649532437324524,37.51980590820312,99.20964050292967,-12.95924377441406
231194,-0.0434417724609375,0.5283355712890625,0.243255615234375,-0.6132605075836182,-2.387930870056152,-0.7181163430213928,36.64105224609375,99.351318359375,-11.938720703125
231195,0.008514404296875,0.4014129638671875,-0.3776397705078125,-0.5360197424888611,1.682919144630432,-0.5007216930389404,35.21307373046875,99.70173645019533,-10.39045715332031
231196,0.008514404296875,0.4014129638671875,-0.3776397705078125,-0.5360197424888611,1.682919144630432,-0.5007216930389404,35.21307373046875,99.70173645019533,-10.39045715332031
231197,0.0648651123046875,0.285888671875,-0.2669219970703125,-0.9880356788635254,0.8797891139984131,-0.4654571712017059,34.54791259765625,99.54948425292967,-9.918045043945312
231198,0.04541015625,0.24066162109375,-0.261444091796875,-1.119979619979858,0.3196187317371368,-0.5606553554534912,34.28758239746094,99.32748413085938,-9.650802612304688
231199,0.042144775390625,0.207061767578125,-0.2225341796875,-1.041474938392639,-0.0911677256226539,-0.7080045938491821,34.0770263671875,99.21780395507812,-9.314743041992188
231200,0.042144775390625,0.207061767578125,-0.2225341796875,-1.041474938392639,-0.0911677256226539,-0.7080045938491821,34.0770263671875,99.21780395507812,-9.314743041992188
231201,0.0641326904296875,0.305328369140625,-0.185302734375,0.0290553532540798,-0.2032953351736069,-0.8499172329902649,33.28421020507812,98.90286254882812,-8.146896362304688
231202,0.06536865234375,0.4713897705078125,-0.2325439453125,0.0290553532540798,-0.2032953351736069,-0.8499172329902649,32.8529052734375,98.96524047851562,-7.63153076171875
231203,0.084136962890625,0.662353515625,-0.3280029296875,0.7119644284248352,-0.1070111393928528,-0.7530141472816467,32.28781127929688,98.86021423339844,-7.277740478515625
231204,0.084136962890625,0.662353515625,-0.3280029296875,0.7119644284248352,-0.1070111393928528,-0.7530141472816467,32.28781127929688,98.86021423339844,-7.277740478515625
231205,0.108428955078125,0.819610595703125,-0.426910400390625,0.7119644284248352,-0.1070111393928528,-0.7530141472816467,31.81246948242188,98.81666564941406,-7.051742553710938
231206,0.1391143798828125,0.9612274169921876,-0.525390625,1.198485851287842,-0.2165040820837021,-0.4970289468765259,31.27163696289062,98.77798461914062,-6.99383544921875
231207,0.1478729248046875,1.30743408203125,-0.9194793701171876,1.283708930015564,-0.3231527507305145,-0.3671708106994629,30.39491271972656,98.61354064941406,-7.433792114257812
231208,0.1478729248046875,1.30743408203125,-0.9194793701171876,1.283708930015564,-0.3231527507305145,-0.3671708106994629,30.39491271972656,98.61354064941406,-7.433792114257812
231209,0.10992431640625,1.520675659179688,-0.958526611328125,0.9603116512298584,-0.0514187142252922,-0.1621154099702835,30.026611328125,98.6313018798828,-7.761810302734375
231210,0.0289764404296875,1.867950439453125,-0.81683349609375,0.2993451654911041,0.1789322048425674,0.0287914350628852,29.57493591308594,98.43785095214844,-8.68377685546875
231211,-0.01141357421875,1.948013305664062,-0.6587371826171875,0.6010363101959229,-0.310186356306076,0.0653411895036697,29.65257263183594,98.17951965332033,-8.938949584960938
231212,-0.01141357421875,1.948013305664062,-0.6587371826171875,0.6010363101959229,-0.310186356306076,0.0653411895036697,29.65257263183594,98.17951965332033,-8.938949584960938
231213,-0.0335693359375,2.091903686523438,-0.6356658935546875,1.305644273757935,-0.078541949391365,0.6714939475059509,29.79768371582031,98.07833862304688,-9.143524169921877
231214,-0.0239715576171875,2.142822265625,-0.6997222900390625,1.305644273757935,-0.078541949391365,0.6714939475059509,29.97718811035156,98.04776000976562,-9.4530029296875
231215,0.0909881591796875,1.966461181640625,-0.614044189453125,1.489533424377441,0.3543373048305511,0.5997278690338135,30.33207702636719,98.23371887207033,-10.33258056640625
231216,0.0909881591796875,1.966461181640625,-0.614044189453125,1.489533424377441,0.3543373048305511,0.5997278690338135,30.33207702636719,98.23371887207033,-10.33258056640625
231217,0.066986083984375,2.013778686523438,-0.55572509765625,1.60012948513031,0.3025228381156921,0.2715137898921967,30.72601318359375,98.52638244628906,-10.93940734863281
231218,0.0038909912109375,2.103729248046875,-0.580108642578125,1.337368607521057,-0.2939181625843048,-0.1191519573330879,31.15150451660156,99.0331573486328,-12.55424499511719
231219,-0.0182647705078125,2.167083740234375,-0.477294921875,1.090853452682495,-0.2188377976417542,-0.0154641773551702,31.14694213867188,99.2104034423828,-13.37802124023438
231220,-0.007049560546875,2.2257080078125,-0.4041748046875,0.9555938839912416,0.0358341634273529,0.2555926144123077,31.08619689941406,99.25180053710938,-13.97598266601562
231221,-0.007049560546875,2.2257080078125,-0.4041748046875,0.9555938839912416,0.0358341634273529,0.2555926144123077,31.08619689941406,99.25180053710938,-13.97598266601562
231222,-0.0481719970703125,2.245071411132812,-0.1737823486328125,1.010608077049255,0.3079833984375,0.8390952348709106,31.38206481933594,99.36724853515624,-15.18829345703125
231223,-0.09002685546875,2.075698852539062,-0.0985565185546875,1.006137728691101,0.349939376115799,1.049856662750244,31.70857238769531,99.4117431640625,-15.75399780273438
231224,-0.0912933349609375,1.924819946289062,0.008636474609375,1.021338820457458,0.4474813640117645,1.213696479797363,32.26097106933594,99.55558776855467,-16.32278442382812
231225,-0.0912933349609375,1.924819946289062,0.008636474609375,1.021338820457458,0.4474813640117645,1.213696479797363,32.26097106933594,99.55558776855467,-16.32278442382812
231226,-0.0589447021484375,1.859222412109375,0.242584228515625,1.156210541725159,0.8893013596534729,1.125207662582397,33.46237182617188,99.79234313964844,-17.86091613769531
231227,-0.053070068359375,1.765823364257812,0.2637481689453125,1.270737409591675,0.9942973256111144,0.8546712398529053,34.11589050292969,99.78843688964844,-18.54707336425781
231228,-0.053070068359375,1.765823364257812,0.2637481689453125,1.270737409591675,0.9942973256111144,0.8546712398529053,34.11589050292969,99.78843688964844,-18.54707336425781
231229,0.018798828125,1.370620727539062,0.390045166015625,1.311330080032349,0.7566277384757996,0.3918143808841705,35.42695617675781,99.66017150878906,-20.22334289550781
231230,0.057464599609375,1.187393188476562,0.4346466064453125,1.196567058563232,0.7899260520935059,0.3766964077949524,35.85484313964844,99.57630920410156,-20.89654541015625
231231,0.10107421875,1.04571533203125,0.3704681396484375,1.063954472541809,0.7551845908164978,0.4427672922611237,36.24346923828125,99.31866455078124,-21.50740051269531
231232,0.10107421875,1.04571533203125,0.3704681396484375,1.063954472541809,0.7551845908164978,0.4427672922611237,36.24346923828125,99.31866455078124,-21.50740051269531
231233,0.140777587890625,0.9482421875,0.2671051025390625,0.9339545965194702,0.477813720703125,0.5008708238601685,36.56008911132812,99.29486083984376,-22.32125854492188
231234,0.1082611083984375,0.85052490234375,0.2577056884765625,0.7988196611404419,-0.4260498583316803,0.4310579299926758,37.22050476074219,99.183837890625,-23.70242309570312
231235,0.0018768310546875,0.783721923828125,0.3062286376953125,0.811494767665863,-0.6044307947158813,0.3748692274093628,37.45716857910156,98.95375061035156,-24.02738952636719
231236,0.0018768310546875,0.783721923828125,0.3062286376953125,0.811494767665863,-0.6044307947158813,0.3748692274093628,37.45716857910156,98.95375061035156,-24.02738952636719
231237,-0.225677490234375,0.680633544921875,0.05572509765625,0.5324929356575012,-0.4529786705970764,0.2892158329486847,37.69979858398438,98.95787048339844,-24.71798706054688
231238,-0.3138275146484375,0.5868072509765625,0.07080078125,0.5324929356575012,-0.4529786705970764,0.2892158329486847,37.82096862792969,98.8468017578125,-25.04283142089844
231239,-0.3827667236328125,0.4510040283203125,0.1408538818359375,0.2157354950904846,-0.1124208196997643,0.263041228055954,37.83363342285156,98.7637939453125,-25.27644348144531
231240,-0.3827667236328125,0.4510040283203125,0.1408538818359375,0.2157354950904846,-0.1124208196997643,0.263041228055954,37.83363342285156,98.7637939453125,-25.27644348144531
231241,-0.374725341796875,0.257843017578125,0.2157745361328125,-0.3093133866786957,1.288697838783264,0.3828690946102142,37.95736694335938,98.66787719726562,-25.64384460449219
231242,-0.2696533203125,0.234619140625,0.1766357421875,-0.3093133866786957,1.288697838783264,0.3828690946102142,38.12091064453125,98.6898193359375,-25.70899963378906
231243,-0.130401611328125,0.2819976806640625,0.16864013671875,-0.2526271939277649,1.461984395980835,0.3162799477577209,38.44834899902344,98.83528137207033,-25.66169738769531
231244,-0.0343475341796875,0.3438873291015625,0.255218505859375,-0.2155141830444336,1.926559448242188,0.0785211771726608,38.71476745605469,98.72233581542967,-25.60795593261719
231245,-0.0343475341796875,0.3438873291015625,0.255218505859375,-0.2155141830444336,1.926559448242188,0.0785211771726608,38.71476745605469,98.72233581542967,-25.60795593261719
231246,0.02947998046875,0.382415771484375,0.3424835205078125,-0.2155141830444336,1.926559448242188,0.0785211771726608,39.12176513671875,98.7438507080078,-25.73196411132812
231247,0.1080780029296875,0.5920867919921875,0.5229034423828125,-0.6234385371208191,2.573805570602417,0.0413453094661235,39.69248962402344,98.92805480957033,-25.89389038085938
231248,0.1080780029296875,0.5920867919921875,0.5229034423828125,-0.6234385371208191,2.573805570602417,0.0413453094661235,39.69248962402344,98.92805480957033,-25.89389038085938
231249,0.073944091796875,0.81884765625,0.5682830810546875,-0.9604700803756714,2.816835165023804,-0.0027055053506046,39.96432495117188,98.84585571289062,-25.94371032714844
231250,-0.0189971923828125,1.105712890625,0.5084686279296875,-1.418909549713135,2.42569375038147,-0.2228639721870422,40.67703247070312,98.960205078125,-25.89750671386719
231251,-0.0614166259765625,1.10498046875,0.50152587890625,-1.357508063316345,1.3871830701828,-0.4709630012512207,41.01895141601562,99.06991577148438,-25.57479858398438
231252,-0.0614166259765625,1.10498046875,0.50152587890625,-1.357508063316345,1.3871830701828,-0.4709630012512207,41.01895141601562,99.06991577148438,-25.57479858398438
231253,-0.11260986328125,0.8531341552734375,0.4955596923828125,-1.312448143959045,1.073232293128967,-0.5474769473075867,41.40699768066406,99.25886535644533,-24.50640869140625
231254,-0.123870849609375,0.717041015625,0.457855224609375,-1.360578417778015,0.948159396648407,-0.6021474003791809,41.34901428222656,99.46247863769533,-23.87710571289062
231255,-0.136016845703125,0.600433349609375,0.3733062744140625,-1.488457798957825,0.8405151963233948,-0.6702414751052856,41.23091125488281,99.5613250732422,-23.42262268066406
231256,-0.136016845703125,0.600433349609375,0.3733062744140625,-1.488457798957825,0.8405151963233948,-0.6702414751052856,41.23091125488281,99.5613250732422,-23.42262268066406
231257,-0.090911865234375,0.4265899658203125,0.09234619140625,-1.870001912117004,-0.0963228046894073,-0.8496698141098022,40.79092407226562,99.79885864257812,-22.48703002929688
231258,-0.050994873046875,0.377471923828125,-0.0286712646484375,-1.870001912117004,-0.0963228046894073,-0.8496698141098022,40.51963806152344,99.848876953125,-21.85150146484375
231259,-0.020599365234375,0.336090087890625,-0.042022705078125,-1.941440105438232,-0.4300688207149506,-0.9132863283157348,40.14096069335938,99.92239379882812,-21.07769775390625
231260,0.0035552978515625,0.29736328125,-0.039520263671875,-2.04729437828064,-0.7017070055007935,-1.034941434860229,39.70062255859375,99.94172668457033,-20.32948303222656
231261,0.0035552978515625,0.29736328125,-0.039520263671875,-2.04729437828064,-0.7017070055007935,-1.034941434860229,39.70062255859375,99.94172668457033,-20.32948303222656
231262,0.0723114013671875,0.28802490234375,-0.2195281982421875,-2.024303436279297,-0.8892396092414856,-1.072093844413757,38.76519775390625,100.0081634521484,-18.31173706054688
231263,0.1112823486328125,0.2816009521484375,-0.3563690185546875,-1.885992646217346,-1.223742246627808,-1.078388214111328,38.08636474609375,99.95608520507812,-17.10203552246094
231264,0.1112823486328125,0.2816009521484375,-0.3563690185546875,-1.885992646217346,-1.223742246627808,-1.078388214111328,38.08636474609375,99.95608520507812,-17.10203552246094
231265,0.1458282470703125,0.2713165283203125,-0.4542999267578125,-1.585784554481506,-1.664362788200378,-1.033145666122437,37.52238464355469,99.82565307617188,-15.98234558105469
231266,0.15380859375,0.3112640380859375,-0.267120361328125,-0.5719702839851379,-1.741403460502625,-0.8209047317504883,36.15223693847656,99.71145629882812,-13.96473693847656
231267,0.103912353515625,0.339202880859375,-0.145416259765625,-0.1458624005317688,-1.004391193389893,-0.7754773497581482,35.54409790039062,99.60678100585938,-13.14778137207031
231268,0.103912353515625,0.339202880859375,-0.145416259765625,-0.1458624005317688,-1.004391193389893,-0.7754773497581482,35.54409790039062,99.60678100585938,-13.14778137207031
231269,0.08465576171875,0.3340911865234375,-0.1645965576171875,0.0556552708148956,0.0987819731235504,-0.808447539806366,34.98614501953125,99.65614318847656,-12.47076416015625
231270,-0.016998291015625,0.3556976318359375,-0.5984649658203125,0.125411182641983,0.9177679419517516,-0.7254613041877747,33.95219421386719,99.6599578857422,-11.97718811035156
231271,-0.02325439453125,0.39764404296875,-0.6370086669921875,0.2146648913621902,0.4995136857032776,-0.6355506181716919,33.45700073242188,99.67738342285156,-12.11866760253906
231272,-0.02325439453125,0.39764404296875,-0.6370086669921875,0.2146648913621902,0.4995136857032776,-0.6355506181716919,33.45700073242188,99.67738342285156,-12.11866760253906
231273,0.0308837890625,0.44134521484375,-0.5949249267578125,0.5155126452445984,-0.3974288403987885,-0.2901002764701843,33.04849243164062,99.63322448730467,-12.08724975585938
231274,0.0803375244140625,0.516754150390625,-0.57501220703125,0.6719890236854553,-0.6867395043373108,-0.1286591738462448,32.71202087402344,99.64442443847656,-12.2342529296875
231275,0.16552734375,0.791473388671875,-0.6443023681640625,0.865229070186615,-0.8332144021987915,0.1283518522977829,32.22097778320312,99.67874145507812,-12.30084228515625
231276,0.219970703125,1.009140014648438,-0.769744873046875,0.865229070186615,-0.8332144021987915,0.1283518522977829,32.06671142578125,99.6440887451172,-12.18795776367188
231277,0.219970703125,1.009140014648438,-0.769744873046875,0.865229070186615,-0.8332144021987915,0.1283518522977829,32.06671142578125,99.6440887451172,-12.18795776367188
231278,0.1809539794921875,1.610076904296875,-0.391632080078125,0.0645691379904747,0.6492874622344971,-0.3661500215530396,31.86607360839844,99.66363525390624,-12.24153137207031
231279,0.1380462646484375,1.955413818359375,-0.3633270263671875,0.0645691379904747,0.6492874622344971,-0.3661500215530396,31.8155517578125,99.78057861328124,-12.21235656738281
231280,0.1380462646484375,1.955413818359375,-0.3633270263671875,0.0645691379904747,0.6492874622344971,-0.3661500215530396,31.8155517578125,99.78057861328124,-12.21235656738281
231281,0.084686279296875,2.387313842773438,-0.525299072265625,-0.0615453869104385,-0.2522248029708862,-0.7575734257698059,31.81224060058594,99.79055786132812,-12.13485717773438
231282,-0.26025390625,3.430572509765625,-0.2379913330078125,0.5492647290229797,-1.162302613258362,-1.141356587409973,31.56230163574219,99.74905395507812,-12.78598022460938
231283,-0.5901641845703125,3.516143798828125,-0.12347412109375,1.037409067153931,0.0345625057816505,-1.093541383743286,31.15589904785156,99.75205993652344,-12.71414184570312
231284,-0.5901641845703125,3.516143798828125,-0.12347412109375,1.037409067153931,0.0345625057816505,-1.093541383743286,31.15589904785156,99.75205993652344,-12.71414184570312
231285,-0.88519287109375,2.39019775390625,-0.4797821044921875,1.461454629898071,1.123682737350464,0.0653486475348472,30.20527648925781,99.65641784667967,-13.07931518554688
231286,-0.5184783935546875,2.325881958007812,-0.4730682373046875,1.414845824241638,0.4748932719230652,0.0991164669394493,29.89646911621094,99.66877746582033,-13.80876159667969
231287,-0.4065399169921875,2.189743041992188,-0.3759613037109375,1.306001424789429,0.0739109739661216,0.0921674743294715,30.00253295898438,99.76950073242188,-14.9320068359375
231288,-0.4065399169921875,2.189743041992188,-0.3759613037109375,1.306001424789429,0.0739109739661216,0.0921674743294715,30.00253295898438,99.76950073242188,-14.9320068359375
231289,-0.2385101318359375,2.02789306640625,-0.3336181640625,1.142942667007446,0.05802708491683,0.3050443232059479,30.22576904296875,99.78269958496094,-15.78704833984375
231290,-0.1313934326171875,1.926742553710938,-0.0529937744140625,1.005247473716736,0.3637545108795166,0.6940003633499146,30.41595458984375,99.85433959960938,-17.39820861816406
231291,-0.16357421875,1.947830200195312,0.12109375,1.138854742050171,0.4923921227455139,0.8689202070236206,30.72640991210938,99.83935546875,-17.97186279296875
231292,-0.16357421875,1.947830200195312,0.12109375,1.138854742050171,0.4923921227455139,0.8689202070236206,30.72640991210938,99.83935546875,-17.97186279296875
231293,-0.1475372314453125,2.061813354492188,0.4182586669921875,1.597967982292175,0.8285733461380005,1.012191891670227,31.92854309082031,99.7078094482422,-20.17909240722656
231294,-0.1198577880859375,1.976913452148438,0.5211334228515625,1.764265894889832,1.059432148933411,0.9116958975791932,32.53445434570312,99.67970275878906,-21.13710021972656
231295,-0.1155548095703125,1.711135864257812,0.516326904296875,1.744067668914795,1.194635152816772,0.8024107217788696,33.10592651367188,99.64279174804688,-22.1390380859375
231296,-0.106170654296875,1.386581420898438,0.46893310546875,1.59859836101532,1.157474994659424,0.7764509916305542,33.74113464355469,99.41912841796876,-23.19677734375
231297,-0.106170654296875,1.386581420898438,0.46893310546875,1.59859836101532,1.157474994659424,0.7764509916305542,33.74113464355469,99.41912841796876,-23.19677734375
231298,-0.05938720703125,1.14825439453125,0.442535400390625,1.438569307327271,1.02454149723053,0.7569904923439026,34.31393432617188,99.21678161621094,-24.30307006835938
231299,0.0430908203125,0.9135589599609376,0.26947021484375,1.203172445297241,0.5762912631034851,0.679030179977417,35.2684326171875,99.06306457519533,-25.82736206054688
231300,0.0430908203125,0.9135589599609376,0.26947021484375,1.203172445297241,0.5762912631034851,0.679030179977417,35.2684326171875,99.06306457519533,-25.82736206054688
231301,0.088836669921875,0.874420166015625,0.16534423828125,1.059208989143372,0.2330071479082108,0.617680549621582,35.53082275390625,98.95046997070312,-26.53323364257812
231302,0.1549072265625,0.8795318603515625,0.2115631103515625,0.5599469542503357,-0.2665451467037201,0.3340802490711212,36.06340026855469,98.8689422607422,-27.72958374023438
231303,0.1380462646484375,0.8367767333984375,0.33831787109375,0.3944019079208374,0.0292220674455165,0.3327862024307251,36.34014892578125,98.7939453125,-28.04898071289062
231304,0.0505828857421875,0.7646636962890625,0.4310150146484375,0.3944019079208374,0.0292220674455165,0.3327862024307251,36.47523498535156,98.69517517089844,-28.27311706542969
231305,0.0505828857421875,0.7646636962890625,0.4310150146484375,0.3944019079208374,0.0292220674455165,0.3327862024307251,36.47523498535156,98.69517517089844,-28.27311706542969
231306,-0.186248779296875,0.6391448974609375,0.2609100341796875,0.067374512553215,0.6148090958595276,0.4546293020248413,36.94956970214844,98.4717254638672,-28.71890258789062
231307,-0.2454376220703125,0.5720672607421875,0.1971435546875,-0.1408737599849701,0.7135005593299866,0.4207216501235962,37.17498779296875,98.40940856933594,-28.90534973144531
231308,-0.2454376220703125,0.5720672607421875,0.1971435546875,-0.1408737599849701,0.7135005593299866,0.4207216501235962,37.17498779296875,98.40940856933594,-28.90534973144531
231309,-0.234222412109375,0.337249755859375,0.1288299560546875,-0.5408352613449097,0.5997049808502197,0.3224360942840576,37.81333923339844,98.37623596191406,-28.8594970703125
231310,-0.194183349609375,0.269989013671875,0.13153076171875,-0.6428282260894775,0.5849230885505676,0.3105802536010742,38.10350036621094,98.31570434570312,-28.52705383300781
231311,-0.127777099609375,0.23590087890625,0.1597442626953125,-0.7080727219581604,0.6677442193031311,0.2991510331630707,38.2628173828125,98.63624572753906,-28.36773681640625
231312,-0.127777099609375,0.23590087890625,0.1597442626953125,-0.7080727219581604,0.6677442193031311,0.2991510331630707,38.2628173828125,98.63624572753906,-28.36773681640625
231313,-0.04766845703125,0.268310546875,0.3549041748046875,-0.8440849184989929,1.394454598426819,0.1723968088626862,38.83132934570312,98.86972045898438,-27.76460266113281
231314,-0.0478057861328125,0.3422393798828125,0.4411468505859375,-0.9871848225593568,1.945969343185425,0.0523271188139915,39.1529541015625,98.93092346191406,-27.44340515136719
231315,-0.054290771484375,0.44482421875,0.49578857421875,-1.180837869644165,2.476749420166016,-0.1117813885211945,39.45632934570312,98.95613098144533,-27.18348693847656
231316,-0.07110595703125,0.5526275634765625,0.47174072265625,-1.368879914283752,2.78792929649353,-0.2902174592018127,39.72566223144531,99.0985870361328,-26.95196533203125
231317,-0.07110595703125,0.5526275634765625,0.47174072265625,-1.368879914283752,2.78792929649353,-0.2902174592018127,39.72566223144531,99.0985870361328,-26.95196533203125
231318,-0.155548095703125,0.7037353515625,0.3863067626953125,-1.469921112060547,2.470064163208008,-0.505391001701355,40.29443359375,99.18536376953124,-26.32252502441406
231319,-0.2227630615234375,0.7438201904296875,0.4217071533203125,-1.38019335269928,2.122936248779297,-0.4879678189754486,40.4141845703125,99.32296752929688,-25.91175842285156
231320,-0.2227630615234375,0.7438201904296875,0.4217071533203125,-1.38019335269928,2.122936248779297,-0.4879678189754486,40.4141845703125,99.32296752929688,-25.91175842285156
231321,-0.2653656005859375,0.7647705078125,0.458221435546875,-1.332338690757751,1.861763715744019,-0.4595337808132172,40.4979248046875,99.540771484375,-25.45268249511719
231322,-0.3126068115234375,0.6849212646484375,0.4558563232421875,-1.526840329170227,1.47404682636261,-0.6613960266113281,40.4217529296875,99.9788055419922,-24.42381286621094
231323,-0.335296630859375,0.6171417236328125,0.4085845947265625,-1.743135571479797,1.252085208892822,-0.8294958472251892,40.25321960449219,100.1253662109375,-23.906005859375
231324,-0.335296630859375,0.6171417236328125,0.4085845947265625,-1.743135571479797,1.252085208892822,-0.8294958472251892,40.25321960449219,100.1253662109375,-23.906005859375
231325,-0.3031158447265625,0.4728546142578125,0.2511749267578125,-2.13177227973938,0.6223394870758057,-1.166932463645935,39.783447265625,100.3883361816406,-22.66859436035156
231326,-0.2182159423828125,0.4277496337890625,0.1352081298828125,-2.219383478164673,0.2827888131141663,-1.237859129905701,39.43905639648438,100.4453582763672,-21.81132507324219
231327,-0.1290435791015625,0.4285125732421875,0.0283355712890625,-2.229261636734009,-0.0161217115819454,-1.258099436759949,38.85299682617188,100.4601135253906,-20.82989501953125
231328,-0.1290435791015625,0.4285125732421875,0.0283355712890625,-2.229261636734009,-0.0161217115819454,-1.258099436759949,38.85299682617188,100.4601135253906,-20.82989501953125
231329,0.007904052734375,0.561065673828125,-0.60797119140625,-2.248012542724609,-1.176083922386169,-1.347930788993835,37.60298156738281,100.5345306396484,-18.96586608886719
231330,0.111297607421875,0.547210693359375,-0.88372802734375,-2.144638299942017,-2.546756505966187,-1.390133619308472,36.87797546386719,100.4235229492188,-17.86932373046875
231331,0.165435791015625,0.444244384765625,-0.7179718017578125,-1.764247298240662,-3.468397855758667,-1.209874868392944,36.12528991699219,100.4637298583984,-16.56813049316406
231332,0.165435791015625,0.444244384765625,-0.7179718017578125,-1.764247298240662,-3.468397855758667,-1.209874868392944,36.12528991699219,100.4637298583984,-16.56813049316406
231333,0.13677978515625,0.3681182861328125,-0.3218994140625,-1.241844773292542,-2.99817681312561,-0.8801201581954956,35.22853088378906,100.3213806152344,-15.22491455078125
231334,0.1576995849609375,0.253509521484375,-0.2329864501953125,-0.3006437122821808,0.4478206634521484,-0.4468874931335449,33.9859619140625,100.2320404052734,-13.14361572265625
231335,0.1073150634765625,0.2772369384765625,-0.32611083984375,0.1028211861848831,1.018080949783325,-0.3378901481628418,33.61419677734375,100.0491943359375,-12.55368041992188
231336,0.1073150634765625,0.2772369384765625,-0.32611083984375,0.1028211861848831,1.018080949783325,-0.3378901481628418,33.61419677734375,100.0491943359375,-12.55368041992188
231337,0.0323486328125,0.2874908447265625,-0.145751953125,0.2583135664463043,0.9903087019920348,-0.280084103345871,33.28617858886719,99.68807983398438,-12.73960876464844
231338,-0.0066986083984375,0.3274078369140625,-0.1257781982421875,0.2583135664463043,0.9903087019920348,-0.280084103345871,33.0845947265625,99.73394775390624,-12.8902587890625
231339,-0.025970458984375,0.3371429443359375,-0.1826171875,0.1979413032531738,0.8510815501213074,-0.3087546527385712,33.09452819824219,99.692626953125,-13.12742614746094
231340,-0.025970458984375,0.3371429443359375,-0.1826171875,0.1979413032531738,0.8510815501213074,-0.3087546527385712,33.09452819824219,99.692626953125,-13.12742614746094
231341,-0.0242156982421875,0.3296356201171875,-0.30523681640625,0.1659058779478073,0.4372604191303253,-0.283367782831192,32.96086120605469,99.71818542480467,-13.27508544921875
231342,-0.0056304931640625,0.5541534423828125,-0.36358642578125,0.1212454661726952,-0.825324296951294,-0.1437446475028992,32.70967102050781,99.84461975097656,-13.55308532714844
231343,0.037109375,0.732879638671875,-0.2806396484375,-0.008460596203804,-1.301843404769897,-0.1344417035579681,32.5777587890625,99.76065063476562,-13.4375
231344,0.037109375,0.732879638671875,-0.2806396484375,-0.008460596203804,-1.301843404769897,-0.1344417035579681,32.5777587890625,99.76065063476562,-13.4375
231345,0.0735321044921875,0.926971435546875,-0.1404266357421875,-0.1251107752323151,-1.42865252494812,-0.1463851779699326,32.42636108398438,99.74172973632812,-13.19435119628906
231346,0.12835693359375,1.532852172851562,-0.397247314453125,0.2493318021297455,-1.080100417137146,-0.0769118219614028,32.10353088378906,99.50221252441406,-12.29656982421875
231347,0.0923614501953125,1.867584228515625,-0.3778533935546875,0.6594700813293457,-0.9126341342926024,0.0137371178716421,31.87846374511719,99.5376434326172,-11.90690612792969
231348,0.0923614501953125,1.867584228515625,-0.3778533935546875,0.6594700813293457,-0.9126341342926024,0.0137371178716421,31.87846374511719,99.5376434326172,-11.90690612792969
231349,-0.2655792236328125,2.558547973632812,0.2053070068359375,1.016574859619141,1.084792375564575,-0.1678164303302765,31.61077880859375,99.87692260742188,-11.93119812011719
231350,-0.5044097900390625,3.242660522460938,0.056427001953125,1.048333883285522,1.310768961906433,-0.6143454313278198,31.55708312988281,99.98875427246094,-12.28793334960938
231351,-1.026290893554688,3.84124755859375,-0.1238861083984375,0.9650281071662904,0.6636171340942383,-1.149364948272705,31.44798278808594,100.0516052246094,-12.83795166015625
231352,-1.026290893554688,3.84124755859375,-0.1238861083984375,0.9650281071662904,0.6636171340942383,-1.149364948272705,31.44798278808594,100.0516052246094,-12.83795166015625
231353,-1.667068481445312,3.615158081054688,-0.1302947998046875,0.7590541839599609,0.433619886636734,-0.6006078124046326,31.23112487792969,100.3228759765625,-13.76399230957031
231354,-0.4693756103515625,2.454681396484375,-0.0645751953125,1.000967741012573,0.2573316693305969,-0.025169001892209,30.68769836425781,100.3068542480469,-15.02227783203125
231355,-0.4132537841796875,2.20574951171875,-0.1164703369140625,1.258988618850708,0.5753431916236877,0.2092349827289581,30.70539855957031,100.1666259765625,-15.59394836425781
231356,-0.4132537841796875,2.20574951171875,-0.1164703369140625,1.258988618850708,0.5753431916236877,0.2092349827289581,30.70539855957031,100.1666259765625,-15.59394836425781
231357,-0.302459716796875,2.176666259765625,-0.056793212890625,1.18449866771698,0.2916145324707031,0.9279443621635436,30.74092102050781,100.1845397949219,-16.97099304199219
231358,-0.31396484375,2.154144287109375,0.2211761474609375,1.303604006767273,0.4044702649116516,1.026698350906372,31.05818176269531,100.0461273193359,-17.8533935546875
231359,-0.2648773193359375,2.12744140625,0.324188232421875,1.663863182067871,0.5552480220794678,1.01528537273407,31.40275573730469,100.0339660644531,-18.72891235351562
231360,-0.2648773193359375,2.12744140625,0.324188232421875,1.663863182067871,0.5552480220794678,1.01528537273407,31.40275573730469,100.0339660644531,-18.72891235351562
231361,-0.0458831787109375,1.954849243164062,0.3897247314453125,2.249836444854736,0.7526982426643372,1.040027499198914,32.51759338378906,99.8472137451172,-20.4677734375
231362,-0.0486907958984375,1.825531005859375,0.4316558837890625,1.769318222999573,0.7418538928031921,0.7168713212013245,33.11009216308594,99.67727661132812,-21.66851806640625
231363,-0.02069091796875,1.573562622070312,0.4638214111328125,1.769318222999573,0.7418538928031921,0.7168713212013245,33.74882507324219,99.54507446289062,-22.86337280273438
231364,0.0962677001953125,1.26885986328125,0.4449462890625,1.491417646408081,0.6113073229789734,0.610140323638916,34.28074645996094,99.48779296875,-23.97169494628906
231365,0.0962677001953125,1.26885986328125,0.4449462890625,1.491417646408081,0.6113073229789734,0.610140323638916,34.28074645996094,99.48779296875,-23.97169494628906
231366,0.2870025634765625,0.804351806640625,0.304901123046875,1.34704601764679,0.0960277318954467,0.631952166557312,34.99574279785156,98.93740844726562,-25.71867370605469
231367,0.3850860595703125,0.6683807373046875,0.1587371826171875,1.368686318397522,-0.4003841578960419,0.7471069693565369,35.28726196289062,98.77589416503906,-26.35049438476562
231368,0.3850860595703125,0.6683807373046875,0.1587371826171875,1.368686318397522,-0.4003841578960419,0.7471069693565369,35.28726196289062,98.77589416503906,-26.35049438476562
231369,0.448089599609375,0.64324951171875,0.1283416748046875,1.266430616378784,-1.004646062850952,0.8782130479812622,35.51445007324219,98.73562622070312,-26.93537902832031
231370,0.38446044921875,0.894012451171875,0.3897857666015625,0.988055408000946,-0.5489022731781006,0.7296456694602966,35.96145629882812,98.45643615722656,-27.76412963867188
231371,0.160247802734375,0.8905029296875,0.4149017333984375,0.5375593304634094,0.2648186087608337,0.6206493973731995,36.091064453125,98.38972473144533,-28.2344970703125
231372,0.160247802734375,0.8905029296875,0.4149017333984375,0.5375593304634094,0.2648186087608337,0.6206493973731995,36.091064453125,98.38972473144533,-28.2344970703125
231373,-0.0734405517578125,0.793731689453125,0.290069580078125,-0.0212376434355974,0.8743994235992432,0.7854431867599487,36.38380432128906,98.47952270507812,-28.69564819335938
231374,-0.1392974853515625,0.736602783203125,0.20965576171875,-0.0212376434355974,0.8743994235992432,0.7854431867599487,36.78108215332031,98.42074584960938,-28.97346496582031
231375,-0.199798583984375,0.47271728515625,0.2015838623046875,0.0740260258316993,0.4987685084342957,0.7367683053016663,37.96739196777344,98.282470703125,-29.15888977050781
231376,-0.199798583984375,0.47271728515625,0.2015838623046875,0.0740260258316993,0.4987685084342957,0.7367683053016663,37.96739196777344,98.282470703125,-29.15888977050781
231377,-0.198516845703125,0.3434906005859375,0.2035369873046875,0.0740260258316993,0.4987685084342957,0.7367683053016663,38.52108764648438,98.25244140625,-29.12889099121094
231378,-0.1857452392578125,0.2193450927734375,0.2769012451171875,-0.3007252216339111,0.9506150484085084,0.3526147902011871,39.51469421386719,98.27633666992188,-29.04856872558594
231379,-0.1729583740234375,0.21466064453125,0.3568267822265625,-0.3007252216339111,0.9506150484085084,0.3526147902011871,39.87602233886719,98.26632690429688,-28.84089660644531
231380,-0.1729583740234375,0.21466064453125,0.3568267822265625,-0.3007252216339111,0.9506150484085084,0.3526147902011871,39.87602233886719,98.26632690429688,-28.84089660644531
231381,-0.1495819091796875,0.229156494140625,0.434722900390625,-0.5524138808250427,1.430867671966553,0.2097351253032684,40.15924072265625,98.406494140625,-29.07157897949219
231382,-0.122406005859375,0.283355712890625,0.4811248779296875,-0.8231250047683716,1.895327806472778,0.0963518396019935,40.3682861328125,98.64366149902344,-29.15756225585938
231383,-0.1050872802734375,0.52777099609375,0.599578857421875,-1.309879779815674,2.61869740486145,-0.0942758992314338,41.121826171875,98.69296264648438,-28.94375610351562
231384,-0.1218719482421875,0.655731201171875,0.6274871826171875,-1.47098445892334,2.836081027984619,-0.1331058591604233,41.42115783691406,98.84999084472656,-28.66531372070312
231385,-0.1218719482421875,0.655731201171875,0.6274871826171875,-1.47098445892334,2.836081027984619,-0.1331058591604233,41.42115783691406,98.84999084472656,-28.66531372070312
231386,-0.1889190673828125,0.8108367919921875,0.5069580078125,-1.60247278213501,2.619318008422852,-0.1118506342172623,42.07023620605469,99.21241760253906,-27.88134765625
231387,-0.21844482421875,0.8348541259765625,0.4458465576171875,-1.587258696556091,2.170116424560547,-0.1390851885080338,42.47047424316406,99.46356201171876,-27.44012451171875
231388,-0.21844482421875,0.8348541259765625,0.4458465576171875,-1.587258696556091,2.170116424560547,-0.1390851885080338,42.47047424316406,99.46356201171876,-27.44012451171875
231389,-0.23297119140625,0.7963409423828125,0.412750244140625,-1.564763188362122,1.640805006027222,-0.2494969069957733,42.72703552246094,99.62322998046876,-26.85137939453125
231390,-0.195343017578125,0.60150146484375,0.3989105224609375,-1.585279107093811,0.6795780062675476,-0.6067759394645691,43.04510498046875,100.0786285400391,-25.7242431640625
231391,-0.1898956298828125,0.507965087890625,0.409454345703125,-1.691254019737244,0.37111896276474,-0.7975605726242065,43.04043579101562,100.1610717773438,-25.10453796386719
231392,-0.1898956298828125,0.507965087890625,0.409454345703125,-1.691254019737244,0.37111896276474,-0.7975605726242065,43.04043579101562,100.1610717773438,-25.10453796386719
231393,-0.1943511962890625,0.427520751953125,0.3986053466796875,-1.899505257606506,0.1235099509358406,-1.041820049285889,42.82864379882812,100.3724670410156,-24.50944519042969
231394,-0.1613922119140625,0.352325439453125,0.266326904296875,-1.958418369293213,0.0577245503664016,-1.093786358833313,42.01313781738281,100.5365447998047,-22.88961791992188
231395,-0.1249237060546875,0.381683349609375,0.1751556396484375,-1.988703489303589,-0.0265820752829313,-1.125765323638916,41.45889282226562,100.4721832275391,-21.94635009765625
231396,-0.1249237060546875,0.381683349609375,0.1751556396484375,-1.988703489303589,-0.0265820752829313,-1.125765323638916,41.45889282226562,100.4721832275391,-21.94635009765625
231397,-0.0705413818359375,0.45574951171875,0.066558837890625,-1.965466380119324,-0.2841891050338745,-1.166447520256042,40.78170776367188,100.5874328613281,-21.05206298828125
231398,0.1523895263671875,0.6097564697265625,-0.8770904541015625,-1.588703155517578,-1.305674314498901,-1.11701500415802,39.4779052734375,100.5368194580078,-19.08180236816406
231399,0.2867584228515625,0.6155242919921875,-1.127731323242188,-0.7879619598388672,-3.265516757965088,-0.9561528563499452,38.73678588867188,100.5696258544922,-18.1156005859375
231400,0.2547149658203125,0.4832000732421875,-0.2370758056640625,0.0344349406659603,-3.225301027297974,-0.5960098505020142,37.85813903808594,100.6721038818359,-17.29583740234375
231401,0.2547149658203125,0.4832000732421875,-0.2370758056640625,0.0344349406659603,-3.225301027297974,-0.5960098505020142,37.85813903808594,100.6721038818359,-17.29583740234375
231402,0.124664306640625,0.164581298828125,-0.210296630859375,0.4083763062953949,1.010572195053101,-0.161279708147049,36.24942016601562,101.0084381103516,-16.0870361328125
231403,0.0635833740234375,0.1474456787109375,-0.406219482421875,0.2734539210796356,1.280562043190002,-0.1633966565132141,35.82916259765625,101.1909637451172,-15.99949645996094
231404,0.0635833740234375,0.1474456787109375,-0.406219482421875,0.2734539210796356,1.280562043190002,-0.1633966565132141,35.82916259765625,101.1909637451172,-15.99949645996094
231405,-0.073638916015625,0.176239013671875,-0.2698822021484375,-0.5230309963226318,0.2499914616346359,-0.366641104221344,35.68820190429688,101.1439819335938,-16.50146484375
231406,-0.15081787109375,0.2591552734375,-0.299224853515625,-0.5230309963226318,0.2499914616346359,-0.366641104221344,35.66552734375,100.9742126464844,-16.63325500488281
231407,-0.13690185546875,0.3297119140625,-0.3555450439453125,-0.5314673185348511,-0.1535402834415436,-0.347659170627594,35.57293701171875,100.916259765625,-16.51870727539062
231408,-0.032073974609375,0.4278564453125,-0.3213348388671875,-0.3661052882671356,-0.4266514480113983,-0.2570792138576508,35.37173461914062,100.9098968505859,-16.2708740234375
231409,-0.032073974609375,0.4278564453125,-0.3213348388671875,-0.3661052882671356,-0.4266514480113983,-0.2570792138576508,35.37173461914062,100.9098968505859,-16.2708740234375
231410,0.06402587890625,0.5414581298828125,-0.2214813232421875,-0.1277941763401031,-0.4119327068328857,-0.1773859709501266,35.13165283203125,101.0104370117188,-15.97148132324219
231411,0.10357666015625,0.81915283203125,-0.2561492919921875,0.4246743321418762,-0.2168209850788116,-0.0834589377045631,34.82908630371094,101.0717926025391,-15.38787841796875
231412,0.10357666015625,0.81915283203125,-0.2561492919921875,0.4246743321418762,-0.2168209850788116,-0.0834589377045631,34.82908630371094,101.0717926025391,-15.38787841796875
231413,0.07513427734375,1.267501831054688,-0.5529937744140625,1.492854595184326,-0.5533286929130554,-0.1538004875183105,34.64517211914062,100.9327239990234,-14.91212463378906
231414,0.0823516845703125,1.520751953125,-0.8050384521484375,1.492854595184326,-0.5533286929130554,-0.1538004875183105,34.49754333496094,100.8858795166016,-15.01040649414062
231415,0.09521484375,1.82855224609375,-0.71929931640625,1.430423498153687,-0.428724467754364,-0.0167651306837797,34.27096557617188,100.822998046875,-15.2965087890625
231416,0.09521484375,1.82855224609375,-0.71929931640625,1.430423498153687,-0.428724467754364,-0.0167651306837797,34.27096557617188,100.822998046875,-15.2965087890625
231417,-0.0701751708984375,2.496047973632812,0.2653656005859375,0.7905628085136414,1.297738432884216,-0.2688980400562286,33.850830078125,101.0460357666016,-16.58560180664062
231418,-0.180999755859375,3.134933471679688,0.1081695556640625,0.7738704085350037,1.298347473144531,-0.7630577087402344,33.75509643554688,101.0498657226562,-17.19705200195312
231419,-0.411712646484375,3.927703857421875,-0.078521728515625,0.8075900077819824,0.2512676417827606,-1.326922416687012,33.62928771972656,101.1708221435547,-17.8936767578125
231420,-0.411712646484375,3.927703857421875,-0.078521728515625,0.8075900077819824,0.2512676417827606,-1.326922416687012,33.62928771972656,101.1708221435547,-17.8936767578125
231421,-1.26953125,3.373870849609375,0.1749420166015625,0.8016892671585083,0.4754552245140076,-0.3225865662097931,32.90838623046875,101.3573913574219,-19.21279907226562
231422,-0.8454132080078125,2.605331420898438,-0.205810546875,1.165033578872681,0.7061097025871277,0.1526502668857574,32.40725708007812,101.4389953613281,-19.95298767089844
231423,-0.56573486328125,2.299392700195312,-0.3631439208984375,1.532158613204956,0.3188011646270752,0.2820234298706055,32.20698547363281,101.5007781982422,-20.4100341796875
231424,-0.56573486328125,2.299392700195312,-0.3631439208984375,1.532158613204956,0.3188011646270752,0.2820234298706055,32.20698547363281,101.5007781982422,-20.4100341796875
231425,-0.417694091796875,2.050125122070312,-0.09368896484375,1.462528467178345,-0.0169467590749263,0.5951720476150513,32.55267333984375,101.2187957763672,-21.69949340820312
231426,-0.3060455322265625,2.0050048828125,0.1816253662109375,1.387767314910889,0.1022265031933784,0.7450962662696838,32.8046875,101.1571807861328,-22.64860534667969
231427,-0.1993255615234375,2.009613037109375,0.295684814453125,1.625481963157654,0.4033631682395935,0.7996788024902344,33.08851623535156,100.9936676025391,-23.53329467773438
231428,-0.1993255615234375,2.009613037109375,0.295684814453125,1.625481963157654,0.4033631682395935,0.7996788024902344,33.08851623535156,100.9936676025391,-23.53329467773438
231429,-0.082366943359375,2.006500244140625,0.307464599609375,1.960327863693237,0.5632702708244324,0.8195103406906128,33.5616455078125,100.6977691650391,-24.26457214355469
231430,0.0328826904296875,1.916336059570312,0.3820037841796875,2.067954063415527,0.68673175573349,0.866861879825592,33.95166015625,100.4198455810547,-25.02117919921875
231431,0.0539703369140625,1.549636840820312,0.446563720703125,1.910484910011292,0.7759194374084473,0.7217091917991638,35.00543212890625,99.93157958984376,-27.1187744140625
231432,0.0539703369140625,1.549636840820312,0.446563720703125,1.910484910011292,0.7759194374084473,0.7217091917991638,35.00543212890625,99.93157958984376,-27.1187744140625
231433,0.09765625,1.2401123046875,0.3533172607421875,1.649753212928772,0.409936398267746,0.6679141521453857,35.48895263671875,99.6325225830078,-28.27265930175781
231434,0.1194305419921875,0.904083251953125,0.247283935546875,1.714527368545532,0.2835286557674408,0.6176666617393494,36.4281005859375,99.27311706542967,-30.388671875
231435,0.0941162109375,0.81463623046875,0.0988922119140625,1.870400905609131,0.1265667229890823,0.5635813474655151,36.79789733886719,98.90367126464844,-31.25942993164062
231436,0.0941162109375,0.81463623046875,0.0988922119140625,1.870400905609131,0.1265667229890823,0.5635813474655151,36.79789733886719,98.90367126464844,-31.25942993164062
231437,0.024505615234375,0.721099853515625,0.0293426513671875,2.102501153945923,-0.1308405697345734,0.5078173875808716,37.359375,98.4586181640625,-32.85398864746094
231438,-0.01947021484375,0.6904754638671875,0.13916015625,2.00256609916687,0.1542494893074036,0.4587582647800446,37.49824523925781,98.13963317871094,-33.82891845703125
231439,-0.0815277099609375,0.6041412353515625,0.1605072021484375,1.66994047164917,0.5380458831787109,0.4687176942825317,37.74215698242188,97.731201171875,-34.59982299804688
231440,-0.14776611328125,0.5225677490234375,0.1677398681640625,1.199138879776001,0.9363176226615906,0.5259658098220825,37.89668273925781,97.456298828125,-35.54739379882812
231441,-0.14776611328125,0.5225677490234375,0.1677398681640625,1.199138879776001,0.9363176226615906,0.5259658098220825,37.89668273925781,97.456298828125,-35.54739379882812
231442,-0.1904754638671875,0.4564056396484375,0.180450439453125,0.3478477299213409,1.598795771598816,0.6050885915756226,38.19911193847656,97.14346313476562,-36.49729919433594
231443,-0.2113494873046875,0.39703369140625,0.1996307373046875,0.0617376677691936,1.777911424636841,0.5731261372566223,39.21479797363281,96.60572814941406,-37.88923645019531
231444,-0.2262420654296875,0.3750762939453125,0.2086639404296875,-0.138843908905983,1.847055077552795,0.487868994474411,39.84466552734375,96.61070251464844,-38.35403442382812
231445,-0.2262420654296875,0.3750762939453125,0.2086639404296875,-0.138843908905983,1.847055077552795,0.487868994474411,39.84466552734375,96.61070251464844,-38.35403442382812
231446,-0.2135009765625,0.38983154296875,0.389862060546875,-0.3708486557006836,1.991524577140808,0.2866887450218201,41.31997680664062,96.36947631835938,-38.76322937011719
231447,-0.192474365234375,0.4330902099609375,0.5074615478515625,-0.4680218100547791,2.276945352554321,0.1598447859287262,42.00297546386719,96.36944580078124,-38.7237548828125
231448,-0.192474365234375,0.4330902099609375,0.5074615478515625,-0.4680218100547791,2.276945352554321,0.1598447859287262,42.00297546386719,96.36944580078124,-38.7237548828125
231449,-0.2176361083984375,0.596466064453125,0.6444854736328125,-1.028029441833496,2.994468450546265,-0.2588390111923218,43.39804077148438,96.446044921875,-38.68356323242188
231450,-0.2737579345703125,0.712493896484375,0.6537628173828125,-1.028029441833496,2.994468450546265,-0.2588390111923218,44.11349487304688,96.60357666015624,-38.63705444335938
231451,-0.3405303955078125,0.819610595703125,0.6550140380859375,-1.23591148853302,2.934792995452881,-0.3427272439002991,44.65950012207031,96.70866394042967,-38.39237976074219
231452,-0.3405303955078125,0.819610595703125,0.6550140380859375,-1.23591148853302,2.934792995452881,-0.3427272439002991,44.65950012207031,96.70866394042967,-38.39237976074219
231453,-0.4214630126953125,0.921478271484375,0.658447265625,-1.438750624656677,2.52036714553833,-0.4194009900093079,45.23553466796875,97.04393005371094,-38.09181213378906
231454,-0.516998291015625,0.9684295654296876,0.5924530029296875,-1.465583324432373,2.178851127624512,-0.4771311283111572,46.32054138183594,97.5121612548828,-37.26760864257812
231455,-0.51751708984375,0.8941650390625,0.5155181884765625,-1.473675847053528,1.734816908836365,-0.5735176205635071,46.73788452148438,97.82275390625,-36.6690673828125
231456,-0.4483642578125,0.7401123046875,0.4354248046875,-1.458132028579712,1.223530530929565,-0.6782112717628479,47.29074096679688,98.37225341796876,-35.53997802734375
231457,-0.4483642578125,0.7401123046875,0.4354248046875,-1.458132028579712,1.223530530929565,-0.6782112717628479,47.29074096679688,98.37225341796876,-35.53997802734375
231458,-0.3333587646484375,0.6063385009765625,0.39111328125,-1.493259429931641,0.807996928691864,-0.7646082043647766,47.27772521972656,98.67352294921876,-35.00053405761719
231459,-0.096038818359375,0.4304656982421875,0.1959381103515625,-1.702893376350403,0.0935014560818672,-0.8197159171104431,46.87472534179688,99.16334533691406,-33.71607971191406
231460,-0.0170135498046875,0.366485595703125,0.12152099609375,-1.789381146430969,-0.2611019015312195,-0.80366450548172,46.50041198730469,99.60011291503906,-33.01466369628906
231461,-0.0170135498046875,0.366485595703125,0.12152099609375,-1.789381146430969,-0.2611019015312195,-0.80366450548172,46.50041198730469,99.60011291503906,-33.01466369628906
231462,0.070587158203125,0.2627105712890625,0.1342315673828125,-1.949559330940247,-0.5691625475883484,-0.7140297293663025,45.60794067382812,99.93182373046876,-31.30038452148438
231463,0.0904388427734375,0.229949951171875,0.1357421875,-2.046813249588013,-0.4814196228981018,-0.6822073459625244,45.12153625488281,100.1163940429688,-30.21430969238281
231464,0.0904388427734375,0.229949951171875,0.1357421875,-2.046813249588013,-0.4814196228981018,-0.6822073459625244,45.12153625488281,100.1163940429688,-30.21430969238281
231465,0.1165924072265625,0.212005615234375,0.0886688232421875,-2.119563102722168,-0.3830278217792511,-0.6580042243003845,44.69960021972656,100.2931518554688,-29.22494506835938
231466,0.2053375244140625,0.2042083740234375,-0.2980499267578125,-2.105454444885254,-0.8586755394935608,-0.6694965958595276,44.00892639160156,100.5390167236328,-26.86691284179688
231467,0.2501678466796875,0.2108612060546875,-0.5371551513671875,-1.930392265319824,-1.735198616981506,-0.7227281332015991,43.56398010253906,100.5480499267578,-25.67678833007812
231468,0.2501678466796875,0.2108612060546875,-0.5371551513671875,-1.930392265319824,-1.735198616981506,-0.7227281332015991,43.56398010253906,100.5480499267578,-25.67678833007812
231469,0.302703857421875,0.271881103515625,-0.533538818359375,-0.9526801109313964,-3.490481615066528,-0.8374863862991333,42.37355041503906,100.872802734375,-23.3018798828125
231470,0.281402587890625,0.3170928955078125,-0.2462921142578125,-0.2833816409111023,-3.297415733337402,-0.7017621397972107,41.66934204101562,100.9548797607422,-22.46316528320312
231471,0.15130615234375,0.3577117919921875,-0.1638336181640625,-0.0438172556459903,-1.441285252571106,-0.572785496711731,40.77252197265625,101.0403442382812,-21.71250915527344
231472,0.15130615234375,0.3577117919921875,-0.1638336181640625,-0.0438172556459903,-1.441285252571106,-0.572785496711731,40.77252197265625,101.0403442382812,-21.71250915527344
231473,-0.003387451171875,0.3240814208984375,-0.5788421630859375,-0.1652635186910629,0.8264486789703369,-0.1631353944540024,39.55021667480469,101.5835876464844,-21.17678833007812
231474,-0.005035400390625,0.38946533203125,-0.49755859375,0.0696472525596618,0.7818154096603394,-0.1910836696624756,39.37884521484375,101.5794219970703,-20.94602966308594
231475,0.019012451171875,0.41796875,-0.399169921875,0.2794369757175446,0.6134306788444519,-0.2196937501430511,39.32568359375,101.5304412841797,-20.84748840332031
231476,0.0453643798828125,0.4248199462890625,-0.369140625,0.4495131075382233,0.4664236307144165,-0.161972388625145,39.34327697753906,101.5416412353516,-20.984619140625
231477,0.0453643798828125,0.4248199462890625,-0.369140625,0.4495131075382233,0.4664236307144165,-0.161972388625145,39.34327697753906,101.5416412353516,-20.984619140625
231478,0.069732666015625,0.5267791748046875,-0.4615631103515625,0.747623860836029,0.0777384713292121,0.1448437422513962,39.24346923828125,101.4069213867188,-20.98001098632812
231479,0.0989227294921875,0.672393798828125,-0.4927825927734375,0.9331859946250916,0.1113318502902985,0.2608246803283691,39.17585754394531,101.3359680175781,-21.00425720214844
231480,0.0989227294921875,0.672393798828125,-0.4927825927734375,0.9331859946250916,0.1113318502902985,0.2608246803283691,39.17585754394531,101.3359680175781,-21.00425720214844
231481,0.20062255859375,1.177490234375,-0.7718963623046875,1.254872679710388,0.13471919298172,0.4361882209777832,39.23922729492188,101.3434753417969,-21.8778076171875
231482,0.2444610595703125,1.59716796875,-0.440155029296875,1.117267727851868,0.5662442445755005,0.4936962723731995,39.27659606933594,101.3942260742188,-22.46365356445312
231483,0.119415283203125,2.047454833984375,0.14361572265625,0.7985627055168152,1.426602959632874,0.1508339792490005,39.30650329589844,101.4078979492188,-23.02127075195312
231484,0.119415283203125,2.047454833984375,0.14361572265625,0.7985627055168152,1.426602959632874,0.1508339792490005,39.30650329589844,101.4078979492188,-23.02127075195312
231485,-0.053192138671875,2.659317016601562,0.23541259765625,0.5215824842453003,1.886276483535767,-0.6423168778419495,39.30281066894531,101.6220092773438,-23.609375
231486,-0.2390899658203125,4.484817504882812,-0.3351898193359375,0.9611814618110656,-0.8752034306526184,-2.114649295806885,39.01605224609375,101.7327270507812,-24.72212219238281
231487,-0.8013763427734375,4.839462280273438,0.2852020263671875,1.154860615730286,-0.945167064666748,-2.389616966247559,38.32876586914062,101.7874603271484,-25.24351501464844
231488,-0.8013763427734375,4.839462280273438,0.2852020263671875,1.154860615730286,-0.945167064666748,-2.389616966247559,38.32876586914062,101.7874603271484,-25.24351501464844
231489,-1.171340942382812,2.6558837890625,-0.910675048828125,0.779753565788269,1.23355758190155,0.5388147234916687,36.44596862792969,101.8048553466797,-26.85379028320312
231490,-0.416473388671875,2.258346557617188,-0.5191497802734375,1.123964190483093,0.175715371966362,0.5921967625617981,36.45234680175781,101.5560302734375,-27.44572448730469
231491,-0.3917999267578125,1.883499145507812,-0.12921142578125,1.548094153404236,0.0787906870245933,0.4916538894176483,36.85063171386719,101.2717590332031,-28.03115844726562
231492,-0.3065185546875,1.689437866210938,-0.1421966552734375,1.73976993560791,0.2355906814336777,0.7193216681480408,37.23100280761719,101.206787109375,-28.77392578125
231493,-0.2060699462890625,1.795852661132812,-0.12286376953125,1.669157981872559,0.1345245242118835,0.9467974305152892,37.53175354003906,100.9842834472656,-29.50529479980469
231494,-0.125244140625,2.037582397460938,0.042449951171875,1.440415620803833,-0.0978666394948959,0.9818094968795776,37.96731567382812,100.8935089111328,-30.58172607421875
231495,-0.0653533935546875,2.25732421875,0.286590576171875,1.20203161239624,-0.1323519200086594,0.8434596061706543,38.52342224121094,100.5680389404297,-31.29925537109375
231496,-0.0653533935546875,2.25732421875,0.286590576171875,1.20203161239624,-0.1323519200086594,0.8434596061706543,38.52342224121094,100.5680389404297,-31.29925537109375
231497,0.0070953369140625,2.232192993164062,0.4398193359375,1.061858296394348,0.068637914955616,0.6396985054016113,39.15850830078125,100.080322265625,-32.12466430664062
231498,0.1209259033203125,1.46380615234375,0.46142578125,1.340622782707214,0.4686745405197144,0.6685705780982971,40.10121154785156,99.26565551757812,-33.39862060546875
231499,0.171661376953125,1.115432739257812,0.3654632568359375,1.69609808921814,0.29856938123703,0.8433091044425964,40.50372314453125,98.79188537597656,-33.96060180664062
231500,0.171661376953125,1.115432739257812,0.3654632568359375,1.69609808921814,0.29856938123703,0.8433091044425964,40.50372314453125,98.79188537597656,-33.96060180664062
231501,0.2037506103515625,0.85699462890625,0.3290557861328125,2.022364616394043,0.036922063678503,0.9994660019874572,41.0406494140625,98.4130859375,-34.60073852539062
231502,0.1668548583984375,0.6221466064453125,0.3093414306640625,2.101485729217529,-0.3132931888103485,1.068254590034485,41.91523742675781,97.85585021972656,-36.25112915039062
231503,0.0932464599609375,0.584716796875,0.27642822265625,1.815010547637939,-0.3570816814899445,0.9335005283355712,42.34246826171875,97.38972473144533,-37.16661071777344
231504,0.0932464599609375,0.584716796875,0.27642822265625,1.815010547637939,-0.3570816814899445,0.9335005283355712,42.34246826171875,97.38972473144533,-37.16661071777344
231505,-0.2469024658203125,0.5737152099609375,0.229400634765625,1.018649816513062,-0.1373120546340942,0.62911456823349,42.97549438476562,96.5123291015625,-38.78819274902344
231506,-0.346771240234375,0.624481201171875,0.277008056640625,0.62254798412323,0.1767148524522781,0.5674554705619812,43.14088439941406,96.3205108642578,-39.4364013671875
231507,-0.3601837158203125,0.569732666015625,0.288848876953125,0.3249962031841278,0.5350468754768372,0.5632500648498535,43.53105163574219,96.10499572753906,-39.81988525390625
231508,-0.3601837158203125,0.569732666015625,0.288848876953125,0.3249962031841278,0.5350468754768372,0.5632500648498535,43.53105163574219,96.10499572753906,-39.81988525390625
231509,-0.3254852294921875,0.4887237548828125,0.2552032470703125,0.2366245239973068,0.9757851362228394,0.6774980425834656,43.81414794921875,96.03546142578124,-40.12754821777344
231510,-0.1330413818359375,0.4195556640625,0.285369873046875,0.3070142567157745,1.115524649620056,0.6784636974334717,44.71810913085938,95.81922912597656,-40.45018005371094
231511,-0.05682373046875,0.4178009033203125,0.3691253662109375,0.3114700019359589,1.322496771812439,0.630614161491394,45.35060119628906,95.75431823730467,-40.63580322265625
231512,-0.05682373046875,0.4178009033203125,0.3691253662109375,0.3114700019359589,1.322496771812439,0.630614161491394,45.35060119628906,95.75431823730467,-40.63580322265625
231513,-0.0104522705078125,0.40106201171875,0.384979248046875,0.2239374965429306,1.542970776557922,0.5599911212921143,45.92201232910156,95.60198974609376,-40.82794189453125
231514,0.0393218994140625,0.37066650390625,0.37823486328125,-0.1108450219035149,1.809019565582275,0.4105137586593628,47.21197509765625,95.512451171875,-41.24020385742188
231515,0.0359039306640625,0.379302978515625,0.48077392578125,-0.3538965582847595,2.014333248138428,0.2935341596603394,47.87001037597656,95.49188232421876,-41.38677978515625
231516,0.0359039306640625,0.379302978515625,0.48077392578125,-0.3538965582847595,2.014333248138428,0.2935341596603394,47.87001037597656,95.49188232421876,-41.38677978515625
231517,0.0291290283203125,0.4244537353515625,0.593048095703125,-1.057235479354858,2.589716196060181,-0.0270958002656698,48.46234130859375,95.46726989746094,-41.25119018554688
231518,-0.0623016357421875,0.579681396484375,0.634735107421875,-1.377909898757935,2.761466264724731,-0.1747512966394424,49.84825134277344,95.77447509765624,-40.82171630859375
231519,-0.1381378173828125,0.6363525390625,0.585296630859375,-1.57774817943573,2.770768404006958,-0.2783330976963043,50.52070617675781,96.06491088867188,-40.18186950683594
231520,-0.1381378173828125,0.6363525390625,0.585296630859375,-1.57774817943573,2.770768404006958,-0.2783330976963043,50.52070617675781,96.06491088867188,-40.18186950683594
231521,-0.1904296875,0.6912841796875,0.5029296875,-1.700669646263123,2.223498582839966,-0.4119100570678711,51.16921997070312,96.26329040527344,-39.54560852050781
231522,-0.24859619140625,0.79949951171875,0.345489501953125,-1.72038745880127,1.761837363243103,-0.5264262557029724,52.182373046875,97.1455535888672,-38.16867065429688
231523,-0.26611328125,0.7763519287109375,0.255401611328125,-1.762535333633423,1.249705910682678,-0.6751941442489624,52.38148498535156,97.6201171875,-37.41152954101562
231524,-0.26611328125,0.7763519287109375,0.255401611328125,-1.762535333633423,1.249705910682678,-0.6751941442489624,52.38148498535156,97.6201171875,-37.41152954101562
231525,-0.248870849609375,0.68865966796875,0.1619873046875,-1.843320250511169,0.6929435729980469,-0.828684389591217,52.52787780761719,98.12722778320312,-36.79373168945312
231526,-0.15667724609375,0.514495849609375,0.1940765380859375,-2.048091888427734,-0.0548219680786132,-1.030837178230286,52.20565795898438,98.84552001953124,-35.08441162109375
231527,-0.1232757568359375,0.4844207763671875,0.227691650390625,-2.095025777816772,-0.034086063504219,-1.062460660934448,51.79133605957031,99.2443389892578,-34.1005859375
231528,-0.1232757568359375,0.4844207763671875,0.227691650390625,-2.095025777816772,-0.034086063504219,-1.062460660934448,51.79133605957031,99.2443389892578,-34.1005859375
231529,-0.083099365234375,0.525909423828125,-0.0998687744140625,-2.096091270446777,-0.007653126027435,-1.131358742713928,50.713134765625,99.95689392089844,-32.13250732421875
231530,-0.0521392822265625,0.5592498779296875,-0.2961883544921875,-1.967278361320496,-0.347847193479538,-1.172329306602478,50.03947448730469,100.50732421875,-31.09367370605469
231531,0.0094146728515625,0.544342041015625,-0.36859130859375,-1.677210688591003,-0.7183858156204224,-1.139569044113159,49.31678771972656,100.8808288574219,-30.01690673828125
231532,0.0094146728515625,0.544342041015625,-0.36859130859375,-1.677210688591003,-0.7183858156204224,-1.139569044113159,49.31678771972656,100.8808288574219,-30.01690673828125
231533,0.068603515625,0.4804840087890625,-0.325286865234375,-1.233399152755737,-0.8682195544242859,-0.9982411861419678,48.55453491210938,101.2775421142578,-29.26667785644531
231534,0.1019439697265625,0.2841339111328125,-0.1653289794921875,-0.3685724437236786,-0.2073222994804382,-0.5916638374328613,47.0465087890625,101.8965606689453,-27.84574890136719
231535,0.0752410888671875,0.19903564453125,-0.1424102783203125,-0.1924277693033218,0.2916177213191986,-0.3879882097244263,46.52444458007812,101.9075622558594,-27.33439636230469
231536,0.0752410888671875,0.19903564453125,-0.1424102783203125,-0.1924277693033218,0.2916177213191986,-0.3879882097244263,46.52444458007812,101.9075622558594,-27.33439636230469
231537,0.042022705078125,0.164306640625,-0.1870880126953125,-0.2039472758769989,0.5335835218429565,-0.2638100683689117,46.04629516601562,101.966796875,-27.14865112304688
231538,0.0223541259765625,0.167572021484375,-0.214874267578125,-0.3418417572975159,0.3623643517494202,-0.2583743035793304,45.74778747558594,102.1045074462891,-26.95541381835938
231539,0.031402587890625,0.1846923828125,-0.250640869140625,-0.3151278495788574,0.1310485601425171,-0.3282553851604462,45.70927429199219,102.1258697509766,-26.68391418457031
231540,0.064910888671875,0.2169036865234375,-0.2839202880859375,-0.1916527897119522,-0.1340446174144745,-0.3557530343532562,45.58021545410156,102.1314239501953,-26.25569152832031
231541,0.064910888671875,0.2169036865234375,-0.2839202880859375,-0.1916527897119522,-0.1340446174144745,-0.3557530343532562,45.58021545410156,102.1314239501953,-26.25569152832031
231542,0.1082305908203125,0.39154052734375,-0.3386993408203125,0.1589142829179764,-0.375492662191391,-0.2490202039480209,45.17095947265625,102.2090301513672,-25.75141906738281
231543,0.1020050048828125,0.563690185546875,-0.441986083984375,0.5704206228256226,-0.359765350818634,-0.2440962940454483,44.83421325683594,102.2665863037109,-25.63497924804688
231544,0.1020050048828125,0.563690185546875,-0.441986083984375,0.5704206228256226,-0.359765350818634,-0.2440962940454483,44.83421325683594,102.2665863037109,-25.63497924804688
231545,0.0873870849609375,0.7997894287109375,-0.6392974853515625,0.5704206228256226,-0.359765350818634,-0.2440962940454483,44.49520874023438,102.247314453125,-25.45693969726562
231546,0.2103118896484375,1.404129028320312,-1.264297485351562,1.208818912506104,-0.9159287214279176,-0.2294097542762756,43.84941101074219,102.4038696289062,-25.51075744628906
231547,0.2615814208984375,1.731826782226562,-1.041259765625,1.26133143901825,-0.2894898653030396,0.0019520970527082,43.51766967773438,102.3183135986328,-25.71511840820312
231548,0.2615814208984375,1.731826782226562,-1.041259765625,1.26133143901825,-0.2894898653030396,0.0019520970527082,43.51766967773438,102.3183135986328,-25.71511840820312
231549,0.0391082763671875,2.211578369140625,-0.154998779296875,0.7282259464263916,1.124031901359558,-0.2975102365016937,42.98529052734375,101.8672180175781,-26.63534545898438
231550,-0.06427001953125,2.6597900390625,-0.4215240478515625,0.8501622676849365,0.3693415522575378,-0.648988664150238,43.02583312988281,101.6191711425781,-27.12648010253906
231551,-0.1882781982421875,3.135650634765625,-0.453277587890625,1.277190566062927,-0.6591536402702332,-0.7972857356071472,43.12612915039062,101.2904968261719,-27.519287109375
231552,-0.1882781982421875,3.135650634765625,-0.453277587890625,1.277190566062927,-0.6591536402702332,-0.7972857356071472,43.12612915039062,101.2904968261719,-27.519287109375
231553,-0.570343017578125,3.191879272460938,-0.13671875,1.521164894104004,0.0202131252735853,-0.4466770887374878,43.04426574707031,101.1409759521484,-28.0941162109375
231554,-0.7373504638671875,2.396636962890625,-0.516021728515625,1.522560596466064,1.412267684936523,0.305109828710556,42.45033264160156,101.1172332763672,-29.70806884765625
231555,-0.64849853515625,2.418594360351562,-0.4372406005859375,1.509921789169312,0.8846709728240967,-0.0308809503912925,42.69013977050781,101.0430603027344,-30.50006103515625
231556,-0.777984619140625,2.334808349609375,-0.4155426025390625,1.493052840232849,0.3703320026397705,-0.1860175430774689,43.05854797363281,100.9597320556641,-31.51870727539062
231557,-0.777984619140625,2.334808349609375,-0.4155426025390625,1.493052840232849,0.3703320026397705,-0.1860175430774689,43.05854797363281,100.9597320556641,-31.51870727539062
231558,-0.3961944580078125,2.251174926757812,-0.3543701171875,0.9823993444442748,-0.0179028343409299,0.1203586384654045,43.35009765625,100.5357055664062,-33.1815185546875
231559,-0.247802734375,2.155364990234375,-0.2178955078125,0.7139120101928711,0.351095974445343,0.4431502819061279,43.29771423339844,100.2706146240234,-33.80863952636719
231560,-0.2449493408203125,2.099227905273438,0.007171630859375,0.7741804122924805,0.6338033080101013,0.7670665383338928,43.35122680664062,99.91374206542967,-34.26054382324219
231561,-0.2449493408203125,2.099227905273438,0.007171630859375,0.7741804122924805,0.6338033080101013,0.7670665383338928,43.35122680664062,99.91374206542967,-34.26054382324219
231562,-0.26123046875,2.1591796875,0.2868804931640625,1.255473732948303,0.9077925086021424,0.9357383847236632,44.05137634277344,99.70193481445312,-35.42291259765625
231563,-0.2662506103515625,2.151046752929688,0.397308349609375,1.482593178749084,0.9468418955802916,0.7745844125747681,44.6656494140625,99.61251831054688,-35.98077392578125
231564,-0.1810455322265625,1.909469604492188,0.48944091796875,1.599125981330872,1.007249355316162,0.5980722308158875,45.33221435546875,99.29850769042967,-36.76663208007812
231565,-0.1810455322265625,1.909469604492188,0.48944091796875,1.599125981330872,1.007249355316162,0.5980722308158875,45.33221435546875,99.29850769042967,-36.76663208007812
231566,0.06390380859375,1.191879272460938,0.396392822265625,1.607739925384521,0.4956198632717133,0.5077913403511047,46.57562255859375,98.16871643066406,-38.38111877441406
231567,0.1791534423828125,0.9591522216796876,0.2987213134765625,1.508434414863586,0.0387053191661834,0.5502333045005798,47.03753662109375,97.62063598632812,-39.13288879394531
231568,0.2741241455078125,0.8238983154296875,0.18731689453125,1.371665358543396,-0.4139580428600311,0.5883955955505371,47.41886901855469,97.1154327392578,-39.92678833007812
231569,0.2741241455078125,0.8238983154296875,0.18731689453125,1.371665358543396,-0.4139580428600311,0.5883955955505371,47.41886901855469,97.1154327392578,-39.92678833007812
231570,0.3614501953125,0.7719573974609375,0.0571441650390625,0.9238143563270568,-0.8528051376342773,0.5680330991744995,47.66947937011719,96.47970581054688,-41.30218505859375
231571,0.3785552978515625,0.79058837890625,0.0245819091796875,0.6714202165603638,-0.7726544141769409,0.535720944404602,47.756103515625,96.2733154296875,-41.82164001464844
231572,0.3785552978515625,0.79058837890625,0.0245819091796875,0.6714202165603638,-0.7726544141769409,0.535720944404602,47.756103515625,96.2733154296875,-41.82164001464844
231573,0.3174896240234375,0.8190765380859375,0.100189208984375,0.5192261338233948,-0.3985902667045593,0.4894762337207794,47.68144226074219,96.13558959960938,-42.22332763671875
231574,-0.08197021484375,0.7574462890625,0.02886962890625,0.7222695350646973,0.4956435561180115,0.8100531697273254,47.77357482910156,95.88761901855467,-42.60005187988281
231575,-0.1818389892578125,0.72412109375,0.0798797607421875,0.7222695350646973,0.4956435561180115,0.8100531697273254,48.12055969238281,95.57551574707033,-42.7391357421875
231576,-0.2386322021484375,0.655487060546875,0.153961181640625,0.6464868783950806,0.6867530941963196,0.8339132070541382,48.60809326171875,95.30363464355467,-43.11810302734375
231577,-0.2386322021484375,0.655487060546875,0.153961181640625,0.6464868783950806,0.6867530941963196,0.8339132070541382,48.60809326171875,95.30363464355467,-43.11810302734375
231578,-0.2589263916015625,0.5135650634765625,0.1890716552734375,0.3970421552658081,0.9875238537788392,0.7114022374153137,49.65347290039062,94.68460083007812,-43.32603454589844
231579,-0.234161376953125,0.4164886474609375,0.1451416015625,0.2133511602878571,0.8967342972755432,0.5336170792579651,50.34043884277344,94.44781494140624,-43.52635192871094
231580,-0.1827392578125,0.3456573486328125,0.13934326171875,0.2133511602878571,0.8967342972755432,0.5336170792579651,50.92881774902344,94.31002807617188,-43.79469299316406
231581,-0.1827392578125,0.3456573486328125,0.13934326171875,0.2133511602878571,0.8967342972755432,0.5336170792579651,50.92881774902344,94.31002807617188,-43.79469299316406
231582,-0.0860443115234375,0.292572021484375,0.321197509765625,-0.0154324853792786,1.154930949211121,0.3175462782382965,52.01058959960938,94.18934631347656,-44.09187316894531
231583,-0.063201904296875,0.3167572021484375,0.42864990234375,-0.2681038975715637,1.533774375915527,0.1817237287759781,52.49636840820312,94.03526306152344,-44.09742736816406
231584,-0.06829833984375,0.4127960205078125,0.5160064697265625,-1.072798728942871,2.311585903167725,-0.164825439453125,52.97711181640625,94.13365173339844,-44.35118103027344
231585,-0.122161865234375,0.5709381103515625,0.5447540283203125,-1.072798728942871,2.311585903167725,-0.164825439453125,53.60427856445312,94.01083374023438,-44.22592163085938
231586,-0.2158660888671875,0.727294921875,0.510833740234375,-1.434170246124268,2.42751932144165,-0.3066187798976898,54.17500305175781,94.08303833007812,-43.90576171875
231587,-0.3175201416015625,0.82415771484375,0.4875946044921875,-1.632445335388184,2.322855234146118,-0.4074340760707855,54.79689025878906,94.3483428955078,-43.4244384765625
231588,-0.3175201416015625,0.82415771484375,0.4875946044921875,-1.632445335388184,2.322855234146118,-0.4074340760707855,54.79689025878906,94.3483428955078,-43.4244384765625
231589,-0.4031219482421875,0.8549652099609375,0.4244232177734375,-1.645349144935608,1.798415660858154,-0.4320358335971832,55.94288635253906,95.10858154296876,-41.791259765625
231590,-0.37481689453125,0.7993316650390625,0.357940673828125,-1.607749581336975,1.418432354927063,-0.4030419886112213,56.34844970703125,95.57722473144533,-41.02197265625
231591,-0.298919677734375,0.7348785400390625,0.299468994140625,-1.633898615837097,0.9925143122673036,-0.4587904810905457,56.57763671875,96.10992431640624,-40.20472717285156
231592,-0.2349700927734375,0.6472930908203125,0.2908477783203125,-1.746394991874695,0.4558743238449097,-0.6059016585350037,56.824462890625,96.5885772705078,-39.48863220214844
231593,-0.2015228271484375,0.5613861083984375,0.29833984375,-1.746394991874695,0.4558743238449097,-0.6059016585350037,56.89018249511719,96.84942626953124,-38.64913940429688
231594,-0.1790313720703125,0.4991607666015625,0.2838897705078125,-1.786612749099731,0.3592061102390289,-0.7012041807174683,56.81622314453125,97.25392150878906,-37.82005310058594
231595,-0.154205322265625,0.4827728271484375,0.2233734130859375,-1.832069993019104,0.307309091091156,-0.8118206858634949,56.63427734375,97.65007019042967,-36.99667358398438
231596,-0.154205322265625,0.4827728271484375,0.2233734130859375,-1.832069993019104,0.307309091091156,-0.8118206858634949,56.63427734375,97.65007019042967,-36.99667358398438
231597,-0.1415557861328125,0.4829864501953125,0.1117401123046875,-1.948909044265747,0.0374815948307514,-1.039030432701111,56.39678955078125,97.9980010986328,-36.14291381835938
231598,-0.1155242919921875,0.441650390625,-0.2566070556640625,-1.893334150314331,-0.3426167368888855,-1.115161418914795,55.70533752441406,98.85295104980467,-34.51649475097656
231599,-0.0439910888671875,0.362335205078125,-0.3508453369140625,-1.650561928749084,-0.7352782487869263,-1.118283748626709,55.05715942382812,99.2438507080078,-33.55526733398438
231600,-0.0439910888671875,0.362335205078125,-0.3508453369140625,-1.650561928749084,-0.7352782487869263,-1.118283748626709,55.05715942382812,99.2438507080078,-33.55526733398438
231601,0.004791259765625,0.2591552734375,-0.31719970703125,-1.275221347808838,-0.8283991813659668,-1.006859421730042,54.47676086425781,99.71078491210938,-32.77911376953125
231602,0.0540313720703125,0.1592254638671875,-0.21826171875,-0.6929638385772705,-0.1185458227992058,-0.6457590460777283,52.92967224121094,100.6057434082031,-31.18952941894531
231603,0.079620361328125,0.1770172119140625,-0.2211151123046875,-0.5815851092338562,0.2118909507989883,-0.4739941954612732,52.30146789550781,100.7181854248047,-30.64823913574219
231604,0.079620361328125,0.1770172119140625,-0.2211151123046875,-0.5815851092338562,0.2118909507989883,-0.4739941954612732,52.30146789550781,100.7181854248047,-30.64823913574219
231605,0.1005096435546875,0.2104644775390625,-0.2227935791015625,-0.5371974110603333,0.3861048221588135,-0.3680741488933563,51.94737243652344,100.9160919189453,-30.19134521484375
231606,0.1212615966796875,0.20654296875,-0.250396728515625,-0.4632901549339294,0.2046093344688416,-0.2988418340682983,51.28936767578125,101.2104949951172,-29.40586853027344
231607,0.1385498046875,0.2134552001953125,-0.2619476318359375,-0.3814725279808044,-0.0242882948368787,-0.276121586561203,51.21463012695312,101.2941284179688,-29.11476135253906
231608,0.1385498046875,0.2134552001953125,-0.2619476318359375,-0.3814725279808044,-0.0242882948368787,-0.276121586561203,51.21463012695312,101.2941284179688,-29.11476135253906
231609,0.1663665771484375,0.2486419677734375,-0.27691650390625,-0.2435431480407715,-0.2038146406412125,-0.2240141928195953,51.05007934570312,101.2886352539062,-28.84382629394531
231610,0.232818603515625,0.4266510009765625,-0.341552734375,0.0975558534264564,-0.2070314735174179,-0.071583904325962,50.77679443359375,101.4652404785156,-28.28987121582031
231611,0.2576751708984375,0.54315185546875,-0.4305267333984375,0.2569721341133118,-0.1369775533676147,-0.018200309947133,50.58345031738281,101.5122680664062,-28.12278747558594
231612,0.2576751708984375,0.54315185546875,-0.4305267333984375,0.2569721341133118,-0.1369775533676147,-0.018200309947133,50.58345031738281,101.5122680664062,-28.12278747558594
231613,0.2656402587890625,0.6831817626953125,-0.5232086181640625,0.4295540452003479,-0.105816975235939,0.0033225596416741,50.43618774414062,101.6177673339844,-27.91081237792969
231614,0.278961181640625,1.086212158203125,-0.9810638427734376,0.921791672706604,-0.2560493648052216,0.1064196527004242,50.16148376464844,101.4993743896484,-27.98930358886719
231615,0.25665283203125,1.414993286132812,-1.150772094726562,1.054596662521362,-0.0439991503953933,0.2978689670562744,50.0770263671875,101.4091186523438,-27.99894714355469
231616,0.25665283203125,1.414993286132812,-1.150772094726562,1.054596662521362,-0.0439991503953933,0.2978689670562744,50.0770263671875,101.4091186523438,-27.99894714355469
231617,0.1135101318359375,1.822723388671875,-0.99981689453125,0.7174974083900452,0.7874568104743958,0.4280714392662048,49.97476196289062,101.3962707519531,-28.18338012695312
231618,-0.221771240234375,2.70526123046875,-0.211151123046875,-0.1174832209944725,1.235513687133789,-0.7361387610435486,49.84695434570312,101.2713317871094,-28.88224792480469
231619,-0.2736663818359375,3.42681884765625,-0.452301025390625,0.3762311637401581,0.1897704601287842,-1.514601469039917,50.09037780761719,101.2465209960938,-29.09640502929688
231620,-0.4477691650390625,3.9871826171875,-0.269134521484375,1.308812856674194,-0.4557150602340698,-1.887401938438416,50.14289855957031,101.3269500732422,-29.12806701660156
231621,-0.4477691650390625,3.9871826171875,-0.269134521484375,1.308812856674194,-0.4557150602340698,-1.887401938438416,50.14289855957031,101.3269500732422,-29.12806701660156
231622,-1.109024047851562,3.068695068359375,-0.3128814697265625,1.78553307056427,2.003771781921387,0.1634573638439178,48.32321166992188,101.759765625,-30.894775390625
231623,-0.4686126708984375,2.8067626953125,-0.4828033447265625,1.510151863098145,1.295138120651245,0.0834429636597633,48.3245849609375,101.5773162841797,-31.81883239746094
231624,-0.52069091796875,2.433624267578125,-0.330352783203125,1.313356518745422,0.6251155138015747,-0.0561330430209636,48.65510559082031,101.3694458007812,-32.77568054199219
231625,-0.52069091796875,2.433624267578125,-0.330352783203125,1.313356518745422,0.6251155138015747,-0.0561330430209636,48.65510559082031,101.3694458007812,-32.77568054199219
231626,-0.3399505615234375,2.001052856445312,-0.4199371337890625,1.15121603012085,0.4609186053276062,0.655268132686615,49.12501525878906,100.9247283935547,-34.22850036621094
231627,-0.331756591796875,1.96807861328125,-0.2631683349609375,1.243746280670166,0.4381707012653351,0.9209775328636168,49.50657653808594,100.5657958984375,-34.86325073242188
231628,-0.3320159912109375,1.990585327148438,-0.033935546875,1.488523006439209,0.4876911044120789,1.103808879852295,50.01705932617188,100.2543640136719,-35.49967956542969
231629,-0.3320159912109375,1.990585327148438,-0.033935546875,1.488523006439209,0.4876911044120789,1.103808879852295,50.01705932617188,100.2543640136719,-35.49967956542969
231630,-0.3143157958984375,1.972396850585938,0.2821502685546875,1.89639675617218,0.8810650110244751,0.9841395020484924,51.40672302246094,99.47117614746094,-36.89811706542969
231631,-0.2630767822265625,1.82403564453125,0.34063720703125,1.982828378677368,1.015911817550659,0.7776763439178467,52.07879638671875,98.95721435546876,-37.79791259765625
231632,-0.157073974609375,1.508438110351562,0.340576171875,1.944097995758057,0.876140296459198,0.6033273935317993,52.86058044433594,98.38433837890624,-38.907958984375
231633,-0.157073974609375,1.508438110351562,0.340576171875,1.944097995758057,0.876140296459198,0.6033273935317993,52.86058044433594,98.38433837890624,-38.907958984375
231634,0.080230712890625,0.901397705078125,0.399932861328125,1.669959902763367,0.3827090263366699,0.4615013003349304,53.93017578125,97.0793914794922,-40.66841125488281
231635,0.203521728515625,0.6779632568359375,0.40679931640625,1.475105166435242,0.0741349458694458,0.4896722435951233,54.32421875,96.38664245605467,-41.51153564453125
231636,0.203521728515625,0.6779632568359375,0.40679931640625,1.475105166435242,0.0741349458694458,0.4896722435951233,54.32421875,96.38664245605467,-41.51153564453125
231637,0.3896484375,0.4722137451171875,0.300384521484375,1.08605682849884,-0.7056700587272644,0.7117851972579956,54.5660400390625,95.51765441894533,-42.95492553710938
231638,0.4273834228515625,0.54510498046875,0.1884765625,0.8340402841567993,-0.92671400308609,0.7500172853469849,54.57887268066406,95.15257263183594,-43.44859313964844
231639,0.323333740234375,0.799346923828125,0.0972900390625,0.4934965372085571,-0.6001851558685303,0.6018661260604858,54.54656982421875,94.95074462890624,-43.79689025878906
231640,-0.04425048828125,0.89617919921875,0.0134735107421875,0.1774293780326843,0.2282480895519257,0.6325864791870117,54.48796081542969,94.69754028320312,-44.17094421386719
231641,-0.04425048828125,0.89617919921875,0.0134735107421875,0.1774293780326843,0.2282480895519257,0.6325864791870117,54.48796081542969,94.69754028320312,-44.17094421386719
231642,-0.238250732421875,0.846710205078125,-0.0331268310546875,0.4243099987506866,0.9262791275978088,0.7052567005157471,54.67723083496094,94.64990234375,-44.21559143066406
231643,-0.2602691650390625,0.6289825439453125,0.0755615234375,0.5802218317985535,1.026869654655457,0.6689634323120117,55.60690307617188,94.25372314453124,-44.27363586425781
231644,-0.2602691650390625,0.6289825439453125,0.0755615234375,0.5802218317985535,1.026869654655457,0.6689634323120117,55.60690307617188,94.25372314453124,-44.27363586425781
231645,-0.1866302490234375,0.4727935791015625,0.1478118896484375,0.3626381158828735,1.152383327484131,0.562169075012207,56.79388427734375,93.69017028808594,-44.80058288574219
231646,-0.12078857421875,0.447021484375,0.16656494140625,0.169237494468689,1.243863940238953,0.4909505546092987,57.37431335449219,93.3370361328125,-44.91354370117188
231647,-0.099090576171875,0.4481658935546875,0.1901092529296875,0.016434634104371,1.314557909965515,0.4208462834358215,58.00982666015625,93.14248657226562,-44.90733337402344
231648,-0.099090576171875,0.4481658935546875,0.1901092529296875,0.016434634104371,1.314557909965515,0.4208462834358215,58.00982666015625,93.14248657226562,-44.90733337402344
231649,-0.0465087890625,0.504150390625,0.361724853515625,-0.3196954429149628,1.577308773994446,0.1750527769327164,59.17288208007812,92.98728942871094,-44.67845153808594
231650,-0.054656982421875,0.576019287109375,0.438140869140625,-0.6159912943840027,1.833508849143982,0.0285861045122146,59.69709777832031,92.86634826660156,-44.31602478027344
231651,-0.0924530029296875,0.69598388671875,0.484130859375,-1.01908278465271,2.08029317855835,-0.1105006784200668,60.23416137695312,92.99894714355467,-44.04820251464844
231652,-0.0924530029296875,0.69598388671875,0.484130859375,-1.01908278465271,2.08029317855835,-0.1105006784200668,60.23416137695312,92.99894714355467,-44.04820251464844
231653,-0.16278076171875,0.9001007080078125,0.482696533203125,-1.441312909126282,2.205491304397583,-0.2467069923877716,60.77310180664062,93.14151000976562,-43.62477111816406
231654,-0.286163330078125,1.062164306640625,0.4871826171875,-1.862908601760864,2.25494909286499,-0.4553930759429932,61.83233642578125,93.99327087402344,-41.99542236328125
231655,-0.292633056640625,1.0345458984375,0.4693603515625,-1.82201075553894,2.271597623825073,-0.4993882477283478,62.30499267578125,94.5058135986328,-40.90538024902344
231656,-0.292633056640625,1.0345458984375,0.4693603515625,-1.82201075553894,2.271597623825073,-0.4993882477283478,62.30499267578125,94.5058135986328,-40.90538024902344
231657,-0.255645751953125,0.9478759765625,0.4144744873046875,-1.684737205505371,2.225882291793823,-0.5396171808242798,62.57168579101562,94.9595947265625,-39.90171813964844
231658,-0.1553802490234375,0.7325897216796875,0.26287841796875,-1.375565052032471,1.653351068496704,-0.6792749166488647,63.23930358886719,95.99665832519533,-38.15406799316406
231659,-0.1241912841796875,0.6166229248046875,0.22119140625,-1.330496907234192,1.246290445327759,-0.7726945877075195,63.33512878417969,96.40925598144533,-37.24778747558594
231660,-0.1241912841796875,0.6166229248046875,0.22119140625,-1.330496907234192,1.246290445327759,-0.7726945877075195,63.33512878417969,96.40925598144533,-37.24778747558594
231661,-0.0611114501953125,0.43023681640625,0.1019134521484375,-1.428149938583374,0.6336908936500549,-0.8381276726722717,63.28031921386719,97.1708984375,-35.66207885742188
231662,-0.056427001953125,0.372528076171875,0.003875732421875,-1.551555991172791,0.0845841243863105,-0.9673032164573668,63.05656433105469,97.50772094726562,-34.89413452148438
231663,-0.047271728515625,0.3311614990234375,-0.080108642578125,-1.551555991172791,0.0845841243863105,-0.9673032164573668,62.76152038574219,97.9337921142578,-34.15052795410156
231664,-0.02435302734375,0.30645751953125,-0.15875244140625,-1.54175877571106,-0.1543229967355728,-1.045155167579651,62.27046203613281,98.35604858398438,-33.45892333984375
231665,-0.02435302734375,0.30645751953125,-0.15875244140625,-1.54175877571106,-0.1543229967355728,-1.045155167579651,62.27046203613281,98.35604858398438,-33.45892333984375
231666,0.0501251220703125,0.2558746337890625,-0.372802734375,-1.168967366218567,-0.792443573474884,-1.117982983589172,61.19132995605469,99.24964904785156,-32.06648254394531
231667,0.092529296875,0.2068939208984375,-0.463775634765625,-0.8297600150108337,-1.20331335067749,-1.066197037696838,60.49969482421875,99.58949279785156,-31.37254333496094
231668,0.092529296875,0.2068939208984375,-0.463775634765625,-0.8297600150108337,-1.20331335067749,-1.066197037696838,60.49969482421875,99.58949279785156,-31.37254333496094
231669,0.1814727783203125,0.120025634765625,-0.3211822509765625,-0.2258869260549545,-1.123498439788818,-0.7718860507011414,58.91273498535156,100.1061553955078,-30.55921936035156
231670,0.2078857421875,0.0859527587890625,-0.2940826416015625,-0.1965961456298828,-0.3840981423854828,-0.5995297431945801,58.12631225585938,100.3622894287109,-30.62306213378906
231671,0.20709228515625,0.0765838623046875,-0.3002166748046875,-0.301335334777832,0.1745097488164902,-0.4655439853668213,57.46998596191406,100.5362701416016,-30.51846313476562
231672,0.20709228515625,0.0765838623046875,-0.3002166748046875,-0.301335334777832,0.1745097488164902,-0.4655439853668213,57.46998596191406,100.5362701416016,-30.51846313476562
231673,0.1782989501953125,0.090362548828125,-0.279815673828125,-0.4290504157543182,0.3650623857975006,-0.4097305238246918,57.11131286621094,100.6442260742188,-30.39347839355469
231674,0.1172637939453125,0.145172119140625,-0.1938629150390625,-0.5586417317390442,0.1882636547088623,-0.4444349706172943,56.73593139648438,100.960205078125,-29.89195251464844
231675,0.104766845703125,0.180419921875,-0.1847076416015625,-0.5085124969482422,-0.1333066523075104,-0.4208356440067291,56.62893676757812,101.1285858154297,-29.49171447753906
231676,0.0818328857421875,0.27081298828125,-0.239044189453125,-0.5085124969482422,-0.1333066523075104,-0.4208356440067291,56.52944946289062,101.1250762939453,-29.029296875
231677,0.0818328857421875,0.27081298828125,-0.239044189453125,-0.5085124969482422,-0.1333066523075104,-0.4208356440067291,56.52944946289062,101.1250762939453,-29.029296875
231678,0.11376953125,0.571807861328125,-0.42401123046875,-0.2502500414848328,-0.5069265961647034,-0.2408546954393387,56.17070007324219,101.3302001953125,-28.24192810058594
231679,0.1533050537109375,0.793212890625,-0.550384521484375,0.0423919297754764,-0.6477673053741455,-0.1057658419013023,55.80386352539062,101.4053955078125,-27.82493591308594
231680,0.1533050537109375,0.793212890625,-0.550384521484375,0.0423919297754764,-0.6477673053741455,-0.1057658419013023,55.80386352539062,101.4053955078125,-27.82493591308594
231681,0.1847381591796875,1.065444946289062,-0.6768646240234375,0.4597673416137695,-0.5963315367698669,0.0220166184008121,55.57475280761719,101.6668853759766,-27.79238891601562
231682,0.16180419921875,1.731399536132812,-0.8938751220703125,1.128512382507324,-0.195200651884079,0.2705428004264832,55.03439331054688,101.8262939453125,-28.08779907226562
231683,0.0033721923828125,2.005035400390625,-0.5377349853515625,1.033303260803223,0.4226689636707306,0.1457281708717346,54.85684204101562,101.9082489013672,-28.29600524902344
231684,-0.1920623779296875,2.216278076171875,-0.1007843017578125,0.7854048013687134,1.047062039375305,-0.2835432887077332,54.96458435058594,101.7561798095703,-28.84222412109375
231685,-0.1920623779296875,2.216278076171875,-0.1007843017578125,0.7854048013687134,1.047062039375305,-0.2835432887077332,54.96458435058594,101.7561798095703,-28.84222412109375
231686,-0.401519775390625,3.165603637695312,-0.4146728515625,0.6753595471382141,0.1221722513437271,-1.448930859565735,55.04519653320312,101.3977355957031,-29.69572448730469
231687,-0.6707305908203125,3.23577880859375,-0.1699981689453125,0.896680474281311,-0.1941572278738022,-1.261308193206787,54.91136169433594,101.4648132324219,-30.19758605957031
231688,-0.6707305908203125,3.23577880859375,-0.1699981689453125,0.896680474281311,-0.1941572278738022,-1.261308193206787,54.91136169433594,101.4648132324219,-30.19758605957031
231689,-1.057098388671875,2.882965087890625,0.0489654541015625,1.063457250595093,0.9712092876434326,-0.1119241341948509,54.32713317871094,101.6073760986328,-30.68565368652344
231690,-0.5667724609375,2.557144165039062,-0.2761383056640625,1.266865491867065,1.101341962814331,-0.0564174689352512,53.89852905273438,101.6962738037109,-31.82080078125
231691,-0.758056640625,2.335647583007812,-0.434112548828125,1.191035628318787,0.5388376712799072,-0.0076784258708357,54.13743591308594,101.4435272216797,-32.34445190429688
231692,-0.758056640625,2.335647583007812,-0.434112548828125,1.191035628318787,0.5388376712799072,-0.0076784258708357,54.13743591308594,101.4435272216797,-32.34445190429688
231693,-0.31689453125,2.117828369140625,-0.45758056640625,0.8571780920028687,0.0097016291692852,0.5098041296005249,54.51402282714844,100.96923828125,-33.60026550292969
231694,-0.180938720703125,2.0743408203125,-0.256439208984375,1.018792033195496,0.401080310344696,0.8109213709831238,54.72964477539062,100.7533111572266,-33.99128723144531
231695,-0.151214599609375,2.10888671875,-0.054901123046875,1.350806951522827,0.6149622201919556,1.061554908752441,54.98214721679688,100.4178619384766,-34.26902770996094
231696,-0.151214599609375,2.10888671875,-0.054901123046875,1.350806951522827,0.6149622201919556,1.061554908752441,54.98214721679688,100.4178619384766,-34.26902770996094
231697,-0.1118927001953125,2.169281005859375,0.0938873291015625,1.584058284759521,0.7607053518295288,1.163559079170227,55.48213195800781,100.0732116699219,-34.97279357910156
231698,-0.03961181640625,2.062973022460938,0.3037109375,1.680599808692932,0.9344710111618042,0.9627044796943665,56.84005737304688,99.21142578125,-36.3077392578125
231699,-0.0097503662109375,1.833480834960938,0.3381500244140625,1.702938675880432,0.9212238788604736,0.7975831627845764,57.69729614257812,98.64122009277344,-37.08265686035156
231700,-0.0097503662109375,1.833480834960938,0.3381500244140625,1.702938675880432,0.9212238788604736,0.7975831627845764,57.69729614257812,98.64122009277344,-37.08265686035156
231701,0.061676025390625,1.225357055664062,0.3908538818359375,1.653926610946655,0.1323077082633972,0.6320192813873291,59.04472351074219,97.48191833496094,-38.6678466796875
231702,0.109283447265625,0.975067138671875,0.42510986328125,1.653926610946655,0.1323077082633972,0.6320192813873291,59.62031555175781,96.9769287109375,-39.43501281738281
231703,0.151458740234375,0.789886474609375,0.38580322265625,1.557509541511536,-0.1242311373353004,0.6363577842712402,60.0308837890625,96.33828735351562,-40.12442016601562
231704,0.1985321044921875,0.65545654296875,0.2466888427734375,1.372799873352051,-0.5675915479660034,0.6505362391471863,60.42276000976562,95.7508544921875,-40.80915832519531
231705,0.1985321044921875,0.65545654296875,0.2466888427734375,1.372799873352051,-0.5675915479660034,0.6505362391471863,60.42276000976562,95.7508544921875,-40.80915832519531
231706,0.237762451171875,0.629364013671875,0.003662109375,0.9447923302650452,-1.567445039749146,0.4959021508693695,60.72137451171875,94.69775390625,-41.9871826171875
231707,0.1409149169921875,0.640869140625,-0.003692626953125,0.6966696381568909,-1.350180625915527,0.5146468281745911,60.71759033203125,94.27384948730467,-42.60636901855469
231708,-0.0222625732421875,0.57794189453125,0.0655975341796875,0.4205411076545715,-0.4318363666534424,0.6496016979217529,60.41215515136719,94.05314636230467,-43.08045959472656
231709,-0.1396026611328125,0.5311737060546875,0.0853118896484375,0.3065604567527771,0.4858543276786804,0.8345875144004822,60.26260375976562,93.80239868164062,-43.55772399902344
231710,-0.1585693359375,0.4918060302734375,0.099945068359375,0.2857846021652222,0.8694701790809631,0.918946087360382,60.4049072265625,93.58201599121094,-43.79750061035156
231711,-0.215576171875,0.4057464599609375,0.14825439453125,0.27323979139328,0.9741305112838744,0.915655791759491,60.91215515136719,93.28158569335938,-43.84220886230469
231712,-0.2593841552734375,0.3670501708984375,0.1962432861328125,0.2529249489307404,0.9457753300666808,0.835340142250061,61.67271423339844,92.9424285888672,-43.84042358398438
231713,-0.2593841552734375,0.3670501708984375,0.1962432861328125,0.2529249489307404,0.9457753300666808,0.835340142250061,61.67271423339844,92.9424285888672,-43.84042358398438
231714,-0.262725830078125,0.2800750732421875,0.3217620849609375,0.1300160586833954,1.027493357658386,0.588406503200531,62.92301940917969,92.5570831298828,-43.83485412597656
231715,-0.2188720703125,0.238372802734375,0.3576507568359375,0.0128010166808962,1.229214429855347,0.4685224592685699,63.53562927246094,92.38694763183594,-43.71330261230469
231716,-0.17572021484375,0.2383270263671875,0.3653411865234375,-0.1579933613538742,1.482705354690552,0.3505516350269318,63.95712280273438,92.27066040039062,-43.71864318847656
231717,-0.17572021484375,0.2383270263671875,0.3653411865234375,-0.1579933613538742,1.482705354690552,0.3505516350269318,63.95712280273438,92.27066040039062,-43.71864318847656
231718,-0.102813720703125,0.3642425537109375,0.3824462890625,-0.6806118488311768,2.030110836029053,0.0987561345100402,65.03012084960938,92.12173461914062,-43.35151672363281
231719,-0.088165283203125,0.5437469482421875,0.400360107421875,-0.982023060321808,2.247593402862549,-0.0639036148786544,65.52392578125,92.11862182617188,-42.97697448730469
231720,-0.1728363037109375,0.922210693359375,0.397979736328125,-1.530970811843872,2.292159795761108,-0.3877384066581726,66.65322875976562,92.51893615722656,-41.777099609375
231721,-0.1728363037109375,0.922210693359375,0.397979736328125,-1.530970811843872,2.292159795761108,-0.3877384066581726,66.65322875976562,92.51893615722656,-41.777099609375
231722,-0.20892333984375,1.027587890625,0.3758544921875,-1.630339026451111,2.085306406021118,-0.5150526762008667,67.13174438476562,92.68147277832033,-40.84269714355469
231723,-0.2060699462890625,1.058624267578125,0.3470458984375,-1.600319623947144,1.738862276077271,-0.6295086741447449,67.52690124511719,93.24397277832033,-39.88165283203125
231724,-0.114227294921875,0.975677490234375,0.3350067138671875,-1.420018553733826,1.101475715637207,-0.8420904874801636,67.96751403808594,94.18907165527344,-37.87474060058594
231725,-0.114227294921875,0.975677490234375,0.3350067138671875,-1.420018553733826,1.101475715637207,-0.8420904874801636,67.96751403808594,94.18907165527344,-37.87474060058594
231726,-0.0588531494140625,0.88726806640625,0.274688720703125,-1.405788421630859,0.9462040662765504,-0.9096071720123292,68.04798889160156,94.61407470703124,-36.90652465820312
231727,-0.009033203125,0.7782440185546875,0.1756439208984375,-1.423458576202393,0.8149965405464172,-0.9388718605041504,67.84721374511719,95.23216247558594,-36.23265075683594
231728,0.026458740234375,0.646148681640625,0.118896484375,-1.420512795448303,0.7120339274406433,-0.9377261996269226,67.66481018066406,95.66302490234376,-35.45375061035156
231729,0.0585479736328125,0.537200927734375,0.117950439453125,-1.336753964424133,0.7136374115943909,-0.8444564342498779,67.4246826171875,96.08323669433594,-34.76304626464844
231730,0.078155517578125,0.447296142578125,0.113861083984375,-1.336753964424133,0.7136374115943909,-0.8444564342498779,67.11698913574219,96.35276794433594,-33.95390319824219
231731,0.082855224609375,0.3763275146484375,0.0876617431640625,-1.33336353302002,0.736108124256134,-0.7894262075424194,66.77255249023438,96.67437744140624,-33.17449951171875
231732,0.078826904296875,0.339630126953125,0.034210205078125,-1.444454908370972,0.5703297853469849,-0.7600339651107788,66.44938659667969,97.05618286132812,-32.48410034179688
231733,0.078826904296875,0.339630126953125,0.034210205078125,-1.444454908370972,0.5703297853469849,-0.7600339651107788,66.44938659667969,97.05618286132812,-32.48410034179688
231734,0.0827789306640625,0.289886474609375,-0.1732635498046875,-1.500809788703918,0.2704653143882751,-0.7689443230628967,65.89961242675781,97.6380615234375,-30.89714050292969
231735,0.0998687744140625,0.26055908203125,-0.26324462890625,-1.50705623626709,-0.1724921464920044,-0.7753229141235352,65.71739196777344,97.97598266601562,-30.14048767089844
231736,0.1525421142578125,0.1951751708984375,-0.3894805908203125,-1.244011044502258,-1.231036901473999,-0.7018737196922302,64.75880432128906,98.70326232910156,-28.73445129394531
231737,0.1525421142578125,0.1951751708984375,-0.3894805908203125,-1.244011044502258,-1.231036901473999,-0.7018737196922302,64.75880432128906,98.70326232910156,-28.73445129394531
231738,0.174560546875,0.18060302734375,-0.34967041015625,-0.9865871667861938,-1.66026782989502,-0.6391485333442688,64.30313110351562,99.10643005371094,-28.04116821289062
231739,0.1851348876953125,0.1764068603515625,-0.2669525146484375,-0.7087446451187134,-1.816281199455261,-0.5791661739349365,63.72816467285156,99.39694213867188,-27.36054992675781
231740,0.184600830078125,0.197845458984375,-0.1758880615234375,-0.4568524956703186,-1.670074701309204,-0.5329885482788086,63.10760498046875,99.66470336914062,-26.982666015625
231741,0.184600830078125,0.197845458984375,-0.1758880615234375,-0.4568524956703186,-1.670074701309204,-0.5329885482788086,63.10760498046875,99.66470336914062,-26.982666015625
231742,0.1557769775390625,0.281951904296875,-0.159271240234375,-0.0890137627720832,-0.6906596422195435,-0.5279008150100708,61.92475891113281,100.2481689453125,-26.56709289550781
231743,0.1327362060546875,0.32415771484375,-0.2474822998046875,0.0075868130661547,-0.2049219906330109,-0.6342967748641968,61.40029907226562,100.3894805908203,-26.4871826171875
231744,0.1327362060546875,0.32415771484375,-0.2474822998046875,0.0075868130661547,-0.2049219906330109,-0.6342967748641968,61.40029907226562,100.3894805908203,-26.4871826171875
231745,0.0886383056640625,0.3721771240234375,-0.3454742431640625,0.0709175840020179,0.0122928852215409,-0.7024369835853577,60.84281921386719,100.4929809570312,-26.4376220703125
231746,0.0288238525390625,0.5791168212890625,-0.5883026123046875,0.3371188938617706,-0.2313091158866882,-0.6143558621406555,60.11196899414062,100.6979827880859,-26.35562133789062
231747,0.0372314453125,0.768707275390625,-0.82806396484375,0.66372150182724,-0.6219373345375061,-0.4844444394111633,59.68766784667969,100.8421325683594,-26.35450744628906
231748,0.037811279296875,1.003021240234375,-1.086318969726562,1.075664639472961,-0.9789431095123292,-0.2787852883338928,59.27861022949219,101.0206451416016,-26.45634460449219
231749,0.037811279296875,1.003021240234375,-1.086318969726562,1.075664639472961,-0.9789431095123292,-0.2787852883338928,59.27861022949219,101.0206451416016,-26.45634460449219
231750,0.1329193115234375,1.462448120117188,-0.7488555908203125,1.307993173599243,0.3606503307819366,0.3236233294010162,58.64750671386719,100.9850463867188,-26.91915893554688
231751,0.1232757568359375,1.611663818359375,-0.283172607421875,0.8141281008720398,1.332265496253967,0.2427458018064499,58.50532531738281,100.8516845703125,-27.37469482421875
231752,-0.0149993896484375,1.937332153320312,-0.0417327880859375,0.328793078660965,1.679329752922058,-0.3820970356464386,58.52230834960938,100.7266845703125,-28.04620361328125
231753,-0.0149993896484375,1.937332153320312,-0.0417327880859375,0.328793078660965,1.679329752922058,-0.3820970356464386,58.52230834960938,100.7266845703125,-28.04620361328125
231754,-0.1056365966796875,2.44134521484375,-0.34637451171875,0.29909348487854,-0.8701649904251099,-1.949044823646545,58.66102600097656,100.6756896972656,-28.46893310546875
231755,-0.2547607421875,3.432693481445312,0.144744873046875,0.4533264636993408,-1.336053013801575,-2.351029872894287,58.53323364257812,100.6800537109375,-28.56509399414062
231756,-1.012191772460938,3.498367309570312,0.494354248046875,0.3304074704647064,0.392641544342041,-1.911447882652283,57.7271728515625,100.9174652099609,-28.80558776855469
231757,-1.012191772460938,3.498367309570312,0.494354248046875,0.3304074704647064,0.392641544342041,-1.911447882652283,57.7271728515625,100.9174652099609,-28.80558776855469
231758,-1.17669677734375,2.728302001953125,-0.547698974609375,1.01627242565155,1.9438316822052,0.255501002073288,55.7325439453125,101.75146484375,-29.92050170898438
231759,-0.8298797607421875,2.230987548828125,-0.321624755859375,1.574047207832336,0.8126393556594849,0.1642541885375977,55.53684997558594,101.8531494140625,-30.17523193359375
231760,-0.66644287109375,1.967025756835938,-0.05072021484375,1.753415942192078,0.5058421492576599,0.1905723512172699,55.99234008789062,101.6515350341797,-30.57911682128906
231761,-0.66644287109375,1.967025756835938,-0.05072021484375,1.753415942192078,0.5058421492576599,0.1905723512172699,55.99234008789062,101.6515350341797,-30.57911682128906
231762,-0.4122161865234375,1.825592041015625,-0.0630035400390625,0.8542088866233826,0.4117670357227325,0.3639901876449585,56.65580749511719,101.1033325195312,-31.90188598632812
231763,-0.3370819091796875,1.810943603515625,0.053192138671875,0.6259733438491821,0.3115770518779755,0.5774417519569397,56.80241394042969,101.0136871337891,-32.67929077148438
231764,-0.2692413330078125,1.934097290039062,0.2454071044921875,0.7592390179634094,0.4386023879051208,0.8136186003684998,57.12260437011719,100.7381896972656,-33.30191040039062
231765,-0.142669677734375,2.032760620117188,0.358673095703125,1.017807960510254,0.6287955045700073,0.9399847984313964,57.40559387207031,100.335693359375,-33.75938415527344
231766,0.0119476318359375,2.049667358398438,0.44189453125,1.328609466552734,0.8831726312637329,0.9626019597053528,57.91775512695312,100.0018615722656,-34.25875854492188
231767,0.093048095703125,1.908172607421875,0.4629364013671875,1.515214562416077,1.05471670627594,0.9540364146232604,58.35769653320312,99.72665405273438,-34.75270080566406
231768,0.110870361328125,1.589187622070312,0.4322967529296875,1.545955657958984,1.165684223175049,0.9747278690338136,58.94679260253906,99.27626037597656,-35.28842163085938
231769,0.110870361328125,1.589187622070312,0.4322967529296875,1.545955657958984,1.165684223175049,0.9747278690338136,58.94679260253906,99.27626037597656,-35.28842163085938
231770,0.0576324462890625,0.9052276611328124,0.2947235107421875,1.332448720932007,1.04682981967926,0.9505311846733092,60.2203369140625,98.18342590332033,-36.3349609375
231771,0.0535888671875,0.6755828857421875,0.1953277587890625,1.150950074195862,0.6918631196022034,0.8745623826980591,60.97196960449219,97.5075225830078,-36.86964416503906
231772,0.0467376708984375,0.53802490234375,0.1192169189453125,0.7820159196853638,-0.2215211987495422,0.6404194235801697,61.64019775390625,97.01985168457033,-37.23036193847656
231773,0.0467376708984375,0.53802490234375,0.1192169189453125,0.7820159196853638,-0.2215211987495422,0.6404194235801697,61.64019775390625,97.01985168457033,-37.23036193847656
