time_idx,accelerometerAccelerationX(G),accelerometerAccelerationY(G),accelerometerAccelerationZ(G),gyroRotationX(rad/s),gyroRotationY(rad/s),gyroRotationZ(rad/s),magnetometerX(µT),magnetometerY(µT),magnetometerZ(µT)
174931,0.0624237060546875,-0.0516815185546875,0.116973876953125,-0.604377269744873,0.6683058738708496,-0.2959847748279572,44.58935546875,98.60679626464844,-3.153396606445312
174932,0.04437255859375,0.057281494140625,0.1401519775390625,-0.7509392499923706,0.7353810667991638,-0.3401698172092438,44.43965148925781,98.54379272460938,-2.933334350585938
174933,0.0190277099609375,0.09149169921875,0.1892852783203125,-1.172731280326843,1.069512128829956,-0.4416157603263855,44.30868530273438,98.43006896972656,-2.582748413085938
174934,0.00433349609375,0.174041748046875,0.3684234619140625,-1.481588959693909,1.310338854789734,-0.5320891737937927,43.89140319824219,98.19091796875,-2.019973754882812
174935,0.0089263916015625,0.3889312744140625,0.6414794921875,-1.881775736808777,1.780085325241089,-0.7088801860809326,43.39547729492188,98.16436767578124,-1.552169799804688
174936,0.0122222900390625,0.6247406005859375,0.9279022216796876,-2.42083477973938,2.695442914962769,-0.9626685380935668,42.77830505371094,98.14138793945312,-1.355712890625
174937,0.0122222900390625,0.6247406005859375,0.9279022216796876,-2.42083477973938,2.695442914962769,-0.9626685380935668,42.77830505371094,98.14138793945312,-1.355712890625
174938,-0.3600311279296875,4.979705810546875,1.293136596679688,-2.455990791320801,4.095834732055664,-1.008407831192017,41.08505249023438,98.00201416015624,-1.168487548828125
174939,-0.3600311279296875,4.979705810546875,1.293136596679688,-2.455990791320801,4.095834732055664,-1.008407831192017,41.08505249023438,98.00201416015624,-1.168487548828125
174940,-1.891433715820312,7.12823486328125,0.98779296875,-0.2830221056938171,0.969231367111206,-0.5756779313087463,39.51614379882812,97.70420837402344,-1.388595581054688
174941,-1.514938354492188,5.569732666015625,0.814910888671875,0.7076525092124939,0.5848045945167542,-0.9846747517585754,39.08973693847656,97.66246032714844,-1.197357177734375
174942,-0.487884521484375,2.700393676757812,-0.0510711669921875,0.5869090557098389,-0.8554880023002625,-1.108442783355713,38.59196472167969,97.63174438476562,-1.207839965820312
174943,-0.487884521484375,2.700393676757812,-0.0510711669921875,0.5869090557098389,-0.8554880023002625,-1.108442783355713,38.59196472167969,97.63174438476562,-1.207839965820312
174944,0.2836151123046875,1.407730102539062,-1.17584228515625,-1.014694213867188,-1.398882627487183,-0.0638522133231163,37.37451171875,97.37513732910156,-1.293930053710938
174945,0.6570587158203125,1.560745239257812,-1.641677856445312,-0.8806517124176025,-3.576283693313599,0.8899717330932617,37.10832214355469,97.05287170410156,-0.88446044921875
174946,0.7158966064453125,1.827804565429688,-0.19842529296875,1.563271045684814,-0.5113407969474792,1.635274648666382,37.26017761230469,96.64225769042967,-0.231414794921875
174947,0.7158966064453125,1.827804565429688,-0.19842529296875,1.563271045684814,-0.5113407969474792,1.635274648666382,37.26017761230469,96.64225769042967,-0.231414794921875
174948,0.423126220703125,1.412734985351562,-0.1998291015625,1.93038010597229,0.5300513505935669,1.495162487030029,38.87986755371094,96.40028381347656,0.8135223388671875
174949,0.159332275390625,1.025680541992188,-0.4553985595703125,1.694002628326416,0.2868163287639618,1.100344657897949,39.68742370605469,96.66331481933594,0.533599853515625
174950,-0.024444580078125,0.721954345703125,-0.4355926513671875,1.19244658946991,-0.1777465641498566,0.7455375790596008,40.40579223632812,96.84117126464844,-0.0925140380859375
174951,-0.024444580078125,0.721954345703125,-0.4355926513671875,1.19244658946991,-0.1777465641498566,0.7455375790596008,40.40579223632812,96.84117126464844,-0.0925140380859375
174952,-0.1949462890625,0.3942718505859375,-0.3411865234375,0.5344445109367371,-0.2424078434705734,0.4093888401985168,41.31425476074219,97.32205200195312,-1.214614868164062
174953,-0.1949462890625,0.3942718505859375,-0.3411865234375,0.5344445109367371,-0.2424078434705734,0.4093888401985168,41.31425476074219,97.32205200195312,-1.214614868164062
174954,-0.24920654296875,0.20751953125,-0.3329620361328125,0.8711367845535278,0.1830047070980072,0.1110040172934532,41.85868835449219,97.63174438476562,-2.013687133789062
174955,-0.24920654296875,0.20751953125,-0.3329620361328125,0.8711367845535278,0.1830047070980072,0.1110040172934532,41.85868835449219,97.63174438476562,-2.013687133789062
174956,-0.1892547607421875,0.1053619384765625,-0.1909027099609375,0.9149057865142822,0.2833872437477112,0.0033244239166378,42.20596313476562,97.80191040039062,-2.759429931640625
174957,-0.1480865478515625,0.03741455078125,-0.181854248046875,0.8857364654541016,0.3346078097820282,-0.1245440617203712,42.28651428222656,97.9041748046875,-3.065521240234375
174958,-0.081573486328125,-0.06768798828125,-0.205047607421875,0.8182032704353333,0.3450713753700256,-0.2268262207508087,42.24612426757812,97.95706176757812,-3.52899169921875
174959,-0.081573486328125,-0.06768798828125,-0.205047607421875,0.8182032704353333,0.3450713753700256,-0.2268262207508087,42.24612426757812,97.95706176757812,-3.52899169921875
174960,0.0577392578125,-0.2317962646484375,-0.2328338623046875,0.5410118699073792,0.3537684679031372,-0.2004334926605225,41.97540283203125,98.16218566894533,-4.306381225585938
174961,0.1185302734375,-0.252227783203125,-0.2489013671875,0.3731216490268707,0.3521484434604645,-0.1170768216252327,41.83245849609375,98.31947326660156,-4.599166870117188
174962,0.1596221923828125,-0.24853515625,-0.270172119140625,0.2515747249126434,0.244194820523262,-0.0059308595955371,41.70854187011719,98.27206420898438,-4.587234497070312
174963,0.164947509765625,-0.20556640625,-0.2226104736328125,0.1964531391859055,0.0875170677900314,0.0983180478215217,41.5472412109375,98.31883239746094,-4.66156005859375
174964,0.1503753662109375,-0.1452178955078125,-0.1262054443359375,0.1769545376300812,0.0174335855990648,0.1406348794698715,41.52651977539062,98.24543762207033,-4.56695556640625
174965,0.1384429931640625,-0.1078643798828125,-0.0810699462890625,0.1532737016677856,-0.007563377264887,0.1241424530744553,41.40315246582031,98.40452575683594,-4.537643432617188
174966,0.1378631591796875,-0.095458984375,-0.113250732421875,0.0725572928786277,-0.3313398361206055,0.0140886548906564,41.4339599609375,98.48985290527344,-4.44061279296875
174967,0.1378631591796875,-0.095458984375,-0.113250732421875,0.0725572928786277,-0.3313398361206055,0.0140886548906564,41.4339599609375,98.48985290527344,-4.44061279296875
174968,0.1649017333984375,-0.0807342529296875,-0.1878204345703125,0.0432028658688068,-0.5925746560096741,-0.0509798265993595,41.51875305175781,98.4445343017578,-4.192367553710938
174969,0.1824493408203125,-0.0484619140625,-0.1675262451171875,0.0217598900198936,-0.7955259084701538,-0.1227269843220711,41.580810546875,98.32574462890624,-3.995758056640625
174970,0.1895904541015625,0.00885009765625,-0.1162261962890625,-0.0240760408341884,-0.6542736887931824,-0.2720328569412231,41.61741638183594,98.35011291503906,-3.747543334960938
174971,0.1895904541015625,0.00885009765625,-0.1162261962890625,-0.0240760408341884,-0.6542736887931824,-0.2720328569412231,41.61741638183594,98.35011291503906,-3.747543334960938
174972,0.180755615234375,0.1536865234375,0.0256500244140625,-0.0540973246097564,-0.3927089273929596,-0.3492344319820404,41.6097412109375,98.3083953857422,-3.422439575195312
174973,0.1948699951171875,0.2119903564453125,0.168243408203125,-0.1630408465862274,0.0147991860285401,-0.4089579284191132,41.52412414550781,98.26423645019533,-3.358428955078125
174974,0.1828765869140625,0.234771728515625,0.3740386962890625,-0.3680067956447601,0.7688857316970825,-0.4426115155220032,41.41056823730469,98.35023498535156,-3.240524291992188
174975,0.1828765869140625,0.234771728515625,0.3740386962890625,-0.3680067956447601,0.7688857316970825,-0.4426115155220032,41.41056823730469,98.35023498535156,-3.240524291992188
174976,0.4111785888671875,1.30426025390625,0.7764739990234375,-1.050932049751282,3.130680561065674,-0.7524399161338806,40.69902038574219,98.26455688476562,-3.06201171875
174977,0.5495147705078125,2.384078979492188,0.9723968505859376,-1.740385293960571,4.18377161026001,-0.8968530297279358,40.2259521484375,98.21200561523438,-3.160964965820312
174978,0.2897491455078125,3.6453857421875,1.1827392578125,-2.054013013839722,4.18190336227417,-0.8804911375045776,39.63871765136719,98.128173828125,-3.339889526367188
174979,0.2897491455078125,3.6453857421875,1.1827392578125,-2.054013013839722,4.18190336227417,-0.8804911375045776,39.63871765136719,98.128173828125,-3.339889526367188
174980,-0.913177490234375,5.166290283203125,1.0916748046875,-0.6744104027748108,0.9010672569274902,-1.967687726020813,38.42794799804688,97.69221496582033,-3.206298828125
174981,-1.139511108398438,4.598114013671875,1.264511108398438,0.2505965232849121,-0.9371709227561952,-2.311407804489136,37.79595947265625,97.3724365234375,-3.0030517578125
174982,-0.966522216796875,3.344955444335938,1.224075317382812,0.5065774321556091,-1.908514738082886,-2.202089548110962,37.14712524414062,97.09986877441406,-3.007904052734375
174983,-0.966522216796875,3.344955444335938,1.224075317382812,0.5065774321556091,-1.908514738082886,-2.202089548110962,37.14712524414062,97.09986877441406,-3.007904052734375
174984,-0.561279296875,1.743865966796875,0.5275726318359375,-0.0857191681861877,-2.341100931167603,-1.963153958320618,35.60670471191406,96.64987182617188,-3.054031372070312
174985,-0.4608001708984375,1.548004150390625,0.1376495361328125,-0.4308006465435028,-2.739992141723633,-1.92121160030365,34.96040344238281,96.45295715332033,-2.959671020507812
174986,-0.3209228515625,1.626495361328125,-0.5126953125,-0.5373233556747437,-3.889998912811279,-1.801367998123169,34.26951599121094,96.18072509765624,-2.559539794921875
174987,-0.0270233154296875,1.8563232421875,-1.948226928710938,0.2086717188358307,-6.986061573028564,-1.461276531219482,33.87713623046875,95.69256591796876,-2.16705322265625
174988,-0.204833984375,1.819488525390625,-0.8630523681640625,1.13609516620636,-8.0221586227417,-0.8298649787902832,33.68797302246094,95.1484832763672,-1.32720947265625
174989,-0.7091827392578125,1.193115234375,-0.0158843994140625,0.7744640111923218,-0.3800309598445892,0.6170246005058289,33.55198669433594,94.83721923828124,-0.457916259765625
174990,-0.10809326171875,1.179519653320312,-0.8235321044921875,1.903136134147644,1.405420422554016,1.046532869338989,33.6209716796875,94.9990234375,0.19122314453125
174991,-0.032623291015625,0.9550628662109376,-0.2152557373046875,2.509567022323608,1.821587800979614,1.175503849983215,33.88862609863281,95.14739990234376,0.14697265625
174992,-0.0967559814453125,0.738372802734375,-0.119049072265625,1.859153509140015,1.150550246238708,0.9831724762916564,34.38978576660156,95.51228332519533,-0.4409942626953125
174993,-0.066802978515625,0.49053955078125,-0.268310546875,1.859153509140015,1.150550246238708,0.9831724762916564,34.84324645996094,95.66984558105467,-1.506011962890625
174994,-0.039031982421875,0.230010986328125,-0.381805419921875,0.7405630350112915,-0.3532240986824036,0.8833463191986084,35.28196716308594,96.05628967285156,-2.80950927734375
174995,-0.039031982421875,0.230010986328125,-0.381805419921875,0.7405630350112915,-0.3532240986824036,0.8833463191986084,35.28196716308594,96.05628967285156,-2.80950927734375
174996,0.0673065185546875,-0.19293212890625,-0.3868408203125,0.2883750796318054,-0.4458113014698029,0.8936812281608582,36.01371765136719,96.60684204101562,-4.389617919921875
174997,0.1103515625,-0.2831268310546875,-0.3338623046875,0.1074106097221375,-0.1846350878477097,0.9368896484375,36.41011047363281,96.74382019042967,-4.607330322265625
174998,0.12408447265625,-0.2884521484375,-0.26983642578125,0.1703128814697266,0.2723798453807831,0.9407911896705629,36.7596435546875,97.00856018066406,-4.644012451171875
174999,0.12408447265625,-0.2884521484375,-0.26983642578125,0.1703128814697266,0.2723798453807831,0.9407911896705629,36.7596435546875,97.00856018066406,-4.644012451171875
175000,0.0872039794921875,-0.192413330078125,-0.099761962890625,0.5310449600219727,1.169400095939636,0.8094432950019836,37.47755432128906,97.32925415039062,-4.433837890625
175001,0.066986083984375,-0.15374755859375,-0.0611572265625,0.6222108602523804,1.311830520629883,0.7242761850357056,37.86056518554688,97.3689422607422,-4.403640747070312
175002,0.052459716796875,-0.13983154296875,-0.0527496337890625,0.6151667833328247,1.23010528087616,0.6427690982818604,38.17608642578125,97.55339050292967,-4.580642700195312
175003,0.052459716796875,-0.13983154296875,-0.0527496337890625,0.6151667833328247,1.23010528087616,0.6427690982818604,38.17608642578125,97.55339050292967,-4.580642700195312
175004,0.0340118408203125,-0.1349945068359375,-0.13629150390625,0.369999885559082,0.8882758021354675,0.4835677444934845,38.62879943847656,97.75872802734376,-5.003173828125
175005,0.044189453125,-0.1794586181640625,-0.29730224609375,0.245503768324852,0.5957139730453491,0.4233842790126801,38.88453674316406,97.92068481445312,-5.105911254882812
175006,0.0694122314453125,-0.2476959228515625,-0.450836181640625,-0.1554788053035736,-0.0732691511511802,0.3392225503921509,39.00076293945312,98.05235290527344,-5.172348022460938
175007,0.0694122314453125,-0.2476959228515625,-0.450836181640625,-0.1554788053035736,-0.0732691511511802,0.3392225503921509,39.00076293945312,98.05235290527344,-5.172348022460938
175008,0.1008148193359375,-0.2527313232421875,-0.2576446533203125,-0.3137235641479492,-0.2391332238912582,0.2902464866638184,39.48382568359375,98.19483947753906,-5.072158813476562
175009,0.1008148193359375,-0.2527313232421875,-0.2576446533203125,-0.3137235641479492,-0.2391332238912582,0.2902464866638184,39.48382568359375,98.19483947753906,-5.072158813476562
175010,0.103851318359375,-0.21612548828125,-0.051513671875,-0.4123401641845703,-0.1595821976661682,0.2037166357040405,39.76185607910156,98.05613708496094,-4.7037353515625
175011,0.116424560546875,-0.1883392333984375,0.070892333984375,-0.5191992521286011,0.0923568308353424,0.0805792659521102,40.12068176269531,97.9819793701172,-4.405227661132812
175012,0.1707305908203125,-0.105987548828125,0.05633544921875,-0.8110262751579285,0.4390980005264282,-0.2222631573677063,40.44631958007812,97.69148254394533,-3.609085083007812
175013,0.1707305908203125,-0.105987548828125,0.05633544921875,-0.8110262751579285,0.4390980005264282,-0.2222631573677063,40.44631958007812,97.69148254394533,-3.609085083007812
175014,0.090301513671875,0.1089324951171875,0.180816650390625,-1.065717220306396,0.7369483113288879,-0.5309714674949646,40.48704528808594,97.26618957519533,-2.701019287109375
175015,0.090301513671875,0.1089324951171875,0.180816650390625,-1.065717220306396,0.7369483113288879,-0.5309714674949646,40.48704528808594,97.26618957519533,-2.701019287109375
175016,0.0350189208984375,0.18804931640625,0.5416107177734375,-1.252495288848877,1.276100516319275,-0.6326988935470581,40.02899169921875,96.98121643066406,-1.627456665039062
175017,0.02008056640625,0.314300537109375,0.7826690673828125,-1.489500880241394,1.973936080932617,-0.787818968296051,39.59536743164062,96.87930297851562,-1.177963256835938
175018,0.006591796875,0.8318939208984375,1.24945068359375,-2.193490028381348,3.640103578567505,-1.441538453102112,39.05302429199219,96.92044067382812,-0.8190155029296875
175019,0.006591796875,0.8318939208984375,1.24945068359375,-2.193490028381348,3.640103578567505,-1.441538453102112,39.05302429199219,96.92044067382812,-0.8190155029296875
175020,-0.4668426513671875,5.324417114257812,1.68133544921875,-2.200610160827637,3.643836259841919,-1.649893283843994,37.35739135742188,96.9732666015625,-0.8703155517578125
175021,-1.2677001953125,7.773239135742188,1.539443969726562,-1.854843974113464,2.341020822525024,-0.9055123329162598,36.18434143066406,97.00283813476562,-1.8072509765625
175022,-2.44354248046875,7.945404052734375,1.192855834960938,-0.7174997925758362,1.258290648460388,-0.9107019901275636,35.22090148925781,97.03933715820312,-2.99517822265625
175023,-2.44354248046875,7.945404052734375,1.192855834960938,-0.7174997925758362,1.258290648460388,-0.9107019901275636,35.22090148925781,97.03933715820312,-2.99517822265625
175024,-2.44354248046875,7.945404052734375,1.192855834960938,-0.7174997925758362,1.258290648460388,-0.9107019901275636,35.22090148925781,97.03933715820312,-2.99517822265625
175025,-0.6517333984375,1.789794921875,-0.6731109619140625,1.42672598361969,-2.479551315307617,-2.025777578353882,35.046630859375,96.31861877441406,-4.1759033203125
175026,0.208984375,0.0249786376953125,-1.904144287109375,-0.8799661993980408,-3.265320539474487,1.547837257385254,33.80416870117188,95.40281677246094,-3.813751220703125
175027,0.208984375,0.0249786376953125,-1.904144287109375,-0.8799661993980408,-3.265320539474487,1.547837257385254,33.80416870117188,95.40281677246094,-3.813751220703125
175028,0.213104248046875,1.8365478515625,-0.2112884521484375,0.5047257542610168,-2.562860727310181,1.917309522628784,32.57025146484375,94.94125366210938,-2.420440673828125
175029,0.2857818603515625,1.858016967773438,0.4855499267578125,1.282674789428711,-0.8283317685127258,1.484096527099609,33.04685974121094,94.74847412109376,-1.305343627929688
175030,0.4329376220703125,1.446487426757812,0.1945343017578125,1.360371470451355,0.5970975160598755,1.393038034439087,33.94326782226562,95.06233215332033,-0.5121612548828125
175031,0.375213623046875,1.133468627929688,-0.3405303955078125,1.360371470451355,0.5970975160598755,1.393038034439087,34.84114074707031,95.32908630371094,-0.5530853271484375
175032,0.2777557373046875,0.891143798828125,-0.679168701171875,1.312566637992859,-0.0738771557807922,1.225421905517578,35.43276977539062,95.67825317382812,-1.091903686523438
175033,0.1568450927734375,0.6195831298828125,-0.575469970703125,1.02294647693634,-0.3650256395339966,0.9300717115402222,36.01304626464844,95.99415588378906,-1.587493896484375
175034,-0.015167236328125,0.430694580078125,-0.38336181640625,0.8262150883674622,-0.3185526728630066,0.7134600281715393,36.45976257324219,96.3542938232422,-2.148590087890625
175035,-0.015167236328125,0.430694580078125,-0.38336181640625,0.8262150883674622,-0.3185526728630066,0.7134600281715393,36.45976257324219,96.3542938232422,-2.148590087890625
175036,-0.1384735107421875,0.2706146240234375,-0.1172943115234375,0.8537721633911133,-0.112272746860981,0.4170126616954803,37.33482360839844,96.90402221679688,-2.986358642578125
175037,-0.1512451171875,0.1692047119140625,-0.0994110107421875,0.8852131962776184,-0.0967204198241233,0.2877228558063507,37.68185424804688,96.96917724609376,-3.213485717773438
175038,-0.15692138671875,0.0647735595703125,-0.1123199462890625,0.9064569473266602,-0.148274153470993,0.1607326865196228,38.2200927734375,97.30906677246094,-4.194198608398438
175039,-0.15692138671875,0.0647735595703125,-0.1123199462890625,0.9064569473266602,-0.148274153470993,0.1607326865196228,38.2200927734375,97.30906677246094,-4.194198608398438
175040,-0.1240386962890625,-0.191009521484375,-0.1316986083984375,0.7896464467048645,-0.0220539029687643,0.0656357333064079,38.57716369628906,97.52479553222656,-4.882110595703125
175041,-0.094879150390625,-0.2581024169921875,-0.154937744140625,0.600795567035675,0.2493006438016891,0.0899661108851432,38.56097412109375,97.6793212890625,-5.212356567382812
175042,0.0345001220703125,-0.2947235107421875,-0.3850860595703125,0.3202485740184784,0.1950565725564957,0.2345568388700485,38.7152099609375,97.68814086914062,-5.802627563476562
175043,0.0345001220703125,-0.2947235107421875,-0.3850860595703125,0.3202485740184784,0.1950565725564957,0.2345568388700485,38.7152099609375,97.68814086914062,-5.802627563476562
175044,0.0493927001953125,-0.2400665283203125,-0.3134307861328125,0.3557663559913635,-0.0198221746832132,0.2577694952487946,38.73164367675781,97.70928955078124,-5.846908569335938
175045,0.0469818115234375,-0.1746978759765625,-0.1613006591796875,0.3803068697452545,0.0052967611700296,0.2254669517278671,38.89324951171875,97.81854248046876,-5.926681518554688
175046,0.0450592041015625,-0.1364898681640625,-0.086700439453125,0.2617149651050568,0.210221141576767,0.0832954198122024,38.92047119140625,98.08016967773438,-6.0770263671875
175047,0.0450592041015625,-0.1364898681640625,-0.086700439453125,0.2617149651050568,0.210221141576767,0.0832954198122024,38.92047119140625,98.08016967773438,-6.0770263671875
175048,0.0630340576171875,-0.135498046875,-0.187103271484375,0.1390958428382874,0.0640271827578544,0.0254965722560882,39.06663513183594,98.02105712890624,-6.032943725585938
175049,0.08050537109375,-0.1434783935546875,-0.2296295166015625,0.0053343116305768,-0.2457181513309479,-0.0141999749466776,39.1014404296875,98.0885009765625,-5.888565063476562
175050,0.0974578857421875,-0.13055419921875,-0.160858154296875,-0.1229059472680092,-0.4552293121814728,-0.0571306645870208,39.18199157714844,98.11648559570312,-5.82470703125
175051,0.0974578857421875,-0.13055419921875,-0.160858154296875,-0.1229059472680092,-0.4552293121814728,-0.0571306645870208,39.18199157714844,98.11648559570312,-5.82470703125
175052,0.1485748291015625,-0.0413055419921875,-0.0369720458984375,-0.383901059627533,-0.2448499649763107,-0.1375309675931931,39.23281860351562,98.07830810546876,-5.447341918945312
175053,0.1479034423828125,0.05926513671875,-0.0716705322265625,-0.4648880660533905,-0.1186273172497749,-0.1471926420927048,39.16056823730469,97.97645568847656,-5.1610107421875
175054,0.1166534423828125,0.156005859375,-0.083526611328125,-0.4932475090026855,-0.0884033665060997,-0.1819189339876175,39.11598205566406,98.0288543701172,-4.907058715820312
175055,0.1166534423828125,0.156005859375,-0.083526611328125,-0.4932475090026855,-0.0884033665060997,-0.1819189339876175,39.11598205566406,98.0288543701172,-4.907058715820312
175056,0.0944061279296875,0.386444091796875,0.3116912841796875,-0.7553755640983582,0.408484160900116,-0.4607899785041809,38.84571838378906,98.0714111328125,-4.250961303710938
175057,0.0813140869140625,0.430694580078125,0.6064605712890625,-1.069913268089294,1.312722444534302,-0.642342209815979,38.4912109375,98.13404846191406,-4.054061889648438
175058,0.1033477783203125,1.839492797851562,0.898773193359375,-1.603286027908325,4.026223659515381,-1.205159783363342,38.09432983398438,98.23838806152344,-4.051620483398438
175059,0.1033477783203125,1.839492797851562,0.898773193359375,-1.603286027908325,4.026223659515381,-1.205159783363342,38.09432983398438,98.23838806152344,-4.051620483398438
175060,-0.329254150390625,4.991607666015625,0.8368988037109375,-1.348854899406433,3.452047109603882,-1.279647350311279,36.59303283691406,98.21784973144533,-4.581405639648438
175061,-0.9469451904296876,5.684738159179688,0.816558837890625,-0.5175158381462097,1.451599359512329,-1.72113311290741,35.89216613769531,97.96054077148438,-4.858322143554688
175062,-1.209503173828125,5.335922241210938,1.104248046875,0.4115393459796906,-0.7276368737220764,-1.843502402305603,35.36508178710938,97.59420776367188,-4.867965698242188
175063,-1.209503173828125,5.335922241210938,1.104248046875,0.4115393459796906,-0.7276368737220764,-1.843502402305603,35.36508178710938,97.59420776367188,-4.867965698242188
175064,-0.60528564453125,2.681777954101562,0.952667236328125,0.2385830134153366,-2.37919282913208,-0.8533377647399902,34.251220703125,97.03494262695312,-5.000198364257812
175065,-0.60528564453125,2.681777954101562,0.952667236328125,0.2385830134153366,-2.37919282913208,-0.8533377647399902,34.251220703125,97.03494262695312,-5.000198364257812
175066,-0.2886199951171875,1.749710083007812,-0.2335357666015625,0.6157297492027283,-4.909364700317383,-0.6746841669082642,33.85432434082031,96.44610595703124,-4.448348999023438
175067,-0.0224761962890625,1.843475341796875,-1.500778198242188,0.6157297492027283,-4.909364700317383,-0.6746841669082642,33.71669006347656,96.2709503173828,-3.987457275390625
175068,-0.1397705078125,1.805282592773438,-1.181716918945312,1.766751646995544,-6.384297847747803,-0.1856201887130737,33.448486328125,96.24240112304688,-3.549468994140625
175069,-0.4013671875,1.485015869140625,-0.441192626953125,1.238552570343018,-1.416340112686157,0.5256177186965942,33.37199401855469,96.3109130859375,-3.111526489257812
175070,-0.4013671875,1.485015869140625,-0.441192626953125,1.238552570343018,-1.416340112686157,0.5256177186965942,33.37199401855469,96.3109130859375,-3.111526489257812
175071,-0.070281982421875,1.336929321289062,-0.8650054931640625,2.02947211265564,1.104112505912781,1.007724404335022,33.66712951660156,96.43836975097656,-2.990432739257812
175072,0.042266845703125,0.8964080810546875,-0.160614013671875,1.824558854103088,1.012348532676697,1.0863356590271,34.64082336425781,96.66867065429688,-4.056991577148438
175073,0.039825439453125,0.704559326171875,-0.156707763671875,0.92999929189682,0.1247869357466698,0.94853276014328,35.23020935058594,96.84584045410156,-4.961181640625
175074,0.0416259765625,0.510101318359375,-0.203643798828125,0.92999929189682,0.1247869357466698,0.94853276014328,35.677978515625,97.14256286621094,-5.818817138671875
175075,0.0416259765625,0.510101318359375,-0.203643798828125,0.92999929189682,0.1247869357466698,0.94853276014328,35.677978515625,97.14256286621094,-5.818817138671875
175076,0.0880584716796875,0.1504669189453125,-0.3877716064453125,0.4639740586280823,-0.4149050414562225,0.7264565229415894,36.64158630371094,97.44195556640624,-6.4879150390625
175077,0.1009368896484375,-0.001922607421875,-0.3217620849609375,0.4280679821968079,-0.2354455441236496,0.660881519317627,36.96357727050781,97.75123596191406,-6.507400512695312
175078,0.086639404296875,-0.1006317138671875,-0.199554443359375,0.4090423583984375,0.2408517599105835,0.6086119413375854,37.31646728515625,97.81362915039062,-6.556533813476562
175079,0.086639404296875,-0.1006317138671875,-0.199554443359375,0.4090423583984375,0.2408517599105835,0.6086119413375854,37.31646728515625,97.81362915039062,-6.556533813476562
175080,0.031280517578125,-0.0909271240234375,-0.0605316162109375,0.3790538311004639,0.90677148103714,0.4321660697460175,37.88180541992188,97.93495178222656,-6.881210327148438
175081,0.0118560791015625,-0.099761962890625,-0.0508575439453125,0.3011025786399841,0.9731504917144777,0.3385929763317108,38.09304809570312,98.15396118164062,-7.142364501953125
175082,-0.0009002685546875,-0.11602783203125,-0.0760345458984375,0.1240337938070297,0.8189331889152527,0.2372184097766876,38.2774658203125,98.18734741210938,-7.407211303710938
175083,-0.0009002685546875,-0.11602783203125,-0.0760345458984375,0.1240337938070297,0.8189331889152527,0.2372184097766876,38.2774658203125,98.18734741210938,-7.407211303710938
175084,-0.0211029052734375,-0.1416168212890625,-0.1107330322265625,0.0112755578011274,0.8579645156860352,0.1905350536108017,38.57188415527344,98.34049987792967,-7.815887451171875
175085,-0.023529052734375,-0.1538848876953125,-0.1452178955078125,-0.151693120598793,1.055751323699951,0.1341711133718491,38.66545104980469,98.32868957519533,-7.85845947265625
175086,-0.0166778564453125,-0.185638427734375,-0.2933502197265625,-0.2740142345428467,1.085428237915039,0.0847857296466827,38.706787109375,98.40858459472656,-7.836685180664062
175087,-0.0032806396484375,-0.2254638671875,-0.442291259765625,-0.3738864958286285,0.6989716291427612,0.0731106922030448,38.79159545898438,98.38124084472656,-7.786575317382812
175088,-0.0001373291015625,-0.227752685546875,-0.383880615234375,-0.5114665031433105,0.1978489011526108,0.0764433741569519,38.76991271972656,98.47599792480467,-7.648635864257812
175089,-0.0021514892578125,-0.1909942626953125,-0.19287109375,-0.6573445796966553,-0.026878485456109,0.0572907216846942,38.89704895019531,98.60037231445312,-7.378509521484375
175090,0.0019989013671875,-0.1234130859375,0.069427490234375,-0.8505763411521912,0.1457377672195435,-0.0180517043918371,39.05703735351562,98.56988525390624,-6.46368408203125
175091,0.0019989013671875,-0.1234130859375,0.069427490234375,-0.8505763411521912,0.1457377672195435,-0.0180517043918371,39.05703735351562,98.56988525390624,-6.46368408203125
175092,0.0109710693359375,-0.103118896484375,0.1138763427734375,-0.9041234850883484,0.4353727698326111,-0.1234020963311195,39.15208435058594,98.59161376953124,-5.9063720703125
175093,0.0184326171875,-0.0934295654296875,0.1210479736328125,-0.9041234850883484,0.4353727698326111,-0.1234020963311195,39.21707153320312,98.18896484375,-5.271865844726562
175094,0.018890380859375,-0.086639404296875,0.1156005859375,-0.9226542711257936,0.47565096616745,-0.1827189475297928,39.38636779785156,98.094970703125,-4.807540893554688
175095,0.018890380859375,-0.086639404296875,0.1156005859375,-0.9226542711257936,0.47565096616745,-0.1827189475297928,39.38636779785156,98.094970703125,-4.807540893554688
175096,-0.014862060546875,0.08441162109375,0.1279754638671875,-0.9684121608734132,0.413410484790802,-0.3085229396820068,39.29315185546875,97.87214660644533,-3.67779541015625
175097,-0.01739501953125,0.113128662109375,0.150787353515625,-1.059357047080994,0.3441666960716248,-0.3736311197280884,39.08171081542969,97.6750946044922,-3.317947387695312
175098,-0.0228729248046875,0.1422576904296875,0.233551025390625,-1.228756666183472,0.2983645796775818,-0.4444818496704102,38.9122314453125,97.45475769042967,-2.987548828125
175099,-0.0228729248046875,0.1422576904296875,0.233551025390625,-1.228756666183472,0.2983645796775818,-0.4444818496704102,38.9122314453125,97.45475769042967,-2.987548828125
175100,-0.030731201171875,0.376220703125,0.6793060302734375,-1.645179986953735,0.7466917634010315,-0.6878284811973572,38.20155334472656,97.11604309082033,-2.199630737304688
175101,-0.032958984375,0.7179718017578125,1.04193115234375,-1.886108756065369,1.479126572608948,-0.9066143035888672,37.69902038574219,97.11448669433594,-2.081954956054688
175102,-0.1011199951171875,2.895278930664062,1.286514282226562,-1.895551204681396,2.340642929077148,-0.7240098714828491,37.11386108398438,97.02349853515624,-2.170654296875
175103,-0.1011199951171875,2.895278930664062,1.286514282226562,-1.895551204681396,2.340642929077148,-0.7240098714828491,37.11386108398438,97.02349853515624,-2.170654296875
175104,-1.246368408203125,6.786376953125,1.564163208007812,-1.589128732681274,1.082775473594666,1.093046545982361,36.1256103515625,96.90022277832033,-2.961746215820312
175105,-1.766921997070312,7.046432495117188,1.57818603515625,-0.7306907176971436,0.4962451756000519,-0.1449097841978073,36.34701538085938,96.71815490722656,-3.010421752929688
175106,-1.096206665039062,4.601516723632812,0.8420257568359375,-0.4797101318836212,-0.154182106256485,-0.981418788433075,36.67919921875,96.65911865234376,-2.74432373046875
175107,-1.096206665039062,4.601516723632812,0.8420257568359375,-0.4797101318836212,-0.154182106256485,-0.981418788433075,36.67919921875,96.65911865234376,-2.74432373046875
175108,-0.11444091796875,1.618438720703125,-0.3188934326171875,-0.738063395023346,-1.265591621398926,-0.6076558828353882,36.16569519042969,96.17254638671876,-1.867355346679688
175109,0.3854522705078125,1.311508178710938,-1.451995849609375,0.1076731979846954,-3.475152492523193,1.235881447792053,35.61888122558594,96.00959777832033,-1.284637451171875
175110,0.595794677734375,1.581954956054688,-0.7461395263671875,1.005959272384644,-1.443237543106079,1.642398118972778,35.33335876464844,95.93350219726562,-0.611175537109375
175111,0.595794677734375,1.581954956054688,-0.7461395263671875,1.005959272384644,-1.443237543106079,1.642398118972778,35.33335876464844,95.93350219726562,-0.611175537109375
175112,0.550079345703125,1.76910400390625,0.356231689453125,1.005959272384644,-1.443237543106079,1.642398118972778,35.48210144042969,95.80215454101562,0.1939544677734375
175113,0.430694580078125,1.313583374023438,-0.1667022705078125,1.463432550430298,0.7618027925491333,1.583866000175476,37.08909606933594,96.01979064941406,0.6753692626953125
175114,0.333251953125,1.001617431640625,-0.4626007080078125,1.191980600357056,0.2206442207098007,1.283379435539246,37.87086486816406,96.2836456298828,0.3344879150390625
175115,0.227813720703125,0.7172698974609375,-0.4860687255859375,0.8521960973739624,-0.5490607023239136,0.9313694834709167,38.61865234375,96.51612854003906,-0.088714599609375
175116,0.117706298828125,0.5108184814453125,-0.424530029296875,0.5881490111351013,-1.011393785476685,0.6207679510116577,39.1732177734375,96.653564453125,-0.430328369140625
175117,0.117706298828125,0.5108184814453125,-0.424530029296875,0.5881490111351013,-1.011393785476685,0.6207679510116577,39.1732177734375,96.653564453125,-0.430328369140625
175118,-0.1474761962890625,0.3241119384765625,-0.38824462890625,0.3639598488807678,-0.4014441072940826,0.2635373771190643,40.04402160644531,97.07536315917967,-0.795196533203125
175119,-0.1474761962890625,0.3241119384765625,-0.38824462890625,0.3639598488807678,-0.4014441072940826,0.2635373771190643,40.04402160644531,97.07536315917967,-0.795196533203125
175120,-0.1980743408203125,0.275909423828125,-0.3061981201171875,0.6813743114471436,0.0488540902733802,0.0671326965093612,40.51388549804688,97.271240234375,-0.7910919189453125
175121,-0.1844940185546875,0.2103271484375,-0.2195587158203125,0.8109016418457031,0.1022547334432602,-0.0374565608799457,40.70185852050781,97.3490753173828,-1.068344116210938
175122,-0.1572418212890625,0.113861083984375,-0.1918792724609375,0.7111076712608337,0.1841341555118561,-0.1771020740270615,40.75981140136719,97.4627685546875,-1.405197143554688
175123,-0.1572418212890625,0.113861083984375,-0.1918792724609375,0.7111076712608337,0.1841341555118561,-0.1771020740270615,40.75981140136719,97.4627685546875,-1.405197143554688
175124,-0.10174560546875,-0.106231689453125,-0.270843505859375,0.4680052697658539,0.392036497592926,-0.2194796204566956,40.89799499511719,97.47039794921876,-2.103607177734375
175125,-0.037567138671875,-0.2184600830078125,-0.322235107421875,0.4008581936359406,0.4345037937164307,-0.1564676314592361,40.81367492675781,97.51507568359376,-2.466537475585938
175126,0.0504608154296875,-0.232818603515625,-0.266876220703125,0.3816134035587311,0.4121612012386322,-0.0885040313005447,40.70945739746094,97.65921020507812,-2.823577880859375
175127,0.0504608154296875,-0.232818603515625,-0.266876220703125,0.3816134035587311,0.4121612012386322,-0.0885040313005447,40.70945739746094,97.65921020507812,-2.823577880859375
175128,0.058074951171875,-0.1781158447265625,-0.15252685546875,0.3696337044239044,0.3640530407428741,-0.0480982884764671,40.58720397949219,97.6046905517578,-2.944183349609375
175129,0.0554351806640625,-0.1215362548828125,-0.066558837890625,0.3612104058265686,0.3233453035354614,-0.0430886149406433,40.48402404785156,97.69654846191406,-2.887344360351562
175130,0.044921875,-0.0716094970703125,-0.0214385986328125,0.3667992949485779,0.2744709849357605,-0.0694158226251602,40.39363098144531,97.74822998046876,-3.136550903320312
175131,0.044921875,-0.0716094970703125,-0.0214385986328125,0.3667992949485779,0.2744709849357605,-0.0694158226251602,40.39363098144531,97.74822998046876,-3.136550903320312
175132,0.0480499267578125,-0.045654296875,0.0415802001953125,0.2820138335227966,0.3622151911258698,-0.1575243771076202,40.16525268554688,97.96115112304688,-3.792922973632812
175133,0.0480499267578125,-0.045654296875,0.0415802001953125,0.2820138335227966,0.3622151911258698,-0.1575243771076202,40.16525268554688,97.96115112304688,-3.792922973632812
175134,0.0542144775390625,-0.042572021484375,0.0046234130859375,0.0657672956585884,0.3949699699878693,-0.1735329031944275,40.20762634277344,97.99114990234376,-3.9141845703125
175135,0.0837554931640625,-0.033447265625,-0.1442108154296875,-0.0435733087360858,0.2066330760717392,-0.1428349167108536,39.85746765136719,98.01608276367188,-4.067276000976562
175136,0.07171630859375,0.0450439453125,-0.0885772705078125,-0.1628285944461823,0.1001700088381767,-0.1337809711694717,39.68692016601562,98.15130615234376,-4.147247314453125
175137,0.044830322265625,0.115692138671875,0.0017852783203125,-0.491934597492218,0.4002400934696198,-0.2629671692848206,39.5753173828125,98.12043762207033,-4.07318115234375
175138,0.0301513671875,0.16534423828125,0.092376708984375,-0.6859280467033386,0.8550978899002075,-0.4049573540687561,39.48799133300781,98.32379150390624,-4.19464111328125
175139,0.0225067138671875,0.40716552734375,0.23095703125,-0.6859280467033386,0.8550978899002075,-0.4049573540687561,39.42666625976562,98.30044555664062,-4.170822143554688
175140,0.00665283203125,0.956268310546875,0.3831024169921875,-0.900274395942688,1.633689522743225,-0.6528432965278625,39.25157165527344,98.3951416015625,-4.018463134765625
175141,-0.0166778564453125,1.554473876953125,0.5276336669921875,-1.16939377784729,2.333609342575073,-0.8909804821014404,38.90306091308594,98.35816955566406,-3.874908447265625
175142,-0.127044677734375,2.21649169921875,0.7158660888671875,-1.249224424362183,2.734064817428589,-1.089530825614929,38.65249633789062,98.178955078125,-3.811065673828125
175143,-0.127044677734375,2.21649169921875,0.7158660888671875,-1.249224424362183,2.734064817428589,-1.089530825614929,38.65249633789062,98.178955078125,-3.811065673828125
175144,-0.57147216796875,3.601242065429688,0.9047698974609376,0.0047598676756024,1.669505000114441,-1.382132172584534,37.63856506347656,97.80841064453124,-3.578125
175145,-0.7129364013671875,4.148422241210938,1.0816650390625,0.8190991282463074,0.3240363895893097,-1.176934719085693,37.07171630859375,97.64236450195312,-3.681915283203125
175146,-0.726654052734375,4.38018798828125,1.369369506835938,1.289724707603455,-0.5794087648391724,-0.6351553797721863,36.55274963378906,97.5592803955078,-4.030471801757812
175147,-0.726654052734375,4.38018798828125,1.369369506835938,1.289724707603455,-0.5794087648391724,-0.6351553797721863,36.55274963378906,97.5592803955078,-4.030471801757812
175148,-0.473114013671875,2.944091796875,1.07342529296875,0.023829698562622,-0.6043441891670227,-0.2026596367359161,35.76951599121094,97.76304626464844,-5.136917114257812
175149,-0.473114013671875,2.944091796875,1.07342529296875,0.023829698562622,-0.6043441891670227,-0.2026596367359161,35.76951599121094,97.76304626464844,-5.136917114257812
175150,-0.3979034423828125,1.595230102539062,0.3630218505859375,-1.237974643707275,-1.437632441520691,-0.9764863848686218,35.53109741210938,97.77749633789062,-5.359024047851562
175151,-0.31268310546875,1.489990234375,0.09619140625,-1.347243666648865,-2.267760276794434,-1.037791848182678,35.52790832519531,97.42160034179688,-4.834442138671875
175152,-0.1029205322265625,1.754623413085938,-0.8060150146484375,-0.9240412712097168,-3.445819616317749,-0.8669707775115967,35.50021362304688,96.80435180664062,-4.036285400390625
175153,0.3686065673828125,2.08514404296875,-2.469146728515625,0.5316652059555054,-7.648065090179443,-0.4871557950973511,35.28189086914062,96.24113464355467,-3.115570068359375
175154,0.223602294921875,1.943206787109375,-0.3107452392578125,1.647304892539978,0.5322063565254211,0.430376410484314,35.10569763183594,95.94602966308594,-2.16973876953125
175155,0.223602294921875,1.943206787109375,-0.3107452392578125,1.647304892539978,0.5322063565254211,0.430376410484314,35.10569763183594,95.94602966308594,-2.16973876953125
175156,0.0280914306640625,1.140975952148438,-0.8310699462890625,1.867151260375977,1.553474068641663,0.842953622341156,35.12068176269531,96.56809997558594,-1.1951904296875
