time_idx,accelerometerAccelerationX(G),accelerometerAccelerationY(G),accelerometerAccelerationZ(G),gyroRotationX(rad/s),gyroRotationY(rad/s),gyroRotationZ(rad/s),magnetometerX(µT),magnetometerY(µT),magnetometerZ(µT)
104870,0.0271453857421875,0.03497314453125,-0.0341644287109375,0.7730922102928162,-1.006106615066528,0.5452172756195068,19.5098876953125,89.20867919921875,-6.452835083007812
104871,0.0145416259765625,0.0672607421875,-0.0436859130859375,0.5686243176460266,-0.96667742729187,0.3996307551860809,19.77435302734375,89.56582641601562,-6.389724731445312
104872,0.00799560546875,0.1195220947265625,-0.0793914794921875,0.3190783858299255,-1.078632473945618,0.2027634978294373,20.26353454589844,89.73757934570312,-6.127227783203125
104873,0.00799560546875,0.1195220947265625,-0.0793914794921875,0.3190783858299255,-1.078632473945618,0.2027634978294373,20.26353454589844,89.73757934570312,-6.127227783203125
104874,0.0472869873046875,0.35919189453125,-0.164093017578125,-0.0554374270141124,-1.883518815040588,-0.3333550691604614,20.88044738769531,89.79313659667969,-5.612167358398438
104875,0.09228515625,0.60394287109375,0.0446319580078125,-0.2128627300262451,-2.180705308914185,-0.6299071311950684,20.84341430664062,90.06794738769531,-5.284332275390625
104876,0.0837554931640625,1.542877197265625,0.731292724609375,-1.045682787895203,-0.8015486598014832,-1.338727355003357,20.87515258789062,90.02754211425781,-4.030670166015625
104877,0.0837554931640625,1.542877197265625,0.731292724609375,-1.045682787895203,-0.8015486598014832,-1.338727355003357,20.87515258789062,90.02754211425781,-4.030670166015625
104878,0.052276611328125,2.362411499023438,0.898681640625,-1.696203470230103,0.3397985696792603,-1.716865420341492,20.485595703125,89.8323974609375,-3.632308959960938
104879,-0.1580352783203125,3.69818115234375,0.8548736572265625,-2.016605138778687,1.026280045509338,-2.700743675231934,19.98088073730469,89.47784423828125,-3.187637329101562
104880,-0.9686279296875,3.915145874023438,1.59930419921875,-1.001558661460876,0.2357081323862076,-3.904435873031616,18.00294494628906,88.18667602539062,-2.3072509765625
104881,-0.9686279296875,3.915145874023438,1.59930419921875,-1.001558661460876,0.2357081323862076,-3.904435873031616,18.00294494628906,88.18667602539062,-2.3072509765625
104882,-1.626251220703125,2.918991088867188,2.176315307617188,-0.3991753458976746,0.5152910351753235,-2.623096704483032,16.71781921386719,87.11027526855469,-2.39971923828125
104883,-2.445831298828125,2.02935791015625,2.390121459960938,0.1954746842384338,3.163400173187256,-0.9199594259262084,15.62747192382812,85.90919494628906,-2.464859008789062
104884,-2.303085327148438,1.652557373046875,1.167800903320312,0.5390405654907227,4.617741584777832,-0.0181326642632484,14.876953125,84.97123718261719,-3.004409790039062
104885,-1.9471435546875,1.710601806640625,-0.4454498291015625,0.8203012943267822,1.835464239120483,0.0860251635313034,14.548583984375,84.55953979492188,-3.877716064453125
104886,-1.207382202148438,1.843154907226562,-0.7975921630859375,1.098581910133362,-2.108112335205078,0.4941979944705963,14.35234069824219,84.45892333984375,-5.260528564453125
104887,-0.523712158203125,2.160736083984375,-0.3642578125,1.329208731651306,-4.097203731536865,0.9614014029502868,13.94798278808594,84.74624633789062,-6.236083984375
104888,0.120269775390625,2.201156616210938,-0.1568756103515625,1.354922652244568,-1.850943803787231,1.636022210121155,13.63221740722656,85.63465881347656,-5.344223022460938
104889,0.120269775390625,2.201156616210938,-0.1568756103515625,1.354922652244568,-1.850943803787231,1.636022210121155,13.63221740722656,85.63465881347656,-5.344223022460938
104890,0.2173919677734375,1.886093139648438,-0.2216796875,1.590380191802979,0.0444628074765205,1.822953939437866,14.00325012207031,86.19195556640625,-4.47979736328125
104891,0.2472686767578125,1.47467041015625,-0.3946533203125,1.621575117111206,1.320149183273315,1.764958024024963,14.70225524902344,86.64309692382812,-3.8983154296875
104892,0.188507080078125,1.208236694335938,-0.5225830078125,1.342426538467407,1.379299879074097,1.562600135803223,15.59529113769531,87.1011962890625,-4.01348876953125
104893,-0.02203369140625,0.862762451171875,-0.335662841796875,0.3530097305774689,-0.1936198025941849,0.7232253551483154,17.07044982910156,88.01239013671875,-5.546173095703125
104894,-0.02203369140625,0.862762451171875,-0.335662841796875,0.3530097305774689,-0.1936198025941849,0.7232253551483154,17.07044982910156,88.01239013671875,-5.546173095703125
104895,-0.1202545166015625,0.7192840576171875,-0.15594482421875,-0.0068097030743956,-0.7872455716133118,0.3302679359912872,17.66090393066406,88.34968566894531,-6.3497314453125
104896,-0.122161865234375,0.5498504638671875,-0.0296173095703125,-0.2700168490409851,-1.068609356880188,0.103549562394619,18.17924499511719,88.42350769042969,-6.639404296875
104897,-0.0226593017578125,0.2443695068359375,0.0137786865234375,-0.5795962810516357,-1.054619193077087,0.1101858913898468,18.93452453613281,88.36439514160156,-6.282302856445312
104898,-0.0226593017578125,0.2443695068359375,0.0137786865234375,-0.5795962810516357,-1.054619193077087,0.1101858913898468,18.93452453613281,88.36439514160156,-6.282302856445312
104899,0.0191650390625,0.1066741943359375,-0.0656890869140625,-0.5559146404266357,-1.010668873786926,0.2352556586265564,19.14569091796875,88.13923645019531,-5.746063232421875
104900,0.116180419921875,-0.132171630859375,-0.326141357421875,0.0765011683106422,-1.433902382850647,0.7184556126594543,19.65390014648438,87.97758483886719,-4.947494506835938
104901,0.116180419921875,-0.132171630859375,-0.326141357421875,0.0765011683106422,-1.433902382850647,0.7184556126594543,19.65390014648438,87.97758483886719,-4.947494506835938
104902,0.1511688232421875,-0.16326904296875,-0.2800445556640625,0.5953408479690552,-1.486561894416809,0.9837767481803894,20.03131103515625,88.03697204589844,-4.410552978515625
104903,0.1928558349609375,-0.1798858642578125,-0.1833953857421875,0.9705142378807068,-0.6850973963737488,1.158992767333984,20.46475219726562,88.02337646484375,-3.643768310546875
104904,0.2364349365234375,-0.176483154296875,-0.2970428466796875,1.227295994758606,0.4681874513626099,1.279307961463928,20.89778137207031,88.21305847167969,-3.147674560546875
104905,0.253021240234375,-0.138092041015625,-0.4986419677734375,1.501352310180664,0.9215051531791688,1.417047023773193,21.349365234375,88.706298828125,-3.07122802734375
104906,0.24224853515625,-0.0271453857421875,-0.558685302734375,1.644112825393677,0.6231836676597595,1.52433454990387,21.86767578125,89.11711120605469,-3.355453491210938
104907,0.2108612060546875,0.1286163330078125,-0.4145050048828125,1.513023853302002,0.1302163302898407,1.46650242805481,22.33146667480469,89.51101684570312,-3.91937255859375
104908,0.1704254150390625,0.2584686279296875,-0.1519012451171875,0.9255818724632264,-0.4319881498813629,1.116050124168396,23.59471130371094,90.40281677246094,-5.112640380859375
104909,0.1704254150390625,0.2584686279296875,-0.1519012451171875,0.9255818724632264,-0.4319881498813629,1.116050124168396,23.59471130371094,90.40281677246094,-5.112640380859375
104910,0.143310546875,0.320770263671875,-0.08056640625,0.7007200121879578,-0.5536815524101257,0.8807073831558228,24.19053649902344,90.84255981445312,-5.523422241210938
104911,0.111083984375,0.40386962890625,0.031707763671875,0.5384395122528076,-0.4935106337070465,0.6014254093170166,24.70205688476562,91.10484313964844,-5.612152099609375
104912,0.0765838623046875,0.547210693359375,0.23321533203125,0.3786498308181763,-0.0808381214737892,0.2281831055879593,25.09664916992188,91.46722412109376,-5.828811645507812
104913,0.0614471435546875,0.740631103515625,0.476318359375,0.1491812318563461,0.7795035243034363,-0.2134464979171753,25.5361328125,91.51849365234376,-5.925735473632812
104914,0.053192138671875,1.057281494140625,0.668670654296875,-0.1826233416795731,2.000017642974854,-0.6784482598304749,25.75404357910156,91.68821716308594,-6.038528442382812
104915,-0.0135345458984375,1.470565795898438,0.73443603515625,-0.6362481117248535,3.166643619537354,-1.100017905235291,25.64373779296875,91.66444396972656,-6.39013671875
104916,-0.198760986328125,1.833419799804688,0.6826171875,-0.9603318572044371,3.582766771316528,-1.498742341995239,25.48736572265625,91.55018615722656,-6.850006103515625
104917,-0.5087890625,2.0167236328125,0.5716400146484375,-0.709743857383728,2.801875829696655,-1.644149661064148,25.13825988769531,91.28651428222656,-7.439422607421875
104918,-0.7873077392578125,2.040283203125,0.540863037109375,0.0539383329451084,1.323383808135986,-1.447352409362793,24.75503540039062,90.7541046142578,-8.157424926757812
104919,-0.859832763671875,1.9100341796875,0.6721649169921875,0.9892079830169678,-0.1632571071386337,-0.8276281952857971,24.31549072265625,90.11183166503906,-8.823867797851562
104920,-0.785675048828125,1.861297607421875,0.8590240478515625,1.613483905792236,-1.082480907440186,0.0372291281819343,24.02052307128906,89.71015930175781,-9.177536010742188
104921,-0.6678466796875,1.996139526367188,1.01446533203125,1.622560977935791,-1.547301411628723,0.6393128633499146,23.88365173339844,89.46376037597656,-9.436065673828123
104922,-0.547607421875,2.135238647460938,1.164093017578125,1.036334991455078,-1.994609355926514,0.587050199508667,23.79136657714844,89.44548034667969,-9.874832153320312
104923,-0.5926361083984375,2.085342407226562,1.402496337890625,0.1124498471617699,-2.143593072891235,0.1231975629925728,23.95851135253906,89.75923156738281,-10.36944580078125
104924,-0.6675567626953125,1.816207885742188,1.557998657226562,-0.7424059510231018,-1.708835363388062,-0.3215162456035614,24.2877197265625,89.86822509765625,-10.57145690917969
104925,-0.6314544677734375,1.430557250976562,1.3709716796875,-1.120368719100952,-0.9359405040740968,-0.3888697326183319,24.54396057128906,89.96685791015625,-10.1683349609375
104926,-0.5577545166015625,1.188705444335938,0.9846343994140624,-1.050893187522888,-0.284676730632782,-0.2898459434509277,24.69313049316406,89.90347290039062,-9.58837890625
104927,-0.48724365234375,1.057418823242188,0.6519622802734375,-0.8713157176971436,0.2076706439256668,-0.251008003950119,24.64569091796875,89.68629455566406,-8.742996215820312
104928,-0.3957061767578125,0.9320068359375,0.364990234375,-0.778404951095581,0.4645463824272156,-0.2707822322845459,24.57908630371094,89.42390441894531,-8.137115478515625
104929,-0.3058013916015625,0.7934112548828125,0.1160888671875,-0.774669349193573,0.4331695437431335,-0.2940787672996521,24.43698120117188,89.34211730957031,-7.73260498046875
104930,-0.226318359375,0.6508331298828125,-0.0662841796875,-0.8033169507980347,0.1619279235601425,-0.30925452709198,24.28800964355469,89.47074890136719,-7.498550415039062
104931,-0.155242919921875,0.50921630859375,-0.2371978759765625,-0.7901281714439392,-0.2119641900062561,-0.3096457421779633,24.05752563476562,89.3935546875,-7.34808349609375
104932,0.216644287109375,0.268280029296875,-1.243148803710938,-0.0037441381718963,-4.287846565246582,0.0702672377228736,23.6302490234375,89.46870422363281,-6.876876831054688
104933,0.216644287109375,0.268280029296875,-1.243148803710938,-0.0037441381718963,-4.287846565246582,0.0702672377228736,23.6302490234375,89.46870422363281,-6.876876831054688
104934,0.175262451171875,0.4012908935546875,-0.3483734130859375,0.4317575395107269,-5.133161067962646,0.214180201292038,23.45967102050781,89.46842956542969,-6.549880981445312
104935,0.1286163330078125,0.48199462890625,0.0998687744140625,0.6547613143920898,-4.242751598358154,0.2745199799537659,23.393798828125,89.65382385253906,-5.711013793945312
104936,0.4146270751953125,0.616180419921875,-0.02734375,1.094206809997559,-2.081908226013184,0.9567038416862488,23.77265930175781,90.2470245361328,-3.58905029296875
104937,0.4146270751953125,0.616180419921875,-0.02734375,1.094206809997559,-2.081908226013184,0.9567038416862488,23.77265930175781,90.2470245361328,-3.58905029296875
104938,0.44696044921875,0.801055908203125,-0.01953125,1.116503119468689,-0.7606222629547119,1.241785168647766,23.91822814941406,90.57972717285156,-2.785888671875
104939,0.3846588134765625,0.891571044921875,-0.1064453125,1.065908908843994,0.4027714133262634,1.177551031112671,24.10499572753906,91.04310607910156,-2.320785522460938
104940,0.2013092041015625,0.594390869140625,-0.342132568359375,1.189266800880432,0.2669422030448914,0.4367850422859192,24.89031982421875,91.80709838867188,-2.123672485351562
104941,0.2013092041015625,0.594390869140625,-0.342132568359375,1.189266800880432,0.2669422030448914,0.4367850422859192,24.89031982421875,91.80709838867188,-2.123672485351562
104942,0.1176300048828125,0.328155517578125,-0.2501220703125,1.200829148292542,-0.2929389178752899,0.1649380922317505,25.32582092285156,92.0625,-2.376678466796875
104943,0.049835205078125,0.1371002197265625,-0.160614013671875,1.14884352684021,-0.5991856455802917,0.0035574506036937,25.67269897460938,92.27020263671876,-2.74005126953125
104944,0.01727294921875,-0.0024261474609375,-0.11492919921875,1.067406892776489,-0.6078694462776184,-0.0452178120613098,26.0184326171875,92.32862854003906,-3.160598754882812
104945,-0.0248260498046875,-0.133453369140625,-0.1681671142578125,0.8609091639518738,-0.220807746052742,0.008150870911777,26.27078247070312,92.48626708984376,-4.095352172851562
104946,-0.0248260498046875,-0.133453369140625,-0.1681671142578125,0.8609091639518738,-0.220807746052742,0.008150870911777,26.27078247070312,92.48626708984376,-4.095352172851562
104947,-0.0223541259765625,-0.1377105712890625,-0.21331787109375,0.742769718170166,-0.1876801550388336,0.0418438538908958,26.44120788574219,92.5103759765625,-4.388961791992188
104948,-0.006805419921875,-0.0978240966796875,-0.143463134765625,0.383374810218811,-0.4731776714324951,0.0513745062053203,26.69354248046875,92.6851806640625,-4.712020874023438
104949,-0.006805419921875,-0.0978240966796875,-0.143463134765625,0.383374810218811,-0.4731776714324951,0.0513745062053203,26.69354248046875,92.6851806640625,-4.712020874023438
104950,-0.0068817138671875,-0.0817413330078125,-0.059356689453125,0.1276298612356186,-0.589606523513794,0.0147965224459767,27.03256225585938,92.90914916992188,-5.052505493164062
104951,-0.011962890625,-0.0723876953125,0.0087738037109375,-0.1807173192501068,-0.6325303316116333,-0.0371407121419906,27.16921997070312,92.94375610351562,-4.857025146484375
104952,-0.0261688232421875,-0.0602264404296875,0.05889892578125,-0.5129650235176086,-0.6251203417778015,-0.1009140983223915,27.37509155273438,92.72622680664062,-4.42401123046875
104953,-0.046966552734375,0.08795166015625,0.0853271484375,-1.02764356136322,-0.5477960109710693,-0.2501416504383087,27.56716918945312,92.67161560058594,-3.401702880859375
104954,-0.046966552734375,0.08795166015625,0.0853271484375,-1.02764356136322,-0.5477960109710693,-0.2501416504383087,27.56716918945312,92.67161560058594,-3.401702880859375
104955,-0.0332183837890625,0.1878814697265625,0.0131988525390625,-1.188336849212646,-0.6412425637245178,-0.352442741394043,27.48750305175781,92.59051513671876,-2.833908081054688
104956,-0.025909423828125,0.3701629638671875,-0.2263336181640625,-1.245818972587585,-1.134517550468445,-0.5132207274436951,27.36285400390625,92.5714874267578,-2.399063110351562
104957,-0.04010009765625,1.0606689453125,-0.4608001708984375,-0.9574764370918274,-2.357916116714478,-0.9552497863769532,27.19044494628906,92.47721862792967,-1.90655517578125
104958,-0.043304443359375,3.504806518554688,-0.129974365234375,-0.4968670308589935,-3.293812274932861,-2.315410852432251,26.78666687011719,92.30191040039062,-1.500900268554688
104959,0.114227294921875,5.586380004882812,0.4510955810546875,-0.405378669500351,-3.004648685455322,-3.900933265686035,26.106689453125,92.27745056152344,-1.050506591796875
104960,-0.4415435791015625,5.444107055664062,0.935699462890625,-0.7744091749191284,-1.468061089515686,-4.705979347229004,24.98414611816406,92.05181884765624,-0.43682861328125
104961,-2.127243041992188,4.037368774414062,1.21649169921875,-1.024264574050903,1.320026159286499,-3.285590887069702,23.54342651367188,91.3366241455078,0.220062255859375
104962,-2.4566650390625,3.010940551757812,0.85858154296875,-0.2653528451919556,2.910854816436768,-0.8286811709403992,22.16714477539062,90.42424011230467,0.4833221435546875
104963,-1.845260620117188,2.602813720703125,0.2943878173828125,0.4851837456226349,2.30327296257019,0.4494803249835968,21.27899169921875,89.68057250976562,0.4385833740234375
104964,-1.330368041992188,2.528244018554688,-0.158050537109375,0.6378009915351868,0.8250662088394165,0.6690313220024109,20.93405151367188,89.52149963378906,-0.1312713623046875
104965,-0.4344329833984375,2.119918823242188,-0.29669189453125,0.3201580345630646,-0.5271673798561096,1.094985246658325,21.1142578125,89.88346862792969,-1.63873291015625
104966,-0.4344329833984375,2.119918823242188,-0.29669189453125,0.3201580345630646,-0.5271673798561096,1.094985246658325,21.1142578125,89.88346862792969,-1.63873291015625
104967,-0.2945404052734375,2.02728271484375,-0.390960693359375,0.3566033840179443,-0.2115063816308975,1.204757571220398,21.49833679199219,89.98959350585938,-1.665374755859375
104968,-0.2066802978515625,1.843902587890625,-0.4270172119140625,0.4936517775058746,0.097832553088665,1.285666823387146,21.99043273925781,90.14993286132812,-1.697647094726562
104969,-0.0558319091796875,1.394927978515625,-0.3056793212890625,0.531313419342041,0.4599044919013977,1.217904329299927,23.122802734375,90.57315063476562,-2.174346923828125
104970,-0.0558319091796875,1.394927978515625,-0.3056793212890625,0.531313419342041,0.4599044919013977,1.217904329299927,23.122802734375,90.57315063476562,-2.174346923828125
104971,-0.01690673828125,1.160308837890625,-0.2628936767578125,0.4524292647838593,0.5061523914337158,1.150689363479614,23.68559265136719,90.8043975830078,-2.374252319335938
104972,-0.00579833984375,0.794647216796875,-0.141448974609375,0.2802726626396179,0.2044375538825989,0.9236881136894226,24.66355895996094,91.21980285644533,-3.084854125976562
104973,-0.00579833984375,0.794647216796875,-0.141448974609375,0.2802726626396179,0.2044375538825989,0.9236881136894226,24.66355895996094,91.21980285644533,-3.084854125976562
104974,0.0165557861328125,0.599334716796875,-0.036529541015625,0.1288791596889496,0.0978653132915496,0.8204839825630188,25.08480834960938,91.46833801269533,-3.19268798828125
104975,0.02294921875,0.418731689453125,0.027496337890625,-0.0458116978406906,0.089067555963993,0.7577689290046692,25.45822143554688,91.6694793701172,-3.233169555664062
104976,0.0303497314453125,0.2548065185546875,0.0426025390625,-0.179508239030838,0.1124985814094543,0.7212716341018677,25.7340087890625,91.68106079101562,-3.221603393554688
104977,0.0731201171875,0.0229644775390625,-0.046600341796875,-0.223033607006073,0.0777179673314094,0.7220548987388611,26.44844055175781,91.81681823730467,-3.216476440429688
104978,0.0731201171875,0.0229644775390625,-0.046600341796875,-0.223033607006073,0.0777179673314094,0.7220548987388611,26.44844055175781,91.81681823730467,-3.216476440429688
104979,0.0895843505859375,-0.066253662109375,-0.139801025390625,-0.0506954006850719,-0.1293694376945496,0.789910614490509,26.77084350585938,91.98251342773438,-2.951248168945312
104980,0.096527099609375,-0.110443115234375,-0.190521240234375,0.2042535394430161,-0.3910069167613983,0.8811047077178955,27.13020324707031,91.9901123046875,-2.752059936523438
104981,0.108306884765625,-0.131591796875,-0.28076171875,0.4952094852924347,-0.654675304889679,0.987400233745575,27.48388671875,91.95587158203124,-2.523666381835938
104982,0.14544677734375,-0.1686859130859375,-0.382568359375,0.738727867603302,-0.983127236366272,1.089991092681885,27.93402099609375,92.18899536132812,-2.348220825195312
104983,0.185333251953125,-0.2000579833984375,-0.32220458984375,0.731935441493988,-0.6243245601654053,1.094706773757935,28.44558715820312,92.532958984375,-2.156280517578125
104984,0.208343505859375,-0.1679229736328125,-0.32281494140625,0.4968553185462952,0.2890893220901489,0.9527972936630248,29.47450256347656,93.03163146972656,-1.824966430664062
104985,0.208343505859375,-0.1679229736328125,-0.32281494140625,0.4968553185462952,0.2890893220901489,0.9527972936630248,29.47450256347656,93.03163146972656,-1.824966430664062
104986,0.19976806640625,-0.107086181640625,-0.24761962890625,0.464371919631958,0.2970633804798126,0.8529556393623352,29.96034240722656,93.20231628417967,-1.821182250976562
104987,0.1642608642578125,0.0096893310546875,-0.2006378173828125,0.4531437754631042,0.1731313019990921,0.6719815731048584,30.40278625488281,93.29345703125,-1.960723876953125
104988,-0.0158843994140625,0.2269287109375,-0.1405029296875,0.4023682177066803,-0.0525036863982677,0.1167053133249283,31.15354919433594,93.06925964355467,-1.8602294921875
104989,-0.0553131103515625,0.253997802734375,-0.0569000244140625,0.3747363090515137,0.0544685684144496,-0.0541444607079029,31.36369323730469,93.21931457519533,-2.059677124023438
104990,-0.0553131103515625,0.253997802734375,-0.0569000244140625,0.3747363090515137,0.0544685684144496,-0.0541444607079029,31.36369323730469,93.21931457519533,-2.059677124023438
104991,-0.048858642578125,0.2903594970703125,0.077056884765625,0.3039548397064209,0.3505103588104248,-0.2264318019151688,31.38934326171875,93.3914031982422,-2.242233276367188
104992,-0.0390777587890625,0.30926513671875,0.2196044921875,0.1843639761209488,0.7612398266792297,-0.4088623225688934,31.39645385742188,93.42433166503906,-2.34747314453125
104993,-0.0277099609375,0.342620849609375,0.3933563232421875,-0.0233484655618667,1.271319031715393,-0.6323580145835876,31.27481079101562,93.43666076660156,-2.691314697265625
104994,-0.0678558349609375,0.748321533203125,0.6317138671875,-0.3371740281581879,2.070159196853638,-0.992984652519226,30.94039916992188,93.58070373535156,-3.223846435546875
104995,-0.1695556640625,1.83477783203125,0.808135986328125,-0.7631328105926514,3.323505878448486,-1.642458200454712,30.45697021484375,93.58758544921876,-3.958053588867188
104996,-0.3397369384765625,2.488357543945312,0.7337799072265625,-1.066018342971802,3.8826744556427,-1.883643984794617,29.83686828613281,93.53279113769533,-4.787857055664062
104997,-0.7434234619140625,2.7049560546875,0.539947509765625,-0.784985363483429,3.084719657897949,-1.683011531829834,29.05537414550781,93.12428283691406,-5.551193237304688
104998,-1.152374267578125,2.6571044921875,0.4045257568359375,0.1883531361818314,1.248694181442261,-1.153294444084167,28.33511352539062,92.64582824707033,-6.279327392578125
104999,-1.293319702148438,2.451934814453125,0.550628662109375,1.29106879234314,-0.611413300037384,-0.4266551733016968,27.80561828613281,92.10285949707033,-6.711441040039062
105000,-1.118545532226562,2.2861328125,0.794189453125,1.671611666679382,-1.562732577323914,0.1329860091209412,27.65966796875,91.7817840576172,-7.125350952148438
105001,-0.9790496826171876,2.203994750976562,0.999755859375,1.138382792472839,-1.742999792098999,0.1774027496576309,27.56697082519531,91.75396728515624,-7.473556518554688
105002,-0.9311065673828124,2.009078979492188,1.073410034179688,0.1593276113271713,-1.24506664276123,-0.3260034024715424,27.62326049804688,92.02986145019533,-7.985427856445312
105003,-0.7695465087890625,1.629776000976562,0.8769378662109375,-0.7398298978805542,-0.9040542244911194,-0.6324067711830139,27.56257629394531,92.1587371826172,-8.135986328125
105004,-0.432769775390625,1.23272705078125,0.535400390625,-0.879797101020813,-0.8268632888793945,-0.540061354637146,27.42994689941406,91.834716796875,-7.30279541015625
105005,-0.432769775390625,1.23272705078125,0.535400390625,-0.879797101020813,-0.8268632888793945,-0.540061354637146,27.42994689941406,91.834716796875,-7.30279541015625
105006,-0.3285675048828125,1.092498779296875,0.41876220703125,-0.6131531596183777,-0.7509613633155823,-0.4841102063655853,27.26715087890625,91.7107391357422,-6.976119995117188
105007,-0.2339935302734375,0.9265899658203124,0.2796173095703125,-0.4327698051929474,-0.7031200528144836,-0.4049778580665588,27.07319641113281,91.50376892089844,-6.272201538085938
105008,-0.0892333984375,0.59979248046875,0.0754241943359375,-0.4872652590274811,-0.823235809803009,-0.2331221997737885,26.80061340332031,91.2880859375,-5.343017578125
105009,-0.0892333984375,0.59979248046875,0.0754241943359375,-0.4872652590274811,-0.823235809803009,-0.2331221997737885,26.80061340332031,91.2880859375,-5.343017578125
105010,-0.0244293212890625,0.4447479248046875,-0.00067138671875,-0.6386939287185669,-0.9571749567985536,-0.1286959201097488,26.72360229492188,91.03192138671876,-5.085906982421875
105011,0.0412139892578125,0.293792724609375,-0.2139892578125,-0.7935844659805298,-1.255091905593872,0.001391767989844,26.67633056640625,90.84320068359376,-4.668533325195312
105012,0.1941070556640625,0.0743865966796875,-0.463226318359375,-0.6971567273139954,-3.17165732383728,0.3999039828777313,26.76545715332031,90.4903564453125,-3.260818481445312
105013,0.1941070556640625,0.0743865966796875,-0.463226318359375,-0.6971567273139954,-3.17165732383728,0.3999039828777313,26.76545715332031,90.4903564453125,-3.260818481445312
105014,0.24578857421875,0.066619873046875,-0.2443389892578125,-0.4731161594390869,-3.63844633102417,0.6423991918563843,26.95849609375,90.5481414794922,-2.301361083984375
105015,0.3052215576171875,0.11383056640625,-0.0377960205078125,-0.2354063987731934,-3.528958797454834,0.9317598938941956,27.28184509277344,90.61027526855467,-1.222335815429688
105016,0.36138916015625,0.3039093017578125,0.0314788818359375,0.3382382392883301,-2.139259576797485,1.49567973613739,28.18006896972656,91.24537658691406,1.200225830078125
105017,0.36138916015625,0.3039093017578125,0.0314788818359375,0.3382382392883301,-2.139259576797485,1.49567973613739,28.18006896972656,91.24537658691406,1.200225830078125
105018,0.3056182861328125,0.4466094970703125,-0.077880859375,0.6046496629714966,-1.378108859062195,1.5025634765625,28.68399047851562,91.63021850585938,2.009628295898438
105019,0.2462310791015625,0.51214599609375,-0.2396087646484375,0.7168971300125122,-0.4638579487800598,1.196662664413452,29.27227783203125,92.2710418701172,2.611419677734375
105020,0.18170166015625,0.323272705078125,-0.548126220703125,0.6746684312820435,0.2281815111637115,0.329725444316864,30.54476928710938,93.07600402832033,2.924118041992188
105021,0.18170166015625,0.323272705078125,-0.548126220703125,0.6746684312820435,0.2281815111637115,0.329725444316864,30.54476928710938,93.07600402832033,2.924118041992188
105022,0.10845947265625,0.193084716796875,-0.3703155517578125,0.6819300651550293,-0.0182967148721218,0.1117038950324059,30.83334350585938,93.14035034179688,2.906723022460938
105023,0.04840087890625,0.1057891845703125,-0.188079833984375,0.6081381440162659,-0.0514245741069316,0.0098371841013431,30.996826171875,93.25897216796876,2.65655517578125
105024,0.0231781005859375,-0.02044677734375,-0.1796722412109375,0.2888464629650116,0.1191399693489075,0.0221034381538629,31.24458312988281,93.4638214111328,2.268966674804688
105025,0.0045166015625,-0.046142578125,-0.2909088134765625,0.1388500332832336,0.0205928925424814,0.0310047883540391,31.2281494140625,93.52806091308594,2.002044677734375
105026,0.0045166015625,-0.046142578125,-0.2909088134765625,0.1388500332832336,0.0205928925424814,0.0310047883540391,31.2281494140625,93.52806091308594,2.002044677734375
105027,-0.0315399169921875,-0.0369110107421875,-0.3874359130859375,0.0564345121383667,-0.3084696829319,0.0081708440557122,31.23239135742188,93.70231628417967,1.68890380859375
105028,-0.0384979248046875,0.1710205078125,-0.15716552734375,-0.0645688697695732,-0.8544232845306396,-0.1184105351567268,31.42585754394531,93.75296020507812,1.672409057617188
105029,-0.0384979248046875,0.1710205078125,-0.15716552734375,-0.0645688697695732,-0.8544232845306396,-0.1184105351567268,31.42585754394531,93.75296020507812,1.672409057617188
105030,0.0082550048828125,0.2848663330078125,-0.08026123046875,-0.0825553312897682,-0.9079371094703674,-0.2300483733415604,31.48152160644531,93.80453491210938,1.6527099609375
105031,0.0394134521484375,0.4570159912109375,-0.0023193359375,-0.0732025727629661,-0.8443267345428467,-0.416809469461441,31.51863098144531,93.93603515625,1.734848022460938
105032,0.088531494140625,1.073928833007812,0.255859375,-0.2199387550354004,-0.0001374191051581,-1.01194155216217,31.44676208496094,93.95826721191406,2.25079345703125
105033,0.088531494140625,1.073928833007812,0.255859375,-0.2199387550354004,-0.0001374191051581,-1.01194155216217,31.44676208496094,93.95826721191406,2.25079345703125
105034,0.0671234130859375,1.426300048828125,0.428131103515625,-0.5056788921356201,0.7199456691741943,-1.238717675209045,31.18878173828125,93.96217346191406,2.231903076171875
105035,-0.0387115478515625,1.80572509765625,0.6600189208984375,-1.013290762901306,1.63381016254425,-1.434659481048584,30.61332702636719,93.95225524902344,2.07305908203125
105036,-0.59039306640625,3.619232177734375,0.373138427734375,-2.028733968734741,2.353125333786011,-2.918472766876221,29.01486206054688,93.48274230957033,2.011871337890625
105037,-0.59039306640625,3.619232177734375,0.373138427734375,-2.028733968734741,2.353125333786011,-2.918472766876221,29.01486206054688,93.48274230957033,2.011871337890625
105038,-1.533523559570312,4.374786376953125,0.4228057861328125,-1.685569763183594,0.6351833343505859,-3.676675319671631,27.97439575195312,93.14372253417967,1.951919555664062
105039,-2.919631958007812,4.060638427734375,1.38433837890625,-1.393969058990479,0.3707378506660461,-1.454821825027466,26.64309692382812,92.52630615234376,1.9169921875
105040,-1.984115600585938,3.054367065429688,0.916259765625,-0.6027580499649048,1.172659635543823,0.1944728046655655,24.60670471191406,91.28312683105467,2.24224853515625
105041,-1.984115600585938,3.054367065429688,0.916259765625,-0.6027580499649048,1.172659635543823,0.1944728046655655,24.60670471191406,91.28312683105467,2.24224853515625
105042,-0.9370269775390624,2.367172241210938,0.289794921875,-0.6144099235534668,-0.4519815742969513,0.3476871252059937,24.27619934082031,90.86257934570312,2.265823364257812
105043,-0.318603515625,2.13671875,0.056427001953125,-0.1789079606533051,-1.345558404922485,0.6794488430023193,24.14657592773438,90.66566467285156,2.4505615234375
105044,0.019073486328125,2.031417846679688,-0.1678314208984375,0.7473157644271851,-0.7928608655929565,0.7452829480171204,24.54783630371094,90.47149658203124,3.313827514648438
105045,-0.0087127685546875,1.693252563476562,-0.3494720458984375,0.9197921752929688,0.0145445875823497,0.8814684748649597,25.05038452148438,90.51512145996094,3.582061767578125
105046,-0.0087127685546875,1.693252563476562,-0.3494720458984375,0.9197921752929688,0.0145445875823497,0.8814684748649597,25.05038452148438,90.51512145996094,3.582061767578125
105047,-0.0452117919921875,1.398468017578125,-0.515106201171875,0.9708604216575624,0.435380220413208,1.054657578468323,25.64254760742188,90.64871215820312,3.602783203125
105048,-0.0491790771484375,1.209182739257812,-0.580291748046875,0.9399706721305848,0.4701837599277496,1.082925200462341,26.29071044921875,90.54307556152344,3.549484252929688
105049,-0.045379638671875,1.04449462890625,-0.5634765625,0.8195332288742065,0.5118100047111511,0.9570298194885254,26.71525573730469,90.75038146972656,2.922637939453125
105050,-0.045684814453125,0.9344329833984376,-0.547943115234375,0.6409611105918884,0.505830705165863,0.8348000645637512,27.1593017578125,90.97184753417967,2.557540893554688
105051,-0.0568084716796875,0.8644866943359375,-0.471160888671875,0.4784917533397675,0.4221243560314178,0.7751319408416748,27.477783203125,91.32826232910156,2.093353271484375
105052,-0.05609130859375,0.6790313720703125,-0.2142333984375,0.0594071336090564,0.1586745977401733,0.6216643452644348,28.14859008789062,91.50271606445312,1.779693603515625
105053,-0.0657806396484375,0.5191650390625,-0.118438720703125,-0.186773881316185,0.1151223257184029,0.5324998497962952,28.60971069335938,91.61289978027344,1.65093994140625
105054,-0.0657806396484375,0.5191650390625,-0.118438720703125,-0.186773881316185,0.1151223257184029,0.5324998497962952,28.60971069335938,91.61289978027344,1.65093994140625
105055,-0.0503692626953125,0.3341064453125,-0.1003875732421875,-0.3894228637218475,0.1019604504108429,0.4555099904537201,28.8546142578125,91.6032257080078,1.578094482421875
105056,-0.0217742919921875,0.031951904296875,-0.1958465576171875,-0.3404028415679932,-0.285269021987915,0.4320515394210815,29.2598876953125,91.93650817871094,1.252700805664062
105057,-0.0217742919921875,0.031951904296875,-0.1958465576171875,-0.3404028415679932,-0.285269021987915,0.4320515394210815,29.2598876953125,91.93650817871094,1.252700805664062
105058,0.0035400390625,-0.059661865234375,-0.2077789306640625,-0.1449657082557678,-0.5621166229248047,0.4502031207084656,29.56198120117188,91.97999572753906,1.179519653320312
105059,0.0323638916015625,-0.1062774658203125,-0.202545166015625,0.1162054389715195,-0.812406599521637,0.5076616406440735,29.7933349609375,91.9195556640625,1.480453491210938
105060,0.0664825439453125,-0.110748291015625,-0.146881103515625,0.7052586078643799,-0.925302505493164,0.6740570068359375,30.56045532226562,92.03866577148438,1.788055419921875
105061,0.0664825439453125,-0.110748291015625,-0.146881103515625,0.7052586078643799,-0.925302505493164,0.6740570068359375,30.56045532226562,92.03866577148438,1.788055419921875
105062,0.0845794677734375,-0.11688232421875,-0.0968780517578125,0.9922975301742554,-0.6218758225440979,0.7112536430358887,30.89176940917969,92.10789489746094,2.157073974609375
105063,0.114471435546875,-0.1392974853515625,-0.0894775390625,1.188986659049988,0.1731510162353516,0.6855645179748535,31.30961608886719,92.35812377929688,2.308303833007812
105064,0.16717529296875,-0.1754150390625,-0.5194091796875,1.467347741127014,0.74021977186203,0.6608613133430481,32.11618041992188,92.684814453125,2.641143798828125
105065,0.1516265869140625,-0.1169586181640625,-0.4275054931640625,1.414984583854675,0.4439097940921783,0.6297566294670105,32.28005981445312,92.82998657226562,2.224884033203125
105066,0.1516265869140625,-0.1169586181640625,-0.4275054931640625,1.414984583854675,0.4439097940921783,0.6297566294670105,32.28005981445312,92.82998657226562,2.224884033203125
105067,0.12335205078125,0.0185394287109375,-0.2381439208984375,1.153491258621216,0.3236768543720245,0.5019651055335999,32.52299499511719,93.12725830078124,1.529266357421875
105068,0.023895263671875,0.2030487060546875,-0.0139617919921875,0.3821652233600616,0.3155462443828583,0.1911920607089996,32.90565490722656,93.5848388671875,0.1923370361328125
105069,0.023895263671875,0.2030487060546875,-0.0139617919921875,0.3821652233600616,0.3155462443828583,0.1911920607089996,32.90565490722656,93.5848388671875,0.1923370361328125
105070,0.0028228759765625,0.2308197021484375,0.16278076171875,0.0469637811183929,0.4178521037101746,0.0549367517232894,33.11590576171875,93.82290649414062,-0.4801025390625
105071,-0.0055999755859375,0.2576446533203125,0.39801025390625,-0.2610060274600983,0.8622681498527527,-0.1166661605238914,33.14505004882812,93.88528442382812,-0.7660369873046875
105072,-0.054168701171875,0.49957275390625,0.7495880126953125,-1.026239275932312,2.706129789352417,-0.5587889552116394,33.057373046875,94.03179931640624,-1.024490356445312
105073,-0.054168701171875,0.49957275390625,0.7495880126953125,-1.026239275932312,2.706129789352417,-0.5587889552116394,33.057373046875,94.03179931640624,-1.024490356445312
105074,-0.253173828125,1.615646362304688,0.909149169921875,-1.460847735404968,4.020754337310791,-1.297656893730164,32.88720703125,93.85945129394533,-1.2618408203125
105075,-0.5250244140625,2.36663818359375,0.8823089599609375,-1.423296093940735,4.554981231689453,-1.749898910522461,32.42333984375,93.73593139648438,-1.527877807617188
105076,-1.366363525390625,2.59503173828125,0.5811920166015625,0.6275824308395386,1.792455792427063,-0.9263326525688172,30.87855529785156,93.07510375976562,-2.69952392578125
105077,-1.485015869140625,2.513092041015625,0.8321685791015625,1.801058769226074,0.2526383697986603,-0.1074942350387573,30.14813232421875,92.57305908203124,-3.36553955078125
105078,-1.485015869140625,2.513092041015625,0.8321685791015625,1.801058769226074,0.2526383697986603,-0.1074942350387573,30.14813232421875,92.57305908203124,-3.36553955078125
105079,-1.199783325195312,2.47735595703125,0.995391845703125,2.024396657943726,-0.5323299169540405,0.4067523181438446,29.64521789550781,92.10905456542967,-4.078872680664062
105080,-0.7872772216796875,2.265151977539062,1.169082641601562,-0.006499710958451,-1.34977388381958,-0.2698485255241394,29.420654296875,92.4578094482422,-5.805618286132812
105081,-0.7872772216796875,2.265151977539062,1.169082641601562,-0.006499710958451,-1.34977388381958,-0.2698485255241394,29.420654296875,92.4578094482422,-5.805618286132812
105082,-0.638214111328125,1.835678100585938,1.087295532226562,-0.9802786707878112,-1.38436758518219,-0.6498059630393982,29.47579956054688,92.76872253417967,-6.35162353515625
105083,-0.5379180908203125,1.502120971679688,1.000518798828125,-1.294808387756348,-1.217588663101196,-0.7760952115058899,29.45033264160156,92.84239196777344,-6.2972412109375
105084,-0.3718109130859375,1.112640380859375,0.667388916015625,-0.9509977698326112,-0.4374260604381561,-0.68567955493927,29.31715393066406,92.15538024902344,-5.1058349609375
105085,-0.3718109130859375,1.112640380859375,0.667388916015625,-0.9509977698326112,-0.4374260604381561,-0.68567955493927,29.31715393066406,92.15538024902344,-5.1058349609375
105086,-0.2792510986328125,0.9592132568359376,0.4319000244140625,-0.8978703618049622,-0.1755121648311615,-0.6126258373260498,29.15478515625,91.73104858398438,-4.42144775390625
105087,-0.1952362060546875,0.8056488037109375,0.1914520263671875,-1.00318717956543,-0.0910417586565017,-0.5830011367797852,28.91270446777344,91.516845703125,-3.733688354492188
105088,0.5390777587890625,0.1513519287109375,-2.147796630859375,-0.4585643708705902,-4.575224876403809,0.1810882985591888,28.35789489746094,90.64111328125,-1.950775146484375
105089,0.5390777587890625,0.1513519287109375,-2.147796630859375,-0.4585643708705902,-4.575224876403809,0.1810882985591888,28.35789489746094,90.64111328125,-1.950775146484375
105090,0.5390777587890625,0.1513519287109375,-2.147796630859375,-0.4585643708705902,-4.575224876403809,0.1810882985591888,28.35789489746094,90.64111328125,-1.950775146484375
105091,0.47979736328125,0.2529449462890625,-0.9608154296875,0.47804194688797,-6.903504848480225,0.7837570905685425,28.15386962890625,90.28036499023438,-1.165771484375
105092,0.5050506591796875,0.3033447265625,0.5424041748046875,0.9334478378295898,-3.253371477127075,1.424330949783325,28.54647827148438,90.55892944335938,1.198699951171875
105093,0.5050506591796875,0.3033447265625,0.5424041748046875,0.9334478378295898,-3.253371477127075,1.424330949783325,28.54647827148438,90.55892944335938,1.198699951171875
105094,0.7069244384765625,0.234588623046875,0.178985595703125,0.2520895004272461,1.252497911453247,1.810136198997498,29.04084777832031,91.30987548828124,2.2232666015625
105095,0.6944732666015625,0.4079437255859375,-0.8206787109375,0.5792572498321533,1.909952044487,2.197223424911499,29.67416381835938,92.0491180419922,2.91748046875
105096,0.333587646484375,0.5905914306640625,-0.300567626953125,1.102216839790344,0.803881824016571,1.653568387031555,31.0882568359375,92.85438537597656,3.092498779296875
105097,0.333587646484375,0.5905914306640625,-0.300567626953125,1.102216839790344,0.803881824016571,1.653568387031555,31.0882568359375,92.85438537597656,3.092498779296875
105098,0.2443389892578125,0.457061767578125,-0.2539825439453125,0.9158035516738892,0.3064278364181519,1.206965923309326,31.77308654785156,93.15997314453124,2.79522705078125
105099,0.177337646484375,0.3247528076171875,-0.3074493408203125,0.648170530796051,-0.2463392019271851,0.7738056778907776,32.49395751953125,93.53407287597656,2.462615966796875
105100,0.0992889404296875,-0.0126800537109375,-0.4129791259765625,0.3235130906105042,-0.8838104605674744,0.2148252129554749,33.52346801757812,94.24365234375,1.822128295898438
105101,0.04229736328125,-0.1049041748046875,-0.3482513427734375,0.2514452934265137,-0.590873658657074,0.1862766593694687,33.76528930664062,94.5238800048828,1.586944580078125
105102,0.04229736328125,-0.1049041748046875,-0.3482513427734375,0.2514452934265137,-0.590873658657074,0.1862766593694687,33.76528930664062,94.5238800048828,1.586944580078125
105103,0.0206298828125,-0.10626220703125,-0.226959228515625,0.3139770925045013,-0.201134979724884,0.2362122684717178,33.97872924804688,94.62188720703124,1.722824096679688
105104,-0.000640869140625,-0.0457000732421875,-0.0179443359375,0.4488696753978729,0.3373511433601379,0.2200862914323807,34.49385070800781,94.7727508544922,1.75341796875
105105,-0.000640869140625,-0.0457000732421875,-0.0179443359375,0.4488696753978729,0.3373511433601379,0.2200862914323807,34.49385070800781,94.7727508544922,1.75341796875
105106,-0.0265045166015625,-0.020782470703125,0.02398681640625,0.3235213458538055,0.4135588109493256,0.1469420492649078,34.66583251953125,94.82005310058594,1.549972534179688
105107,-0.0534820556640625,0.0106353759765625,0.0679931640625,0.0626607164740562,0.4530457854270935,0.0553569979965686,34.86479187011719,94.92344665527344,1.238021850585938
105108,-0.0748443603515625,0.1222076416015625,0.0879974365234375,-0.6909331679344177,0.5544916987419128,-0.2343227565288544,34.93038940429688,95.1277313232422,0.8177032470703125
105109,-0.0748443603515625,0.1222076416015625,0.0879974365234375,-0.6909331679344177,0.5544916987419128,-0.2343227565288544,34.93038940429688,95.1277313232422,0.8177032470703125
105110,-0.072998046875,0.245941162109375,0.0348358154296875,-0.9900687336921692,0.4788840413093567,-0.4673091471195221,34.85943603515625,95.09603881835938,0.948699951171875
105111,-0.0791168212890625,0.52056884765625,-0.04937744140625,-1.131148099899292,0.2100560367107391,-0.8811076283454895,34.59483337402344,95.06716918945312,1.20257568359375
105112,0.046783447265625,1.675872802734375,0.169219970703125,-1.220676422119141,-0.1580881774425507,-2.482253551483154,33.76402282714844,94.74343872070312,1.6256103515625
105113,0.046783447265625,1.675872802734375,0.169219970703125,-1.220676422119141,-0.1580881774425507,-2.482253551483154,33.76402282714844,94.74343872070312,1.6256103515625
105114,0.080657958984375,2.153732299804688,0.446380615234375,-1.41572630405426,0.0845380499958992,-2.707518577575684,32.81913757324219,94.39907836914062,1.714630126953125
105115,-0.1834716796875,3.0057373046875,0.8546905517578125,-1.684694409370422,0.6544060707092285,-2.817228078842163,31.61421203613281,94.05812072753906,1.857162475585938
105116,-1.777313232421875,3.797561645507812,1.627716064453125,-1.091682434082031,1.873294949531555,-2.918221950531006,29.01676940917969,92.9121551513672,2.166244506835938
105117,-2.410491943359375,3.316619873046875,1.676239013671875,-0.575543999671936,3.000217437744141,-0.8006364703178406,27.61566162109375,92.31552124023438,2.31927490234375
105118,-2.410491943359375,3.316619873046875,1.676239013671875,-0.575543999671936,3.000217437744141,-0.8006364703178406,27.61566162109375,92.31552124023438,2.31927490234375
105119,-2.282333374023438,3.059967041015625,1.1705322265625,-0.2901487350463867,3.107488632202148,-0.1807378232479095,26.54058837890625,91.76521301269533,2.14544677734375
105120,-1.3436279296875,2.386032104492188,-0.155914306640625,-0.220455676317215,-1.660140037536621,-0.5888819098472595,25.28732299804688,91.25570678710938,1.252822875976562
105121,-1.3436279296875,2.386032104492188,-0.155914306640625,-0.220455676317215,-1.660140037536621,-0.5888819098472595,25.28732299804688,91.25570678710938,1.252822875976562
105122,-0.6253814697265625,2.068832397460938,-0.02288818359375,0.1819777935743332,-3.303605794906616,-0.1495327651500702,24.84321594238281,91.27305603027344,1.350540161132812
105123,-0.2958831787109375,2.217025756835938,0.0433502197265625,0.6611766219139099,-3.12874698638916,0.060203418135643,24.78680419921875,91.42855834960938,1.987548828125
105124,-0.0037078857421875,1.76220703125,-0.7138214111328125,1.350989103317261,0.5501505136489868,0.8227319717407227,25.78634643554688,91.42884826660156,2.677581787109375
105125,-0.0037078857421875,1.76220703125,-0.7138214111328125,1.350989103317261,0.5501505136489868,0.8227319717407227,25.78634643554688,91.42884826660156,2.677581787109375
105126,-0.0037078857421875,1.76220703125,-0.7138214111328125,1.350989103317261,0.5501505136489868,0.8227319717407227,25.78634643554688,91.42884826660156,2.677581787109375
105127,0.0590057373046875,1.437408447265625,-0.822113037109375,1.217669725418091,0.9212353229522704,0.7884112596511841,26.1395263671875,91.57717895507812,2.385726928710938
105128,0.0447235107421875,0.9229736328125,-0.85052490234375,0.2021941095590591,0.3333478569984436,0.5335839986801147,26.71409606933594,92.03962707519533,1.003265380859375
105129,0.0144500732421875,0.7978668212890625,-0.6685791015625,-0.2170239239931107,-0.1843043267726898,0.4779157042503357,27.09709167480469,92.14776611328124,0.7584228515625
105130,0.0144500732421875,0.7978668212890625,-0.6685791015625,-0.2170239239931107,-0.1843043267726898,0.4779157042503357,27.09709167480469,92.14776611328124,0.7584228515625
105131,-0.044281005859375,0.6999969482421875,-0.4109649658203125,-0.3653015494346619,-0.4855267405509949,0.4875616729259491,27.59478759765625,92.12312316894533,0.6202239990234375
105132,-0.0934906005859375,0.5169219970703125,-0.0237884521484375,-0.215878501534462,-0.4429321587085724,0.5506376028060913,28.59419250488281,91.90234375,0.715911865234375
105133,-0.0934906005859375,0.5169219970703125,-0.0237884521484375,-0.215878501534462,-0.4429321587085724,0.5506376028060913,28.59419250488281,91.90234375,0.715911865234375
105134,-0.0550079345703125,0.39666748046875,0.0531768798828125,-0.159356102347374,-0.1561483293771744,0.5280723571777344,29.06584167480469,91.8004150390625,0.9662322998046876
105135,-0.014678955078125,0.233917236328125,0.01275634765625,-0.1196134835481644,0.0743626505136489,0.5240938663482666,29.38290405273438,91.76544189453124,1.108688354492188
105136,0.0404205322265625,-0.0112457275390625,-0.2265625,0.1925199180841446,-0.0538680255413055,0.581371545791626,30.02236938476562,91.72674560546876,1.333251953125
105137,0.0404205322265625,-0.0112457275390625,-0.2265625,0.1925199180841446,-0.0538680255413055,0.581371545791626,30.02236938476562,91.72674560546876,1.333251953125
105138,0.062408447265625,-0.0872039794921875,-0.29559326171875,0.4746048748493195,-0.3529500663280487,0.6592460870742798,30.28361511230469,91.92794799804688,1.431869506835938
105139,0.0875701904296875,-0.1369781494140625,-0.3470458984375,0.7645155191421509,-0.6343849301338196,0.7669424414634705,30.59994506835938,92.14593505859376,1.559326171875
105140,0.1723175048828125,-0.1945648193359375,-0.357635498046875,0.9507660865783693,-0.0710067972540855,0.8828770518302917,31.26190185546875,92.61712646484376,1.619659423828125
105141,0.1723175048828125,-0.1945648193359375,-0.357635498046875,0.9507660865783693,-0.0710067972540855,0.8828770518302917,31.26190185546875,92.61712646484376,1.619659423828125
105142,0.18170166015625,-0.1656646728515625,-0.3927764892578125,0.9023380875587464,0.4129913151264191,0.8759307265281677,31.61053466796875,92.7793426513672,1.380828857421875
105143,0.1710357666015625,-0.1056365966796875,-0.384674072265625,0.9306647777557372,0.4998191297054291,0.8879535794258118,32.09809875488281,92.9753875732422,1.253814697265625
105144,0.106414794921875,0.1523590087890625,-0.3048553466796875,1.04009485244751,0.2626851499080658,0.7498481273651123,32.6922607421875,93.39250183105467,0.646759033203125
105145,0.106414794921875,0.1523590087890625,-0.3048553466796875,1.04009485244751,0.2626851499080658,0.7498481273651123,32.6922607421875,93.39250183105467,0.646759033203125
105146,0.0870513916015625,0.202178955078125,-0.25823974609375,1.070540904998779,0.1541056782007217,0.6523309350013733,33.00027465820312,93.661376953125,0.267333984375
105147,0.0775299072265625,0.213836669921875,-0.16082763671875,1.075102090835571,0.1236516311764717,0.565315842628479,33.31039428710938,93.94938659667967,-0.20965576171875
105148,0.088043212890625,0.510040283203125,0.121002197265625,0.919994294643402,0.5273224115371704,0.3061926960945129,33.65684509277344,94.58216857910156,-1.144241333007812
105149,0.088043212890625,0.510040283203125,0.121002197265625,0.919994294643402,0.5273224115371704,0.3061926960945129,33.65684509277344,94.58216857910156,-1.144241333007812
105150,0.1065673828125,0.8821563720703125,0.2595672607421875,0.6638381481170654,1.19631826877594,0.1386774480342865,33.76066589355469,94.80706787109376,-1.542861938476562
105151,0.0590667724609375,1.151702880859375,0.372589111328125,0.2171621471643448,1.933562517166138,0.0791653916239738,33.90849304199219,94.843017578125,-1.922637939453125
105152,-0.2271270751953125,1.713088989257812,0.56231689453125,-0.9168714880943298,2.842642784118652,-0.5726895928382874,33.81486511230469,94.7845458984375,-2.107101440429688
105153,-0.2271270751953125,1.713088989257812,0.56231689453125,-0.9168714880943298,2.842642784118652,-0.5726895928382874,33.81486511230469,94.7845458984375,-2.107101440429688
105154,-0.44720458984375,1.834976196289062,0.5361175537109375,-1.047001838684082,2.062957763671875,-0.8541788458824158,33.5938720703125,94.5483856201172,-2.3934326171875
105155,-0.7754364013671875,1.966751098632812,0.700653076171875,-0.4671410918235779,1.077017545700073,-0.9491956233978271,33.35183715820312,94.44021606445312,-2.837936401367188
105156,-1.15228271484375,1.9920654296875,0.9084320068359376,1.387184977531433,-0.4432200491428375,-0.9906210899353028,32.55134582519531,94.28988647460938,-3.431961059570312
105157,-1.15228271484375,1.9920654296875,0.9084320068359376,1.387184977531433,-0.4432200491428375,-0.9906210899353028,32.55134582519531,94.28988647460938,-3.431961059570312
105158,-1.17333984375,2.005569458007812,1.016204833984375,1.591858148574829,-0.9552143812179564,-0.7844564914703369,32.283935546875,94.020751953125,-3.903396606445312
105159,-1.126907348632812,1.9339599609375,1.040176391601562,1.172280073165894,-0.8840323090553284,-0.7288610935211182,32.039794921875,93.8416748046875,-4.37701416015625
105160,-0.8123321533203125,1.48870849609375,0.7230682373046875,-0.5162793397903442,-0.0511601231992244,-0.386961042881012,31.63792419433594,94.0564422607422,-5.656341552734375
105161,-0.8123321533203125,1.48870849609375,0.7230682373046875,-0.5162793397903442,-0.0511601231992244,-0.386961042881012,31.63792419433594,94.0564422607422,-5.656341552734375
105162,-0.6248626708984375,1.386428833007812,0.4792633056640625,-1.013476610183716,0.1490850895643234,-0.2381103038787842,31.29585266113281,94.1640167236328,-5.81207275390625
105163,-0.511138916015625,1.28216552734375,0.2863922119140625,-1.129015684127808,0.0186711568385362,-0.2769376039505005,31.0635986328125,94.24400329589844,-5.628616333007812
105164,-0.3976593017578125,0.87677001953125,0.0984344482421875,-0.808285653591156,-0.4317106604576111,-0.4186867475509644,30.77449035644531,94.00096130371094,-4.803558349609375
105165,-0.3976593017578125,0.87677001953125,0.0984344482421875,-0.808285653591156,-0.4317106604576111,-0.4186867475509644,30.77449035644531,94.00096130371094,-4.803558349609375
105166,-0.31097412109375,0.6802978515625,0.033966064453125,-0.7060836553573608,-0.6253102421760559,-0.484166145324707,30.77763366699219,93.8109130859375,-4.27972412109375
105167,-0.2144927978515625,0.4906158447265625,-0.0268402099609375,-0.7214401960372925,-0.7799322605133057,-0.536627471446991,30.62387084960938,93.67987060546876,-3.721405029296875
105168,0.029571533203125,0.1347198486328125,-0.73699951171875,-0.888903796672821,-2.237277507781982,-0.5426238775253296,30.29934692382812,93.41378784179688,-3.001632690429688
105169,0.029571533203125,0.1347198486328125,-0.73699951171875,-0.888903796672821,-2.237277507781982,-0.5426238775253296,30.29934692382812,93.41378784179688,-3.001632690429688
105170,0.095733642578125,0.0938262939453125,-0.5970458984375,-0.9168658852577208,-3.326973438262939,-0.5002977252006531,30.155029296875,93.19790649414062,-2.394439697265625
105171,0.09033203125,0.1293792724609375,-0.246826171875,-0.9296722412109376,-3.593327760696411,-0.4667536020278931,30.18478393554688,92.9193878173828,-1.533340454101562
105172,0.1102447509765625,0.200927734375,-0.0203704833984375,-0.939495861530304,-3.149855613708496,-0.3421501517295837,30.28184509277344,92.6570281982422,-0.5615081787109375
105173,0.241729736328125,0.2873992919921875,0.070831298828125,-0.9337642192840576,-2.344194173812866,0.0848427191376686,30.42974853515625,92.40557861328124,0.7278594970703125
105174,0.3456878662109375,0.4622955322265625,0.0477294921875,-0.7978820204734802,-1.462473511695862,0.7482393383979797,30.57405090332031,92.05870056152344,2.145889282226562
105175,0.30810546875,0.7023773193359375,-0.0051422119140625,-0.5734507441520691,-0.5188117623329163,1.097323298454285,30.7298583984375,91.95828247070312,3.253753662109375
105176,0.2364044189453125,0.8834991455078125,-0.292572021484375,0.0053843790665268,0.7755175828933716,0.6041498184204102,31.05516052246094,92.72506713867188,3.902191162109375
105177,0.2364044189453125,0.8834991455078125,-0.292572021484375,0.0053843790665268,0.7755175828933716,0.6041498184204102,31.05516052246094,92.72506713867188,3.902191162109375
105178,0.220855712890625,0.7778472900390625,-0.3209075927734375,0.3214166462421417,0.6540523767471313,0.1806954741477966,31.30099487304688,93.08639526367188,4.0303955078125
105179,0.204498291015625,0.6131439208984375,-0.231689453125,0.5047265291213989,0.3351380527019501,-0.1171428710222244,31.50749206542969,92.90705871582033,4.280242919921875
105180,0.06842041015625,0.33624267578125,-0.1179656982421875,0.5113884210586548,-0.0328892394900322,-0.0783171728253364,31.58349609375,92.52783203125,4.653533935546875
105181,0.06842041015625,0.33624267578125,-0.1179656982421875,0.5113884210586548,-0.0328892394900322,-0.0783171728253364,31.58349609375,92.52783203125,4.653533935546875
105182,0.023651123046875,0.143157958984375,-0.1572418212890625,0.5088653564453125,0.073110431432724,0.0373689420521259,31.54866027832031,92.73643493652344,3.9691162109375
105183,0.0113525390625,-0.015045166015625,-0.167877197265625,0.5062820911407471,0.215353325009346,0.184441477060318,31.47688293457031,92.97314453125,3.297195434570312
105184,-0.014923095703125,-0.082000732421875,-0.0908355712890625,0.326141357421875,0.3598023951053619,0.3214462101459503,31.59432983398438,93.20985412597656,2.719573974609375
105185,-0.014923095703125,-0.082000732421875,-0.0908355712890625,0.326141357421875,0.3598023951053619,0.3214462101459503,31.59432983398438,93.20985412597656,2.719573974609375
105186,-0.022735595703125,-0.0642547607421875,-0.0563812255859375,0.143645316362381,0.2801011502742767,0.32457435131073,31.79603576660156,93.31021118164062,2.438934326171875
105187,-0.0308380126953125,-0.043060302734375,-0.0233612060546875,-0.0851942598819732,0.1650952100753784,0.3000402450561523,31.88723754882812,93.4829559326172,2.34637451171875
105188,-0.0557708740234375,0.052032470703125,-0.01861572265625,-0.568902313709259,-0.1965447515249252,0.1481311470270157,32.21261596679688,93.64285278320312,2.26922607421875
105189,-0.0557708740234375,0.052032470703125,-0.01861572265625,-0.568902313709259,-0.1965447515249252,0.1481311470270157,32.21261596679688,93.64285278320312,2.26922607421875
105190,-0.0411834716796875,0.1308135986328125,0.0331268310546875,-0.7977413535118103,-0.4326395690441132,0.0369572192430496,32.36759948730469,93.72445678710938,2.476730346679688
105191,-0.05255126953125,0.3694305419921875,0.215423583984375,-1.070854187011719,-0.5172596573829651,-0.1187442243099213,32.41926574707031,93.77224731445312,2.75091552734375
105192,-0.1367340087890625,2.113082885742188,0.6363677978515625,-1.724526762962341,0.8668093681335449,-0.898106575012207,32.14781188964844,93.60903930664062,3.618804931640625
105193,-0.1367340087890625,2.113082885742188,0.6363677978515625,-1.724526762962341,0.8668093681335449,-0.898106575012207,32.14781188964844,93.60903930664062,3.618804931640625
105194,-0.343170166015625,2.859237670898438,0.729644775390625,-2.065703630447388,1.352820634841919,-1.117814183235168,31.65666198730469,93.69232177734376,3.60052490234375
105195,-0.918548583984375,4.077484130859375,0.8919830322265625,-1.775554299354553,1.074128270149231,-1.514482975006104,30.92013549804688,93.68853759765624,3.740142822265625
105196,-1.66900634765625,5.208633422851562,1.294876098632812,-1.139592170715332,0.7064945697784424,-1.907683491706848,29.83193969726562,93.3995361328125,4.06439208984375
105197,-1.947952270507812,4.806137084960938,1.449234008789062,-0.8457922339439392,0.1872369945049286,-1.039971351623535,28.819091796875,92.94581604003906,4.305282592773438
105198,-1.572219848632812,3.564468383789062,1.543594360351562,-0.8909496068954468,-0.0895708948373794,-0.6516472697257996,27.833740234375,92.32904052734376,4.256729125976562
105199,-0.8631744384765625,2.558135986328125,0.909912109375,-0.3354970514774323,0.0378360636532306,0.0467174388468265,27.24984741210938,91.80068969726562,4.548919677734375
105200,-0.1549835205078125,2.180801391601562,0.0666351318359375,1.010377168655396,-0.4120107293128967,0.4198164641857147,26.94667053222656,91.15403747558594,5.30572509765625
105201,-0.1549835205078125,2.180801391601562,0.0666351318359375,1.010377168655396,-0.4120107293128967,0.4198164641857147,26.94667053222656,91.15403747558594,5.30572509765625
105202,-0.0703582763671875,2.297088623046875,-0.15777587890625,0.9935811758041382,-0.2242850363254547,0.4363802373409271,27.07267761230469,91.07913208007812,5.451797485351562
105203,-0.083648681640625,2.253555297851562,-0.424346923828125,0.7429172992706299,0.1652957499027252,0.5003491044044495,27.33195495605469,91.17306518554688,5.399871826171875
105204,-0.07537841796875,1.5592041015625,-0.53192138671875,0.3956016600131989,0.1940632164478302,0.7801789045333862,27.89190673828125,91.34117126464844,4.91021728515625
105205,-0.07537841796875,1.5592041015625,-0.53192138671875,0.3956016600131989,0.1940632164478302,0.7801789045333862,27.89190673828125,91.34117126464844,4.91021728515625
105206,-0.098541259765625,1.302749633789062,-0.347320556640625,0.2686564922332764,0.0830794423818588,0.7917788028717041,28.30807495117188,91.35018920898438,4.614852905273438
105207,-0.1214752197265625,1.092056274414062,-0.24737548828125,0.2275857627391815,0.0688544288277626,0.7746858596801758,28.89427185058594,91.26776123046876,4.621963500976562
105208,-0.15850830078125,0.6827850341796875,-0.1985931396484375,0.4417379796504974,0.1919105798006058,0.8090193271636963,30.05473327636719,91.3817901611328,4.25732421875
105209,-0.192596435546875,0.537994384765625,-0.1940765380859375,0.5989273190498352,0.3284524381160736,0.8354916572570801,30.60537719726562,91.4482421875,4.016494750976562
105210,-0.192596435546875,0.537994384765625,-0.1940765380859375,0.5989273190498352,0.3284524381160736,0.8354916572570801,30.60537719726562,91.4482421875,4.016494750976562
105211,-0.192230224609375,0.4237823486328125,-0.1775054931640625,0.6654006242752075,0.3974791765213013,0.7830482125282288,31.11077880859375,91.445556640625,3.842437744140625
105212,-0.1485595703125,0.2859954833984375,-0.1196136474609375,0.5432147979736328,0.4515722393989563,0.7098735570907593,31.56651306152344,91.48780822753906,3.517807006835938
105213,-0.0925140380859375,0.122344970703125,-0.13818359375,0.3368677794933319,0.4588181674480438,0.6928018927574158,31.83102416992188,91.680419921875,3.043899536132812
105214,-0.03814697265625,-0.0143890380859375,-0.24493408203125,0.2479967474937439,0.2460169643163681,0.7319056391716003,32.11833190917969,91.91259765625,2.646011352539062
105215,0.003143310546875,-0.100860595703125,-0.3173828125,0.3609382212162018,-0.120669960975647,0.8252068161964417,32.37638854980469,92.0682373046875,2.4232177734375
105216,0.0491485595703125,-0.145660400390625,-0.2838592529296875,0.789616584777832,-0.6726284623146057,1.054453611373901,32.75428771972656,92.4203643798828,2.105819702148438
105217,0.0491485595703125,-0.145660400390625,-0.2838592529296875,0.789616584777832,-0.6726284623146057,1.054453611373901,32.75428771972656,92.4203643798828,2.105819702148438
105218,0.075408935546875,-0.146453857421875,-0.24871826171875,0.9990260004997252,-0.7512596249580383,1.172124028205872,33.102294921875,92.762451171875,1.936614990234375
105219,0.1024322509765625,-0.139678955078125,-0.1926727294921875,1.146492123603821,-0.5215670466423035,1.260188937187195,33.51463317871094,93.16104125976562,2.015731811523438
105220,0.1969451904296875,-0.1011505126953125,-0.5126190185546875,1.222691655158997,0.664607048034668,1.234724521636963,34.49772644042969,93.80987548828124,1.714202880859375
105221,0.1969451904296875,-0.1011505126953125,-0.5126190185546875,1.222691655158997,0.664607048034668,1.234724521636963,34.49772644042969,93.80987548828124,1.714202880859375
105222,0.238739013671875,-0.0081329345703125,-0.8445281982421875,1.264447808265686,0.0997961014509201,1.12493896484375,35.03172302246094,94.11776733398438,1.429275512695312
105223,0.2306365966796875,0.1001739501953125,-0.5324859619140625,1.098332405090332,-0.4279462695121765,0.9065272212028505,35.54460144042969,94.38636779785156,1.204635620117188
105224,0.2197113037109375,0.1630096435546875,-0.122100830078125,0.654369056224823,-0.3619773983955383,0.5830655694007874,36.38026428222656,94.95079040527344,0.0638580322265625
105225,0.2197113037109375,0.1630096435546875,-0.122100830078125,0.654369056224823,-0.3619773983955383,0.5830655694007874,36.38026428222656,94.95079040527344,0.0638580322265625
105226,0.207550048828125,0.1803436279296875,-0.0648193359375,0.5678160190582275,-0.2696676850318909,0.5261378288269043,36.81573486328125,95.1579132080078,-0.3956298828125
105227,0.1864471435546875,0.2097015380859375,0.0070037841796875,0.5351353287696838,-0.1720047891139984,0.4658787548542023,37.08331298828125,95.2673797607422,-0.585693359375
105228,0.1449432373046875,0.3281402587890625,0.26739501953125,0.3542941510677338,0.4281023442745209,0.2479826360940933,37.60643005371094,95.65133666992188,-0.9486236572265624
105229,0.1449432373046875,0.3281402587890625,0.26739501953125,0.3542941510677338,0.4281023442745209,0.2479826360940933,37.60643005371094,95.65133666992188,-0.9486236572265624
105230,0.1858978271484375,0.59234619140625,0.452880859375,0.1530300229787827,1.172529935836792,0.0904207080602645,37.7327880859375,95.83934020996094,-1.273483276367188
105231,0.214935302734375,0.9958038330078124,0.6628875732421875,-0.1728546023368835,2.36147928237915,-0.102229967713356,37.84921264648438,95.8948974609375,-1.536117553710938
105232,-0.0323333740234375,2.013687133789062,0.8152618408203125,-1.380111813545227,3.945247173309326,-0.4984230995178223,37.64974975585938,95.92352294921876,-2.4169921875
105233,-0.0323333740234375,2.013687133789062,0.8152618408203125,-1.380111813545227,3.945247173309326,-0.4984230995178223,37.64974975585938,95.92352294921876,-2.4169921875
105234,-0.4406280517578125,2.3221435546875,0.800048828125,-1.432224631309509,3.175940036773682,-0.8451799750328064,37.47463989257812,95.80078125,-2.68603515625
105235,-0.841583251953125,2.344284057617188,0.7911376953125,-0.7291319370269775,1.396641254425049,-1.041220903396606,37.2171630859375,95.42848205566406,-2.745773315429688
105236,-1.120086669921875,2.360992431640625,1.295562744140625,1.07440710067749,-1.312424659729004,-0.8161651492118835,36.65541076660156,94.49061584472656,-2.453231811523438
105237,-1.120086669921875,2.360992431640625,1.295562744140625,1.07440710067749,-1.312424659729004,-0.8161651492118835,36.65541076660156,94.49061584472656,-2.453231811523438
105238,-0.9808197021484376,2.389984130859375,1.4176025390625,0.9897752404212952,-1.190958976745605,-0.7535121440887451,36.33021545410156,94.4442138671875,-2.53948974609375
105239,-0.7579498291015625,2.157608032226562,1.222946166992188,0.2341214120388031,-0.5667715668678284,-0.6680635213851929,36.05705261230469,94.56086730957033,-2.890029907226562
105240,-0.3429718017578125,1.699188232421875,0.539154052734375,-1.064894556999207,-0.1239469796419144,-0.3010663688182831,35.47209167480469,94.84799194335938,-3.386962890625
105241,-0.3429718017578125,1.699188232421875,0.539154052734375,-1.064894556999207,-0.1239469796419144,-0.3010663688182831,35.47209167480469,94.84799194335938,-3.386962890625
105242,-0.2864227294921875,1.593109130859375,0.3897857666015625,-1.281477689743042,-0.4739822149276733,-0.2773314714431763,35.289306640625,94.82545471191406,-3.439193725585938
105243,-0.2921142578125,1.416595458984375,0.3467864990234375,-1.258597135543823,-0.6666702032089233,-0.2954766452312469,35.09002685546875,94.71408081054688,-3.017318725585938
105244,-0.242279052734375,1.00860595703125,0.2659912109375,-0.9617026448249816,-0.5159562826156616,-0.3196834623813629,34.87983703613281,94.42375183105467,-1.870956420898438
105245,-0.242279052734375,1.00860595703125,0.2659912109375,-0.9617026448249816,-0.5159562826156616,-0.3196834623813629,34.87983703613281,94.42375183105467,-1.870956420898438
105246,-0.2218170166015625,0.82110595703125,0.206756591796875,-0.9125342965126038,-0.3361425995826721,-0.4284903705120087,34.87702941894531,94.2389678955078,-1.161697387695312
105247,-0.2132720947265625,0.652618408203125,0.1460723876953125,-0.95931214094162,-0.1644595116376877,-0.6074297428131104,34.89097595214844,93.89315795898438,-0.5524749755859375
105248,-0.1498260498046875,0.3222808837890625,0.021087646484375,-1.13285756111145,0.0120145846158266,-0.9775790572166444,34.82710266113281,93.53651428222656,0.4758758544921875
105249,-0.1498260498046875,0.3222808837890625,0.021087646484375,-1.13285756111145,0.0120145846158266,-0.9775790572166444,34.82710266113281,93.53651428222656,0.4758758544921875
105250,-0.1077423095703125,0.195648193359375,-0.02392578125,-1.148524403572083,0.0843979716300964,-1.063485741615295,34.52110290527344,93.3199462890625,0.929473876953125
105251,-0.03277587890625,0.0911102294921875,-0.3416595458984375,-1.085808277130127,-0.0849697515368461,-1.092647790908813,34.17555236816406,92.92854309082033,1.50494384765625
105252,0.14166259765625,0.0774688720703125,-0.6913604736328125,-0.4679000973701477,-2.320500373840332,-0.8882859349250793,33.32295227050781,92.33180236816406,2.55548095703125
105253,0.14166259765625,0.0774688720703125,-0.6913604736328125,-0.4679000973701477,-2.320500373840332,-0.8882859349250793,33.32295227050781,92.33180236816406,2.55548095703125
105254,0.1586456298828125,0.1066741943359375,-0.3910369873046875,-0.0251985639333725,-2.699891567230225,-0.6553754210472107,32.83676147460938,92.06307983398438,2.905624389648438
105255,0.2209625244140625,0.13232421875,-0.1909332275390625,0.3068121373653412,-2.509756565093994,-0.2041438072919846,32.50392150878906,91.85147094726562,3.338058471679688
105256,0.3135986328125,0.3606414794921875,-0.1444244384765625,0.9206976294517516,-1.736691832542419,0.8489523530006409,32.13839721679688,92.0085906982422,4.257049560546875
105257,0.3135986328125,0.3606414794921875,-0.1444244384765625,0.9206976294517516,-1.736691832542419,0.8489523530006409,32.13839721679688,92.0085906982422,4.257049560546875
105258,0.30218505859375,0.5068511962890625,-0.188812255859375,1.214245915412903,-1.392826795578003,1.066796541213989,32.16334533691406,92.39459228515624,4.52069091796875
105259,0.3100128173828125,0.595977783203125,-0.264251708984375,1.465458989143372,-0.9851488471031188,1.042177438735962,32.4154052734375,92.83380126953124,4.952484130859375
105260,0.3791961669921875,0.424530029296875,-0.5518798828125,1.428126811981201,-0.2443069517612457,0.9045679569244384,33.66792297363281,94.23745727539062,4.533462524414062
105261,0.3791961669921875,0.424530029296875,-0.5518798828125,1.428126811981201,-0.2443069517612457,0.9045679569244384,33.66792297363281,94.23745727539062,4.533462524414062
105262,0.240875244140625,0.2157135009765625,-0.5494232177734375,1.150729775428772,-0.1945377886295319,0.7914419174194336,33.66792297363281,94.23745727539062,4.533462524414062
105263,0.10028076171875,0.050689697265625,-0.386474609375,0.8303030729293823,-0.2276906818151474,0.6610069870948792,34.19270324707031,94.45787048339844,4.280899047851562
105264,-0.006561279296875,-0.047119140625,-0.1025848388671875,0.2437977492809296,-0.0164311714470386,0.4917934238910675,35.48774719238281,95.17301940917967,3.183670043945312
105265,-0.006561279296875,-0.047119140625,-0.1025848388671875,0.2437977492809296,-0.0164311714470386,0.4917934238910675,35.48774719238281,95.17301940917967,3.183670043945312
105266,-0.029052734375,-0.0526123046875,-0.0911865234375,0.0257682129740715,0.0516368299722671,0.4041346907615662,35.82882690429688,95.4060516357422,2.936325073242188
105267,-0.0471954345703125,-0.030731201171875,-0.0685882568359375,-0.1621950268745422,0.0619720257818698,0.3077564835548401,36.17286682128906,95.48281860351562,2.929702758789062
105268,-0.0684967041015625,0.11328125,0.0405731201171875,-0.5870895981788635,0.3008029758930206,0.0287621393799781,36.62110900878906,95.62190246582033,3.0482177734375
105269,-0.0684967041015625,0.11328125,0.0405731201171875,-0.5870895981788635,0.3008029758930206,0.0287621393799781,36.62110900878906,95.62190246582033,3.0482177734375
105270,-0.0613861083984375,0.27886962890625,0.079254150390625,-0.8500229716300964,0.5100022554397583,-0.1866396516561508,36.64169311523438,95.6638641357422,3.202835083007812
105271,-0.0565338134765625,0.8134918212890625,0.1724853515625,-1.127625584602356,0.8682283163070679,-0.6964986324310303,36.48320007324219,95.66224670410156,3.453338623046875
105272,0.0556182861328125,1.645553588867188,0.2728729248046875,-1.38702118396759,1.536864757537842,-1.32412052154541,36.04580688476562,95.58514404296876,3.47979736328125
105273,0.1546173095703125,2.3482666015625,0.3222503662109375,-1.673011898994446,1.964910387992859,-1.447421431541443,35.25575256347656,95.48722839355467,3.57794189453125
105274,-0.01568603515625,3.081649780273438,0.56134033203125,-1.873000860214233,1.960234880447388,-1.343705892562866,34.28016662597656,95.24710083007812,3.775115966796875
105275,-0.4047698974609375,3.940170288085938,0.790771484375,-1.652735948562622,1.706187129020691,-1.586313724517822,33.24771118164062,94.86074829101562,4.054763793945312
105276,-1.265884399414062,4.058074951171875,1.45733642578125,-0.6106204986572266,-0.078084148466587,-1.984652638435364,31.48477172851562,94.0302276611328,4.410476684570312
105277,-1.265884399414062,4.058074951171875,1.45733642578125,-0.6106204986572266,-0.078084148466587,-1.984652638435364,31.48477172851562,94.0302276611328,4.410476684570312
105278,-1.452651977539062,3.168685913085938,1.823394775390625,-0.4988763928413391,-0.2805328667163849,-1.344623327255249,30.7425537109375,93.45930480957033,4.613876342773438
105279,-1.4591064453125,2.527496337890625,1.828598022460938,-0.4667405486106873,0.8988621234893799,-0.9069493412971495,30.19624328613281,93.0727996826172,4.926971435546875
105280,-0.731719970703125,2.037399291992188,-0.125030517578125,-0.0333262644708156,-0.1695117950439453,-0.3655766546726227,29.113525390625,92.60800170898438,5.08154296875
105281,-0.731719970703125,2.037399291992188,-0.125030517578125,-0.0333262644708156,-0.1695117950439453,-0.3655766546726227,29.113525390625,92.60800170898438,5.08154296875
105282,-0.375152587890625,2.062454223632812,-0.468780517578125,0.4801817834377289,-2.018309354782104,0.0233537927269935,28.66021728515625,92.53289794921876,4.97320556640625
105283,-0.181671142578125,2.196029663085938,-0.1898040771484375,0.6853908896446228,-1.986891031265259,0.5411615371704102,28.42979431152344,92.63287353515624,5.186141967773438
105284,0.0313262939453125,1.963729858398438,-0.5811920166015625,0.951977550983429,0.6762149333953857,1.236252903938293,28.93666076660156,92.8616180419922,5.45867919921875
105285,0.0313262939453125,1.963729858398438,-0.5811920166015625,0.951977550983429,0.6762149333953857,1.236252903938293,28.93666076660156,92.8616180419922,5.45867919921875
105286,0.127593994140625,1.63555908203125,-0.7845611572265625,0.8457142114639282,0.7631458640098572,1.27438485622406,29.46162414550781,92.98556518554688,5.270065307617188
105287,0.0955047607421875,1.351287841796875,-0.65283203125,0.4138299226760864,0.2488899827003479,1.105703234672546,30.09892272949219,93.06268310546876,4.895980834960938
105288,-0.0259857177734375,0.8707427978515625,-0.0743865966796875,-0.2168849110603333,-0.0604833178222179,0.6083536148071289,31.38941955566406,92.9858856201172,4.282318115234375
105289,-0.066192626953125,0.68719482421875,0.060943603515625,-0.1366587728261948,0.2009797096252441,0.5339922904968262,31.95941162109375,92.74330139160156,4.464218139648438
105290,-0.0828857421875,0.521697998046875,0.1501312255859375,0.0522110052406787,0.5939954519271851,0.4827954173088074,32.36683654785156,92.71559143066406,4.615203857421875
105291,-0.084442138671875,0.2034759521484375,0.11639404296875,0.2396173775196075,1.128906488418579,0.2313165813684464,32.84149169921875,92.52278137207033,4.499359130859375
105292,-0.084442138671875,0.2034759521484375,0.11639404296875,0.2396173775196075,1.128906488418579,0.2313165813684464,32.84149169921875,92.52278137207033,4.499359130859375
105293,-0.036224365234375,0.055694580078125,0.0193328857421875,0.1278434544801712,1.228572607040405,0.1403975933790207,32.997314453125,92.49064636230467,4.109451293945312
105294,0.0249176025390625,-0.08050537109375,-0.2929229736328125,0.1686753034591675,0.8851660490036011,0.1514893919229507,32.98698425292969,92.2122802734375,3.966079711914062
105295,0.1028594970703125,-0.20611572265625,-0.7523651123046875,0.4693760275840759,-0.226546585559845,0.3020991384983063,32.92469787597656,92.16342163085938,3.80181884765625
105296,0.142486572265625,-0.2235260009765625,-0.6970672607421875,0.8418987393379211,-1.532586574554443,0.5242291688919067,33.02055358886719,92.1868133544922,3.620712280273438
105297,0.1300048828125,-0.1521148681640625,-0.252105712890625,1.032513618469238,-1.877327442169189,0.6518973708152771,33.19987487792969,92.3534698486328,3.520111083984375
105298,0.1566925048828125,-0.1295623779296875,-0.079071044921875,1.102813124656677,-1.511203527450562,0.6933353543281555,33.50538635253906,92.66122436523438,3.71966552734375
105299,0.3077545166015625,-0.1630859375,-0.3408660888671875,1.110336303710938,0.5152385830879211,0.640558660030365,34.26646423339844,93.32252502441406,3.556289672851562
105300,0.3077545166015625,-0.1630859375,-0.3408660888671875,1.110336303710938,0.5152385830879211,0.640558660030365,34.26646423339844,93.32252502441406,3.556289672851562
105301,0.3290557861328125,-0.111907958984375,-0.46990966796875,1.235849738121033,0.576972484588623,0.6700941920280457,34.54550170898438,93.58677673339844,3.3099365234375
105302,0.319183349609375,-0.006591796875,-0.34869384765625,1.326202034950256,0.3233469128608704,0.6869423985481262,34.90328979492188,93.72291564941406,3.102554321289062
105303,0.2056121826171875,0.2662811279296875,-0.178924560546875,1.182908535003662,-0.0910561382770538,0.4358228445053101,35.31953430175781,94.18536376953124,2.113601684570312
105304,0.1133880615234375,0.324005126953125,-0.1052093505859375,1.030260682106018,-0.1726836264133453,0.2335411161184311,35.51141357421875,94.47512817382812,1.511566162109375
105305,0.1133880615234375,0.324005126953125,-0.1052093505859375,1.030260682106018,-0.1726836264133453,0.2335411161184311,35.51141357421875,94.47512817382812,1.511566162109375
105306,0.0509796142578125,0.3213043212890625,-0.003692626953125,0.8799177408218384,-0.0936623066663742,0.0891101658344268,35.63960266113281,94.70286560058594,1.003341674804688
105307,0.0102691650390625,0.3309478759765625,0.3238067626953125,0.5501962900161743,0.5913386940956116,-0.2071486562490463,35.85858154296875,94.97096252441406,0.067047119140625
105308,0.0102691650390625,0.3309478759765625,0.3238067626953125,0.5501962900161743,0.5913386940956116,-0.2071486562490463,35.85858154296875,94.97096252441406,0.067047119140625
105309,-0.004608154296875,0.3837432861328125,0.485687255859375,0.2640694677829742,1.13876473903656,-0.4043999314308167,35.86225891113281,94.95945739746094,-0.4498748779296875
105310,-0.077117919921875,1.009780883789062,0.7016754150390625,-0.1723051965236664,1.966848254203796,-0.8378230333328247,35.762451171875,95.01422119140624,-0.984832763671875
105311,-0.3952178955078125,2.477890014648438,0.7175750732421875,-1.188954710960388,3.095526933670044,-1.750720858573914,34.85360717773438,95.0001983642578,-2.234115600585938
105312,-0.3952178955078125,2.477890014648438,0.7175750732421875,-1.188954710960388,3.095526933670044,-1.750720858573914,34.85360717773438,95.0001983642578,-2.234115600585938
105313,-0.76483154296875,2.51190185546875,0.595489501953125,-0.8735083341598511,1.857156157493591,-1.627132296562195,34.22683715820312,94.70133972167967,-2.579620361328125
105314,-1.002304077148438,2.242355346679688,0.6307373046875,0.1364638358354568,0.1312751919031143,-1.007481336593628,33.61933898925781,94.10565185546876,-2.77508544921875
105315,-0.7188873291015625,2.234451293945312,1.095733642578125,1.52236008644104,-1.465954899787903,0.4767745435237885,32.9027099609375,93.45938110351562,-3.130126953125
105316,-0.7188873291015625,2.234451293945312,1.095733642578125,1.52236008644104,-1.465954899787903,0.4767745435237885,32.9027099609375,93.45938110351562,-3.130126953125
105317,-0.5492095947265625,2.342514038085938,1.213760375976562,0.8827438950538635,-1.683706045150757,0.4245294332504272,32.91227722167969,93.52528381347656,-3.35418701171875
105318,-0.511383056640625,2.136749267578125,1.27197265625,-0.1313252598047256,-1.355026721954346,-0.1114170700311661,33.16612243652344,93.6478271484375,-3.602447509765625
105319,-0.366790771484375,1.337905883789062,0.9541473388671876,-1.15745747089386,-0.3746974468231201,-0.4320669770240784,33.50523376464844,93.85130310058594,-3.607345581054688
105320,-0.335845947265625,1.131546020507812,0.75067138671875,-1.038567781448364,0.0631249099969863,-0.4361711740493774,33.43132019042969,93.69992065429688,-3.02813720703125
105321,-0.335845947265625,1.131546020507812,0.75067138671875,-1.038567781448364,0.0631249099969863,-0.4361711740493774,33.43132019042969,93.69992065429688,-3.02813720703125
105322,-0.29620361328125,0.9532928466796876,0.5094757080078125,-0.8309134244918823,0.252808541059494,-0.4176526367664337,33.45930480957031,93.54002380371094,-2.44647216796875
105323,-0.2092132568359375,0.6055145263671875,0.145538330078125,-0.7110965251922607,0.0622149035334587,-0.3445232808589935,33.11798095703125,93.18536376953124,-1.568115234375
105324,-0.2092132568359375,0.6055145263671875,0.145538330078125,-0.7110965251922607,0.0622149035334587,-0.3445232808589935,33.11798095703125,93.18536376953124,-1.568115234375
105325,-0.160308837890625,0.4757080078125,0.025360107421875,-0.8069348931312561,-0.1276434510946274,-0.3506400287151337,32.90975952148438,93.00115966796876,-1.1336669921875
105326,-0.1117095947265625,0.3896942138671875,-0.08856201171875,-0.9443734288215636,-0.3340783715248108,-0.3911355435848236,32.86433410644531,92.75650024414062,-0.5802459716796875
105327,0.1507720947265625,0.32586669921875,-1.087921142578125,-0.6115749478340149,-2.118968963623047,-0.3287715017795563,32.42843627929688,92.48834228515624,0.1028289794921875
105328,0.2376556396484375,0.5432281494140625,-0.9970855712890624,0.0559953600168228,-3.884434223175049,-0.1653524786233902,32.35713195800781,92.32232666015624,0.656829833984375
105329,0.2376556396484375,0.5432281494140625,-0.9970855712890624,0.0559953600168228,-3.884434223175049,-0.1653524786233902,32.35713195800781,92.32232666015624,0.656829833984375
105330,0.1741485595703125,0.7591705322265625,-0.2442169189453125,0.5963726043701172,-3.862775325775146,-0.0820045918226242,32.28753662109375,92.31825256347656,1.26910400390625
105331,0.2047882080078125,0.759857177734375,0.1089019775390625,0.9786003828048706,-1.474859714508057,0.0412582233548164,32.48124694824219,93.04615783691406,2.227554321289062
105332,0.2047882080078125,0.759857177734375,0.1089019775390625,0.9786003828048706,-1.474859714508057,0.0412582233548164,32.48124694824219,93.04615783691406,2.227554321289062
105333,0.241851806640625,0.6930694580078125,0.0958404541015625,0.9483361840248108,-0.1445880681276321,0.2182905226945877,32.44735717773438,93.34841918945312,2.523468017578125
105334,0.22882080078125,0.5590057373046875,-0.1589813232421875,0.8916915655136108,0.8302335143089294,0.271527111530304,32.46031188964844,93.72171020507812,2.670700073242188
105335,0.1017913818359375,0.1653900146484375,-0.314239501953125,0.9199026823043824,0.3853415548801422,0.3410422801971436,32.55453491210938,94.23171997070312,2.097488403320312
105336,0.1017913818359375,0.1653900146484375,-0.314239501953125,0.9199026823043824,0.3853415548801422,0.3410422801971436,32.55453491210938,94.23171997070312,2.097488403320312
105337,0.0488433837890625,0.04248046875,-0.1401824951171875,0.7305450439453125,0.2598957717418671,0.3552526235580444,32.63252258300781,94.38166809082033,1.590805053710938
105338,0.018951416015625,-0.0428619384765625,-0.1184234619140625,0.4755867719650269,0.2778196334838867,0.3619472980499268,32.78318786621094,94.46994018554688,1.114181518554688
105339,-0.0034027099609375,-0.09002685546875,-0.1735382080078125,0.2540067136287689,0.2490348517894745,0.3658267259597778,32.93067932128906,94.70059204101562,0.7474517822265625
105340,-0.0209808349609375,-0.1194610595703125,-0.2311859130859375,0.0764132812619209,0.1561491191387177,0.362564355134964,33.13804626464844,94.81948852539062,0.58587646484375
105341,-0.036865234375,-0.1296844482421875,-0.2705535888671875,-0.0575234815478324,0.0061750714667141,0.3488751649856567,33.36236572265625,94.86341857910156,0.643707275390625
105342,-0.0543975830078125,-0.1306304931640625,-0.2735595703125,-0.1799681633710861,-0.0803305283188819,0.3174386918544769,33.57028198242188,94.82893371582033,0.8416900634765625
105343,-0.1088409423828125,-0.10614013671875,-0.2413330078125,-0.3827833235263824,-0.1265379637479782,0.2089284509420395,34.14056396484375,94.822509765625,1.0496826171875
105344,-0.1088409423828125,-0.10614013671875,-0.2413330078125,-0.3827833235263824,-0.1265379637479782,0.2089284509420395,34.14056396484375,94.822509765625,1.0496826171875
105345,-0.149017333984375,-0.0641632080078125,-0.2249603271484375,-0.4357216358184814,-0.2456944584846497,0.1276397109031677,34.38865661621094,94.66531372070312,1.265731811523438
105346,-0.1891632080078125,0.012908935546875,-0.202178955078125,-0.4213933050632477,-0.4095156192779541,0.0563357099890708,34.57748413085938,94.7392578125,1.579391479492188
105347,-0.1619720458984375,0.220001220703125,-0.1380462646484375,-0.313927561044693,-0.6017013192176819,0.038370557129383,34.87040710449219,94.81564331054688,1.975006103515625
105348,-0.1619720458984375,0.220001220703125,-0.1380462646484375,-0.313927561044693,-0.6017013192176819,0.038370557129383,34.87040710449219,94.81564331054688,1.975006103515625
105349,-0.15093994140625,0.332763671875,-0.0218353271484375,-0.3499585390090942,-0.6524880528450012,-0.0012868394842371,34.93089294433594,94.86007690429688,2.119384765625
105350,-0.2230682373046875,1.103546142578125,0.2898712158203125,-0.5820404887199402,-0.353447288274765,-0.2730834782123566,34.86729431152344,94.9202880859375,2.378463745117188
105351,-0.193115234375,3.271881103515625,0.7911224365234375,-1.961749911308289,2.2430100440979,-0.8105463981628418,34.4132080078125,95.47605895996094,2.184295654296875
105352,-0.193115234375,3.271881103515625,0.7911224365234375,-1.961749911308289,2.2430100440979,-0.8105463981628418,34.4132080078125,95.47605895996094,2.184295654296875
105353,-0.4332427978515625,4.441207885742188,0.338104248046875,-2.377338171005249,2.226222038269043,-1.728877544403076,33.87443542480469,95.59788513183594,2.251876831054688
105354,-1.033294677734375,4.792007446289062,0.5788726806640625,-2.455468416213989,0.6872130036354065,-2.670312404632568,33.01416015625,95.4640655517578,2.567764282226562
105355,-1.763137817382812,3.218032836914062,1.8060302734375,-1.733444571495056,1.19781231880188,-0.7713696956634521,30.77894592285156,94.4894561767578,3.85260009765625
105356,-1.763137817382812,3.218032836914062,1.8060302734375,-1.733444571495056,1.19781231880188,-0.7713696956634521,30.77894592285156,94.4894561767578,3.85260009765625
105357,-1.54425048828125,2.614059448242188,1.59759521484375,-0.8384400606155396,1.764033913612366,-0.473264217376709,29.89498901367188,93.72496032714844,4.502395629882812
105358,-1.012069702148438,2.290374755859375,0.6598968505859375,0.159071147441864,0.7464067935943604,-0.1327551156282425,29.40155029296875,92.88137817382812,5.238372802734375
105359,-0.163055419921875,2.3243408203125,0.1149444580078125,1.17406153678894,-0.5585293173789978,0.3464958965778351,28.51515197753906,92.43017578125,5.354171752929688
105360,-0.163055419921875,2.3243408203125,0.1149444580078125,1.17406153678894,-0.5585293173789978,0.3464958965778351,28.51515197753906,92.43017578125,5.354171752929688
105361,0.009429931640625,2.34185791015625,-0.3275299072265625,1.228617668151855,-0.2477786391973495,0.5881428718566895,28.37580871582031,92.57196044921876,5.203826904296875
105362,-0.00909423828125,2.141494750976562,-0.652099609375,1.131327629089355,0.3344568014144897,0.803206205368042,28.63667297363281,92.5579833984375,5.017242431640625
105363,0.069091796875,1.615829467773438,-0.6898651123046875,1.019258856773376,0.1912618428468704,1.289698123931885,29.49090576171875,92.46783447265624,4.252426147460938
105364,0.069091796875,1.615829467773438,-0.6898651123046875,1.019258856773376,0.1912618428468704,1.289698123931885,29.49090576171875,92.46783447265624,4.252426147460938
105365,0.1172943115234375,1.383804321289062,-0.45867919921875,0.8092252016067505,0.0892787501215934,1.16562807559967,29.97569274902344,92.62290954589844,3.741104125976562
105366,0.10931396484375,1.111312866210938,-0.394439697265625,0.5713750720024109,0.1898223906755447,0.9414023756980896,30.50862121582031,92.80775451660156,3.30462646484375
105367,-0.010101318359375,0.6502838134765625,-0.3311004638671875,0.4979498684406281,0.0885969772934913,0.6800805330276489,31.56929016113281,93.21560668945312,2.514114379882812
105368,-0.010101318359375,0.6502838134765625,-0.3311004638671875,0.4979498684406281,0.0885969772934913,0.6800805330276489,31.56929016113281,93.21560668945312,2.514114379882812
105369,-0.0718536376953125,0.4865264892578125,-0.2362213134765625,0.618894636631012,-0.02832617983222,0.6313454508781433,32.08259582519531,93.2410888671875,2.236968994140625
105370,-0.0880889892578125,0.3666839599609375,-0.0930023193359375,0.6193969249725342,0.011966647580266,0.5299661159515381,32.46470642089844,93.18537902832033,1.915084838867188
105371,-0.0585479736328125,0.2208251953125,0.01068115234375,0.4177983105182648,0.2482532113790512,0.4312166571617126,32.85556030273438,93.2749481201172,1.5872802734375
105372,-0.016204833984375,0.0564117431640625,-0.02862548828125,0.178575873374939,0.4952345192432404,0.3994706869125366,33.14750671386719,93.48651123046876,1.212326049804688
105373,0.018341064453125,-0.06927490234375,-0.175994873046875,0.1092018559575081,0.5552312731742859,0.4572037756443024,33.27914428710938,93.65803527832033,0.862060546875
105374,0.0345306396484375,-0.1414642333984375,-0.32159423828125,0.2874056696891785,0.4031149744987488,0.5795419216156006,33.37094116210938,93.73629760742188,0.9044342041015624
105375,0.0693511962890625,-0.184814453125,-0.427581787109375,0.9288850426673888,0.0195481348782777,0.8377367258071899,33.69737243652344,93.86384582519533,0.6930694580078125
105376,0.0693511962890625,-0.184814453125,-0.427581787109375,0.9288850426673888,0.0195481348782777,0.8377367258071899,33.69737243652344,93.86384582519533,0.6930694580078125
105377,0.119293212890625,-0.1834869384765625,-0.4185028076171875,1.112695813179016,-0.1550332605838776,0.9552974700927734,34.00018310546875,94.01853942871094,0.434967041015625
105378,0.1847076416015625,-0.1754150390625,-0.435211181640625,1.047051906585693,-0.1100428774952888,1.018616795539856,34.33247375488281,94.19143676757812,0.234527587890625
105379,0.2631988525390625,-0.1253662109375,-0.4614105224609375,0.6657119989395142,-0.4773183465003967,1.095807671546936,35.184814453125,94.66712951660156,-0.2168426513671875
105380,0.2631988525390625,-0.1253662109375,-0.4614105224609375,0.6657119989395142,-0.4773183465003967,1.095807671546936,35.184814453125,94.66712951660156,-0.2168426513671875
105381,0.2650604248046875,-0.080047607421875,-0.2984466552734375,0.5700296759605408,-0.5770657062530518,1.100953221321106,35.64897155761719,94.84002685546876,-0.401092529296875
105382,0.2740325927734375,-0.028594970703125,-0.18316650390625,0.5756468176841736,-0.4444437623023987,1.055794715881348,36.08232116699219,94.93316650390624,-0.4875640869140625
105383,0.2481842041015625,0.141693115234375,-0.12493896484375,0.7014886140823364,-0.0651054978370666,0.7685917615890503,37.21519470214844,95.19903564453124,-0.44537353515625
105384,0.2481842041015625,0.141693115234375,-0.12493896484375,0.7014886140823364,-0.0651054978370666,0.7685917615890503,37.21519470214844,95.19903564453124,-0.44537353515625
105385,0.19830322265625,0.2230224609375,-0.0690155029296875,0.7115236520767212,0.0426971316337585,0.5593977570533752,37.70158386230469,95.41911315917967,-0.5983734130859375
105386,0.143646240234375,0.2557373046875,0.0347900390625,0.6588335633277893,0.1320187598466873,0.3481233417987823,38.09652709960938,95.543212890625,-0.7100372314453125
105387,0.0709075927734375,0.365570068359375,0.4622650146484375,0.3173348307609558,1.209606170654297,-0.1043272018432617,38.6387939453125,95.83529663085938,-1.213897705078125
105388,0.0709075927734375,0.365570068359375,0.4622650146484375,0.3173348307609558,1.209606170654297,-0.1043272018432617,38.6387939453125,95.83529663085938,-1.213897705078125
105389,0.06341552734375,0.8046722412109375,0.6822509765625,-0.0020839234348386,2.422319650650024,-0.5263000130653381,38.73786926269531,96.13995361328124,-1.470626831054688
105390,0.03118896484375,1.379058837890625,0.7875518798828125,-0.5376682281494141,3.840712547302246,-1.270087838172913,38.72625732421875,96.18418884277344,-1.530014038085938
105391,-0.3453521728515625,2.32623291015625,0.50921630859375,-1.870222687721252,3.798241138458252,-2.806552171707153,37.76492309570312,96.12921142578124,-2.42156982421875
105392,-0.3453521728515625,2.32623291015625,0.50921630859375,-1.870222687721252,3.798241138458252,-2.806552171707153,37.76492309570312,96.12921142578124,-2.42156982421875
105393,-0.887939453125,2.331466674804688,0.401702880859375,-1.459818720817566,1.796671509742737,-3.011011123657227,36.80807495117188,95.75595092773438,-2.971649169921875
105394,-1.299957275390625,2.07958984375,0.5383148193359375,-0.279814600944519,-0.4429968595504761,-2.649006366729736,35.68745422363281,95.2329559326172,-3.31195068359375
105395,-1.3277587890625,1.793975830078125,1.266464233398438,1.762024641036987,-1.571926236152649,-0.537368893623352,33.59994506835938,93.94490051269533,-3.263046264648438
105396,-1.3277587890625,1.793975830078125,1.266464233398438,1.762024641036987,-1.571926236152649,-0.537368893623352,33.59994506835938,93.94490051269533,-3.263046264648438
105397,-0.94512939453125,1.9014892578125,1.215286254882812,1.370782017707825,-0.7353901267051697,0.1666038930416107,33.04179382324219,93.828125,-3.469650268554688
105398,-0.59197998046875,1.953643798828125,0.900970458984375,0.2960886359214783,-0.4920666813850403,0.0311278253793716,32.58753967285156,94.18597412109376,-4.058013916015625
105399,-0.38836669921875,1.566970825195312,0.5316009521484375,-1.469676375389099,-1.566150665283203,-0.541555643081665,32.56484985351562,94.3391571044922,-4.699386596679688
105400,-0.38836669921875,1.566970825195312,0.5316009521484375,-1.469676375389099,-1.566150665283203,-0.541555643081665,32.56484985351562,94.3391571044922,-4.699386596679688
105401,-0.39007568359375,1.345993041992188,0.572052001953125,-1.569492220878601,-1.855488181114197,-0.6564167141914368,32.74461364746094,94.1648406982422,-4.631942749023438
105402,-0.3838653564453125,1.144180297851562,0.5863189697265625,-1.43876850605011,-1.731553792953491,-0.6210867166519165,32.84140014648438,93.83261108398438,-3.921783447265625
105403,-0.370361328125,0.9942779541015624,0.5466156005859375,-1.339582324028015,-1.355346322059631,-0.5488277077674866,32.88107299804688,93.42628479003906,-2.9429931640625
105404,-0.3575592041015625,0.85406494140625,0.4675445556640625,-1.37366783618927,-0.8293418884277344,-0.5351451635360718,32.89581298828125,93.1146240234375,-1.9443359375
105405,-0.3463897705078125,0.732940673828125,0.348114013671875,-1.482264280319214,-0.3178701102733612,-0.5932087302207947,32.86587524414062,92.81004333496094,-1.007003784179688
105406,-0.3343353271484375,0.6243743896484375,0.2008209228515625,-1.607305288314819,0.0561761856079101,-0.6944568157196045,32.7686767578125,92.5806121826172,-0.3580474853515625
105407,-0.2858734130859375,0.482086181640625,-0.126007080078125,-1.705142140388489,0.2938899397850037,-0.8629350066184998,32.46200561523438,91.81668090820312,1.017608642578125
105408,-0.2858734130859375,0.482086181640625,-0.126007080078125,-1.705142140388489,0.2938899397850037,-0.8629350066184998,32.46200561523438,91.81668090820312,1.017608642578125
105409,-0.2369842529296875,0.4546661376953125,-0.9224853515625,-1.521022081375122,-0.5892704725265503,-0.928813099861145,32.17549133300781,91.38606262207033,1.615676879882812
105410,-0.120941162109375,0.405120849609375,-1.285598754882812,-0.9243667125701904,-2.653045654296875,-0.8529337644577026,31.79568481445312,91.1650390625,2.133987426757812
105411,-0.0556640625,0.3177490234375,-0.1778106689453125,0.2828285098075867,0.2410254031419754,0.0790316984057426,31.08769226074219,90.45901489257812,3.765792846679688
105412,-0.0556640625,0.3177490234375,-0.1778106689453125,0.2828285098075867,0.2410254031419754,0.0790316984057426,31.08769226074219,90.45901489257812,3.765792846679688
105413,0.0511322021484375,0.284942626953125,-0.173126220703125,0.5523175001144409,1.032965660095215,0.4260764718055725,30.85440063476562,90.37344360351562,4.432723999023438
105414,0.056060791015625,0.202972412109375,-0.024505615234375,0.5315813422203064,1.197332143783569,0.5432118773460388,30.76438903808594,90.38136291503906,4.698471069335938
105415,0.0895538330078125,0.0374755859375,0.03143310546875,0.0939019918441772,0.9275896549224854,0.591167688369751,30.50480651855469,90.68014526367188,4.36419677734375
105416,0.0895538330078125,0.0374755859375,0.03143310546875,0.0939019918441772,0.9275896549224854,0.591167688369751,30.50480651855469,90.68014526367188,4.36419677734375
105417,0.114715576171875,-0.0013580322265625,-0.022705078125,-0.0876089408993721,0.6416327357292175,0.6343263387680054,30.3798828125,90.82659912109376,3.9991455078125
105418,0.1597442626953125,-0.0008087158203125,-0.1173553466796875,-0.1431342512369156,0.2538596987724304,0.7223097085952759,30.25201416015625,90.94572448730467,3.707931518554688
105419,0.2835235595703125,0.12567138671875,-0.3322296142578125,0.2389238923788071,-0.80680251121521,1.05388069152832,30.16748046875,91.32301330566406,3.702316284179688
105420,0.2835235595703125,0.12567138671875,-0.3322296142578125,0.2389238923788071,-0.80680251121521,1.05388069152832,30.16748046875,91.32301330566406,3.702316284179688
105421,0.3075103759765625,0.232208251953125,-0.2899169921875,0.5237308740615845,-1.157113909721375,1.22407329082489,30.67915344238281,91.71261596679688,4.023361206054688
105422,0.2980499267578125,0.3114471435546875,-0.15863037109375,0.6822746992111206,-0.843848705291748,1.294932246208191,31.07254028320312,91.96673583984376,4.31317138671875
105423,0.295440673828125,0.328521728515625,-0.208221435546875,0.3621941804885864,0.5370929837226868,1.201919794082642,32.03413391113281,92.91346740722656,4.144882202148438
105424,0.295440673828125,0.328521728515625,-0.208221435546875,0.3621941804885864,0.5370929837226868,1.201919794082642,32.03413391113281,92.91346740722656,4.144882202148438
105425,0.228912353515625,0.3827056884765625,-0.2562713623046875,0.0472804307937622,0.461944192647934,1.015603184700012,32.42283630371094,93.17971801757812,4.214584350585938
105426,0.1686553955078125,0.46759033203125,-0.206512451171875,-0.2781155109405518,0.0261575672775507,0.6761989593505859,32.89414978027344,93.45037841796876,4.234375
105427,0.0997314453125,0.6829833984375,0.05706787109375,-0.6755371689796448,-0.6507764458656311,-0.1565573811531067,33.40631103515625,93.74452209472656,4.39239501953125
105428,0.0997314453125,0.6829833984375,0.05706787109375,-0.6755371689796448,-0.6507764458656311,-0.1565573811531067,33.40631103515625,93.74452209472656,4.39239501953125
105429,0.056732177734375,0.848785400390625,0.28216552734375,-0.7598331570625305,-0.4127146005630493,-0.6150442361831665,33.52999877929688,93.78572082519533,4.825271606445312
105430,0.0411834716796875,1.148696899414062,0.5167694091796875,-0.9231197834014891,0.2764068245887756,-1.22904646396637,33.42819213867188,93.73786926269533,5.03594970703125
105431,-0.0387725830078125,2.256729125976562,0.9143829345703124,-1.671509027481079,2.414884090423584,-2.387850999832153,32.0574951171875,93.48329162597656,5.289215087890625
105432,-0.0387725830078125,2.256729125976562,0.9143829345703124,-1.671509027481079,2.414884090423584,-2.387850999832153,32.0574951171875,93.48329162597656,5.289215087890625
105433,-0.3582611083984375,3.312789916992188,0.8561859130859375,-2.303589820861816,2.644820690155029,-2.968241691589355,30.80131530761719,93.21687316894533,5.248779296875
105434,-1.06671142578125,4.305038452148438,0.89532470703125,-2.127873420715332,1.554405331611633,-3.447109937667847,29.25175476074219,92.59666442871094,5.089828491210938
105435,-2.1085205078125,2.926651000976562,1.842529296875,-0.8987167477607727,1.014088869094849,-0.6046075820922852,26.36705017089844,90.82850646972656,4.53948974609375
105436,-2.1085205078125,2.926651000976562,1.842529296875,-0.8987167477607727,1.014088869094849,-0.6046075820922852,26.36705017089844,90.82850646972656,4.53948974609375
105437,-1.548828125,2.257904052734375,1.223129272460938,-0.2543521225452423,0.9071533679962158,-0.3634469211101532,25.49720764160156,90.20309448242188,4.781387329101562
105438,-0.990142822265625,1.730270385742188,0.6166229248046875,0.3230933547019958,-0.410276472568512,-0.1789985150098801,25.03489685058594,89.89579772949219,5.059722900390625
105439,-0.2094268798828125,2.071914672851562,0.15142822265625,1.303682804107666,-2.476281404495239,0.1635926514863968,24.52265930175781,89.97708129882812,5.55474853515625
105440,-0.2094268798828125,2.071914672851562,0.15142822265625,1.303682804107666,-2.476281404495239,0.1635926514863968,24.52265930175781,89.97708129882812,5.55474853515625
105441,-0.0619049072265625,2.3486328125,-0.0363006591796875,1.485641479492188,-1.871277570724487,0.2379680871963501,24.72023010253906,90.30152893066406,5.923675537109375
105442,-0.0540924072265625,2.46209716796875,-0.3272552490234375,1.490217328071594,-0.9784845113754272,0.3833172917366028,25.18296813964844,90.3941650390625,6.133621215820312
105443,-0.2296905517578125,1.882614135742188,-0.576507568359375,0.9354835152626038,0.818149209022522,0.618733823299408,26.15071105957031,90.631591796875,5.97760009765625
105444,-0.2296905517578125,1.882614135742188,-0.576507568359375,0.9354835152626038,0.818149209022522,0.618733823299408,26.15071105957031,90.631591796875,5.97760009765625
105445,-0.2797393798828125,1.408401489257812,-0.623077392578125,0.4849744141101837,0.917228639125824,0.6307880878448486,26.58534240722656,90.75856018066406,5.496719360351562
105446,-0.3511505126953125,1.120864868164062,-0.5013885498046875,0.0686208754777908,0.8256515860557556,0.5502561926841736,26.83091735839844,90.86148071289062,5.040771484375
105447,-0.3739471435546875,0.826385498046875,-0.279632568359375,-0.1704375147819519,0.7529938817024231,0.5614169836044312,27.37716674804688,90.78190612792967,4.1754150390625
105448,-0.3739471435546875,0.826385498046875,-0.279632568359375,-0.1704375147819519,0.7529938817024231,0.5614169836044312,27.37716674804688,90.78190612792967,4.1754150390625
105449,-0.3306884765625,0.753082275390625,-0.1714935302734375,-0.0853774845600128,0.7732272744178772,0.6455909609794617,27.76609802246094,90.63287353515624,3.964813232421875
105450,-0.29046630859375,0.6960601806640625,-0.0865631103515625,-0.0141658866778016,0.7820153832435608,0.6139824390411377,27.99961853027344,90.44723510742188,3.86444091796875
105451,-0.1410980224609375,0.4182586669921875,-0.011199951171875,-0.1429238617420197,0.7327266931533813,0.4386934638023376,28.49540710449219,90.40446472167967,3.322586059570312
105452,-0.1410980224609375,0.4182586669921875,-0.011199951171875,-0.1429238617420197,0.7327266931533813,0.4386934638023376,28.49540710449219,90.40446472167967,3.322586059570312
105453,-0.076904296875,0.26361083984375,-0.05584716796875,-0.1118287965655327,0.5149365663528442,0.3913666903972626,28.7041015625,90.24273681640624,3.191665649414062
105454,-0.024566650390625,0.1261138916015625,-0.089385986328125,0.0302247479557991,0.2357893586158752,0.3676861226558685,28.88600158691406,90.10182189941406,3.298965454101562
105455,0.07501220703125,-0.07470703125,-0.113677978515625,0.4697845280170441,-0.3019172549247742,0.4436930119991302,29.13804626464844,90.13298034667967,3.007064819335938
105456,0.07501220703125,-0.07470703125,-0.113677978515625,0.4697845280170441,-0.3019172549247742,0.4436930119991302,29.13804626464844,90.13298034667967,3.007064819335938
105457,0.103546142578125,-0.1072998046875,-0.1355743408203125,0.7323852777481079,-0.5216248631477356,0.5390416383743286,29.25668334960938,90.2841339111328,2.934829711914062
105458,0.1293792724609375,-0.1132049560546875,-0.171112060546875,1.04973578453064,-0.7039459347724915,0.6488962173461914,29.44667053222656,90.34944152832033,3.00323486328125
105459,0.1856536865234375,-0.1092071533203125,-0.2584228515625,1.677331566810608,-1.199066162109375,0.8839460611343384,29.92155456542969,90.92855834960938,3.150100708007812
105460,0.1856536865234375,-0.1092071533203125,-0.2584228515625,1.677331566810608,-1.199066162109375,0.8839460611343384,29.92155456542969,90.92855834960938,3.150100708007812
105461,0.2137603759765625,-0.100189208984375,-0.3065643310546875,1.875619053840637,-1.519100666046143,0.9713613390922546,30.25209045410156,91.33439636230467,3.205215454101562
105462,0.2671661376953125,-0.0991973876953125,-0.3304595947265625,1.966554522514343,-1.78971004486084,1.041149258613586,30.63133239746094,91.71205139160156,2.981857299804688
105463,0.389251708984375,-0.0885772705078125,-0.3399505615234375,1.630262613296509,-0.2458760738372803,0.9548338055610656,31.59587097167969,92.54945373535156,2.260818481445312
105464,0.389251708984375,-0.0885772705078125,-0.3399505615234375,1.630262613296509,-0.2458760738372803,0.9548338055610656,31.59587097167969,92.54945373535156,2.260818481445312
105465,0.3766021728515625,0.0400848388671875,-0.3193817138671875,1.451512813568115,0.1218894198536873,0.8969835638999939,32.1373291015625,93.02809143066406,1.80877685546875
105466,0.2936859130859375,0.22210693359375,-0.1440582275390625,1.312538981437683,0.1954358071088791,0.7916595339775085,32.64714050292969,93.3635711669922,1.469192504882812
105467,0.1456146240234375,0.3454437255859375,0.2607421875,0.9810209274291992,0.5228794813156128,0.4059648215770721,33.39283752441406,93.97813415527344,0.08935546875
105468,0.1456146240234375,0.3454437255859375,0.2607421875,0.9810209274291992,0.5228794813156128,0.4059648215770721,33.39283752441406,93.97813415527344,0.08935546875
105469,0.132171630859375,0.3820648193359375,0.4917144775390625,0.6854444146156311,1.226182699203491,0.2170428335666656,33.54454040527344,94.16421508789062,-0.482269287109375
105470,0.1479949951171875,0.7778778076171875,0.6830596923828125,0.2540929913520813,2.330658912658691,-0.1307628005743027,33.58476257324219,94.42300415039062,-1.022445678710938
105471,0.142730712890625,2.197784423828125,0.844390869140625,-1.155684113502502,4.528234481811523,-1.124124050140381,33.02626037597656,94.50912475585938,-2.571304321289062
105472,0.142730712890625,2.197784423828125,0.844390869140625,-1.155684113502502,4.528234481811523,-1.124124050140381,33.02626037597656,94.50912475585938,-2.571304321289062
105473,-0.255615234375,2.6162109375,0.69915771484375,-1.623992681503296,3.990948438644409,-1.35726010799408,32.47633361816406,94.44244384765624,-3.195236206054688
105474,-0.783905029296875,2.750534057617188,0.5675201416015625,-1.249513387680054,2.286237239837646,-1.635313510894775,31.99374389648438,93.9193878173828,-3.6014404296875
105475,-1.156692504882812,2.489364624023438,0.976837158203125,0.892426073551178,-1.509377956390381,-1.281742095947266,31.02114868164062,92.75465393066406,-3.953598022460938
105476,-1.156692504882812,2.489364624023438,0.976837158203125,0.892426073551178,-1.509377956390381,-1.281742095947266,31.02114868164062,92.75465393066406,-3.953598022460938
105477,-0.96368408203125,2.236953735351562,1.179916381835938,1.302054643630981,-2.110368490219116,-0.6811926364898682,30.6119384765625,92.55305480957033,-3.945419311523438
105478,-0.7108612060546875,1.897857666015625,1.18316650390625,0.8249700665473938,-2.007969617843628,-0.2552085816860199,30.19155883789062,92.46505737304688,-3.9931640625
105479,-0.5002288818359375,1.417892456054688,0.8686676025390625,-0.8397926688194275,-1.475315570831299,-0.2677430212497711,30.11123657226562,92.5567626953125,-4.189865112304688
105480,-0.5002288818359375,1.417892456054688,0.8686676025390625,-0.8397926688194275,-1.475315570831299,-0.2677430212497711,30.11123657226562,92.5567626953125,-4.189865112304688
105481,-0.499176025390625,1.23577880859375,0.727996826171875,-1.270973920822144,-1.30962085723877,-0.3854544758796692,30.31597900390625,92.4483642578125,-3.805648803710938
105482,-0.4821319580078125,1.091293334960938,0.56317138671875,-1.400182723999023,-1.191505670547485,-0.4256817996501923,30.44721984863281,92.1498565673828,-3.184738159179688
105483,-0.3663177490234375,0.848907470703125,0.1917572021484375,-1.342313885688782,-1.127636432647705,-0.5785925388336182,30.55575561523438,91.57839965820312,-1.397384643554688
105484,-0.3663177490234375,0.848907470703125,0.1917572021484375,-1.342313885688782,-1.127636432647705,-0.5785925388336182,30.55575561523438,91.57839965820312,-1.397384643554688
105485,-0.291473388671875,0.7089385986328125,-0.001068115234375,-1.272958993911743,-1.236879110336304,-0.7206692099571228,30.52690124511719,91.29637145996094,-0.4358367919921875
105486,-0.2179412841796875,0.56378173828125,-0.1557769775390625,-1.159333348274231,-1.449983358383179,-0.8701071739196777,30.40121459960938,91.08056640625,0.531829833984375
105487,-0.002685546875,0.163726806640625,-0.919036865234375,-0.1961604505777359,-3.523138761520386,-0.8578745126724243,30.03651428222656,90.73854064941406,2.091354370117188
105488,-0.002685546875,0.163726806640625,-0.919036865234375,-0.1961604505777359,-3.523138761520386,-0.8578745126724243,30.03651428222656,90.73854064941406,2.091354370117188
105489,-0.0790252685546875,0.1300811767578125,-0.3206329345703125,0.27036252617836,-3.841298818588257,-0.7549861669540405,29.85676574707031,90.56950378417967,2.912399291992188
105490,-0.19708251953125,0.093475341796875,0.053741455078125,0.3435432612895966,-2.676134824752808,-0.6783060431480408,29.94140625,90.45637512207033,3.817626953125
105491,-0.1431121826171875,0.1761322021484375,-0.6072235107421875,0.1601880788803101,0.7219589948654175,0.256397157907486,30.03421020507812,90.48080444335938,5.000808715820312
105492,-0.1431121826171875,0.1761322021484375,-0.6072235107421875,0.1601880788803101,0.7219589948654175,0.256397157907486,30.03421020507812,90.48080444335938,5.000808715820312
105493,-0.053863525390625,0.296630859375,-0.6209564208984375,0.5166460275650024,0.950690984725952,0.3935699462890625,29.90376281738281,90.64533996582033,5.01080322265625
105494,-0.01458740234375,0.3153533935546875,-0.3425750732421875,0.7776912450790405,0.9898138642311096,0.4484768509864807,29.70100402832031,90.8446044921875,4.988265991210938
105495,0.0321502685546875,0.3065948486328125,-0.124603271484375,0.7358809113502502,0.9027602076530457,0.4280298948287964,29.46345520019531,91.23558044433594,4.240554809570312
105496,0.0321502685546875,0.3065948486328125,-0.124603271484375,0.7358809113502502,0.9027602076530457,0.4280298948287964,29.46345520019531,91.23558044433594,4.240554809570312
105497,0.08087158203125,0.28204345703125,-0.116241455078125,0.5240795016288757,0.7151578068733215,0.4485911130905151,29.48396301269531,91.39241027832033,3.794296264648438
105498,0.1184844970703125,0.2762451171875,-0.13848876953125,0.2805347144603729,0.4140986502170563,0.4935468733310699,29.5068359375,91.63221740722656,3.38299560546875
105499,0.137969970703125,0.2740936279296875,-0.16845703125,0.1044033691287041,-0.1513583660125732,0.5468481779098511,29.64054870605469,92.005615234375,2.7703857421875
105500,0.137969970703125,0.2740936279296875,-0.16845703125,0.1044033691287041,-0.1513583660125732,0.5468481779098511,29.64054870605469,92.005615234375,2.7703857421875
105501,0.128265380859375,0.2176513671875,-0.1226959228515625,0.2173014283180237,-0.1555653512477875,0.5363633036613464,29.73272705078125,92.06643676757812,2.621002197265625
105502,0.1044464111328125,0.1398162841796875,-0.0758209228515625,0.3473941683769226,0.1022776365280151,0.5158292651176453,29.84684753417969,92.27110290527344,2.435104370117188
105503,0.05474853515625,0.1035614013671875,-0.1000213623046875,0.5568251609802246,0.5155333876609802,0.4064300656318665,30.18804931640625,92.61027526855467,2.405929565429688
105504,0.05474853515625,0.1035614013671875,-0.1000213623046875,0.5568251609802246,0.5155333876609802,0.4064300656318665,30.18804931640625,92.61027526855467,2.405929565429688
105505,0.0442047119140625,0.18536376953125,-0.105072021484375,0.5801752209663391,0.5021150708198547,0.2638492286205292,30.36476135253906,92.83071899414062,2.158447265625
105506,0.046539306640625,0.3022003173828125,-0.1341552734375,0.5456444025039673,0.3624498248100281,0.0920857191085815,30.43896484375,92.94680786132812,1.92919921875
105507,0.0325469970703125,0.68621826171875,-0.2411346435546875,0.5418624877929688,-0.3804549276828766,-0.2350766956806183,30.68058776855469,93.38818359375,1.1605224609375
105508,0.0325469970703125,0.68621826171875,-0.2411346435546875,0.5418624877929688,-0.3804549276828766,-0.2350766956806183,30.68058776855469,93.38818359375,1.1605224609375
105509,-0.01971435546875,0.9813690185546876,-0.184967041015625,0.5870310068130493,-0.7220498323440552,-0.4958406388759613,30.53657531738281,93.53919982910156,1.048629760742188
105510,-0.137359619140625,1.302734375,0.0262298583984375,0.520033061504364,-0.7105367183685303,-0.8678994178771973,30.47978210449219,93.74960327148438,0.8478851318359375
105511,-0.49151611328125,1.891464233398438,0.63555908203125,-0.5191411972045898,1.086660265922546,-1.488643646240234,29.68440246582031,94.2064971923828,0.3574981689453125
105512,-0.49151611328125,1.891464233398438,0.63555908203125,-0.5191411972045898,1.086660265922546,-1.488643646240234,29.68440246582031,94.2064971923828,0.3574981689453125
105513,-0.6106109619140625,2.44085693359375,0.5644683837890625,-1.309460878372192,2.276773691177368,-1.734775900840759,29.10964965820312,94.1642608642578,0.17852783203125
105514,-0.7982025146484375,3.40203857421875,0.1516265869140625,-1.948274850845337,2.461455345153809,-2.180015563964844,28.14463806152344,93.9983367919922,0.0727691650390625
105515,-2.079864501953125,4.16204833984375,0.934783935546875,-1.724211931228638,0.1597483903169632,-0.8965159058570862,25.96333312988281,93.23973083496094,-0.0444793701171875
105516,-2.079864501953125,4.16204833984375,0.934783935546875,-1.724211931228638,0.1597483903169632,-0.8965159058570862,25.96333312988281,93.23973083496094,-0.0444793701171875
105517,-1.870407104492188,3.714218139648438,1.472366333007812,-1.238961935043335,0.1002152860164642,-0.6087669134140015,25.01350402832031,92.73713684082033,0.2977294921875
105518,-1.235916137695312,2.961669921875,1.33612060546875,-1.02180027961731,-0.0577735528349876,-0.48170006275177,24.56471252441406,92.01295471191406,0.922332763671875
105519,-0.628509521484375,2.359146118164062,0.165679931640625,0.4752205908298492,-0.877249538898468,0.1393294036388397,24.15324401855469,90.96142578125,2.104705810546875
105520,-0.628509521484375,2.359146118164062,0.165679931640625,0.4752205908298492,-0.877249538898468,0.1393294036388397,24.15324401855469,90.96142578125,2.104705810546875
105521,-0.3641815185546875,2.303665161132812,-0.0103912353515625,0.952579140663147,-0.5763583779335022,0.3701508939266205,24.2607421875,90.65249633789062,2.574569702148438
105522,-0.248870849609375,2.127304077148438,-0.2583770751953125,0.989251434803009,0.1890556812286377,0.6691061854362488,24.4345703125,90.36300659179688,2.878219604492188
105523,-0.0525665283203125,1.499893188476562,-0.587310791015625,0.6913787126541138,0.5048365592956543,1.162136912345886,25.04798889160156,90.4716339111328,2.41351318359375
105524,-0.0525665283203125,1.499893188476562,-0.587310791015625,0.6913787126541138,0.5048365592956543,1.162136912345886,25.04798889160156,90.4716339111328,2.41351318359375
105525,-0.0096588134765625,1.198043823242188,-0.494171142578125,0.5799355506896973,-0.0166207887232303,1.271594643592834,25.5146484375,90.54432678222656,1.955902099609375
105526,0.0365447998046875,0.95758056640625,-0.3930511474609375,0.5573000311851501,-0.518096923828125,1.334465861320496,25.93338012695312,90.68345642089844,1.64007568359375
105527,0.090179443359375,0.605865478515625,-0.250213623046875,0.8292966485023499,-0.8392634987831116,1.313491821289062,27.19502258300781,91.02531433105467,1.298873901367188
105528,0.090179443359375,0.605865478515625,-0.250213623046875,0.8292966485023499,-0.8392634987831116,1.313491821289062,27.19502258300781,91.02531433105467,1.298873901367188
105529,0.072479248046875,0.4548187255859375,-0.23736572265625,0.9775593280792236,-0.6022450923919678,1.199539422988892,27.85020446777344,91.36642456054688,1.1051025390625
105530,0.0738983154296875,0.301422119140625,-0.24969482421875,1.0254887342453,-0.2534703612327576,1.044823288917542,28.5843505859375,91.63063049316406,1.085693359375
105531,0.13201904296875,0.0035858154296875,-0.4222869873046875,0.6786972880363464,0.2849984467029572,0.9068883657455444,29.66685485839844,92.203857421875,0.616973876953125
105532,0.13201904296875,0.0035858154296875,-0.4222869873046875,0.6786972880363464,0.2849984467029572,0.9068883657455444,29.66685485839844,92.203857421875,0.616973876953125
105533,0.1933135986328125,-0.061492919921875,-0.54656982421875,0.3693298399448395,0.6476455926895142,0.8416627645492554,30.06312561035156,92.5307159423828,0.3099212646484375
105534,0.2191162109375,-0.0676422119140625,-0.71527099609375,0.23649562895298,0.5279080271720886,0.8021811246871948,30.46516418457031,92.71580505371094,0.31903076171875
105535,0.1774444580078125,-0.0023040771484375,-0.6499176025390625,0.310258537530899,-0.1335937529802322,0.7549084424972534,30.81272888183594,92.80677795410156,0.2125244140625
105536,0.1437530517578125,0.08465576171875,-0.3963470458984375,0.3797779679298401,-0.6859570741653442,0.6486093997955322,31.11862182617188,92.90559387207033,0.0548248291015625
105537,0.161041259765625,0.12939453125,-0.2044677734375,0.4011543393135071,-0.9640874862670898,0.5558070540428162,31.46321105957031,93.10308837890624,-0.1285552978515625
105538,0.1985626220703125,0.138031005859375,-0.1124114990234375,0.4194603860378265,-1.011150002479553,0.5652186274528503,31.85771179199219,93.07760620117188,0.0938568115234375
105539,0.2130279541015625,0.1303863525390625,-0.097930908203125,0.755543053150177,-0.7062830924987793,0.6312666535377502,32.73983764648438,93.48333740234376,0.2280426025390625
105540,0.2130279541015625,0.1303863525390625,-0.097930908203125,0.755543053150177,-0.7062830924987793,0.6312666535377502,32.73983764648438,93.48333740234376,0.2280426025390625
105541,0.1860809326171875,0.101531982421875,-0.108001708984375,1.095232486724854,-0.3909943997859955,0.5766907334327698,33.0548095703125,93.53179931640624,0.4118804931640625
105542,0.1576995849609375,0.053924560546875,-0.155731201171875,1.436055779457092,-0.0413945764303207,0.4731752872467041,33.34541320800781,93.69696044921876,0.216705322265625
105543,0.1166229248046875,0.0219268798828125,-0.4230499267578125,1.618566513061523,0.2163868993520737,0.2723939716815948,33.82991027832031,94.068359375,-0.9118194580078124
105544,0.1166229248046875,0.0219268798828125,-0.4230499267578125,1.618566513061523,0.2163868993520737,0.2723939716815948,33.82991027832031,94.068359375,-0.9118194580078124
105545,0.1094512939453125,0.0826416015625,-0.514923095703125,1.326504230499268,-0.1703525632619858,0.2805067598819733,34.01393127441406,94.50375366210938,-1.788589477539062
105546,0.1138153076171875,0.2094879150390625,-0.3213043212890625,0.8650791645050049,-0.5122451782226562,0.3160751461982727,34.0955810546875,94.77493286132812,-2.46636962890625
105547,0.1745147705078125,0.4573516845703125,0.2763214111328125,0.0169387701898813,-0.2863651812076569,0.227325826883316,34.36965942382812,95.16452026367188,-3.664108276367188
105548,0.1745147705078125,0.4573516845703125,0.2763214111328125,0.0169387701898813,-0.2863651812076569,0.227325826883316,34.36965942382812,95.16452026367188,-3.664108276367188
105549,0.193511962890625,0.609832763671875,0.552886962890625,-0.3265488147735596,0.5747138857841492,0.1162427216768265,34.61709594726562,95.367919921875,-3.893325805664062
105550,0.19171142578125,0.8170166015625,0.743927001953125,-0.6904172897338867,1.782461166381836,-0.067445620894432,34.67233276367188,95.45523071289062,-4.02423095703125
105551,-0.0142974853515625,1.561080932617188,0.842041015625,-1.681728959083557,3.320844173431396,-0.7177711725234985,35.00900268554688,95.25392150878906,-3.936233520507812
105552,-0.0142974853515625,1.561080932617188,0.842041015625,-1.681728959083557,3.320844173431396,-0.7177711725234985,35.00900268554688,95.25392150878906,-3.936233520507812
105553,-0.33746337890625,2.053695678710938,0.856292724609375,-1.630915522575378,2.340694189071655,-1.034396767616272,34.937255859375,94.9284210205078,-3.840316772460938
105554,-0.7562408447265625,2.48260498046875,1.009185791015625,-0.7039235234260559,0.5499938726425171,-1.171434283256531,34.71905517578125,94.50685119628906,-3.56915283203125
105555,-1.072189331054688,2.831771850585938,1.289962768554688,0.3848105370998383,-1.040313005447388,-1.179665088653564,34.44703674316406,94.06404113769533,-3.46539306640625
105556,-1.208663940429688,3.08087158203125,1.651779174804688,0.9630648493766784,-1.597882509231567,-1.173031330108643,34.24510192871094,93.5708465576172,-3.207366943359375
105557,-1.279190063476562,2.959075927734375,1.826309204101562,0.8492519855499268,-1.012295007705688,-1.227822184562683,33.88758850097656,93.25302124023438,-3.2301025390625
105558,-1.258544921875,2.309494018554688,1.531646728515625,0.3243639767169952,0.1237240731716156,-1.465868592262268,33.60731506347656,93.26596069335938,-3.4967041015625
105559,-0.9779815673828124,1.15325927734375,0.529296875,-0.4163921475410461,0.827796220779419,-1.317855715751648,32.83946228027344,93.26585388183594,-4.177749633789062
105560,-0.9779815673828124,1.15325927734375,0.529296875,-0.4163921475410461,0.827796220779419,-1.317855715751648,32.83946228027344,93.26585388183594,-4.177749633789062
105561,-0.960235595703125,0.86761474609375,0.29827880859375,-0.5325297117233276,0.8109391927719116,-0.9233046174049376,32.23753356933594,93.04255676269533,-4.529647827148438
105562,-0.9261474609375,0.658172607421875,0.115325927734375,-0.6618932485580444,0.8548249006271362,-0.3898707926273346,31.57264709472656,92.9221649169922,-4.815811157226562
105563,-0.71051025390625,0.6953125,-0.26422119140625,-0.8099085688591003,0.5555537939071655,-0.1165247485041618,30.96087646484375,92.80560302734376,-5.003570556640625
