time_idx,accelerometerAccelerationX(G),accelerometerAccelerationY(G),accelerometerAccelerationZ(G),gyroRotationX(rad/s),gyroRotationY(rad/s),gyroRotationZ(rad/s),magnetometerX(µT),magnetometerY(µT),magnetometerZ(µT)
198419,0.1632080078125,0.986785888671875,-0.3609771728515625,0.2198764383792877,-0.3964235186576843,0.510629415512085,27.82598876953125,94.77847290039062,-9.83660888671875
198420,0.1632080078125,0.986785888671875,-0.3609771728515625,0.2198764383792877,-0.3964235186576843,0.510629415512085,27.82598876953125,94.77847290039062,-9.83660888671875
198421,0.2565155029296875,1.171875,-0.1663818359375,0.7140898704528809,-0.5632423162460327,1.288976907730103,28.03802490234375,94.971435546875,-9.628738403320312
198422,0.22943115234375,1.334808349609375,-0.242645263671875,0.8248262405395508,-0.7572900652885437,1.538758754730225,28.45222473144531,95.18917846679688,-9.659637451171877
198423,0.1352691650390625,1.567367553710938,-0.354400634765625,1.132790446281433,-1.033585548400879,1.464561700820923,28.98698425292969,95.41409301757812,-9.895706176757812
198424,0.1352691650390625,1.567367553710938,-0.354400634765625,1.132790446281433,-1.033585548400879,1.464561700820923,28.98698425292969,95.41409301757812,-9.895706176757812
198425,-0.04937744140625,1.88653564453125,-0.5354461669921875,2.437211751937866,-0.5414632558822632,0.6894862651824951,30.16452026367188,95.87069702148438,-10.37220764160156
198426,-0.2507476806640625,1.942352294921875,-0.889801025390625,2.957217931747437,-0.2221704870462418,0.3429498970508575,30.55850219726562,96.20841979980467,-10.90287780761719
198427,-0.3902130126953125,2.103042602539062,-1.280975341796875,2.840376853942871,-0.6912588477134705,0.1236258000135422,30.73965454101562,96.6799774169922,-11.9569091796875
198428,-0.3126678466796875,2.474395751953125,-1.249237060546875,2.047535181045532,-1.3265141248703,0.0280297696590423,30.74113464355469,97.10752868652344,-13.24282836914062
198429,0.1042327880859375,2.94256591796875,-0.8792266845703125,1.181567072868347,-1.747848272323608,0.0630700439214706,30.65887451171875,97.22842407226562,-14.3101806640625
198430,0.6739044189453125,3.297088623046875,-0.390625,0.9561794996261596,-1.542714357376099,0.4164121448993683,30.40605163574219,97.41920471191406,-14.89898681640625
198431,1.1156005859375,3.679519653320312,0.8236541748046875,1.892602562904358,0.140225812792778,2.207221746444702,30.47987365722656,97.77566528320312,-15.30998229980469
198432,1.1156005859375,3.679519653320312,0.8236541748046875,1.892602562904358,0.140225812792778,2.207221746444702,30.47987365722656,97.77566528320312,-15.30998229980469
198433,1.2706298828125,3.97802734375,0.84320068359375,2.11725902557373,0.6584671139717102,3.198982715606689,31.08367919921875,98.04774475097656,-15.83076477050781
198434,1.306503295898438,4.55718994140625,0.8018951416015625,2.131275653839111,-0.0395266376435756,3.80823826789856,32.11380004882812,98.34405517578124,-16.52008056640625
198435,1.124542236328125,4.961395263671875,0.7187957763671875,1.941362142562866,-1.603074312210083,3.482019901275635,33.71446228027344,98.7098388671875,-17.45433044433594
198436,1.124542236328125,4.961395263671875,0.7187957763671875,1.941362142562866,-1.603074312210083,3.482019901275635,33.71446228027344,98.7098388671875,-17.45433044433594
198437,0.1099700927734375,2.877304077148438,0.8545074462890625,1.204589605331421,-2.28498911857605,0.6379506587982178,37.06292724609375,98.8645477294922,-19.06918334960938
198438,-0.124755859375,1.764129638671875,0.7126007080078125,0.9998137950897216,-1.805619239807129,-0.2042423486709595,37.97529602050781,98.93125915527344,-19.50267028808594
198439,-0.2781982421875,1.063201904296875,0.6669158935546875,1.335370421409607,-0.9318462014198304,-1.274846911430359,38.41201782226562,98.97203063964844,-19.82780456542969
198440,-0.365234375,0.5734710693359375,0.642059326171875,1.335370421409607,-0.9318462014198304,-1.274846911430359,38.41206359863281,98.62513732910156,-19.92286682128906
198441,-0.384552001953125,0.2165679931640625,0.5550537109375,1.69622266292572,-0.7308645844459534,-1.458576560020447,38.24809265136719,98.23141479492188,-20.15411376953125
198442,-0.362762451171875,0.0018463134765625,0.5603485107421875,2.230375289916992,-0.1628759950399399,-1.444445252418518,37.93789672851562,97.87022399902344,-20.63946533203125
198443,-0.3596954345703125,-0.087127685546875,0.4396820068359375,2.230375289916992,-0.1628759950399399,-1.444445252418518,37.41947937011719,97.50286865234376,-21.36250305175781
198444,-0.5178070068359375,-0.31719970703125,0.33953857421875,2.251142978668213,0.2583958804607391,-1.198658227920532,37.01942443847656,97.2078857421875,-22.53129577636719
198445,-0.75750732421875,-0.7363128662109375,0.3390350341796875,2.192718982696533,0.8149871826171875,-0.2994972169399261,36.58694458007812,97.07330322265624,-23.66781616210938
198446,-0.70989990234375,-0.894378662109375,0.469970703125,1.660708069801331,2.297382116317749,0.7046074271202087,36.28956604003906,97.00382995605467,-24.79667663574219
198447,-0.1064910888671875,-0.2718048095703125,-0.037200927734375,0.649067759513855,2.440720558166504,1.197295665740967,36.66252136230469,97.25799560546876,-26.423828125
198448,-0.1064910888671875,-0.2718048095703125,-0.037200927734375,0.649067759513855,2.440720558166504,1.197295665740967,36.66252136230469,97.25799560546876,-26.423828125
198449,-0.1239166259765625,-0.1486968994140625,-0.0413055419921875,0.0727050974965095,1.051066875457764,0.9465084671974182,37.43742370605469,97.29356384277344,-26.89814758300781
198450,-0.1596527099609375,0.008758544921875,0.0294189453125,-0.5700533390045166,-0.3323491811752319,0.5313384532928467,38.27946472167969,97.202880859375,-27.20729064941406
198451,-0.1227569580078125,0.1028900146484375,0.139434814453125,-1.122652053833008,-1.399197340011597,0.1359682232141495,38.90548706054688,97.05575561523438,-27.28433227539062
198452,-0.1227569580078125,0.1028900146484375,0.139434814453125,-1.122652053833008,-1.399197340011597,0.1359682232141495,38.90548706054688,97.05575561523438,-27.28433227539062
198453,0.01959228515625,0.1226959228515625,0.394287109375,-1.962319612503052,-2.751448392868042,-0.1655599325895309,39.15499877929688,97.12370300292967,-26.39225769042969
198454,0.0536651611328125,0.193359375,0.5959625244140625,-2.211930990219116,-2.961222648620605,-0.2081060707569122,38.98793029785156,97.19664001464844,-25.54350280761719
198455,0.058624267578125,0.29473876953125,0.79803466796875,-2.427430629730225,-2.872398376464844,-0.2211544811725616,38.62568664550781,97.16917419433594,-24.28204345703125
198456,0.0646209716796875,0.4188079833984375,0.9742431640625,-2.599909543991089,-2.533090591430664,-0.2432784289121628,38.326904296875,97.21359252929688,-23.01666259765625
198457,0.08514404296875,0.556915283203125,1.119537353515625,-2.676225662231445,-2.036970853805542,-0.3220398128032684,38.02239990234375,97.21533203125,-21.63081359863281
198458,0.0917205810546875,0.6447601318359375,1.180068969726562,-2.733839988708496,-1.312559723854065,-0.4611409902572632,37.84764099121094,97.10247802734376,-20.10726928710938
198459,0.0898895263671875,1.115997314453125,1.074188232421875,-3.041259050369263,0.5442723631858826,-0.1978251934051514,37.42829895019531,97.0934600830078,-17.7052001953125
198460,0.0898895263671875,1.115997314453125,1.074188232421875,-3.041259050369263,0.5442723631858826,-0.1978251934051514,37.42829895019531,97.0934600830078,-17.7052001953125
198461,0.0879974365234375,1.409271240234375,0.9395751953125,-3.292531251907349,1.767072319984436,0.3714129626750946,37.17788696289062,97.08770751953124,-16.64913940429688
198462,0.1002044677734375,1.559310913085938,0.6954498291015625,-3.437466382980347,3.002847909927368,0.7758866548538208,37.09521484375,97.19180297851562,-15.48529052734375
198463,0.1204071044921875,1.612564086914062,0.247161865234375,-3.3580641746521,3.750202894210815,1.043562054634094,37.17439270019531,97.57278442382812,-14.509033203125
198464,0.1204071044921875,1.612564086914062,0.247161865234375,-3.3580641746521,3.750202894210815,1.043562054634094,37.17439270019531,97.57278442382812,-14.509033203125
198465,-0.0009918212890625,1.471542358398438,-2.149063110351562,-1.518207192420959,-2.515925645828247,-0.2318132519721985,37.61427307128906,98.07386779785156,-11.99169921875
198466,-0.088287353515625,0.668914794921875,-0.02008056640625,-0.5396765470504761,-2.341822385787964,-0.7794228196144104,37.7923583984375,98.21662902832033,-10.74247741699219
198467,-0.16644287109375,0.3061981201171875,0.2583465576171875,-0.0803228020668029,0.9128828644752502,-1.008196830749512,37.69760131835938,98.33737182617188,-9.773849487304688
198468,-0.16644287109375,0.3061981201171875,0.2583465576171875,-0.0803228020668029,0.9128828644752502,-1.008196830749512,37.69760131835938,98.33737182617188,-9.773849487304688
198469,-0.11663818359375,0.0109100341796875,-0.278961181640625,-0.2458198815584183,0.9006350040435791,-0.8217548131942749,36.94447326660156,97.84928894042967,-8.865264892578125
198470,-0.0451202392578125,-0.043975830078125,-0.3438262939453125,-0.4680910408496857,0.0652706176042556,-0.314265251159668,36.60414123535156,97.2827606201172,-8.882064819335938
198471,0.0629119873046875,-0.0278778076171875,-0.353973388671875,-0.4680910408496857,0.0652706176042556,-0.314265251159668,36.20474243164062,97.10708618164062,-9.081771850585938
198472,0.0629119873046875,-0.0278778076171875,-0.353973388671875,-0.4680910408496857,0.0652706176042556,-0.314265251159668,36.20474243164062,97.10708618164062,-9.081771850585938
198473,0.21514892578125,-0.0331573486328125,-0.423065185546875,-0.1110114753246307,-0.2895870804786682,0.2275024056434631,35.68788146972656,97.00871276855467,-8.85015869140625
198474,0.268157958984375,-0.0279083251953125,-0.44525146484375,0.0232512596994638,-0.4667988717556,0.4960944354534149,35.524169921875,97.00338745117188,-8.436691284179688
198475,0.3153228759765625,-0.0031585693359375,-0.437408447265625,-0.2759016156196594,-0.6958544254302979,0.8874885439872742,35.51266479492188,97.15315246582033,-8.236679077148438
198476,0.3153228759765625,-0.0031585693359375,-0.437408447265625,-0.2759016156196594,-0.6958544254302979,0.8874885439872742,35.51266479492188,97.15315246582033,-8.236679077148438
198477,0.3766326904296875,0.093505859375,-0.33502197265625,-0.5982562303543091,-0.734853208065033,1.035417079925537,35.71343994140625,97.53631591796876,-7.961074829101562
198478,0.3651580810546875,0.222808837890625,-0.294464111328125,-0.7897364497184753,-0.7562757134437561,1.071348905563354,36.13221740722656,97.58868408203124,-7.601516723632812
198479,0.3512115478515625,0.3576812744140625,-0.2714080810546875,-0.7762272953987122,-0.7700777649879456,0.942335844039917,36.49301147460938,97.68780517578124,-7.042037963867188
198480,0.3512115478515625,0.3576812744140625,-0.2714080810546875,-0.7762272953987122,-0.7700777649879456,0.942335844039917,36.49301147460938,97.68780517578124,-7.042037963867188
198481,0.3504791259765625,0.6053619384765625,-0.2272186279296875,-0.37844318151474,-0.5503923296928406,0.2833222448825836,37.54525756835938,97.83387756347656,-5.88470458984375
198482,0.3080902099609375,0.735107421875,-0.2118988037109375,-0.0998214036226272,-0.3219737708568573,-0.2520008087158203,37.92079162597656,97.86746215820312,-5.253585815429688
198483,0.2076568603515625,0.8387298583984375,-0.3270111083984375,0.1607388108968735,-0.2414368540048599,-0.8390078544616699,38.10748291015625,97.71832275390624,-4.708786010742188
198484,0.0563201904296875,0.844024658203125,-0.543853759765625,0.4520795941352844,-0.581596314907074,-1.311655879020691,38.09237670898438,97.7448272705078,-4.564361572265625
198485,-0.0119781494140625,0.9306640625,-0.730010986328125,0.8143203258514404,-1.208834409713745,-1.744526028633118,37.7392578125,97.77392578125,-4.4173583984375
198486,-0.055023193359375,1.101669311523438,-0.77667236328125,1.203273415565491,-1.557514548301697,-2.144067049026489,37.26235961914062,97.59503173828124,-4.318389892578125
198487,-0.0765533447265625,1.324020385742188,-0.795562744140625,1.568037867546082,-0.0334626175463199,-2.18572998046875,36.62820434570312,97.62539672851562,-4.663787841796875
198488,-0.0765533447265625,1.324020385742188,-0.795562744140625,1.568037867546082,-0.0334626175463199,-2.18572998046875,36.62820434570312,97.62539672851562,-4.663787841796875
198489,-0.0274505615234375,1.715972900390625,-0.8895416259765625,1.250548243522644,0.5761192440986633,-1.794650673866272,35.76992797851562,97.58697509765624,-5.079620361328125
198490,0.061126708984375,2.81842041015625,-0.62017822265625,0.7848522067070007,0.6215245127677917,-1.663020014762878,33.62828063964844,97.79891967773438,-6.205337524414062
198491,0.013458251953125,3.352218627929688,-0.5435028076171875,0.5578097105026245,0.215039074420929,-1.882041811943054,32.54672241210938,97.83355712890624,-6.88299560546875
198492,0.013458251953125,3.352218627929688,-0.5435028076171875,0.5578097105026245,0.215039074420929,-1.882041811943054,32.54672241210938,97.83355712890624,-6.88299560546875
198493,-0.0381011962890625,3.884384155273438,-0.4140167236328125,0.5767599940299988,-0.1850076615810394,-2.071893215179443,31.67286682128906,97.97630310058594,-7.449676513671875
198494,-0.190765380859375,4.36279296875,-0.26776123046875,0.532878041267395,-0.0605656094849109,-1.873920202255249,30.81697082519531,98.03498840332033,-7.802520751953125
198495,-1.41058349609375,4.234939575195312,0.147979736328125,-0.4481769800186157,0.8545540571212769,0.715717613697052,29.27638244628906,97.7768096923828,-8.684494018554688
198496,-1.41058349609375,4.234939575195312,0.147979736328125,-0.4481769800186157,0.8545540571212769,0.715717613697052,29.27638244628906,97.7768096923828,-8.684494018554688
198497,-0.5355987548828125,3.847183227539062,0.42706298828125,-0.0160037335008382,1.197131395339966,1.5511234998703,28.89201354980469,97.7344207763672,-9.145736694335938
198498,-0.118988037109375,2.80389404296875,0.5766754150390625,1.855763912200928,0.6646736264228821,1.637440085411072,29.86201477050781,97.5832061767578,-9.708709716796877
198499,-0.2545318603515625,1.887237548828125,0.5134124755859375,2.472248792648315,0.684110701084137,1.532031655311584,31.65129089355469,97.71450805664062,-11.20597839355469
198500,-0.2545318603515625,1.887237548828125,0.5134124755859375,2.472248792648315,0.684110701084137,1.532031655311584,31.65129089355469,97.71450805664062,-11.20597839355469
198501,-0.1649932861328125,1.518341064453125,0.3501434326171875,2.296501636505127,0.2701265513896942,1.482077956199646,32.52272033691406,97.553955078125,-12.27470397949219
198502,-0.101898193359375,1.21826171875,0.3109283447265625,1.589527606964111,-0.5834311842918396,1.270187735557556,33.26133728027344,97.62060546875,-13.48088073730469
198503,0.126220703125,0.71746826171875,0.2796173095703125,1.2015460729599,-0.9529994130134584,1.300860404968262,34.46646118164062,97.75421142578124,-15.47154235839844
198504,0.126220703125,0.71746826171875,0.2796173095703125,1.2015460729599,-0.9529994130134584,1.300860404968262,34.46646118164062,97.75421142578124,-15.47154235839844
198505,0.268341064453125,0.5649566650390625,0.2626800537109375,0.8733224272727966,-1.359951734542847,1.488003373146057,35.05581665039062,97.87193298339844,-16.06620788574219
198506,0.3902740478515625,0.55633544921875,0.3240966796875,0.6324411034584045,-1.820608258247375,1.726912379264832,35.64892578125,97.72494506835938,-16.31231689453125
198507,0.47186279296875,0.65557861328125,0.49530029296875,0.5097383260726929,-2.067187786102295,1.927277445793152,36.25469970703125,97.71934509277344,-16.63130187988281
198508,0.47186279296875,0.65557861328125,0.49530029296875,0.5097383260726929,-2.067187786102295,1.927277445793152,36.25469970703125,97.71934509277344,-16.63130187988281
198509,0.457672119140625,1.087966918945312,0.974334716796875,0.1303417533636093,-1.720722436904907,1.587129712104797,37.52577209472656,98.12049865722656,-16.82176208496094
198510,0.33258056640625,1.140090942382812,1.161453247070312,-0.1307103484869003,-0.6775739789009094,0.9026811122894288,38.27273559570312,98.20646667480467,-16.53286743164062
198511,0.1443939208984375,0.7571258544921875,0.864166259765625,-0.2542416155338287,0.4181540906429291,0.2523507475852966,38.98184204101562,98.20191955566406,-16.30192565917969
198512,0.1443939208984375,0.7571258544921875,0.864166259765625,-0.2542416155338287,0.4181540906429291,0.2523507475852966,38.98184204101562,98.20191955566406,-16.30192565917969
198513,-0.0935821533203125,0.298126220703125,0.0399932861328125,-0.0473347567021846,-0.2448880523443222,0.2369464933872223,39.8741455078125,98.42019653320312,-16.01774597167969
198514,-0.103240966796875,0.251953125,0.3950958251953125,0.2071720957756042,-0.2209339737892151,0.1378071308135986,40.11585998535156,98.47756958007812,-15.870361328125
198515,-0.0799407958984375,0.174285888671875,0.5168609619140625,0.3131989240646362,0.3939962983131409,0.0282297730445861,40.19535827636719,98.74624633789062,-15.86195373535156
198516,-0.06134033203125,0.0874176025390625,0.4598541259765625,0.2462518513202667,0.9907249212265016,-0.0563626065850257,40.31488037109375,98.77703857421876,-15.81271362304688
198517,-0.0551605224609375,0.0259246826171875,0.3878173828125,0.0362725183367729,1.374899744987488,-0.1348768621683121,40.36192321777344,98.8932647705078,-15.96893310546875
198518,-0.060638427734375,-0.01544189453125,0.3216705322265625,-0.278099536895752,1.533825993537903,-0.2124661952257156,40.40130615234375,98.9002685546875,-16.16288757324219
198519,-0.07073974609375,-0.0446319580078125,0.2581329345703125,-0.6291579604148865,1.481891989707947,-0.3041577637195587,40.43115234375,98.92581176757812,-16.23760986328125
198520,-0.07073974609375,-0.0446319580078125,0.2581329345703125,-0.6291579604148865,1.481891989707947,-0.3041577637195587,40.43115234375,98.92581176757812,-16.23760986328125
198521,-0.1064910888671875,-0.0552215576171875,0.188385009765625,-1.228304266929626,0.8482796549797058,-0.506958544254303,40.44599914550781,98.89558410644533,-16.08627319335938
198522,-0.1321868896484375,-0.028228759765625,0.1823883056640625,-1.435473918914795,0.3824546933174133,-0.6437041163444519,40.34071350097656,98.91862487792967,-15.69903564453125
198523,-0.15576171875,0.0262908935546875,0.1956329345703125,-1.589234232902527,-0.0975167006254196,-0.8031233549118042,40.2528076171875,99.0099639892578,-15.18698120117188
198524,-0.15576171875,0.0262908935546875,0.1956329345703125,-1.589234232902527,-0.0975167006254196,-0.8031233549118042,40.2528076171875,99.0099639892578,-15.18698120117188
198525,-0.1419525146484375,0.222015380859375,0.203033447265625,-1.672193765640259,-0.8728614449501038,-1.116100430488586,39.76499938964844,98.83126831054688,-13.87179565429688
198526,-0.143341064453125,0.3468017578125,0.207672119140625,-1.645326495170593,-1.007709264755249,-1.398731350898743,39.42929077148438,98.61044311523438,-13.07341003417969
198527,-0.094940185546875,0.35467529296875,0.1446685791015625,-1.674366116523743,-1.071681261062622,-1.626428961753845,38.89671325683594,98.45123291015624,-12.15956115722656
198528,-0.094940185546875,0.35467529296875,0.1446685791015625,-1.674366116523743,-1.071681261062622,-1.626428961753845,38.89671325683594,98.45123291015624,-12.15956115722656
198529,0.03857421875,0.2798919677734375,-0.250396728515625,-1.885807037353516,-2.713517665863037,-1.493762493133545,37.70956420898438,98.02305603027344,-10.62709045410156
198530,0.12353515625,0.2475128173828125,-0.44757080078125,-1.885807037353516,-2.713517665863037,-1.493762493133545,37.04876708984375,97.6759033203125,-9.806610107421877
198531,0.18365478515625,0.180084228515625,-0.4900054931640625,-1.598782420158386,-3.381105661392212,-1.26556658744812,36.35560607910156,97.2591552734375,-8.907760620117188
198532,0.18365478515625,0.180084228515625,-0.4900054931640625,-1.598782420158386,-3.381105661392212,-1.26556658744812,36.35560607910156,97.2591552734375,-8.907760620117188
198533,0.161163330078125,-0.050323486328125,-0.4342193603515625,-1.331708908081055,0.2014713287353516,-0.2881164848804474,35.16151428222656,96.7143096923828,-6.8265380859375
198534,0.2757568359375,0.187713623046875,-0.9640655517578124,-0.5939506888389587,0.5631453990936279,-0.0424361415207386,34.79142761230469,96.44303894042967,-5.890426635742188
198535,0.2299652099609375,0.22662353515625,-0.4947967529296875,-0.1615257859230042,0.738429605960846,-0.0301318038254976,34.55924987792969,96.28721618652344,-5.13006591796875
198536,0.244842529296875,0.2789154052734375,-0.4544677734375,-0.1785058230161667,0.8013259768486023,-0.0636921599507331,34.37873840332031,96.12774658203124,-4.422470092773438
198537,0.2763671875,0.360107421875,-0.541473388671875,-0.4132714569568634,0.2998732626438141,-0.0885479748249054,34.29681396484375,96.1061553955078,-4.324859619140625
198538,0.2694854736328125,0.472503662109375,-0.3994293212890625,-0.6784693002700806,-0.3809263110160828,-0.1466381698846817,34.17221069335938,96.09999084472656,-3.958709716796875
198539,0.279083251953125,0.552459716796875,-0.1790008544921875,-0.8385431170463562,-0.7408602237701416,-0.2206122726202011,34.06466674804688,96.11407470703124,-3.86724853515625
198540,0.279083251953125,0.552459716796875,-0.1790008544921875,-0.8385431170463562,-0.7408602237701416,-0.2206122726202011,34.06466674804688,96.11407470703124,-3.86724853515625
198541,0.3954620361328125,0.529632568359375,-0.046875,-0.8101687431335449,-0.9167836308479308,-0.145027756690979,33.98785400390625,96.1366729736328,-3.033050537109375
198542,0.4259490966796875,0.526885986328125,0.017852783203125,-0.6840864419937134,-0.8471086621284485,-0.0303874667733907,34.05819702148438,95.95785522460938,-2.4276123046875
198543,0.4287872314453125,0.5692291259765625,0.0768890380859375,-0.5299229621887207,-0.6206288933753967,0.0613515079021453,34.15640258789062,95.86553955078124,-1.995040893554688
198544,0.4287872314453125,0.5692291259765625,0.0768890380859375,-0.5299229621887207,-0.6206288933753967,0.0613515079021453,34.15640258789062,95.86553955078124,-1.995040893554688
198545,0.313323974609375,0.8906707763671875,0.01641845703125,-0.2960918545722961,-0.1439992487430573,-0.2398557364940643,34.34359741210938,95.8190460205078,-1.114105224609375
198546,0.1761627197265625,0.987213134765625,-0.137481689453125,-0.1650693863630295,-0.2147477269172668,-0.4900325536727905,34.2501220703125,95.69294738769533,-0.7688751220703125
198547,0.076934814453125,1.095626831054688,-0.34344482421875,0.0602835789322853,-0.5445053577423096,-0.7497711777687073,34.17658996582031,95.53375244140624,-0.683197021484375
198548,0.076934814453125,1.095626831054688,-0.34344482421875,0.0602835789322853,-0.5445053577423096,-0.7497711777687073,34.17658996582031,95.53375244140624,-0.683197021484375
198549,0.19000244140625,1.287445068359375,-0.2956695556640625,0.6116085052490234,-0.9413076043128968,-0.8780809640884399,33.70945739746094,95.52413940429688,-0.2887725830078125
198550,0.363006591796875,1.331329345703125,-0.146820068359375,0.7619823217391968,-0.5391292572021484,-0.3885224461555481,33.37489318847656,95.45913696289062,-0.18292236328125
198551,0.5781402587890625,1.449874877929688,-0.1425018310546875,0.7979704141616821,-0.0981939435005188,0.2407481670379639,33.14370727539062,95.39169311523438,-0.3144378662109375
198552,0.5781402587890625,1.449874877929688,-0.1425018310546875,0.7979704141616821,-0.0981939435005188,0.2407481670379639,33.14370727539062,95.39169311523438,-0.3144378662109375
198553,0.7061614990234375,1.950836181640625,-0.367401123046875,0.8252925872802734,0.0457855984568595,1.086061000823975,33.39900207519531,95.49801635742188,-0.660430908203125
198554,0.5889739990234375,2.420608520507812,-0.4759979248046875,1.029171705245972,0.2248552143573761,1.166540145874023,33.68643188476562,95.86143493652344,-1.0009765625
198555,0.3283233642578125,2.967758178710938,-0.489898681640625,1.346829533576965,0.9884082674980164,0.9468482732772828,34.05517578125,96.42242431640624,-1.225250244140625
198556,0.3283233642578125,2.967758178710938,-0.489898681640625,1.346829533576965,0.9884082674980164,0.9468482732772828,34.05517578125,96.42242431640624,-1.225250244140625
198557,-0.4523468017578125,4.074172973632812,-0.56915283203125,1.765563368797302,2.410417079925537,-0.8674261569976807,34.35073852539062,97.42037963867188,-2.77215576171875
198558,-0.696563720703125,4.5518798828125,-0.6694793701171875,1.718715786933899,2.17256498336792,-2.139339923858643,34.12089538574219,97.60873413085938,-3.93438720703125
198559,-0.8274993896484375,4.648086547851562,-0.5664825439453125,1.514064073562622,1.81393039226532,-3.05234432220459,33.2919921875,97.6409149169922,-5.47955322265625
198560,-0.9383392333984376,3.939849853515625,-0.425018310546875,1.393125414848328,1.667110562324524,-2.947569608688354,32.19541931152344,97.41429138183594,-7.0360107421875
198561,-1.312881469726562,2.440963745117188,-0.3486480712890625,1.485236406326294,1.98560631275177,-1.303771257400513,30.89468383789062,96.97453308105467,-8.416656494140625
198562,-0.6441650390625,1.432998657226562,-0.471771240234375,1.920297026634216,2.058715105056763,0.3899078071117401,29.97712707519531,96.5652313232422,-9.789993286132812
198563,-0.027679443359375,1.117507934570312,-0.3566131591796875,3.038970947265625,0.9076236486434937,1.406974911689758,29.59150695800781,96.30656433105467,-10.99224853515625
198564,-0.027679443359375,1.117507934570312,-0.3566131591796875,3.038970947265625,0.9076236486434937,1.406974911689758,29.59150695800781,96.30656433105467,-10.99224853515625
198565,-0.0343475341796875,0.81427001953125,0.22552490234375,3.252528667449951,1.049310803413391,1.334431171417236,30.09288024902344,96.6510772705078,-13.77262878417969
198566,-0.0114898681640625,0.7003173828125,0.03521728515625,3.073407173156738,0.8564568758010864,1.221889972686768,30.63722229003906,96.84194946289062,-15.29444885253906
198567,-0.0408477783203125,0.6585540771484375,-0.0592041015625,2.605889797210693,0.3230776488780975,0.9872508645057678,31.17756652832031,96.87181091308594,-16.76605224609375
198568,-0.0408477783203125,0.6585540771484375,-0.0592041015625,2.605889797210693,0.3230776488780975,0.9872508645057678,31.17756652832031,96.87181091308594,-16.76605224609375
198569,0.046600341796875,0.9040069580078124,0.4173431396484375,1.077181816101074,0.2353278249502182,0.0448090173304081,31.99830627441406,97.03216552734376,-19.30389404296875
198570,0.09552001953125,1.187103271484375,0.660186767578125,0.4030566513538361,0.9916863441467284,-0.2367725968360901,32.20330810546875,97.0445556640625,-19.926513671875
198571,0.0384063720703125,1.44488525390625,0.704437255859375,0.0300548374652862,1.760015487670898,-0.4339429140090942,32.20320129394531,97.03314208984376,-20.47061157226562
198572,0.0384063720703125,1.44488525390625,0.704437255859375,0.0300548374652862,1.760015487670898,-0.4339429140090942,32.20320129394531,97.03314208984376,-20.47061157226562
198573,-0.3354644775390625,1.447006225585938,0.5152435302734375,0.0869189202785491,1.915412068367004,-0.5882302522659302,32.16461181640625,97.08383178710938,-21.23844909667969
198574,-0.4737091064453125,1.212310791015625,0.3383636474609375,0.3987764120101929,1.228140115737915,-0.6334555149078369,32.21965026855469,96.97914123535156,-21.6287841796875
198575,-0.501220703125,0.9299774169921876,0.258575439453125,0.6676329374313354,0.3843202292919159,-0.7180904746055603,32.1932373046875,96.7913818359375,-22.04180908203125
198576,-0.501220703125,0.9299774169921876,0.258575439453125,0.6676329374313354,0.3843202292919159,-0.7180904746055603,32.1932373046875,96.7913818359375,-22.04180908203125
198577,-0.415283203125,0.5585479736328125,0.3644866943359375,0.6035380959510803,-0.4892791509628296,-0.9478216767311096,31.91171264648438,96.34100341796876,-22.53028869628906
198578,-0.4249725341796875,0.415283203125,0.4240264892578125,0.3225207924842834,-0.4443990290164948,-1.037710547447205,31.53591918945312,96.32179260253906,-22.84294128417969
198579,-0.477874755859375,0.252899169921875,0.451263427734375,-0.0329275913536548,-0.2149485200643539,-1.004182934761047,31.12350463867188,96.25665283203124,-22.86445617675781
198580,-0.477874755859375,0.252899169921875,0.451263427734375,-0.0329275913536548,-0.2149485200643539,-1.004182934761047,31.12350463867188,96.25665283203124,-22.86445617675781
198581,-0.4830474853515625,0.0648193359375,0.3981781005859375,-0.616795003414154,-0.0161209125071764,-0.8341840505599976,30.33755493164062,95.89675903320312,-22.5068359375
198582,-0.4877777099609375,0.01495361328125,0.4178619384765625,-0.724981427192688,-0.1160267367959023,-0.8226829171180725,30.022705078125,95.61068725585938,-22.02113342285156
198583,-0.498291015625,-0.0126953125,0.4311981201171875,-0.8306434154510498,-0.2375371903181076,-0.8505966067314148,29.61349487304688,95.60035705566406,-21.61167907714844
198584,-0.498291015625,-0.0126953125,0.4311981201171875,-0.8306434154510498,-0.2375371903181076,-0.8505966067314148,29.61349487304688,95.60035705566406,-21.61167907714844
198585,-0.4954071044921875,0.017425537109375,0.4620208740234375,-1.195510625839233,-0.3101394772529602,-0.9679954051971436,28.90196228027344,95.3918914794922,-20.56283569335938
198586,-0.4613800048828125,0.085296630859375,0.4154052734375,-1.461072206497192,-0.298351526260376,-1.053482890129089,28.49258422851562,95.24456787109376,-20.16796875
198587,-0.387725830078125,0.1497039794921875,0.3154449462890625,-1.72172749042511,-0.5109700560569763,-1.150382280349731,28.07022094726562,95.1393585205078,-19.61868286132812
198588,-0.387725830078125,0.1497039794921875,0.3154449462890625,-1.72172749042511,-0.5109700560569763,-1.150382280349731,28.07022094726562,95.1393585205078,-19.61868286132812
198589,-0.1891632080078125,0.1858367919921875,0.1186981201171875,-2.013756990432739,-1.355931401252747,-1.321792840957642,27.30511474609375,94.92323303222656,-18.13131713867188
198590,-0.1115875244140625,0.17138671875,0.0684967041015625,-2.103471040725708,-1.795254468917847,-1.337177395820618,26.83039855957031,94.60235595703124,-17.18006896972656
198591,-0.062591552734375,0.16204833984375,0.032501220703125,-2.36417031288147,-2.554966926574707,-1.308652281761169,26.33306884765625,94.3400421142578,-16.12025451660156
198592,-0.062591552734375,0.16204833984375,0.032501220703125,-2.36417031288147,-2.554966926574707,-1.308652281761169,26.33306884765625,94.3400421142578,-16.12025451660156
198593,-0.0080108642578125,0.1602630615234375,-0.0179290771484375,-2.844827651977539,-3.209672927856445,-1.172537922859192,25.61148071289062,93.38136291503906,-13.49647521972656
198594,-0.020904541015625,0.207916259765625,-0.0292816162109375,-2.844827651977539,-3.209672927856445,-1.172537922859192,25.21572875976562,92.85208129882812,-11.84364318847656
198595,-0.022491455078125,0.2960357666015625,0.007080078125,-3.185234069824219,-3.468139886856079,-1.037229895591736,24.999755859375,92.13565063476562,-10.11625671386719
198596,-0.022491455078125,0.2960357666015625,0.007080078125,-3.185234069824219,-3.468139886856079,-1.037229895591736,24.999755859375,92.13565063476562,-10.11625671386719
198597,0.384307861328125,0.620086669921875,-0.8367462158203125,-3.16026782989502,-1.305367588996887,0.3130316734313965,24.80801391601562,90.41783142089844,-6.15374755859375
198598,0.6074676513671875,0.9401702880859376,-2.018524169921875,-0.9619761109352112,-2.505857944488525,1.000424742698669,24.76158142089844,90.07192993164062,-4.287521362304688
198599,0.2645721435546875,0.756866455078125,-0.3909454345703125,0.7961176633834839,1.228784918785095,0.4801106750965118,24.78392028808594,90.189453125,-2.746780395507812
198600,0.2645721435546875,0.756866455078125,-0.3909454345703125,0.7961176633834839,1.228784918785095,0.4801106750965118,24.78392028808594,90.189453125,-2.746780395507812
198601,0.113555908203125,0.36175537109375,-0.40106201171875,0.5011011958122253,1.163580656051636,0.2809477746486664,25.18792724609375,90.84498596191406,-1.567047119140625
198602,0.14520263671875,0.3191375732421875,-0.4591064453125,0.0507579855620861,0.30652716755867,0.2027565687894821,25.38752746582031,90.85856628417967,-1.842147827148438
198603,0.1802825927734375,0.3834686279296875,-0.479736328125,-0.5630527138710022,-0.7093132138252258,0.2254019677639008,25.53245544433594,90.99569702148438,-2.390335083007812
198604,0.1802825927734375,0.3834686279296875,-0.479736328125,-0.5630527138710022,-0.7093132138252258,0.2254019677639008,25.53245544433594,90.99569702148438,-2.390335083007812
198605,0.2278900146484375,0.6264801025390625,-0.3535003662109375,-0.44740891456604,-0.4444869160652161,0.3561160266399384,25.65620422363281,91.0605926513672,-2.23834228515625
198606,0.21148681640625,0.7297210693359375,-0.2471923828125,-0.1949665546417236,-0.0003422161971684,0.4779362082481384,25.78132629394531,91.0946044921875,-1.66015625
198607,0.1835479736328125,0.8068695068359375,-0.2161865234375,0.0036402747500687,0.1473737359046936,0.5095585584640503,25.84556579589844,91.2423858642578,-1.622589111328125
198608,0.1661376953125,0.87188720703125,-0.1466522216796875,0.1239155530929565,0.0142814675346016,0.5300934314727783,25.95646667480469,91.3946533203125,-1.719024658203125
198609,0.1607818603515625,0.948974609375,-0.0403289794921875,0.351285845041275,-0.0097652785480022,0.6478176712989807,26.13420104980469,91.34123229980467,-1.7427978515625
198610,0.1662139892578125,1.076797485351562,0.0273590087890625,0.351285845041275,-0.0097652785480022,0.6478176712989807,26.32344055175781,91.50148010253906,-1.816970825195312
198611,0.1768035888671875,1.263778686523438,0.0019989013671875,0.5892531275749207,0.1472126245498657,0.6195719242095947,26.49757385253906,91.70252990722656,-1.83892822265625
198612,0.1768035888671875,1.263778686523438,0.0019989013671875,0.5892531275749207,0.1472126245498657,0.6195719242095947,26.49757385253906,91.70252990722656,-1.83892822265625
198613,0.2029876708984375,1.715118408203125,0.0295562744140625,0.5197747349739075,0.0592907555401325,0.561585009098053,26.84675598144531,92.0597686767578,-2.349929809570312
198614,0.247161865234375,1.919036865234375,0.329498291015625,0.2955134212970734,0.1062316298484802,0.5731402039527893,27.01065063476562,92.2313232421875,-2.617599487304688
198615,0.3544921875,2.176651000976562,0.5642852783203125,0.0975169688463211,0.1511794030666351,0.8114699721336365,27.17195129394531,92.44911193847656,-2.917221069335938
198616,0.3544921875,2.176651000976562,0.5642852783203125,0.0975169688463211,0.1511794030666351,0.8114699721336365,27.17195129394531,92.44911193847656,-2.917221069335938
198617,0.660186767578125,3.599258422851562,0.6838836669921875,0.773777186870575,-0.926350235939026,1.699192881584167,27.44175720214844,92.94818115234376,-3.163162231445312
198618,0.7079010009765625,4.3878173828125,1.010513305664062,1.296588182449341,-1.134935617446899,1.964043974876404,27.75799560546875,93.35340881347656,-3.298095703125
198619,0.5737762451171875,4.889892578125,1.38800048828125,1.381619453430176,-0.5553545951843262,1.844044923782349,28.28311157226562,94.025146484375,-3.646713256835938
198620,0.5737762451171875,4.889892578125,1.38800048828125,1.381619453430176,-0.5553545951843262,1.844044923782349,28.28311157226562,94.025146484375,-3.646713256835938
198621,-0.1505279541015625,3.83642578125,1.451431274414062,-0.0685047581791877,1.152552485466003,-0.6044691205024719,29.82098388671875,95.2642059326172,-4.551651000976562
198622,-0.378570556640625,3.0382080078125,1.243560791015625,-0.5690014362335205,1.980390429496765,-1.512051820755005,30.31660461425781,95.5222625732422,-4.793807983398438
198623,-0.715789794921875,1.656402587890625,0.28564453125,0.3283562958240509,1.098146796226501,-2.109241962432861,30.10871887207031,94.96250915527344,-5.130233764648438
198624,-0.715789794921875,1.656402587890625,0.28564453125,0.3283562958240509,1.098146796226501,-2.109241962432861,30.10871887207031,94.96250915527344,-5.130233764648438
198625,-0.8366241455078125,1.2216796875,0.12017822265625,1.244128227233887,0.0627621859312057,-2.312269926071167,29.70002746582031,94.29396057128906,-5.289993286132812
198626,-1.009628295898438,0.773773193359375,0.1753387451171875,1.863636493682861,-0.6083211302757263,-2.069475650787354,29.08349609375,93.880859375,-5.781158447265625
198627,-1.53692626953125,0.08154296875,0.1776580810546875,1.115565657615662,0.7010835409164429,0.9629039764404296,28.44703674316406,93.48765563964844,-6.435165405273438
198628,-1.53692626953125,0.08154296875,0.1776580810546875,1.115565657615662,0.7010835409164429,0.9629039764404296,28.44703674316406,93.48765563964844,-6.435165405273438
198629,-0.2929534912109375,0.9029998779296876,-0.7684783935546875,0.8588252067565918,-0.788568913936615,0.9485005140304564,27.73873901367188,92.94041442871094,-8.134597778320312
198630,-0.1881561279296875,0.99700927734375,0.17095947265625,0.9619699716567992,-1.051738500595093,0.6766455769538879,27.98251342773438,92.97557067871094,-8.740509033203125
198631,-0.0649566650390625,0.88134765625,0.4037017822265625,1.088940978050232,-0.6139321327209473,0.4924461841583252,28.31826782226562,92.89248657226562,-8.947280883789062
198632,0.0239105224609375,0.7202606201171875,0.3036346435546875,1.471821546554565,0.2769895195960999,0.3546920418739319,28.69163513183594,92.94367980957033,-9.183013916015623
198633,0.0148468017578125,0.6149749755859375,0.139862060546875,1.471821546554565,0.2769895195960999,0.3546920418739319,28.85466003417969,93.02835083007812,-9.37506103515625
198634,-0.0907440185546875,0.6052398681640625,0.0078125,1.607141256332397,0.4052841067314148,0.1380952894687653,28.89906311035156,93.22760009765624,-9.701675415039062
198635,-0.1979827880859375,0.57415771484375,-0.00421142578125,1.52312707901001,0.4283880889415741,-0.2167512178421021,28.82977294921875,93.37026977539062,-10.33193969726562
198636,-0.345611572265625,0.49749755859375,-0.0090179443359375,1.219907760620117,0.4626568555831909,-0.4989400207996368,28.75822448730469,93.62229919433594,-11.09159851074219
198637,-0.478057861328125,0.3946533203125,-0.048858642578125,0.8223646879196167,0.510691225528717,-0.6571429967880249,28.62091064453125,93.62556457519533,-11.85733032226562
198638,-0.5567169189453125,0.30572509765625,-0.0887908935546875,0.4652014970779419,0.5723154544830322,-0.7121609449386597,28.31272888183594,93.6444091796875,-12.51087951660156
198639,-0.5919036865234375,0.2280120849609375,-0.1681365966796875,0.4652014970779419,0.5723154544830322,-0.7121609449386597,28.00950622558594,93.4272918701172,-13.10362243652344
198640,-0.5919036865234375,0.2280120849609375,-0.1681365966796875,0.4652014970779419,0.5723154544830322,-0.7121609449386597,28.00950622558594,93.4272918701172,-13.10362243652344
198641,-0.501922607421875,0.234130859375,-0.1751251220703125,0.6341186165809631,0.0389322191476821,-0.5946210026741028,27.44587707519531,93.09921264648438,-13.64971923828125
198642,-0.4038848876953125,0.33404541015625,-0.036224365234375,0.54864901304245,-0.0320831015706062,-0.6104567050933838,27.25393676757812,92.93960571289062,-13.92611694335938
198643,-0.283172607421875,0.4154205322265625,0.04833984375,0.3627561032772064,-0.0314407460391521,-0.6118341088294983,27.02085876464844,92.72444152832033,-14.15789794921875
198644,-0.283172607421875,0.4154205322265625,0.04833984375,0.3627561032772064,-0.0314407460391521,-0.6118341088294983,27.02085876464844,92.72444152832033,-14.15789794921875
198645,-0.038299560546875,0.4576568603515625,0.171295166015625,0.370927482843399,-0.0345513187348842,-0.5162169933319092,26.37532043457031,92.77598571777344,-14.73934936523438
198646,0.0269622802734375,0.433807373046875,0.2224578857421875,0.4445628225803375,-0.0186538454145193,-0.3422955572605133,26.14543151855469,92.74188232421876,-14.75025939941406
198647,0.043487548828125,0.4569549560546875,0.25262451171875,0.5572667121887207,-0.0132545530796051,-0.2074727714061737,25.9798583984375,92.81614685058594,-14.90458679199219
198648,0.043487548828125,0.4569549560546875,0.25262451171875,0.5572667121887207,-0.0132545530796051,-0.2074727714061737,25.9798583984375,92.81614685058594,-14.90458679199219
198649,0.0172119140625,0.48248291015625,0.296295166015625,0.628744900226593,-0.2590904235839844,-0.1409488618373871,25.79920959472656,92.99981689453124,-15.16560363769531
198650,-0.064178466796875,0.4783782958984375,0.3619842529296875,0.4128389656543732,-0.5782420635223389,-0.3008517026901245,25.75958251953125,93.22492980957033,-15.31423950195312
198651,-0.191558837890625,0.4749908447265625,0.4516143798828125,-0.6866422891616821,-1.286980032920837,-0.5382328629493713,25.80538940429688,93.19915771484376,-15.40286254882812
198652,-0.191558837890625,0.4749908447265625,0.4516143798828125,-0.6866422891616821,-1.286980032920837,-0.5382328629493713,25.80538940429688,93.19915771484376,-15.40286254882812
198653,-0.1939239501953125,0.388519287109375,0.4913787841796875,-1.874663472175598,-2.242056608200073,-0.5349254608154297,25.758544921875,92.9911651611328,-15.3035888671875
198654,-0.1939239501953125,0.388519287109375,0.4913787841796875,-1.874663472175598,-2.242056608200073,-0.5349254608154297,25.758544921875,92.9911651611328,-15.3035888671875
198655,-0.0425872802734375,0.2814483642578125,0.4419708251953125,-2.346638441085815,-3.026191234588623,-0.514355480670929,25.75230407714844,92.55967712402344,-13.80256652832031
198656,-0.0425872802734375,0.2814483642578125,0.4419708251953125,-2.346638441085815,-3.026191234588623,-0.514355480670929,25.75230407714844,92.55967712402344,-13.80256652832031
198657,0.0123291015625,0.1980438232421875,0.4036865234375,-2.360389471054077,-3.159586906433105,-0.5245806574821472,25.86143493652344,91.91902160644533,-10.90589904785156
198658,0.013092041015625,0.1385040283203125,0.3573760986328125,-2.291409969329834,-3.052709817886353,-0.5406134128570557,26.0274658203125,91.39068603515624,-8.983108520507812
198659,0.0211029052734375,0.107513427734375,0.30780029296875,-2.205667734146118,-2.758021354675293,-0.5274243950843811,26.26693725585938,90.8321533203125,-7.121841430664062
198660,0.0211029052734375,0.107513427734375,0.30780029296875,-2.205667734146118,-2.758021354675293,-0.5274243950843811,26.26693725585938,90.8321533203125,-7.121841430664062
198661,0.1062469482421875,0.1168060302734375,0.1402435302734375,-1.909990310668945,-1.148907899856567,-0.2371547669172287,26.35884094238281,90.01579284667969,-3.885421752929688
198662,0.19818115234375,0.1320648193359375,-0.8265380859375,-1.003962397575378,-1.194171786308289,0.1408724337816238,26.23362731933594,89.87513732910156,-2.51141357421875
198663,0.1922760009765625,0.23443603515625,-1.276870727539062,2.119523525238037,-0.7927119731903076,0.5335491299629211,26.03901672363281,89.86076354980469,-1.385147094726562
198664,0.1922760009765625,0.23443603515625,-1.276870727539062,2.119523525238037,-0.7927119731903076,0.5335491299629211,26.03901672363281,89.86076354980469,-1.385147094726562
198665,-0.037353515625,0.1697845458984375,-0.25665283203125,2.054543495178223,1.986479759216309,0.4931924045085907,25.87602233886719,90.68954467773438,-0.13690185546875
198666,0.1417999267578125,0.2411346435546875,-1.013076782226562,1.30528736114502,1.728764891624451,0.5584009885787964,25.96638488769531,91.04832458496094,-0.274993896484375
198667,0.201324462890625,0.31866455078125,-0.7071990966796875,0.2948982119560242,0.1029692590236664,0.6811410188674927,25.93487548828125,91.46116638183594,-1.277618408203125
198668,0.201324462890625,0.31866455078125,-0.7071990966796875,0.2948982119560242,0.1029692590236664,0.6811410188674927,25.93487548828125,91.46116638183594,-1.277618408203125
198669,0.08074951171875,0.5864410400390625,-0.165771484375,-1.193681836128235,-0.8278646469116211,0.6157441735267639,26.1192626953125,91.7407684326172,-2.83270263671875
198670,0.09521484375,0.736968994140625,-0.36865234375,-1.248119235038757,-0.9886138439178468,0.4421675503253937,26.29351806640625,91.84384155273438,-2.510055541992188
198671,0.126708984375,0.8922882080078125,-0.364654541015625,-0.7336979508399963,-1.061918139457703,0.3259807825088501,26.5692138671875,91.77658081054688,-1.832305908203125
198672,0.126708984375,0.8922882080078125,-0.364654541015625,-0.7336979508399963,-1.061918139457703,0.3259807825088501,26.5692138671875,91.77658081054688,-1.832305908203125
198673,0.20745849609375,1.260147094726562,-0.1991119384765625,0.9207021594047546,-0.2710320353507996,0.4025256037712097,26.91604614257812,91.68385314941406,-0.2050018310546875
198674,0.216339111328125,1.538345336914062,-0.20196533203125,1.299795985221863,0.1619462966918945,0.4402807056903839,27.16549682617188,91.67002868652344,0.1059417724609375
198675,0.2049102783203125,1.955459594726562,-0.4221038818359375,0.8484951257705688,-0.3824291229248047,0.0329765900969505,27.1915283203125,91.85372924804688,0.0147705078125
198676,0.2087860107421875,2.420211791992188,-0.6053466796875,0.8484951257705688,-0.3824291229248047,0.0329765900969505,27.0947265625,92.09890747070312,-0.376983642578125
198677,0.2087860107421875,2.420211791992188,-0.6053466796875,0.8484951257705688,-0.3824291229248047,0.0329765900969505,27.0947265625,92.09890747070312,-0.376983642578125
198678,0.2278289794921875,2.693893432617188,-0.4803619384765625,0.2778465151786804,-0.533255398273468,-0.170058012008667,27.11981201171875,92.2983856201172,-1.029922485351562
198679,0.2648468017578125,3.276046752929688,0.1191253662109375,0.4609558880329132,0.3181255161762238,0.8225162029266357,26.71170043945312,92.57902526855467,-1.604049682617188
198680,0.2648468017578125,3.276046752929688,0.1191253662109375,0.4609558880329132,0.3181255161762238,0.8225162029266357,26.71170043945312,92.57902526855467,-1.604049682617188
198681,0.2648468017578125,3.276046752929688,0.1191253662109375,0.4609558880329132,0.3181255161762238,0.8225162029266357,26.71170043945312,92.57902526855467,-1.604049682617188
198682,0.02508544921875,3.869064331054688,0.2970123291015625,1.297542691230774,0.4301276803016663,1.377495884895325,26.89657592773438,92.90139770507812,-1.936004638671875
198683,-0.1540374755859375,3.910552978515625,0.3262939453125,1.558178782463074,0.9169636368751526,1.057753801345825,27.08880615234375,93.3942413330078,-2.313186645507812
198684,-0.3387603759765625,3.758895874023438,0.3182220458984375,1.557551860809326,1.556062936782837,0.4176726043224335,27.58184814453125,94.12614440917967,-3.0692138671875
198685,-0.4819793701171875,3.458541870117188,0.3396453857421875,1.312501430511475,1.871327638626099,-0.3710108399391174,27.87678527832031,94.73106384277344,-3.904861450195312
198686,-0.60638427734375,2.908767700195312,0.3905487060546875,1.092921376228333,1.919878721237183,-1.00869357585907,28.15762329101562,95.07940673828124,-4.713211059570312
198687,-0.8346405029296875,2.226516723632812,0.39306640625,1.020366191864014,1.945755839347839,-1.073691964149475,28.1707763671875,95.34249877929688,-5.926849365234375
198688,-0.8346405029296875,2.226516723632812,0.39306640625,1.020366191864014,1.945755839347839,-1.073691964149475,28.1707763671875,95.34249877929688,-5.926849365234375
198689,-0.8931732177734375,1.233078002929688,0.1807098388671875,1.263989806175232,1.723262310028076,-0.0862270295619964,27.899169921875,94.87588500976562,-8.169036865234375
198690,-0.79742431640625,0.9610748291015624,0.1371612548828125,1.285455107688904,1.148955345153809,0.2850264012813568,27.86758422851562,94.53263854980467,-9.134902954101562
198691,-0.6540069580078125,0.780303955078125,0.105194091796875,1.102501511573792,0.045007687062025,0.4921700060367584,27.97117614746094,94.38497924804688,-9.988052368164062
198692,-0.6540069580078125,0.780303955078125,0.105194091796875,1.102501511573792,0.045007687062025,0.4921700060367584,27.97117614746094,94.38497924804688,-9.988052368164062
198693,-0.355682373046875,0.540679931640625,0.20977783203125,1.007853031158447,-0.0985625237226486,0.5193787217140198,28.27655029296875,94.26300048828124,-11.44979858398438
198694,-0.239654541015625,0.4462432861328125,0.150543212890625,0.9329301118850708,-0.1075203344225883,0.533859133720398,28.3992919921875,94.29478454589844,-12.02191162109375
198695,-0.1284332275390625,0.3909149169921875,0.091339111328125,0.9081112742424012,-0.0495582334697246,0.5245340466499329,28.5670166015625,94.43170166015624,-12.47007751464844
198696,-0.1284332275390625,0.3909149169921875,0.091339111328125,0.9081112742424012,-0.0495582334697246,0.5245340466499329,28.5670166015625,94.43170166015624,-12.47007751464844
198697,-0.0343780517578125,0.3619232177734375,0.0474700927734375,0.9307599067687988,0.0636037439107894,0.4704372882843018,28.78279113769531,94.49954223632812,-12.86363220214844
198698,0.0638275146484375,0.3507537841796875,-0.041778564453125,1.016409516334534,0.0495755411684513,0.1943657547235489,29.07926940917969,94.50364685058594,-13.21205139160156
198699,0.1344146728515625,0.408111572265625,-0.0898895263671875,0.9628035426139832,-0.3908883929252625,-0.1082052960991859,29.19610595703125,94.72210693359376,-14.03817749023438
198700,0.1344146728515625,0.408111572265625,-0.0898895263671875,0.9628035426139832,-0.3908883929252625,-0.1082052960991859,29.19610595703125,94.72210693359376,-14.03817749023438
198701,0.16522216796875,0.3955078125,-0.080596923828125,0.8280481696128845,-0.630020022392273,-0.1635279506444931,29.00173950195312,94.8996124267578,-14.73309326171875
198702,0.1689300537109375,0.350860595703125,-0.084625244140625,0.4244479537010193,-0.9309039711952208,-0.236515074968338,29.00173950195312,94.8996124267578,-14.73309326171875
198703,0.14398193359375,0.34320068359375,-0.136138916015625,0.4244479537010193,-0.9309039711952208,-0.236515074968338,28.8663330078125,95.07533264160156,-15.05319213867188
198704,0.14398193359375,0.34320068359375,-0.136138916015625,0.4244479537010193,-0.9309039711952208,-0.236515074968338,28.8663330078125,95.07533264160156,-15.05319213867188
198705,-0.0620880126953125,0.419464111328125,-0.1854095458984375,0.1588442474603653,-1.005333185195923,-0.5402951836585999,28.43040466308594,95.06657409667967,-14.84317016601562
198706,-0.170257568359375,0.5208892822265625,-0.1269073486328125,0.0755331069231033,-0.9031772613525392,-0.5473171472549438,28.21711730957031,95.0491943359375,-14.77322387695312
198707,-0.198883056640625,0.613677978515625,0.015899658203125,0.0176554266363382,-0.6924024224281311,-0.5123357176780701,27.93423461914062,95.13427734375,-14.753173828125
198708,-0.168121337890625,0.692901611328125,0.174713134765625,-0.0302569717168808,-0.4145902693271637,-0.4107119143009186,27.78593444824219,94.95127868652344,-14.64755249023438
198709,-0.15008544921875,0.795013427734375,0.3436737060546875,-0.0786966755986213,-0.1315212696790695,-0.2861649096012115,27.72993469238281,94.92922973632812,-14.52896118164062
198710,-0.17315673828125,0.8768157958984375,0.4526824951171875,-0.0845055654644966,0.0374613553285598,-0.2030939906835556,27.70590209960938,94.81930541992188,-14.3001708984375
198711,-0.2436676025390625,0.9068756103515624,0.486541748046875,-0.0045633264817297,-0.1527410745620728,-0.2125940173864365,27.81021118164062,94.75570678710938,-14.32942199707031
198712,-0.2436676025390625,0.9068756103515624,0.486541748046875,-0.0045633264817297,-0.1527410745620728,-0.2125940173864365,27.81021118164062,94.75570678710938,-14.32942199707031
198713,-0.38726806640625,0.818115234375,0.5351715087890625,-0.3084135055541992,-1.290938854217529,-0.5287421345710754,27.874267578125,94.55076599121094,-13.99957275390625
198714,-0.4076080322265625,0.7107086181640625,0.605743408203125,-0.8378880023956299,-1.772839188575745,-0.7399790287017822,27.9716796875,94.43438720703124,-13.8590087890625
198715,-0.429962158203125,0.5425872802734375,0.6984100341796875,-1.331391930580139,-1.731504201889038,-0.9100181460380554,27.74916076660156,94.2745361328125,-13.35163879394531
198716,-0.429962158203125,0.5425872802734375,0.6984100341796875,-1.331391930580139,-1.731504201889038,-0.9100181460380554,27.74916076660156,94.2745361328125,-13.35163879394531
198717,-0.3524627685546875,0.2137298583984375,0.5226593017578125,-1.702560424804688,-0.6688454747200012,-0.8164793848991394,27.35285949707031,93.85287475585938,-11.49319458007812
198718,-0.297760009765625,0.1511383056640625,0.327667236328125,-1.683590292930603,-0.2231968641281128,-0.7509211301803589,27.05342102050781,93.6863250732422,-10.43962097167969
198719,-0.2410430908203125,0.1138153076171875,0.11895751953125,-1.63975989818573,-0.0866739079356193,-0.7438648343086243,26.81875610351562,93.46524047851562,-9.6435546875
198720,-0.2410430908203125,0.1138153076171875,0.11895751953125,-1.63975989818573,-0.0866739079356193,-0.7438648343086243,26.81875610351562,93.46524047851562,-9.6435546875
198721,-0.10107421875,-0.0652618408203125,-0.5489959716796875,-1.666430115699768,-1.195169925689697,-0.7191464304924011,26.34654235839844,92.89801025390624,-8.059967041015625
198722,-0.0290374755859375,-0.1400146484375,-0.58026123046875,-1.791159629821777,-2.01331615447998,-0.6158461570739746,26.14683532714844,92.49040222167967,-7.261962890625
198723,0.0001983642578125,-0.167633056640625,-0.41326904296875,-1.881901144981384,-2.086319923400879,-0.4433926045894623,26.05262756347656,92.11192321777344,-6.097152709960938
198724,0.0001983642578125,-0.167633056640625,-0.41326904296875,-1.881901144981384,-2.086319923400879,-0.4433926045894623,26.05262756347656,92.11192321777344,-6.097152709960938
198725,0.1023101806640625,-0.1494140625,-0.41290283203125,-1.352603316307068,-1.726455926895142,0.0653382614254951,25.96684265136719,91.36997985839844,-3.704193115234375
198726,0.086883544921875,-0.0661163330078125,-0.2719268798828125,-0.8831827640533447,-1.248841166496277,0.3249754309654236,25.95506286621094,91.2260284423828,-2.6717529296875
198727,0.0538482666015625,0.0335845947265625,-0.1483612060546875,-0.4668129980564117,-0.3924508690834045,0.4435587823390961,26.19480895996094,91.23843383789062,-1.81475830078125
198728,0.0538482666015625,0.0335845947265625,-0.1483612060546875,-0.4668129980564117,-0.3924508690834045,0.4435587823390961,26.19480895996094,91.23843383789062,-1.81475830078125
198729,0.0718231201171875,0.19122314453125,-0.2528076171875,-0.1320520490407944,0.6808363199234009,0.5255516767501831,26.3211669921875,91.394287109375,-0.71063232421875
198730,0.10882568359375,0.3480072021484375,-0.3228759765625,-0.1924027353525162,0.4879787266254425,0.5662711262702942,26.56239318847656,91.35910034179688,-0.6237030029296875
198731,0.145721435546875,0.5117950439453125,-0.3194122314453125,-0.3436242043972015,0.010310161858797,0.6203852295875549,26.54756164550781,91.5126495361328,-0.8717803955078125
198732,0.145721435546875,0.5117950439453125,-0.3194122314453125,-0.3436242043972015,0.010310161858797,0.6203852295875549,26.54756164550781,91.5126495361328,-0.8717803955078125
198733,0.2350921630859375,0.633270263671875,-0.218231201171875,-0.5528791546821594,-0.8222696185112,0.6974446177482605,26.842529296875,91.83894348144533,-0.8466796875
198734,0.2919464111328125,0.6611328125,-0.16998291015625,-0.547146737575531,-0.9661247730255128,0.7635490298271179,27.16143798828125,91.85137939453124,-0.431304931640625
198735,0.33612060546875,0.7422637939453125,-0.1169281005859375,-0.4849701523780823,-0.9514175057411194,0.8206073045730591,27.39857482910156,91.93505859375,0.0830230712890625
198736,0.3425750732421875,0.8890228271484375,-0.0615081787109375,-0.3827992975711823,-0.8598210215568542,0.8181231021881104,27.85844421386719,92.02359008789062,0.6448516845703125
198737,0.3010406494140625,1.083709716796875,-0.0183868408203125,-0.2642974257469177,-0.7614139914512634,0.7016036510467529,28.25331115722656,92.07656860351562,1.290084838867188
198738,0.2134552001953125,1.290771484375,-0.0100250244140625,-0.1116783246397972,-0.6624072790145874,0.4555411636829376,28.71331787109375,92.21774291992188,1.76483154296875
198739,0.0936279296875,1.480850219726562,-0.137908935546875,0.1421946883201599,-0.6613675355911255,0.1590437144041061,28.98410034179688,92.2833251953125,2.0511474609375
198740,0.0253448486328125,1.711334228515625,-0.4459381103515625,0.4917020797729492,-0.9377527832984924,-0.1081051677465439,29.22447204589844,92.36630249023438,2.216094970703125
198741,0.0717926025390625,2.003143310546875,-0.6189727783203125,0.921641767024994,-1.167714357376099,-0.2745929360389709,29.23594665527344,92.38938903808594,2.373291015625
198742,0.1751861572265625,2.194503784179688,-0.3773040771484375,1.13151478767395,0.0698459297418594,0.0980187058448791,29.1875,92.66775512695312,2.307937622070312
198743,0.2511749267578125,2.251724243164062,0.0904083251953125,1.13151478767395,0.0698459297418594,0.0980187058448791,29.0316162109375,92.89889526367188,1.917831420898438
198744,0.2511749267578125,2.251724243164062,0.0904083251953125,1.13151478767395,0.0698459297418594,0.0980187058448791,29.0316162109375,92.89889526367188,1.917831420898438
198745,0.2844390869140625,2.847274780273438,0.579864501953125,0.4559198617935181,0.7751676440238953,1.028480887413025,28.84970092773438,93.21435546875,1.062469482421875
198746,0.30810546875,3.566741943359375,0.5330352783203125,0.2862269580364227,0.4764999747276306,1.596256613731384,28.96990966796875,93.41737365722656,0.4944305419921875
198747,0.3403778076171875,4.40411376953125,0.420654296875,0.3786264061927795,-0.3136023879051208,1.958701491355896,29.220458984375,93.81747436523438,0.004852294921875
198748,0.3216094970703125,4.877487182617188,0.4707183837890625,0.6515260934829712,-0.8810069561004639,1.761205911636353,29.74205017089844,94.37185668945312,-0.522064208984375
198749,0.15545654296875,4.4891357421875,0.596832275390625,0.9582109451293944,-0.4173106849193573,0.9057144522666932,30.3583984375,94.8123016357422,-0.63262939453125
198750,-0.0716400146484375,3.643722534179688,0.607635498046875,1.219305872917175,0.6691708564758301,0.2309876829385757,30.93495178222656,95.41824340820312,-1.050125122070312
198751,-0.2556915283203125,3.015975952148438,0.4944305419921875,1.550020217895508,1.401691198348999,-0.2074051201343536,31.27171325683594,95.99209594726562,-1.569900512695312
198752,-0.2556915283203125,3.015975952148438,0.4944305419921875,1.550020217895508,1.401691198348999,-0.2074051201343536,31.27171325683594,95.99209594726562,-1.569900512695312
198753,-0.5323028564453125,1.98028564453125,0.27899169921875,1.723160862922668,1.178741931915283,-1.194010734558105,31.46319580078125,96.06973266601562,-3.113113403320312
198754,-0.5849761962890625,1.498092651367188,0.268951416015625,1.468802094459534,0.9521455764770508,-1.567582964897156,31.43955993652344,96.06900024414062,-4.118133544921875
198755,-0.675506591796875,1.08740234375,0.184967041015625,1.108631134033203,0.7223395705223083,-1.820496916770935,31.06967163085938,95.96446228027344,-5.211288452148438
198756,-0.675506591796875,1.08740234375,0.184967041015625,1.108631134033203,0.7223395705223083,-1.820496916770935,31.06967163085938,95.96446228027344,-5.211288452148438
198757,-1.31976318359375,0.0937042236328125,-0.3001708984375,0.3523378074169159,0.9333176016807556,-0.4360494911670685,30.20162963867188,95.2919464111328,-6.919754028320312
198758,-1.079666137695312,0.0993194580078125,-0.563720703125,0.5198096036911011,-0.376943826675415,0.4775902628898621,29.79962158203125,94.94767761230467,-7.5218505859375
198759,-0.3962249755859375,0.313995361328125,0.050079345703125,1.261058926582336,-0.571136474609375,0.7026521563529968,29.8853759765625,94.91119384765624,-7.901031494140625
198760,-0.3962249755859375,0.313995361328125,0.050079345703125,1.261058926582336,-0.571136474609375,0.7026521563529968,29.8853759765625,94.91119384765624,-7.901031494140625
198761,-0.1539764404296875,0.4358673095703125,0.0530242919921875,1.261058926582336,-0.571136474609375,0.7026521563529968,30.19241333007812,94.960205078125,-7.946502685546875
198762,-0.0220947265625,0.5345306396484375,0.064483642578125,1.269516348838806,-0.0411924421787262,0.6023633480072021,30.62306213378906,94.86955261230467,-8.122283935546875
198763,0.04931640625,0.5680694580078125,0.0773468017578125,1.287166237831116,0.3288692235946655,0.4509301483631134,30.87850952148438,95.0015106201172,-8.6552734375
198764,0.04931640625,0.5680694580078125,0.0773468017578125,1.287166237831116,0.3288692235946655,0.4509301483631134,30.87850952148438,95.0015106201172,-8.6552734375
198765,0.1032257080078125,0.4304046630859375,-0.0282745361328125,1.214653372764587,0.3406947255134583,0.1230122074484825,31.11016845703125,95.37155151367188,-9.894210815429688
198766,0.112091064453125,0.3289947509765625,-0.0830230712890625,1.121590852737427,0.0831220522522926,0.0106563726440072,31.117431640625,95.58528137207033,-10.45295715332031
198767,0.1156463623046875,0.2392578125,-0.1605377197265625,1.063050866127014,-0.2850567698478699,-0.0777898728847503,31.03504943847656,95.70225524902344,-10.82456970214844
198768,0.1156463623046875,0.2392578125,-0.1605377197265625,1.063050866127014,-0.2850567698478699,-0.0777898728847503,31.03504943847656,95.70225524902344,-10.82456970214844
198769,0.101348876953125,0.14581298828125,-0.0629730224609375,0.9337517023086548,-0.9763601422309875,-0.1873861402273178,30.96791076660156,95.8037109375,-11.46566772460938
198770,0.0900421142578125,0.1917572021484375,0.0316162109375,0.7534777522087097,-1.022186756134033,-0.2383459955453873,30.88885498046875,95.81838989257812,-11.56797790527344
198771,0.0607757568359375,0.27569580078125,0.0642547607421875,0.4676313698291779,-0.9847144484519958,-0.2985584735870361,30.831298828125,95.93702697753906,-11.83222961425781
198772,0.0607757568359375,0.27569580078125,0.0642547607421875,0.4676313698291779,-0.9847144484519958,-0.2985584735870361,30.831298828125,95.93702697753906,-11.83222961425781
198773,-0.018646240234375,0.4587860107421875,0.1093597412109375,-0.1338494122028351,-0.9955167770385742,-0.3952178955078125,30.65184020996094,95.88394165039062,-12.08642578125
198774,-0.0427093505859375,0.577301025390625,0.2112884521484375,-0.3210262358188629,-0.7923585772514343,-0.4681442975997925,30.75367736816406,95.7852783203125,-11.84642028808594
198775,-0.0904083251953125,0.7010650634765625,0.2950897216796875,-0.3210262358188629,-0.7923585772514343,-0.4681442975997925,30.77742004394531,95.68643188476562,-11.53326416015625
198776,-0.0904083251953125,0.7010650634765625,0.2950897216796875,-0.3210262358188629,-0.7923585772514343,-0.4681442975997925,30.77742004394531,95.68643188476562,-11.53326416015625
198777,-0.2687225341796875,0.9320220947265624,0.4135284423828125,-0.1235048919916153,-0.9790688157081604,-0.5998117923736572,30.67245483398438,95.63604736328124,-10.68888854980469
198778,-0.3841094970703125,0.9904632568359376,0.4903564453125,-0.0905416160821914,-1.260527968406677,-0.7593508362770081,30.66603088378906,95.49472045898438,-10.19769287109375
198779,-0.4811859130859375,0.9532318115234376,0.5644989013671875,-0.2495451122522354,-1.568566203117371,-0.999711811542511,30.55584716796875,95.47911071777344,-9.94775390625
198780,-0.4811859130859375,0.9532318115234376,0.5644989013671875,-0.2495451122522354,-1.568566203117371,-0.999711811542511,30.55584716796875,95.47911071777344,-9.94775390625
198781,-0.587188720703125,0.7015533447265625,0.657012939453125,-1.142480134963989,-2.076472043991089,-1.527689576148987,30.31732177734375,95.21745300292967,-9.373764038085938
198782,-0.587188720703125,0.7015533447265625,0.657012939453125,-1.142480134963989,-2.076472043991089,-1.527689576148987,30.31732177734375,95.21745300292967,-9.373764038085938
198783,-0.66375732421875,0.50921630859375,0.6965484619140625,-1.660007953643799,-1.992839932441711,-1.564047336578369,30.023681640625,94.81900024414062,-8.73687744140625
198784,-0.704925537109375,0.285797119140625,0.6743316650390625,-2.141226053237915,-1.155832409858704,-0.917605459690094,29.62849426269531,94.43806457519533,-7.926010131835938
198785,-0.4726715087890625,0.138092041015625,0.3677978515625,-2.086496114730835,-0.8107469081878662,-0.6471737027168274,28.96945190429688,93.44357299804688,-5.949310302734375
198786,-0.4726715087890625,0.138092041015625,0.3677978515625,-2.086496114730835,-0.8107469081878662,-0.6471737027168274,28.96945190429688,93.44357299804688,-5.949310302734375
198787,-0.23028564453125,0.276885986328125,0.005615234375,-2.113428592681885,0.5287597179412842,-0.4156454205513,28.49020385742188,92.73492431640624,-3.705169677734375
198788,-0.23028564453125,0.276885986328125,0.005615234375,-2.113428592681885,0.5287597179412842,-0.4156454205513,28.49020385742188,92.73492431640624,-3.705169677734375
198789,0.08819580078125,0.1676788330078125,-1.281158447265625,-1.833857536315918,-1.974559783935547,-0.1483668386936188,28.05342102050781,91.795654296875,-1.936126708984375
198790,0.078338623046875,0.1398773193359375,-0.40234375,-1.22332751750946,-2.110996246337891,0.1197032332420349,28.00816345214844,91.323486328125,-0.8805084228515625
198791,0.106109619140625,0.1353912353515625,0.0387420654296875,-0.6751725673675537,-1.046750426292419,0.3741291165351868,28.03741455078125,91.00674438476562,0.09783935546875
198792,0.106109619140625,0.1353912353515625,0.0387420654296875,-0.6751725673675537,-1.046750426292419,0.3741291165351868,28.03741455078125,91.00674438476562,0.09783935546875
198793,0.145263671875,0.1500396728515625,-0.058807373046875,-0.0607781298458576,0.159131333231926,0.7377632856369019,28.36894226074219,90.6792449951172,1.954666137695312
198794,0.1318206787109375,0.16217041015625,-0.1243896484375,0.0048802425153553,0.0373335219919681,0.7885484099388123,28.51795959472656,90.72906494140624,2.263381958007812
198795,0.1322479248046875,0.1767730712890625,-0.1697998046875,-0.0377417877316474,-0.2939314842224121,0.7754288911819458,28.6939697265625,91.01235961914062,2.285507202148438
198796,0.1322479248046875,0.1767730712890625,-0.1697998046875,-0.0377417877316474,-0.2939314842224121,0.7754288911819458,28.6939697265625,91.01235961914062,2.285507202148438
198797,0.2324981689453125,0.2178955078125,-0.248779296875,-0.2265734821557999,-1.185821413993835,0.8280225992202759,28.98884582519531,91.49958801269533,2.241897583007812
198798,0.31231689453125,0.2720794677734375,-0.2732086181640625,-0.2639152705669403,-1.503911018371582,0.9669301509857178,29.30584716796875,91.65927124023438,2.514968872070312
198799,0.377044677734375,0.3774261474609375,-0.2484893798828125,-0.2442805767059326,-1.528847575187683,1.131366491317749,29.63720703125,91.707275390625,2.896026611328125
198800,0.377044677734375,0.3774261474609375,-0.2484893798828125,-0.2442805767059326,-1.528847575187683,1.131366491317749,29.63720703125,91.707275390625,2.896026611328125
198801,0.3776397705078125,0.67852783203125,-0.23388671875,-0.2105623036623001,-0.8975316286087036,1.054531574249268,30.62966918945312,92.193603515625,3.91558837890625
198802,0.3776397705078125,0.67852783203125,-0.23388671875,-0.2105623036623001,-0.8975316286087036,1.054531574249268,30.62966918945312,92.193603515625,3.91558837890625
198803,0.3092041015625,0.995880126953125,-0.401275634765625,0.0201380252838134,-0.6978491544723511,0.4971823394298553,31.60357666015625,92.51446533203124,5.146514892578125
198804,0.3092041015625,0.995880126953125,-0.401275634765625,0.0201380252838134,-0.6978491544723511,0.4971823394298553,31.60357666015625,92.51446533203124,5.146514892578125
198805,0.0331573486328125,1.403045654296875,-0.5753326416015625,0.3847013413906097,-0.8154460787773132,-0.1304666697978973,32.24861145019531,92.61750793457033,5.877975463867188
198806,0.0531005859375,1.778182983398438,-0.6778106689453125,0.5667286515235901,-1.019704937934875,-0.4408993721008301,32.4381103515625,92.75787353515624,5.825149536132812
198807,0.154052734375,2.081268310546875,-0.44244384765625,0.7168294787406921,-0.6900908350944519,-0.5516343712806702,32.47647094726562,92.70127868652344,5.787689208984375
198808,0.154052734375,2.081268310546875,-0.44244384765625,0.7168294787406921,-0.6900908350944519,-0.5516343712806702,32.47647094726562,92.70127868652344,5.787689208984375
198809,0.181732177734375,2.355712890625,0.1580047607421875,0.4874519407749176,0.5459962487220764,-0.3400579690933228,32.02294921875,92.79750061035156,5.482528686523438
198810,0.181732177734375,2.355712890625,0.1580047607421875,0.4874519407749176,0.5459962487220764,-0.3400579690933228,32.02294921875,92.79750061035156,5.482528686523438
198811,0.2945098876953125,2.925857543945312,0.322906494140625,0.5838583707809448,0.579351544380188,0.6445624828338623,31.48675537109375,92.99810791015624,4.688522338867188
198812,0.2945098876953125,2.925857543945312,0.322906494140625,0.5838583707809448,0.579351544380188,0.6445624828338623,31.48675537109375,92.99810791015624,4.688522338867188
198813,0.4424285888671875,3.49420166015625,0.21234130859375,1.066466569900513,-0.4766656160354614,1.983286380767822,31.50822448730469,93.34580993652344,3.637313842773438
198814,0.4745635986328125,3.333282470703125,0.24810791015625,1.276995897293091,-0.9553986191749572,2.019511938095093,32.00077819824219,93.63298034667967,3.193771362304688
198815,0.51763916015625,3.006790161132812,0.245880126953125,1.39884340763092,-0.8620383143424988,1.643025279045105,32.68939208984375,94.19534301757812,2.763168334960938
198816,0.430419921875,2.903213500976562,0.3565216064453125,1.381829857826233,-0.2101756036281586,0.9549472332000732,33.50114440917969,94.90121459960938,2.341842651367188
198817,0.0457611083984375,2.914581298828125,0.51800537109375,1.260234713554382,0.7568504214286804,0.0908342972397804,34.294921875,95.52064514160156,2.040985107421875
198818,0.0457611083984375,2.914581298828125,0.51800537109375,1.260234713554382,0.7568504214286804,0.0908342972397804,34.294921875,95.52064514160156,2.040985107421875
198819,-0.50738525390625,2.754959106445312,0.63140869140625,0.8756481409072876,1.786710500717163,-1.60067617893219,34.96405029296875,96.45130920410156,0.8674468994140625
198820,-0.6283111572265625,2.34417724609375,0.5983734130859375,0.6895174384117126,1.765653133392334,-2.29336404800415,34.7572021484375,96.5663604736328,0.045654296875
198821,-0.6283111572265625,2.34417724609375,0.5983734130859375,0.6895174384117126,1.765653133392334,-2.29336404800415,34.7572021484375,96.5663604736328,0.045654296875
198822,-0.873809814453125,1.217376708984375,0.27862548828125,0.5781443119049072,0.8552312850952148,-2.40733814239502,33.72125244140625,95.97787475585938,-1.569107055664062
198823,-1.287124633789062,0.499603271484375,0.1284027099609375,0.6215159893035889,0.3394968509674072,-1.410781621932983,32.93690490722656,95.4216766357422,-2.32147216796875
198824,-1.287124633789062,0.499603271484375,0.1284027099609375,0.6215159893035889,0.3394968509674072,-1.410781621932983,32.93690490722656,95.4216766357422,-2.32147216796875
198825,-0.9615631103515624,0.20611572265625,-0.227294921875,0.6124743223190308,-0.6857248544692993,0.8421133756637573,31.69367980957031,94.50764465332033,-3.474853515625
198826,-0.6342315673828125,0.5872955322265625,-0.0481414794921875,0.557246208190918,-0.8905695676803589,0.8897136449813843,31.62979125976562,94.5366668701172,-3.665084838867188
198827,-0.475067138671875,0.972198486328125,0.11016845703125,0.51921546459198,-0.249204233288765,0.3372403383255005,31.895751953125,94.66915893554688,-3.869583129882812
198828,-0.3573455810546875,1.19537353515625,0.1104736328125,0.51921546459198,-0.249204233288765,0.3372403383255005,32.16993713378906,94.96629333496094,-4.023666381835938
198829,-0.268157958984375,1.254150390625,0.0757904052734375,0.93329519033432,0.002552373567596,0.0986621305346489,32.60394287109375,95.00149536132812,-3.9659423828125
198830,-0.2030029296875,1.112045288085938,0.0300140380859375,1.413583278656006,0.3083873987197876,-0.0454625561833381,32.79302978515625,95.00651550292967,-4.24639892578125
198831,-0.1720123291015625,0.88861083984375,-0.0730438232421875,1.777046203613281,0.4513195157051086,-0.0657877996563911,32.83815002441406,94.95979309082033,-4.632293701171875
198832,-0.136016845703125,0.660400390625,-0.1136932373046875,1.964377164840698,0.3525503277778625,0.0202309694141149,32.74061584472656,95.03384399414062,-5.212646484375
198833,-0.0684967041015625,0.497650146484375,-0.080718994140625,1.947201371192932,0.1242018416523933,0.1371099203824997,32.70787048339844,95.23626708984376,-5.957672119140625
198834,0.015716552734375,0.3941650390625,-0.00421142578125,1.7305668592453,-0.0842546895146369,0.2827302217483521,32.65602111816406,95.44065856933594,-6.705810546875
198835,0.050262451171875,0.33441162109375,0.049072265625,1.413259983062744,-0.1825549006462097,0.4749982059001923,32.67256164550781,95.49421691894533,-7.587905883789062
198836,0.050262451171875,0.33441162109375,0.049072265625,1.413259983062744,-0.1825549006462097,0.4749982059001923,32.67256164550781,95.49421691894533,-7.587905883789062
198837,0.0635528564453125,0.3148040771484375,0.05889892578125,0.7864378690719604,-0.401534378528595,0.7247835397720337,32.898681640625,96.005126953125,-8.814804077148438
198838,0.06561279296875,0.2794647216796875,0.0728912353515625,0.3444242179393768,-0.778850257396698,0.6234611868858337,33.25555419921875,96.17581176757812,-9.165390014648438
198839,0.064361572265625,0.2918548583984375,0.0966644287109375,0.2542567849159241,-1.093328833580017,0.3684909343719482,33.5875244140625,96.39039611816406,-9.311859130859377
198840,0.073638916015625,0.354248046875,0.1610565185546875,0.2542567849159241,-1.093328833580017,0.3684909343719482,33.83067321777344,96.52775573730467,-9.368881225585938
198841,0.1083831787109375,0.395660400390625,0.268096923828125,0.2512266337871552,-1.379994988441467,0.0790700539946556,34.17807006835938,96.61968994140624,-9.0999755859375
198842,0.107574462890625,0.4274139404296875,0.3778533935546875,0.285643994808197,-1.578840136528015,-0.1276663541793823,34.50596618652344,96.70181274414062,-8.97454833984375
198843,0.006591796875,0.4737091064453125,0.4904937744140625,0.2765985727310181,-1.5645911693573,-0.1786813288927078,34.73887634277344,96.8065948486328,-8.804519653320312
198844,0.006591796875,0.4737091064453125,0.4904937744140625,0.2765985727310181,-1.5645911693573,-0.1786813288927078,34.73887634277344,96.8065948486328,-8.804519653320312
198845,-0.168121337890625,0.6604766845703125,0.657745361328125,-0.2446622103452682,-1.254647970199585,-0.2511323690414429,34.86972045898438,96.82606506347656,-8.534378051757812
198846,-0.273590087890625,0.7368621826171875,0.687408447265625,-0.7104360461235046,-1.138884544372559,-0.4529107511043549,35.03627014160156,96.75489807128906,-8.274444580078125
198847,-0.3594818115234375,0.7587738037109375,0.6924285888671875,-1.165623545646667,-0.9959548711776732,-0.7309786081314087,35.00921630859375,96.79135131835938,-8.118118286132812
198848,-0.3594818115234375,0.7587738037109375,0.6924285888671875,-1.165623545646667,-0.9959548711776732,-0.7309786081314087,35.00921630859375,96.79135131835938,-8.118118286132812
198849,-0.4128875732421875,0.5978240966796875,0.4509735107421875,-1.625565767288208,-0.7595279216766357,-1.15191912651062,34.93464660644531,96.51634216308594,-7.403182983398438
198850,-0.4030303955078125,0.502227783203125,0.286285400390625,-1.644022822380066,-0.8380448818206787,-1.237438559532166,34.80557250976562,96.38348388671876,-6.725448608398438
198851,-0.3946533203125,0.4135894775390625,0.1290283203125,-1.516395092010498,-1.244568109512329,-1.165169239044189,34.58708190917969,96.22908020019533,-6.0672607421875
198852,-0.3946533203125,0.4135894775390625,0.1290283203125,-1.516395092010498,-1.244568109512329,-1.165169239044189,34.58708190917969,96.22908020019533,-6.0672607421875
198853,-0.3813629150390625,0.094512939453125,-0.1163787841796875,-1.480863809585571,-1.44607937335968,-0.8934644460678101,33.81814575195312,95.72933959960938,-4.423828125
198854,-0.2519378662109375,-0.0618438720703125,-0.4140167236328125,-1.603779077529907,-1.139980435371399,-0.5380828976631165,33.43110656738281,95.4766082763672,-3.549270629882812
198855,-0.03778076171875,-0.1341400146484375,-0.9613800048828124,-1.648601889610291,-1.514127969741821,-0.1356614232063293,33.20504760742188,95.14004516601562,-2.740631103515625
198856,-0.03778076171875,-0.1341400146484375,-0.9613800048828124,-1.648601889610291,-1.514127969741821,-0.1356614232063293,33.20504760742188,95.14004516601562,-2.740631103515625
198857,0.0494232177734375,0.0245361328125,-0.1727142333984375,-1.046548843383789,-1.998932003974915,0.2610028386116028,33.09951782226562,94.2982177734375,-0.63836669921875
198858,0.048004150390625,0.05877685546875,0.016143798828125,-0.7146885395050049,-1.524731040000916,0.2517006695270538,33.40757751464844,93.94775390625,0.5296173095703125
198859,0.074188232421875,0.054718017578125,0.0455169677734375,-0.4753737151622772,-1.107490658760071,0.2527134716510773,33.738525390625,93.72479248046876,1.500579833984375
198860,0.074188232421875,0.054718017578125,0.0455169677734375,-0.4753737151622772,-1.107490658760071,0.2527134716510773,33.738525390625,93.72479248046876,1.500579833984375
198861,0.110565185546875,0.037933349609375,0.040985107421875,-0.3781757950782776,-0.8490000367164612,0.3532371520996094,34.045654296875,93.63063049316406,1.92864990234375
198862,0.1660919189453125,0.101806640625,-0.1362762451171875,-0.2468918114900589,-0.6957439184188843,0.6606650352478027,34.45005798339844,93.59963989257812,3.002212524414062
198863,0.1759796142578125,0.217620849609375,-0.2642059326171875,0.0290670711547136,-1.285946249961853,0.714065670967102,34.64697265625,93.60362243652344,3.324981689453125
198864,0.1759796142578125,0.217620849609375,-0.2642059326171875,0.0290670711547136,-1.285946249961853,0.714065670967102,34.64697265625,93.60362243652344,3.324981689453125
198865,0.2157440185546875,0.45281982421875,-0.3372955322265625,0.1551357954740524,-1.436666965484619,0.6007745265960693,35.16999816894531,93.92604064941406,3.838226318359375
198866,0.2460174560546875,0.5407562255859375,-0.386993408203125,0.247407391667366,-1.396849274635315,0.481481671333313,35.51290893554688,94.1737060546875,4.137359619140625
198867,0.241119384765625,0.621826171875,-0.47320556640625,0.3251125812530518,-1.255437850952148,0.3354059755802155,35.84832763671875,94.3035888671875,4.488800048828125
198868,0.241119384765625,0.621826171875,-0.47320556640625,0.3251125812530518,-1.255437850952148,0.3354059755802155,35.84832763671875,94.3035888671875,4.488800048828125
198869,0.1732177734375,0.672698974609375,-0.5657806396484375,0.3826525807380676,-1.106604099273682,0.1613614559173584,36.21598815917969,94.46559143066406,4.604568481445312
198870,0.018341064453125,1.033706665039062,-0.9215087890625,0.8377993106842041,-0.6285496950149536,0.0281064696609973,36.89186096191406,94.73103332519533,5.012832641601562
198871,0.1105499267578125,1.452178955078125,-1.279205322265625,1.243610501289368,-0.3558070957660675,0.0454777367413044,36.87190246582031,94.92677307128906,4.853866577148438
198872,0.1105499267578125,1.452178955078125,-1.279205322265625,1.243610501289368,-0.3558070957660675,0.0454777367413044,36.87190246582031,94.92677307128906,4.853866577148438
198873,0.0794830322265625,2.038192749023438,-0.249298095703125,-0.0249165352433919,0.6605979204177856,-0.2072053849697113,36.72129821777344,95.2240753173828,4.32244873046875
198874,0.0849151611328125,2.348617553710938,0.074310302734375,-0.8545892238616943,0.7505967617034912,-0.7080423831939697,36.56317138671875,95.27967834472656,3.939895629882812
198875,0.2328033447265625,2.82464599609375,0.055938720703125,-0.9650616645812988,0.083415001630783,-0.6955342888832092,36.30160522460938,95.03421020507812,3.919876098632812
198876,0.2328033447265625,2.82464599609375,0.055938720703125,-0.9650616645812988,0.083415001630783,-0.6955342888832092,36.30160522460938,95.03421020507812,3.919876098632812
198877,0.3892669677734375,3.93701171875,0.4764556884765625,0.4009567499160767,-0.2423045188188553,0.97101891040802,35.69737243652344,94.66720581054688,4.357940673828125
198878,0.490936279296875,4.156494140625,0.539398193359375,0.9984025955200196,0.3726675808429718,2.074740886688232,35.70266723632812,94.8796844482422,4.078964233398438
198879,0.5500335693359375,3.611724853515625,0.292388916015625,1.392574906349182,0.605131983757019,2.517482757568359,36.130859375,95.4299774169922,3.552780151367188
198880,0.5500335693359375,3.611724853515625,0.292388916015625,1.392574906349182,0.605131983757019,2.517482757568359,36.130859375,95.4299774169922,3.552780151367188
198881,0.5545196533203125,3.031280517578125,-0.0362091064453125,1.586497783660889,0.1876806765794754,2.400810241699219,36.90744018554688,95.98243713378906,2.931564331054688
198882,0.2994232177734375,3.069793701171875,0.135650634765625,1.588659763336182,-0.6933968663215637,0.3867767453193665,38.7987060546875,96.8450927734375,1.952804565429688
198883,0.0499725341796875,3.020843505859375,0.36749267578125,1.425692081451416,-0.3677487075328827,-0.544542133808136,39.38957214355469,97.40280151367188,1.286392211914062
198884,0.0499725341796875,3.020843505859375,0.36749267578125,1.425692081451416,-0.3677487075328827,-0.544542133808136,39.38957214355469,97.40280151367188,1.286392211914062
198885,-0.2119903564453125,2.220291137695312,0.2754669189453125,1.396923065185547,0.0166719201952219,-1.437433958053589,39.50885009765625,98.0522003173828,-0.0832366943359375
198886,-0.32366943359375,1.639175415039062,0.163909912109375,1.473579525947571,-0.2810692191123962,-1.572654128074646,39.32344055175781,98.00245666503906,-0.821258544921875
198887,-0.4776763916015625,1.25299072265625,0.2639923095703125,1.298480629920959,-0.3141715228557587,-1.637062668800354,39.04707336425781,97.90318298339844,-1.524673461914062
198888,-0.773834228515625,0.847686767578125,0.3282012939453125,0.7721638679504395,0.0862904116511344,-1.431424856185913,38.68728637695312,97.94219970703124,-2.294342041015625
198889,-1.123123168945312,0.461273193359375,0.2416229248046875,0.0218645520508289,0.9347375631332396,-0.6906002759933472,38.43867492675781,97.76092529296876,-2.801239013671875
198890,-1.123123168945312,0.461273193359375,0.2416229248046875,0.0218645520508289,0.9347375631332396,-0.6906002759933472,38.43867492675781,97.76092529296876,-2.801239013671875
198891,-0.95477294921875,0.43988037109375,-0.1193389892578125,-0.1093214303255081,-0.179282933473587,0.2281340956687927,38.37599182128906,97.34617614746094,-3.430953979492188
198892,-0.867645263671875,0.491424560546875,0.278076171875,0.4991778433322906,-0.5709476470947266,0.2282946854829788,38.57363891601562,97.0697784423828,-3.418548583984375
198893,-0.71319580078125,0.5293426513671875,0.378753662109375,0.9171950817108154,-0.0306519195437431,0.2021328657865524,38.65640258789062,97.06925964355467,-3.379745483398438
198894,-0.5802154541015625,0.6709442138671875,0.11334228515625,1.041026949882507,0.3980853259563446,0.1570000052452087,38.75325012207031,97.15823364257812,-3.421478271484375
198895,-0.444732666015625,0.8286895751953125,-0.0601043701171875,1.03633451461792,0.4310113191604614,0.0031534489244222,38.80104064941406,97.2891082763672,-3.789886474609375
198896,-0.444732666015625,0.8286895751953125,-0.0601043701171875,1.03633451461792,0.4310113191604614,0.0031534489244222,38.80104064941406,97.2891082763672,-3.789886474609375
198897,-0.16741943359375,0.7710418701171875,-0.093231201171875,1.129839181900024,0.2822346091270447,-0.0896406695246696,38.80982971191406,97.20985412597656,-4.803298950195312
198898,-0.0517578125,0.6501007080078125,-0.150665283203125,1.25073254108429,-0.0138377845287323,-0.0237748380750417,38.68360900878906,97.25277709960938,-5.395919799804688
198899,0.0514373779296875,0.512969970703125,-0.1529998779296875,1.268741607666016,-0.3812336325645447,0.1005804017186165,38.51466369628906,97.35379028320312,-5.980255126953125
198900,0.0514373779296875,0.512969970703125,-0.1529998779296875,1.268741607666016,-0.3812336325645447,0.1005804017186165,38.51466369628906,97.35379028320312,-5.980255126953125
198901,0.1355743408203125,0.3507080078125,-0.0286407470703125,0.984847903251648,-0.8755895495414734,0.3539543449878693,38.39559936523438,97.6766357421875,-7.136260986328125
198902,0.1309814453125,0.312103271484375,0.0292205810546875,0.4724929630756378,-0.8899077773094177,0.3501500189304352,38.31126403808594,97.82972717285156,-7.419509887695312
198903,0.1227264404296875,0.2919464111328125,0.055450439453125,0.200749084353447,-0.8141669631004333,0.301186740398407,38.39204406738281,98.05575561523438,-7.62744140625
198904,0.1227264404296875,0.2919464111328125,0.055450439453125,0.200749084353447,-0.8141669631004333,0.301186740398407,38.39204406738281,98.05575561523438,-7.62744140625
198905,0.125701904296875,0.3047332763671875,0.04644775390625,-0.0592023357748985,-0.7803184390068054,0.2210487574338913,38.78421020507812,98.45571899414062,-7.467178344726562
198906,0.125701904296875,0.3047332763671875,0.04644775390625,-0.0592023357748985,-0.7803184390068054,0.2210487574338913,38.78421020507812,98.45571899414062,-7.467178344726562
198907,0.1015167236328125,0.403106689453125,0.09259033203125,-0.2817659080028534,-0.7569279074668884,0.0768316611647605,38.96707153320312,98.55714416503906,-7.173599243164062
198908,0.04833984375,0.5142669677734375,0.2582550048828125,-0.5435642004013062,-0.2912619411945343,0.0312625803053379,39.12281799316406,98.78640747070312,-7.250152587890625
198909,-0.206878662109375,0.9393310546875,0.5099334716796875,-0.6318538784980774,-0.0391742996871471,-0.0311893448233604,39.57144165039062,98.6993408203125,-6.984970092773438
198910,-0.371185302734375,1.1826171875,0.5194244384765625,-0.7131559252738953,-0.1029580757021904,-0.2154348194599152,39.67581176757812,98.60948181152344,-6.744873046875
198911,-0.534912109375,1.296890258789062,0.52166748046875,-0.7626249194145203,-0.342510998249054,-0.4837576150894165,39.72744750976562,98.68832397460938,-6.411712646484375
198912,-0.534912109375,1.296890258789062,0.52166748046875,-0.7626249194145203,-0.342510998249054,-0.4837576150894165,39.72744750976562,98.68832397460938,-6.411712646484375
198913,-0.7541351318359375,1.01202392578125,0.3531341552734375,-0.8589352369308472,-0.8118928670883179,-0.8726052045822144,39.54045104980469,98.71865844726562,-5.687286376953125
198914,-0.813629150390625,0.7516632080078125,0.2640380859375,-0.9091616272926332,-0.5864331126213074,-0.6579771041870117,39.23033142089844,98.76434326171876,-5.311782836914062
198915,-0.63134765625,0.60888671875,0.1058502197265625,-0.6776341199874878,-0.5088376402854919,-0.2596875131130219,38.90776062011719,98.6730499267578,-5.020584106445312
198916,-0.63134765625,0.60888671875,0.1058502197265625,-0.6776341199874878,-0.5088376402854919,-0.2596875131130219,38.90776062011719,98.6730499267578,-5.020584106445312
198917,-0.14788818359375,0.46612548828125,0.128875732421875,-0.4843246042728424,-0.7271513342857361,-0.2185222208499908,38.66297912597656,98.4156494140625,-4.269699096679688
198918,-0.051605224609375,0.3165435791015625,0.195037841796875,-0.470310240983963,-0.8336279988288879,-0.1650621891021729,38.63800048828125,98.2136688232422,-3.811019897460938
198919,-0.00799560546875,0.195709228515625,0.1772918701171875,-0.6248044967651367,-0.9073266983032228,-0.1577795147895813,38.68157958984375,97.9425048828125,-3.368209838867188
198920,0.009490966796875,0.1117095947265625,0.09686279296875,-0.8646125793457031,-1.015069127082825,-0.2143863290548325,38.80209350585938,97.89891052246094,-2.906967163085938
198921,0.0206756591796875,0.0478057861328125,-0.00250244140625,-1.128235697746277,-1.190237760543823,-0.2921572923660278,38.90153503417969,97.62525939941406,-2.204925537109375
198922,0.0593414306640625,-0.034759521484375,-0.1381072998046875,-1.285991191864014,-1.472775459289551,-0.3315015137195587,38.99751281738281,97.40242004394533,-1.529571533203125
198923,0.117279052734375,-0.1131439208984375,-0.298980712890625,-1.253183484077454,-1.927796244621277,-0.2753540873527527,39.02212524414062,97.24366760253906,-0.9346466064453124
198924,0.117279052734375,-0.1131439208984375,-0.298980712890625,-1.253183484077454,-1.927796244621277,-0.2753540873527527,39.02212524414062,97.24366760253906,-0.9346466064453124
198925,0.17938232421875,-0.099334716796875,-0.2198486328125,-0.7175333499908447,-2.551580905914307,0.0100507698953151,39.16091918945312,96.7864990234375,0.9776611328125
198926,0.2113800048828125,-0.0633392333984375,-0.0801544189453125,-0.686802089214325,-1.82407283782959,0.1165484488010406,39.3739013671875,96.71853637695312,1.676513671875
198927,0.2822723388671875,-0.02386474609375,-0.3571624755859375,-0.709071934223175,-1.325159668922424,0.2645541727542877,39.54493713378906,96.50032043457033,2.248886108398438
198928,0.2822723388671875,-0.02386474609375,-0.3571624755859375,-0.709071934223175,-1.325159668922424,0.2645541727542877,39.54493713378906,96.50032043457033,2.248886108398438
198929,0.371551513671875,0.17694091796875,-0.353271484375,-0.3624421060085297,-1.821034073829651,0.8084904551506042,40.24479675292969,96.178955078125,3.440078735351562
198930,0.35150146484375,0.336181640625,-0.157501220703125,-0.2635842263698578,-1.817908883094788,0.9697157740592957,40.60943603515625,96.1865692138672,3.84619140625
198931,0.314453125,0.47381591796875,-0.0910186767578125,-0.2943698465824127,-1.484595417976379,0.9069560170173644,41.16462707519531,96.07072448730467,4.229782104492188
198932,0.314453125,0.47381591796875,-0.0910186767578125,-0.2943698465824127,-1.484595417976379,0.9069560170173644,41.16462707519531,96.07072448730467,4.229782104492188
198933,0.326873779296875,0.6088409423828125,-0.22222900390625,-0.374780535697937,-1.094668865203857,0.4169434309005737,42.32936096191406,96.21487426757812,5.00238037109375
198934,0.3014068603515625,0.68231201171875,-0.2365570068359375,-0.2882924973964691,-0.9921233654022216,0.1251467317342758,42.73887634277344,96.00912475585938,5.49688720703125
198935,0.214111328125,0.7642822265625,-0.29241943359375,-0.0775025114417076,-0.8901386857032776,-0.1245448589324951,43.07334899902344,96.02821350097656,5.822662353515625
198936,0.214111328125,0.7642822265625,-0.29241943359375,-0.0775025114417076,-0.8901386857032776,-0.1245448589324951,43.07334899902344,96.02821350097656,5.822662353515625
198937,0.0997772216796875,1.109695434570312,-0.4810943603515625,0.9389232397079468,-0.6652278304100037,-0.3302729725837708,43.4521484375,95.86053466796876,6.191650390625
198938,0.0868682861328125,1.421295166015625,-0.5389862060546875,0.9389232397079468,-0.6652278304100037,-0.3302729725837708,43.44734191894531,95.88079833984376,6.368728637695312
198939,0.039642333984375,2.106369018554688,-0.388336181640625,0.7180036902427673,-0.3783148229122162,-0.1226441562175751,43.16714477539062,96.2137451171875,5.908172607421875
198940,0.039642333984375,2.106369018554688,-0.388336181640625,0.7180036902427673,-0.3783148229122162,-0.1226441562175751,43.16714477539062,96.2137451171875,5.908172607421875
198941,-0.0563201904296875,2.477706909179688,-0.308990478515625,0.5240472555160522,-0.1142655909061432,-0.2717183232307434,43.09022521972656,96.28083801269533,5.544662475585938
198942,-0.108245849609375,2.827774047851562,-0.542877197265625,0.6421200633049011,-0.2124121338129044,-0.5304720997810364,42.99905395507812,96.3058624267578,5.188735961914062
198943,-0.0206451416015625,2.857650756835938,-0.6000213623046875,1.103511691093445,-0.2550890147686005,-0.3602940142154694,42.85469055175781,96.39724731445312,4.7786865234375
198944,-0.0206451416015625,2.857650756835938,-0.6000213623046875,1.103511691093445,-0.2550890147686005,-0.3602940142154694,42.85469055175781,96.39724731445312,4.7786865234375
198945,0.2527618408203125,1.835128784179688,-0.4511260986328125,1.280246019363403,0.6346299648284912,1.354903221130371,42.60392761230469,96.64535522460938,3.616668701171875
198946,0.533294677734375,1.879913330078125,-0.497161865234375,0.9966654181480408,0.5444044470787048,1.664126515388489,42.78474426269531,96.9630889892578,3.053482055664062
198947,0.58038330078125,2.2183837890625,-0.5363311767578125,1.030650496482849,0.1305787861347198,1.495282173156738,43.28895568847656,97.23078918457033,2.46905517578125
198948,0.53271484375,2.66131591796875,-0.4869384765625,1.030650496482849,0.1305787861347198,1.495282173156738,43.96879577636719,97.6331024169922,1.89422607421875
198949,0.3026885986328125,3.097991943359375,-0.318145751953125,1.296258449554443,0.4780605733394623,1.197238206863403,44.5809326171875,98.0658721923828,1.356643676757812
198950,-0.03436279296875,3.417083740234375,-0.014495849609375,1.458123803138733,1.047764778137207,0.7353160977363586,45.15959167480469,98.39117431640624,0.847259521484375
198951,-0.3079376220703125,3.412200927734375,0.3388671875,1.506094574928284,1.614150404930115,0.2147264182567596,45.4989013671875,98.76473999023438,0.08111572265625
198952,-0.3079376220703125,3.412200927734375,0.3388671875,1.506094574928284,1.614150404930115,0.2147264182567596,45.4989013671875,98.76473999023438,0.08111572265625
198953,-0.6099395751953125,2.754257202148438,0.2213287353515625,1.317745685577393,1.744568347930908,-0.7352961301803589,45.84939575195312,99.32243347167967,-1.433135986328125
198954,-0.6401214599609375,1.976272583007812,0.0598297119140625,1.287601947784424,1.053505539894104,-0.887790322303772,45.67916870117188,99.54037475585938,-2.130859375
198955,-0.66204833984375,1.374862670898438,0.1611175537109375,1.364209055900574,0.5769219398498535,-0.8474096059799194,45.56239318847656,99.70901489257812,-3.033309936523438
198956,-0.689453125,1.00537109375,0.3024139404296875,1.387471199035645,0.5265423655509949,-0.7629231810569763,45.26455688476562,99.8004150390625,-3.937225341796875
198957,-0.831329345703125,0.7250823974609375,0.31787109375,1.298475861549377,0.7321857810020447,-0.5398251414299011,45.09495544433594,99.93482971191406,-4.681961059570312
198958,-1.099655151367188,0.4378509521484375,0.1303863525390625,1.158713936805725,0.7038689255714417,0.115740180015564,44.974365234375,100.0274505615234,-5.519973754882812
198959,-1.180877685546875,0.3782501220703125,-0.000885009765625,1.046387910842896,0.350500762462616,0.9685445427894592,44.83370971679688,100.1930236816406,-6.24285888671875
198960,-0.840087890625,0.681793212890625,0.0574951171875,1.038586497306824,-0.2028804123401642,0.958993136882782,45.05467224121094,100.4062805175781,-6.931167602539062
198961,-0.4736328125,0.93505859375,0.2857666015625,0.9592114686965942,-0.3747808039188385,0.589596688747406,45.43801879882812,100.4287719726562,-7.3931884765625
198962,-0.2690887451171875,1.104019165039062,0.372283935546875,0.8202376365661621,-0.1530007272958755,0.3499566614627838,45.78355407714844,100.6008758544922,-7.935455322265625
198963,-0.128662109375,1.212203979492188,0.3206329345703125,0.8094891309738159,0.1476839929819107,0.2027509808540344,46.01565551757812,100.7457122802734,-8.3770751953125
198964,-0.128662109375,1.212203979492188,0.3206329345703125,0.8094891309738159,0.1476839929819107,0.2027509808540344,46.01565551757812,100.7457122802734,-8.3770751953125
198965,0.0964202880859375,0.8651275634765625,0.0450286865234375,0.751276433467865,0.1826209425926208,0.188328891992569,46.17747497558594,100.6996459960938,-9.195343017578123
198966,0.1260833740234375,0.6328277587890625,-0.0298309326171875,0.7336177825927734,-0.0693670883774757,0.2486771941184998,46.19740295410156,100.7729644775391,-9.458389282226562
198967,0.1127471923828125,0.509124755859375,-0.026702880859375,0.7583516240119934,-0.3441666960716248,0.2527939081192017,46.22666931152344,100.8956451416016,-9.886260986328123
198968,0.1127471923828125,0.509124755859375,-0.026702880859375,0.7583516240119934,-0.3441666960716248,0.2527939081192017,46.22666931152344,100.8956451416016,-9.886260986328123
198969,0.086273193359375,0.4030609130859375,-0.03900146484375,0.6459579467773438,-1.097071886062622,0.0720054805278778,46.47312927246094,100.716796875,-10.36613464355469
198970,0.0802764892578125,0.3530731201171875,0.0834197998046875,0.4551534056663513,-1.39172375202179,0.0027827369049191,46.71101379394531,100.6666717529297,-10.74964904785156
198971,0.0381927490234375,0.35791015625,0.2783966064453125,0.2181259393692017,-1.271882295608521,-0.0269746258854866,46.72305297851562,100.5333862304688,-10.95640563964844
198972,0.0381927490234375,0.35791015625,0.2783966064453125,0.2181259393692017,-1.271882295608521,-0.0269746258854866,46.72305297851562,100.5333862304688,-10.95640563964844
198973,-0.08404541015625,0.595611572265625,0.3754730224609375,-0.2766864597797394,-0.3136734962463379,0.1022342294454575,46.72232055664062,100.6164093017578,-11.13291931152344
198974,-0.08404541015625,0.595611572265625,0.3754730224609375,-0.2766864597797394,-0.3136734962463379,0.1022342294454575,46.72232055664062,100.6164093017578,-11.13291931152344
198975,-0.172515869140625,0.735137939453125,0.2785186767578125,-0.5626358985900879,-0.5993854403495789,0.1535570621490479,46.7630615234375,100.8894500732422,-10.98939514160156
198976,-0.172515869140625,0.735137939453125,0.2785186767578125,-0.5626358985900879,-0.5993854403495789,0.1535570621490479,46.7630615234375,100.8894500732422,-10.98939514160156
198977,-0.3385772705078125,0.861968994140625,0.2469329833984375,-0.6757291555404663,-1.343879222869873,-0.0192434694617986,47.21200561523438,100.90185546875,-10.3056640625
198978,-0.39013671875,0.870452880859375,0.352294921875,-0.9038904309272766,-1.962731838226318,-0.2734802663326263,47.47932434082031,100.9660034179688,-10.01373291015625
198979,-0.374664306640625,0.786407470703125,0.4390869140625,-1.178319931030273,-2.267440795898438,-0.5009651184082031,47.60845947265625,100.8406066894531,-9.523223876953123
198980,-0.374664306640625,0.786407470703125,0.4390869140625,-1.178319931030273,-2.267440795898438,-0.5009651184082031,47.60845947265625,100.8406066894531,-9.523223876953123
198981,-0.251373291015625,0.53521728515625,0.427001953125,-1.351967811584473,-1.920028328895569,-0.5503813624382019,47.561279296875,100.6968688964844,-8.458770751953125
198982,-0.1854705810546875,0.46417236328125,0.299041748046875,-1.355693340301514,-1.567611217498779,-0.4813714325428009,47.49575805664062,100.5525207519531,-7.8114013671875
198983,-0.111907958984375,0.4126129150390625,-0.049957275390625,-1.410431146621704,-2.247581481933594,-0.3238148093223572,47.37870788574219,100.4260101318359,-7.179702758789062
198984,-0.111907958984375,0.4126129150390625,-0.049957275390625,-1.410431146621704,-2.247581481933594,-0.3238148093223572,47.37870788574219,100.4260101318359,-7.179702758789062
198985,0.0265350341796875,0.12506103515625,-0.4881439208984375,-1.315521121025085,-2.874832630157471,-0.1291907429695129,47.29251098632812,100.3427734375,-5.53485107421875
198986,0.0002288818359375,0.0068206787109375,-0.213348388671875,-1.084644198417664,-1.893945336341858,0.2631812989711761,47.3072509765625,100.132568359375,-4.631179809570312
198987,-0.01495361328125,-0.0562896728515625,-0.07293701171875,-0.9527879357337952,-1.188921332359314,0.356548011302948,47.45133972167969,100.0217590332031,-3.897491455078125
198988,-0.01495361328125,-0.0562896728515625,-0.07293701171875,-0.9527879357337952,-1.188921332359314,0.356548011302948,47.45133972167969,100.0217590332031,-3.897491455078125
198989,0.02984619140625,-0.0964508056640625,-0.1541595458984375,-0.8357478976249695,-0.7735462784767151,0.3798011243343353,47.892578125,99.87770080566406,-2.80596923828125
198990,0.03607177734375,-0.0745086669921875,-0.20147705078125,-0.7889926433563232,-0.571139395236969,0.33746537566185,48.2305908203125,99.85398864746094,-2.140380859375
198991,0.0380096435546875,-0.011444091796875,-0.2552337646484375,-0.8071116805076599,-0.5369401574134827,0.2257993072271347,48.52580261230469,99.60260009765624,-1.470901489257812
198992,0.0380096435546875,-0.011444091796875,-0.2552337646484375,-0.8071116805076599,-0.5369401574134827,0.2257993072271347,48.52580261230469,99.60260009765624,-1.470901489257812
198993,0.086517333984375,0.092010498046875,-0.330963134765625,-0.9067443013191224,-0.8048445582389832,-0.0213337838649749,48.92868041992188,99.40936279296876,-0.5849456787109375
198994,0.104339599609375,0.105010986328125,-0.2898406982421875,-0.9165335297584534,-1.073477625846863,0.0146087696775794,49.11283874511719,99.25439453125,-0.1548614501953125
198995,0.1376495361328125,0.173858642578125,-0.21392822265625,-0.9001335501670837,-1.142922163009644,0.1410079896450043,49.21607971191406,99.00938415527344,0.2895050048828125
198996,0.1773529052734375,0.3189697265625,-0.186553955078125,-0.8824621438980103,-1.084356307983398,0.346272736787796,49.34967041015625,98.90078735351562,0.6690673828125
198997,0.1655120849609375,0.506683349609375,-0.206634521484375,-0.8414747714996338,-0.9488057494163512,0.4601750671863556,49.41781616210938,98.89649963378906,1.185791015625
198998,0.1324310302734375,0.6479339599609375,-0.2838592529296875,-0.7566267251968384,-0.8207915425300598,0.3591901063919067,49.66644287109375,98.7899932861328,1.4937744140625
198999,0.1204833984375,0.7025299072265625,-0.3819580078125,-0.6066521406173706,-0.7623665928840637,0.121044397354126,49.94894409179688,98.65036010742188,2.003463745117188
199000,0.1204833984375,0.7025299072265625,-0.3819580078125,-0.6066521406173706,-0.7623665928840637,0.121044397354126,49.94894409179688,98.65036010742188,2.003463745117188
199001,0.0947723388671875,0.7175445556640625,-0.4090728759765625,-0.1951242238283157,-0.5608606338500977,-0.151452898979187,50.15556335449219,98.50103759765624,2.4461669921875
199002,0.024169921875,0.798065185546875,-0.384368896484375,-0.0132654719054698,-0.5674344301223755,-0.0480857715010643,50.38424682617188,98.3840789794922,3.092422485351562
199003,0.0429534912109375,0.9219970703125,-0.34991455078125,0.0181254744529724,-0.6570292711257935,0.0238635204732418,50.4388427734375,98.23381042480467,3.338180541992188
199004,0.0429534912109375,0.9219970703125,-0.34991455078125,0.0181254744529724,-0.6570292711257935,0.0238635204732418,50.4388427734375,98.23381042480467,3.338180541992188
199005,0.096893310546875,1.397171020507812,-0.453338623046875,0.1056798249483109,-0.7848687171936035,0.1104665920138359,50.41436767578125,98.15074157714844,3.769317626953125
199006,0.16497802734375,1.76776123046875,-0.484893798828125,0.2774161696434021,-0.811583936214447,0.2315219044685364,50.58683776855469,97.98046875,3.7962646484375
199007,0.2276458740234375,2.147445678710938,-0.3538360595703125,0.4763598740100861,-0.6128908395767212,0.3235557079315186,50.69784545898438,97.88937377929688,3.79620361328125
199008,0.207275390625,2.457763671875,-0.16900634765625,0.6747866868972778,-0.21987484395504,0.2801163494586945,50.74417114257812,98.1068878173828,3.50250244140625
199009,0.2066497802734375,2.69415283203125,-0.040740966796875,0.8742079138755798,0.0184152256697416,0.2011698633432388,50.84269714355469,98.0448760986328,3.184326171875
199010,0.31011962890625,2.907699584960938,0.041656494140625,1.04667341709137,-0.0102651547640562,0.3873317539691925,50.98110961914062,98.04611206054688,2.792694091796875
199011,0.448333740234375,3.09136962890625,-0.00250244140625,1.171850800514221,-0.2290438413619995,0.8827025890350342,51.03814697265625,98.31549072265624,2.5523681640625
199012,0.448333740234375,3.09136962890625,-0.00250244140625,1.171850800514221,-0.2290438413619995,0.8827025890350342,51.03814697265625,98.31549072265624,2.5523681640625
199013,0.697113037109375,3.08148193359375,-0.0968017578125,1.249214768409729,-0.7304190397262573,1.783398270606995,51.4033203125,98.60182189941406,1.36614990234375
199014,0.7068328857421875,2.920364379882812,-0.0774688720703125,1.337211847305298,-0.5067236423492432,1.753016233444214,51.83787536621094,98.718505859375,0.7346343994140625
199015,0.616241455078125,2.940185546875,-0.0131378173828125,1.472729921340942,-0.1325473934412003,1.344268083572388,52.66586303710938,99.04792785644533,0.1765899658203125
199016,0.616241455078125,2.940185546875,-0.0131378173828125,1.472729921340942,-0.1325473934412003,1.344268083572388,52.66586303710938,99.04792785644533,0.1765899658203125
199017,0.33209228515625,3.070205688476562,0.1904296875,1.520567178726196,0.3087314665317535,0.6780333518981934,53.46705627441406,99.4030303955078,-0.4650726318359375
199018,-0.308349609375,2.9951171875,0.5658721923828125,1.171675324440002,1.413969993591309,-0.377553403377533,54.70664978027344,99.74513244628906,-1.474594116210938
199019,-0.490020751953125,2.5888671875,0.4751739501953125,0.8991175293922424,1.542556166648865,-1.004625082015991,55.03825378417969,99.76985168457033,-2.139053344726562
199020,-0.490020751953125,2.5888671875,0.4751739501953125,0.8991175293922424,1.542556166648865,-1.004625082015991,55.03825378417969,99.76985168457033,-2.139053344726562
199021,-0.71270751953125,1.352188110351562,0.22576904296875,0.7667174339294434,0.6862204670906067,-1.672032117843628,55.03932189941406,99.8666534423828,-3.542434692382812
199022,-0.7478790283203125,0.8971710205078125,0.22760009765625,0.9952856302261353,0.1056981980800629,-1.593689680099487,54.74395751953125,99.8250732421875,-3.906936645507812
199023,-0.9082489013671876,0.4636077880859375,0.2327880859375,1.462926626205444,-0.2744949460029602,-0.0036924728192389,54.19975280761719,99.90940856933594,-4.470596313476562
199024,-1.111907958984375,0.07867431640625,0.135955810546875,1.462926626205444,-0.2744949460029602,-0.0036924728192389,53.62095642089844,100.1086273193359,-5.130828857421875
199025,-0.7884674072265625,0.154327392578125,0.013671875,1.448656558990479,-0.0792506113648414,0.8096073269844055,53.1058349609375,100.2707824707031,-5.728851318359375
199026,-0.2795562744140625,0.57568359375,-0.083251953125,1.269662022590637,-0.2826862931251526,0.8064677715301514,52.90377807617188,100.5537567138672,-6.535552978515625
199027,-0.1179046630859375,0.8680267333984375,0.02606201171875,0.7284299731254578,-0.3992509841918945,0.2078706473112106,52.97943115234375,100.6313629150391,-7.3385009765625
199028,-0.01507568359375,1.033309936523438,0.018402099609375,0.7284299731254578,-0.3992509841918945,0.2078706473112106,53.23310852050781,100.6019134521484,-7.965438842773438
199029,0.0939178466796875,1.107818603515625,-0.0451507568359375,0.4204822480678558,-0.668792188167572,-0.1756189614534378,53.57205200195312,100.7342224121094,-8.50665283203125
199030,0.0939178466796875,1.107818603515625,-0.0451507568359375,0.4204822480678558,-0.668792188167572,-0.1756189614534378,53.57205200195312,100.7342224121094,-8.50665283203125
199031,0.2528839111328125,0.8210906982421875,0.01513671875,0.4450645446777344,-0.6158314943313599,-0.282056450843811,53.76512145996094,100.6853485107422,-9.325347900390623
199032,0.2528839111328125,0.8210906982421875,0.01513671875,0.4450645446777344,-0.6158314943313599,-0.282056450843811,53.76512145996094,100.6853485107422,-9.325347900390623
199033,0.241180419921875,0.375823974609375,-0.0025482177734375,0.7350463271141052,-0.3835007846355438,-0.1146666631102562,53.50482177734375,100.7140350341797,-9.766571044921877
199034,0.1057586669921875,0.2927703857421875,-0.0284423828125,0.7728211283683777,-0.3971470892429352,-0.0256691444665193,53.32173156738281,100.8384399414062,-9.8558349609375
199035,-0.0744171142578125,0.2675323486328125,-0.0432586669921875,0.6932245492935181,-0.4318981468677521,-0.0521915666759014,53.27030944824219,100.9350738525391,-10.07881164550781
199036,-0.0744171142578125,0.2675323486328125,-0.0432586669921875,0.6932245492935181,-0.4318981468677521,-0.0521915666759014,53.27030944824219,100.9350738525391,-10.07881164550781
199037,-0.2899017333984375,0.2440948486328125,0.0123138427734375,0.3901261985301971,-0.463173508644104,-0.0919123440980911,53.41880798339844,100.8031921386719,-10.99421691894531
199038,-0.331451416015625,0.265716552734375,0.117340087890625,0.3031212687492371,-0.3546350598335266,-0.0607866495847702,53.47990417480469,100.8968200683594,-11.24554443359375
199039,-0.35809326171875,0.3130950927734375,0.2735748291015625,0.2079278975725174,-0.0928276777267456,-0.0514741092920303,53.49891662597656,100.9948425292969,-11.37931823730469
199040,-0.35809326171875,0.3130950927734375,0.2735748291015625,0.2079278975725174,-0.0928276777267456,-0.0514741092920303,53.49891662597656,100.9948425292969,-11.37931823730469
199041,-0.35089111328125,0.5291900634765625,0.48162841796875,-0.1119587570428848,0.7442595362663269,0.0951123982667923,53.77958679199219,101.1336212158203,-11.54603576660156
199042,-0.35089111328125,0.5291900634765625,0.48162841796875,-0.1119587570428848,0.7442595362663269,0.0951123982667923,53.77958679199219,101.1336212158203,-11.54603576660156
199043,-0.417144775390625,0.8586273193359375,0.43084716796875,-0.5173331499099731,0.4967197477817535,-0.0514213778078556,53.921630859375,101.3226470947266,-11.34829711914062
199044,-0.499298095703125,0.9122467041015624,0.4872589111328125,-0.7331626415252686,0.0583895407617092,-0.2210673987865448,53.97218322753906,101.4500274658203,-11.12359619140625
199045,-0.5579376220703125,0.8386688232421875,0.5636749267578125,-0.949582040309906,-0.2891748249530792,-0.3873109817504883,53.93595886230469,101.4698638916016,-10.82069396972656
199046,-0.527923583984375,0.6729888916015625,0.5701141357421875,-1.151203513145447,-0.4931154251098633,-0.4896179139614105,53.91630554199219,101.3728179931641,-10.430419921875
199047,-0.425537109375,0.5362091064453125,0.4921875,-1.257181406021118,-0.6452847123146057,-0.5028596520423889,53.88664245605469,101.3682403564453,-9.848434448242188
199048,-0.3007659912109375,0.47186279296875,0.38006591796875,-1.302986979484558,-0.7952595949172974,-0.5057737231254578,53.77516174316406,101.3960113525391,-9.176986694335938
199049,-0.212921142578125,0.43707275390625,0.28826904296875,-1.392806887626648,-0.9693309664726256,-0.5239798426628113,53.50839233398438,101.34765625,-8.404998779296875
199050,-0.178253173828125,0.4288177490234375,0.2303466796875,-1.520241022109985,-1.100590229034424,-0.558739960193634,53.2781982421875,101.25927734375,-7.6756591796875
199051,-0.166778564453125,0.445831298828125,0.139678955078125,-1.668421387672424,-1.224260687828064,-0.6201341152191162,53.07553100585938,101.2626647949219,-7.090744018554688
199052,-0.166778564453125,0.445831298828125,0.139678955078125,-1.668421387672424,-1.224260687828064,-0.6201341152191162,53.07553100585938,101.2626647949219,-7.090744018554688
199053,-0.123016357421875,0.4598388671875,-0.355682373046875,-1.802479386329651,-1.768638610839844,-0.6912117600440979,52.61843872070312,100.9936676025391,-5.558380126953125
199054,-0.123016357421875,0.4598388671875,-0.355682373046875,-1.802479386329651,-1.768638610839844,-0.6912117600440979,52.61843872070312,100.9936676025391,-5.558380126953125
199055,-0.0579071044921875,0.373504638671875,-0.54864501953125,-1.459473490715027,-2.196238279342651,-0.5410520434379578,52.41256713867188,100.8658294677734,-4.791183471679688
199056,0.100372314453125,0.258056640625,-0.1651153564453125,-0.4575912654399872,-1.718920588493347,0.0564976297318935,52.05058288574219,100.4038848876953,-3.486709594726562
199057,0.18670654296875,0.1990814208984375,-0.1241912841796875,-0.2941120564937592,-1.331254005432129,0.4155372679233551,52.115966796875,100.2779388427734,-3.11346435546875
199058,0.206939697265625,0.1229095458984375,-0.1390533447265625,-0.329881489276886,-1.238210916519165,0.7208878993988037,52.28836059570312,100.1641387939453,-2.83331298828125
199059,0.1998748779296875,0.0386199951171875,-0.114837646484375,-0.4828867614269257,-1.239137411117554,0.9133872985839844,52.58512878417969,100.011474609375,-2.673614501953125
199060,0.1998748779296875,0.0386199951171875,-0.114837646484375,-0.4828867614269257,-1.239137411117554,0.9133872985839844,52.58512878417969,100.011474609375,-2.673614501953125
199061,0.2226409912109375,-0.064117431640625,-0.182403564453125,-0.9048790335655212,-1.230225205421448,1.088298082351685,53.46040344238281,99.85552978515624,-2.023880004882812
199062,0.246917724609375,-0.0042266845703125,-0.3134918212890625,-1.000720381736755,-1.228957533836365,1.112966418266296,54.01121520996094,99.58880615234376,-1.4727783203125
199063,0.2725982666015625,0.1630401611328125,-0.43792724609375,-0.9155737161636353,-1.214988708496094,0.9333937168121338,54.61946105957031,99.40652465820312,-1.132003784179688
199064,0.2725982666015625,0.1630401611328125,-0.43792724609375,-0.9155737161636353,-1.214988708496094,0.9333937168121338,54.61946105957031,99.40652465820312,-1.132003784179688
199065,0.3512115478515625,0.53363037109375,-0.5328826904296875,-0.4059235453605652,-0.9176435470581056,0.1842920780181885,55.59846496582031,99.16539001464844,0.024993896484375
199066,0.329315185546875,0.697906494140625,-0.5778961181640625,-0.1442309468984604,-0.9598360061645508,-0.1300088614225388,55.91949462890625,99.0362548828125,0.387847900390625
199067,0.282562255859375,0.787567138671875,-0.5141448974609375,-0.0418766103684902,-1.185647010803223,-0.3976307213306427,55.87074279785156,99.07223510742188,0.622833251953125
199068,0.282562255859375,0.787567138671875,-0.5141448974609375,-0.0418766103684902,-1.185647010803223,-0.3976307213306427,55.87074279785156,99.07223510742188,0.622833251953125
199069,0.22662353515625,0.8944549560546875,-0.3077392578125,-0.160270631313324,-1.147895336151123,-0.3697482347488403,55.90309143066406,99.19439697265624,0.6732177734375
199070,0.2318115234375,1.057632446289062,-0.3345947265625,-0.2278885543346405,-1.027472019195557,-0.2479259073734283,55.79676818847656,99.2286376953125,0.6410675048828125
199071,0.2303619384765625,1.321868896484375,-0.496429443359375,-0.1345229297876358,-0.94317364692688,-0.0348400063812732,55.80732727050781,99.07237243652344,0.7857818603515625
199072,0.2303619384765625,1.321868896484375,-0.496429443359375,-0.1345229297876358,-0.94317364692688,-0.0348400063812732,55.80732727050781,99.07237243652344,0.7857818603515625
199073,0.1424102783203125,2.046310424804688,-0.364654541015625,0.2774774134159088,-0.5908933877944946,0.4293234050273895,56.06455993652344,98.93302917480467,0.96746826171875
199074,-0.1172637939453125,2.481231689453125,-0.189666748046875,0.468290776014328,0.1057669073343277,0.2539177536964417,56.27508544921875,98.8619384765625,0.898834228515625
199075,-0.336456298828125,2.886245727539062,-0.442840576171875,0.8959590196609497,0.5305296778678894,-0.3796687722206116,56.5467529296875,98.9547119140625,0.5845794677734375
199076,-0.336456298828125,2.886245727539062,-0.442840576171875,0.8959590196609497,0.5305296778678894,-0.3796687722206116,56.5467529296875,98.9547119140625,0.5845794677734375
199077,-0.169647216796875,2.317489624023438,-0.537933349609375,1.724862813949585,0.4818832874298096,-0.1206473186612129,56.14248657226562,99.25027465820312,-0.248138427734375
199078,-0.045135498046875,1.777450561523438,-0.3932037353515625,1.589666962623596,0.9423891305923462,0.6673181056976318,55.90403747558594,99.443603515625,-1.063079833984375
199079,0.377166748046875,1.858810424804688,-0.348785400390625,0.7698239684104919,0.618819534778595,1.313125848770142,55.82815551757812,99.54714965820312,-1.926513671875
199080,0.5179290771484375,2.1639404296875,-0.2273101806640625,0.7698239684104919,0.618819534778595,1.313125848770142,56.04318237304688,99.72694396972656,-2.58685302734375
199081,0.469085693359375,2.545196533203125,-0.0407867431640625,0.6277592778205872,0.3995892107486725,1.377789616584778,56.47775268554688,99.72927856445312,-3.080169677734375
199082,0.3505401611328125,3.069503784179688,0.0713043212890625,0.8187798261642456,0.4937652349472046,1.224539518356323,57.01521301269531,99.64776611328124,-3.48046875
199083,0.1210479736328125,3.681045532226562,0.1826629638671875,1.202056407928467,0.9078188538551332,0.7612345218658447,57.45655822753906,99.88206481933594,-3.971908569335938
199084,0.1210479736328125,3.681045532226562,0.1826629638671875,1.202056407928467,0.9078188538551332,0.7612345218658447,57.45655822753906,99.88206481933594,-3.971908569335938
199085,-0.4700164794921875,3.835098266601562,0.226348876953125,1.47108519077301,1.767977833747864,-0.6962592005729675,57.89961242675781,100.3080291748047,-4.864303588867188
199086,-0.4700164794921875,3.835098266601562,0.226348876953125,1.47108519077301,1.767977833747864,-0.6962592005729675,57.89961242675781,100.3080291748047,-4.864303588867188
199087,-0.59747314453125,2.977447509765625,0.1087493896484375,1.235755443572998,1.610588788986206,-1.235182881355286,57.88484191894531,100.6033477783203,-5.768844604492188
199088,-0.739471435546875,1.406448364257812,0.18255615234375,1.20621919631958,0.9185322523117064,-1.304120659828186,57.43742370605469,100.8148498535156,-7.07940673828125
199089,-0.9248809814453124,0.9070587158203124,0.3578948974609375,1.504192233085632,1.024685621261597,-0.7901489734649658,57.12924194335938,100.9136810302734,-7.736923217773438
199090,-0.9248809814453124,0.9070587158203124,0.3578948974609375,1.504192233085632,1.024685621261597,-0.7901489734649658,57.12924194335938,100.9136810302734,-7.736923217773438
199091,-0.81475830078125,0.4665374755859375,0.0922088623046875,1.923803687095642,0.8872994780540466,0.7548293471336365,56.77537536621094,100.9272766113281,-9.155776977539062
199092,-0.5326995849609375,0.633392333984375,0.0937957763671875,1.807959318161011,0.3440535068511963,0.7864434719085693,56.83183288574219,100.8438873291016,-9.893218994140623
199093,-0.3421630859375,0.749420166015625,0.205535888671875,1.451958656311035,0.0807803347706794,0.5823419690132141,57.13996887207031,100.8395385742188,-10.753662109375
199094,-0.195709228515625,0.823089599609375,0.2560272216796875,1.035520672798157,0.1399784088134766,0.3080760836601257,57.46910095214844,100.8257598876953,-11.609130859375
199095,-0.06298828125,0.8522796630859375,0.2437744140625,0.7164113521575928,0.288598507642746,0.1120098903775215,57.62226867675781,100.9984893798828,-12.36643981933594
199096,0.0241851806640625,0.8719482421875,0.1322784423828125,0.5008020997047424,0.2427002638578415,0.0226158294826746,57.56272888183594,100.98974609375,-12.7576904296875
199097,0.03948974609375,0.9191436767578124,0.0949859619140625,0.3690768480300903,0.0014389059506356,-0.0695772171020507,57.55271911621094,101.0276031494141,-13.12908935546875
199098,0.0429534912109375,0.828857421875,0.1389923095703125,0.3075807094573975,-0.2288837730884552,-0.1027697846293449,57.46839904785156,101.0733032226562,-13.39436340332031
199099,0.0169677734375,0.63690185546875,0.1587677001953125,0.3082302808761597,-0.3964011371135712,-0.0311350151896476,57.37509155273438,101.1882934570312,-13.72702026367188
199100,0.0169677734375,0.63690185546875,0.1587677001953125,0.3082302808761597,-0.3964011371135712,-0.0311350151896476,57.37509155273438,101.1882934570312,-13.72702026367188
199101,-0.0791778564453125,0.5360565185546875,0.0611724853515625,0.3536880314350128,-0.856266975402832,-0.0223476495593786,57.46572875976562,101.0840454101562,-13.97964477539062
199102,-0.1421661376953125,0.5128936767578125,0.0508575439453125,0.2968854606151581,-1.114081263542175,-0.1806382238864899,57.50379943847656,100.8246917724609,-14.0364990234375
199103,-0.213836669921875,0.4283447265625,0.092681884765625,-0.0645006969571113,-1.189714193344116,-0.3409479856491089,57.63177490234375,100.7226867675781,-14.19134521484375
199104,-0.213836669921875,0.4283447265625,0.092681884765625,-0.0645006969571113,-1.189714193344116,-0.3409479856491089,57.63177490234375,100.7226867675781,-14.19134521484375
199105,-0.2649078369140625,0.248443603515625,0.27398681640625,-0.280491054058075,-0.8689205050468445,-0.3268215358257294,57.58938598632812,100.6527099609375,-14.36758422851562
199106,-0.330474853515625,0.19378662109375,0.3418426513671875,-0.4574647545814514,-0.3559242784976959,-0.2452574223279953,57.41860961914062,100.6712188720703,-14.28935241699219
199107,-0.41912841796875,0.2530059814453125,0.44677734375,-0.585413932800293,0.2459565103054047,-0.1210097745060921,57.24873352050781,100.9626159667969,-14.28233337402344
199108,-0.41912841796875,0.2530059814453125,0.44677734375,-0.585413932800293,0.2459565103054047,-0.1210097745060921,57.24873352050781,100.9626159667969,-14.28233337402344
199109,-0.5400238037109375,0.68646240234375,0.54022216796875,-0.7685150504112244,1.144976258277893,-0.0222094319760799,57.06376647949219,101.3173522949219,-13.83770751953125
199110,-0.5400238037109375,0.68646240234375,0.54022216796875,-0.7685150504112244,1.144976258277893,-0.0222094319760799,57.06376647949219,101.3173522949219,-13.83770751953125
