time_idx,accelerometerAccelerationX(G),accelerometerAccelerationY(G),accelerometerAccelerationZ(G),gyroRotationX(rad/s),gyroRotationY(rad/s),gyroRotationZ(rad/s),magnetometerX(µT),magnetometerY(µT),magnetometerZ(µT)
112222,-0.0081939697265625,-0.07965087890625,0.058746337890625,0.4266645014286041,0.9319623112678528,0.196842759847641,32.70843505859375,93.07838439941406,0.677520751953125
112223,-0.0029296875,-0.108367919921875,-0.0182952880859375,0.4080338180065155,0.6337798833847046,0.1475604325532913,32.7196044921875,93.22393798828124,0.2225341796875
112224,-0.004058837890625,-0.1082305908203125,-0.0398712158203125,0.5042123198509216,0.3109783828258514,0.1206427961587906,32.64654541015625,93.35627746582033,0.009490966796875
112225,-0.01446533203125,-0.131744384765625,-0.00457763671875,0.5748355984687805,0.1238473728299141,0.0901948735117912,32.71585083007812,93.41287231445312,-0.158447265625
112226,-0.0280303955078125,-0.1821441650390625,0.01153564453125,0.5052906274795532,0.1581305116415024,0.0851359367370605,32.922119140625,93.6342315673828,-0.096038818359375
112227,-0.020477294921875,-0.2275238037109375,-0.049591064453125,0.3580960929393768,0.2077928781509399,0.0887913852930069,32.922119140625,93.6342315673828,-0.096038818359375
112228,0.002655029296875,-0.2565765380859375,-0.125152587890625,0.1651700437068939,0.106724850833416,0.0895988568663597,33.07533264160156,93.79779052734376,0.1025543212890625
112229,0.0446624755859375,-0.283111572265625,-0.2528839111328125,0.0207715909928083,-0.2022702842950821,0.0675050094723701,33.18592834472656,93.9708251953125,0.236785888671875
112230,0.089752197265625,-0.339599609375,-0.447052001953125,-0.0167640671133995,-0.9149063229560852,0.0625856146216392,33.53788757324219,93.56063842773438,1.262863159179688
112231,0.10784912109375,-0.326446533203125,-0.4104766845703125,0.0712267756462097,-1.701569557189941,0.084910362958908,33.53788757324219,93.56063842773438,1.262863159179688
112232,0.1037445068359375,-0.279571533203125,-0.2056121826171875,0.1268562227487564,-2.062934637069702,0.0775491222739219,33.77114868164062,92.89938354492188,2.067276000976562
112233,0.0950927734375,-0.2564697265625,-0.0373077392578125,0.0606950372457504,-1.962409138679504,0.0231766924262046,34.24177551269531,91.54502868652344,3.030364990234375
112234,0.0872802734375,-0.2467193603515625,0.0604248046875,-0.1088812127709389,-1.555024027824402,-0.0574041716754436,34.06834411621094,90.97576904296876,2.952102661132812
112235,0.081085205078125,-0.2529754638671875,0.1226654052734375,-0.2679949700832367,-0.997179627418518,-0.142115592956543,33.68716430664062,90.55665588378906,2.951065063476562
112236,0.0877227783203125,-0.2393646240234375,0.146331787109375,-0.3225463628768921,-0.4664750397205353,-0.2125972211360931,33.09902954101562,90.54208374023438,2.940505981445312
112237,0.1350860595703125,-0.1854705810546875,0.1455841064453125,-0.1971884369850159,0.1603041887283325,-0.4376577734947205,32.33747863769531,91.1913604736328,3.258255004882812
112238,0.1350860595703125,-0.1854705810546875,0.1455841064453125,-0.1971884369850159,0.1603041887283325,-0.4376577734947205,32.33747863769531,91.1913604736328,3.258255004882812
112239,0.167694091796875,-0.1541900634765625,0.19793701171875,-0.1420048028230667,0.248884916305542,-0.6078563928604126,32.34524536132812,91.48731994628906,3.323989868164062
112240,0.1123809814453125,0.0095977783203125,0.2423858642578125,-0.0485084131360054,0.1052015200257301,-0.7082809805870056,32.28334045410156,91.29991149902344,3.675338745117188
112241,-0.01593017578125,0.2282867431640625,0.5268096923828125,-0.2489104866981506,-0.4050960838794708,-0.598179280757904,32.19088745117188,90.80960083007812,3.788314819335938
112242,-0.01593017578125,0.2282867431640625,0.5268096923828125,-0.2489104866981506,-0.4050960838794708,-0.598179280757904,32.19088745117188,90.80960083007812,3.788314819335938
112243,-0.0703887939453125,0.3903045654296875,0.8459625244140625,-0.6285268068313599,-0.4324797689914703,-0.6041876077651978,32.21676635742188,90.44825744628906,3.95477294921875
112244,-0.1346282958984375,0.594635009765625,1.118057250976562,-0.9719451069831848,-0.3372741639614105,-0.7106152772903442,32.31723022460938,90.11366271972656,4.479888916015625
112245,-0.275054931640625,0.78802490234375,1.30010986328125,-1.158976554870605,-0.5830383896827698,-0.8141136765480042,32.48457336425781,89.93795776367188,5.35595703125
112246,-0.4618682861328125,0.8544769287109375,1.353363037109375,-1.160518527030945,-1.43726909160614,-0.6277108192443848,32.59385681152344,90.18635559082033,6.188446044921875
112247,-0.63592529296875,1.634811401367188,1.544464111328125,-1.483723521232605,-2.327884197235107,-0.4414383769035339,32.54118347167969,90.66961669921876,6.663116455078125
112248,-1.47882080078125,4.401992797851562,2.3623046875,-2.27282977104187,-1.580895781517029,-1.044298648834229,32.6318359375,91.23239135742188,6.593399047851562
112249,-3.39654541015625,7.854232788085938,3.127212524414062,-2.529265880584717,3.968265771865845,1.533459305763245,32.89222717285156,91.79559326171876,5.823776245117188
112250,-3.29876708984375,8.076828002929688,-1.170669555664062,-2.017556667327881,5.004558086395264,1.565664410591125,33.29429626464844,92.57948303222656,4.277801513671875
112251,-0.613800048828125,6.939285278320312,-5.052108764648438,1.214281916618347,-3.730401277542114,-0.1715717613697052,33.67340087890625,92.85630798339844,3.6669921875
112252,0.823150634765625,3.33447265625,-1.745880126953125,1.04310929775238,-2.935802698135376,2.030671119689941,33.72833251953125,92.54977416992188,4.225753784179688
112253,0.178558349609375,2.002960205078125,-0.3856658935546875,1.701800942420959,-2.02569842338562,2.637553930282593,33.91920471191406,92.54440307617188,4.94537353515625
112254,0.12615966796875,1.446762084960938,0.40704345703125,2.247628688812256,-1.846343517303467,2.167989253997803,34.79244995117188,92.60818481445312,5.343704223632812
112255,0.14459228515625,0.9115142822265624,0.7987518310546875,2.301744222640991,-0.8637768626213074,1.556719899177551,36.01065063476562,92.91656494140624,5.372940063476562
112256,0.074737548828125,0.57208251953125,0.6018524169921875,2.184057712554932,0.2425180971622467,1.113543033599854,37.18974304199219,93.33477783203124,5.171707153320312
112257,0.057952880859375,0.182708740234375,0.016510009765625,1.900962471961975,0.6324661374092102,0.7716026902198792,38.399658203125,94.08322143554688,3.52618408203125
112258,0.057952880859375,0.182708740234375,0.016510009765625,1.900962471961975,0.6324661374092102,0.7716026902198792,38.399658203125,94.08322143554688,3.52618408203125
112259,0.06903076171875,0.046600341796875,-0.1106719970703125,1.716056823730469,0.2472795695066452,0.7457370162010193,38.69700622558594,94.46665954589844,2.615692138671875
112260,0.0640106201171875,-0.0462799072265625,-0.1346588134765625,1.50042736530304,-0.1600237488746643,0.7780390381813049,38.920654296875,94.81649780273438,1.6246337890625
112261,0.05596923828125,-0.111083984375,-0.239501953125,1.341302394866943,-0.6022490859031677,0.8340303897857666,38.96568298339844,95.20123291015624,0.90234375
112262,0.0540008544921875,-0.128936767578125,-0.253082275390625,1.296036958694458,-1.049674034118652,0.8939528465270996,39.14633178710938,95.55435180664062,0.3284454345703125
112263,0.043731689453125,-0.113006591796875,-0.1108551025390625,1.209486603736877,-1.196876287460327,0.9101832509040833,39.50430297851562,95.93719482421876,-0.1146697998046875
112264,0.0405731201171875,-0.0851593017578125,0.0132293701171875,0.8957249522209167,-1.003429055213928,0.8307406306266785,40.52027893066406,96.40383911132812,-0.4220428466796875
112265,0.04498291015625,-0.0842742919921875,0.0351715087890625,0.7560384273529053,-0.8840306997299194,0.7622984051704407,40.98822021484375,96.62127685546876,-0.3626251220703125
112266,0.04498291015625,-0.0842742919921875,0.0351715087890625,0.7560384273529053,-0.8840306997299194,0.7622984051704407,40.98822021484375,96.62127685546876,-0.3626251220703125
112267,0.0511016845703125,-0.092376708984375,0.048736572265625,0.6205798983573914,-0.7685278058052063,0.6820352673530579,41.54627990722656,96.76115417480467,-0.276611328125
112268,0.054229736328125,-0.099639892578125,0.0547332763671875,0.4871904253959656,-0.645042896270752,0.601614773273468,42.14418029785156,96.834716796875,-0.1214752197265625
112269,0.06689453125,-0.139678955078125,0.043792724609375,0.1834790110588074,-0.4052500128746033,0.4195266962051392,43.14007568359375,96.78268432617188,0.492767333984375
112270,0.06689453125,-0.139678955078125,0.043792724609375,0.1834790110588074,-0.4052500128746033,0.4195266962051392,43.14007568359375,96.78268432617188,0.492767333984375
112271,0.0749969482421875,-0.1612548828125,0.0196990966796875,-0.0586388111114502,-0.2929977774620056,0.2797275185585022,43.53170776367188,96.51841735839844,0.7052154541015625
112272,0.085723876953125,-0.1706390380859375,-0.0034027099609375,-0.3470096290111542,-0.2052815109491348,0.0885884538292884,43.75843811035156,96.28407287597656,0.9054718017578124
112273,0.09466552734375,-0.1794281005859375,-0.01409912109375,-0.6399298906326294,-0.1383245885372162,-0.1404207646846771,44.01284790039062,95.89002990722656,1.291259765625
112274,0.10260009765625,-0.1983795166015625,-0.0765838623046875,-0.8927469849586487,-0.1606602519750595,-0.3554723560810089,43.99284362792969,95.4610595703125,1.535568237304688
112275,0.105377197265625,-0.215850830078125,-0.1312408447265625,-1.023799538612366,-0.4472326338291168,-0.5100230574607849,43.71746826171875,95.0740966796875,1.904830932617188
112276,0.083953857421875,-0.1504669189453125,0.2114410400390625,-1.12257969379425,-0.6856175065040588,-0.805671215057373,43.17059326171875,94.54206848144533,2.962249755859375
112277,0.083953857421875,-0.1504669189453125,0.2114410400390625,-1.12257969379425,-0.6856175065040588,-0.805671215057373,43.17059326171875,94.54206848144533,2.962249755859375
112278,0.0594635009765625,0.019683837890625,0.343414306640625,-1.127343773841858,-0.4217349886894226,-0.9026212096214294,42.87443542480469,94.35340881347656,3.561630249023438
112279,0.025054931640625,0.142578125,0.390655517578125,-1.159935235977173,-0.1183450222015381,-0.9423664808273317,42.61016845703125,94.15968322753906,4.084075927734375
112280,0.014373779296875,0.2083587646484375,0.4666595458984375,-1.264513611793518,0.0247287824749946,-0.983427107334137,42.30252075195312,94.03173828125,4.807571411132812
112281,-0.028839111328125,0.32940673828125,0.59912109375,-1.376355767250061,-0.1445257514715195,-1.045230031013489,41.96994018554688,94.0301513671875,5.310745239257812
112282,-0.0831451416015625,0.5546722412109375,0.8671417236328125,-1.471073985099792,-0.6339260935783386,-1.140719771385193,41.61973571777344,93.99087524414062,5.89910888671875
112283,-0.0891571044921875,1.188369750976562,1.33740234375,-1.623756408691406,-1.088134050369263,-1.435516476631165,41.18180847167969,94.1239776611328,6.403594970703125
112284,-0.0103302001953125,2.146194458007812,1.820632934570312,-1.945742011070251,-1.181718349456787,-1.990847110748291,40.85726928710938,94.2482452392578,7.118743896484375
112285,-0.195709228515625,5.000106811523438,2.2498779296875,-2.409285545349121,-0.6755925416946411,-2.47113037109375,40.28489685058594,94.38075256347656,7.391357421875
112286,-0.7238006591796875,7.142074584960938,2.313705444335938,-2.59782600402832,0.1203224137425423,-1.721959233283997,39.61424255371094,94.50773620605467,7.191360473632812
112287,-1.490646362304688,6.718597412109375,1.157806396484375,-2.320656776428223,-0.0998578891158103,-1.849705934524536,39.01022338867188,94.3867645263672,6.98858642578125
112288,-1.011886596679688,4.128662109375,-0.46099853515625,-0.6656544208526611,-1.559011578559875,-2.920624494552612,38.64169311523438,93.72474670410156,7.670318603515625
112289,-0.011810302734375,1.553726196289062,-1.480300903320312,0.9901523590087892,-4.322917461395264,-2.771143913269043,38.27491760253906,92.85386657714844,8.77813720703125
112290,0.2573394775390625,0.3559112548828125,-1.4287109375,2.500255346298218,-7.055356025695801,-1.805895924568176,37.86541748046875,92.06330871582033,9.502395629882812
112291,-0.40142822265625,-0.4963836669921875,-0.257568359375,2.783689498901367,-4.846508979797363,-0.5828799605369568,37.73381042480469,91.62939453125,9.762420654296877
112292,-0.1920013427734375,-0.8773345947265625,-0.28302001953125,2.604393720626831,0.0672221779823303,1.188018798828125,38.07022094726562,91.62452697753906,9.69573974609375
112293,0.5033416748046875,-0.4025726318359375,-1.227508544921875,2.907736778259277,2.41053318977356,2.782837390899658,39.05044555664062,92.51255798339844,8.316360473632812
112294,0.5033416748046875,-0.4025726318359375,-1.227508544921875,2.907736778259277,2.41053318977356,2.782837390899658,39.05044555664062,92.51255798339844,8.316360473632812
112295,0.3683319091796875,-0.1455230712890625,-0.99908447265625,2.435966491699219,2.010682106018066,2.753857374191284,39.63740539550781,93.07162475585938,7.416748046875
112296,0.27984619140625,-0.0348968505859375,-0.9493560791015624,1.747264862060547,0.8184123039245605,2.439655780792236,40.32594299316406,93.63508605957033,6.22320556640625
112297,0.2263336181640625,0.00250244140625,-0.69122314453125,1.157524347305298,-0.4346763491630554,2.056594371795654,41.21969604492188,94.1245574951172,5.287277221679688
112298,0.223907470703125,-0.0069427490234375,-0.46368408203125,0.7901486754417419,-1.141296625137329,1.719127774238586,41.99407958984375,94.65066528320312,4.637786865234375
112299,0.23101806640625,-0.0163421630859375,-0.3548126220703125,0.66042560338974,-1.248244047164917,1.466543436050415,42.80581665039062,95.12347412109376,4.065704345703125
112300,0.162994384765625,0.0634307861328125,-0.32275390625,0.9105497002601624,-0.6576743125915527,0.9159457683563232,44.41511535644531,95.70120239257812,3.771682739257812
112301,0.162994384765625,0.0634307861328125,-0.32275390625,0.9105497002601624,-0.6576743125915527,0.9159457683563232,44.41511535644531,95.70120239257812,3.771682739257812
112302,0.15594482421875,0.1350555419921875,-0.291839599609375,1.220781087875366,-0.4630936086177826,0.5616814494132996,45.11297607421875,96.09852600097656,3.443359375
112303,0.1527862548828125,0.232208251953125,-0.2032928466796875,1.378466606140137,-0.0812426581978797,0.1550503075122833,45.51358032226562,96.48762512207033,3.107162475585938
112304,0.129974365234375,0.3004608154296875,-0.3287811279296875,1.394484877586365,0.1705091595649719,-0.1245922595262527,45.87391662597656,96.728515625,2.580398559570312
112305,-0.0399322509765625,0.454345703125,-0.5813446044921875,1.135772705078125,0.3337571918964386,-0.3605991899967194,45.89303588867188,97.11880493164062,1.226394653320312
112306,-0.0399322509765625,0.454345703125,-0.5813446044921875,1.135772705078125,0.3337571918964386,-0.3605991899967194,45.89303588867188,97.11880493164062,1.226394653320312
112307,-0.1050872802734375,0.653564453125,-0.7274932861328125,0.8913760185241699,0.4848015606403351,-0.5144697427749634,45.75930786132812,97.40830993652344,0.530792236328125
112308,-0.14471435546875,0.9852142333984376,-0.8335113525390625,0.7555007338523865,0.3966128528118134,-0.8713721632957458,45.49435424804688,97.6077117919922,-0.0930023193359375
112309,-0.0424957275390625,1.820175170898438,-0.62506103515625,0.5666061639785767,-0.132268562912941,-2.193733215332031,44.70066833496094,98.04280090332033,-1.175155639648438
112310,-0.0424957275390625,1.820175170898438,-0.62506103515625,0.5666061639785767,-0.132268562912941,-2.193733215332031,44.70066833496094,98.04280090332033,-1.175155639648438
112311,0.1733245849609375,2.354995727539062,-0.32366943359375,0.2092845141887665,-0.2894081175327301,-2.497096538543701,43.90177917480469,98.16146850585938,-1.560440063476562
112312,0.2417144775390625,2.977798461914062,0.0052947998046875,-0.3452481925487518,-0.2894360721111298,-2.091675996780396,43.01387023925781,98.24461364746094,-1.971710205078125
112313,0.0961761474609375,3.4915771484375,0.267822265625,-0.9323343634605408,0.1430724710226059,-1.390765309333801,41.89248657226562,98.31610107421876,-2.590499877929688
112314,-0.087371826171875,3.835769653320312,0.055267333984375,-1.198217988014221,0.3685759007930756,-0.7457154393196106,40.81105041503906,98.35403442382812,-2.8724365234375
112315,-0.3322601318359375,3.7569580078125,-0.0960693359375,-0.8005989193916321,0.0561692640185356,-0.1707690805196762,40.15571594238281,98.23078918457033,-2.909530639648438
112316,-0.4888153076171875,3.256942749023438,0.077423095703125,-0.1121837943792343,0.1807854920625687,0.2558543980121613,39.71821594238281,98.01185607910156,-2.600921630859375
112317,-0.3164520263671875,2.6795654296875,0.04278564453125,0.5456505417823792,0.3470029532909393,0.2387715578079224,39.67756652832031,97.8837890625,-2.542800903320312
112318,-0.1768646240234375,2.33636474609375,-0.101043701171875,0.9744141697883606,0.0030573089607059,0.1140818297863007,39.81883239746094,97.8774871826172,-2.413986206054688
112319,-0.1318206787109375,2.123260498046875,-0.1636962890625,1.145145416259766,-0.5899484753608704,-0.0050962250679731,40.00839233398438,97.95797729492188,-2.5111083984375
112320,-0.1373138427734375,1.931365966796875,-0.3130950927734375,1.136397957801819,-1.165435791015625,-0.0203856993466615,40.14012145996094,97.96148681640624,-2.778701782226562
112321,-0.2398529052734375,1.45233154296875,-0.7850341796875,0.6966965198516846,-1.930148363113403,0.3324594497680664,40.52549743652344,97.85466003417967,-3.759994506835938
112322,-0.2398529052734375,1.45233154296875,-0.7850341796875,0.6966965198516846,-1.930148363113403,0.3324594497680664,40.52549743652344,97.85466003417967,-3.759994506835938
112323,-0.2277374267578125,1.249771118164062,-0.5135040283203125,0.59751296043396,-1.251081109046936,0.5534277558326721,40.75166320800781,97.95883178710938,-4.194610595703125
112324,-0.185333251953125,1.095001220703125,-0.3451690673828125,0.8107096552848816,-0.6882428526878357,0.6860347986221313,41.04193115234375,98.06658935546876,-4.3414306640625
112325,-0.1636199951171875,0.894683837890625,-0.377410888671875,1.134247779846191,-0.5597684979438782,0.6329934597015381,41.50885009765625,98.0454559326172,-4.482192993164062
112326,-0.136871337890625,0.7208709716796875,-0.3405303955078125,1.468211889266968,-0.6847066879272461,0.4891696870326996,42.03961181640625,98.03221130371094,-4.944229125976562
112327,-0.0823822021484375,0.6508026123046875,-0.1194000244140625,1.60843551158905,-0.5154896974563599,0.3295542001724243,42.40921020507812,98.09104919433594,-5.338211059570312
112328,-0.0323638916015625,0.6126251220703125,0.0061187744140625,1.468705654144287,-0.1562399417161942,0.2314068526029587,42.64694213867188,98.22235107421876,-5.829330444335938
112329,-0.026641845703125,0.560943603515625,0.005950927734375,1.15339720249176,0.0587112493813037,0.1592373251914978,42.77235412597656,98.30947875976562,-6.314376831054688
112330,-0.0420379638671875,0.500030517578125,-0.0455169677734375,0.7998167872428894,0.0012237224727869,0.0887250751256942,42.85469055175781,98.5615692138672,-7.028350830078125
112331,-0.09173583984375,0.4456939697265625,-0.079376220703125,0.4916203320026398,-0.2359621971845627,-0.0058304583653807,42.93341064453125,98.64006042480467,-7.64068603515625
112332,-0.22650146484375,0.3812408447265625,0.001373291015625,0.1351809948682785,-0.58189457654953,-0.1826832592487335,42.94921875,98.8935546875,-8.352981567382812
112333,-0.22650146484375,0.3812408447265625,0.001373291015625,0.1351809948682785,-0.58189457654953,-0.1826832592487335,42.94921875,98.8935546875,-8.352981567382812
112334,-0.293365478515625,0.3514251708984375,0.083770751953125,0.0316146500408649,-0.5004521608352661,-0.2514069378376007,43.00936889648438,98.91476440429688,-8.519317626953125
112335,-0.3603363037109375,0.3162994384765625,0.144012451171875,-0.0855812132358551,-0.2820034623146057,-0.2764313220977783,42.95390319824219,99.08372497558594,-8.591873168945312
112336,-0.377410888671875,0.274017333984375,0.1710357666015625,-0.2379361242055893,-0.0444987565279007,-0.2693984508514404,42.95109558105469,99.00869750976562,-8.469329833984375
112337,-0.3651885986328125,0.256317138671875,0.19189453125,-0.3688619136810303,0.0986586660146713,-0.2857651710510254,42.93927001953125,99.12144470214844,-8.484359741210938
112338,-0.3627471923828125,0.2410888671875,0.266876220703125,-0.4098453223705292,0.1808035969734192,-0.3197116851806641,42.90821838378906,99.01837158203124,-8.434341430664062
112339,-0.3570098876953125,0.2216339111328125,0.3580322265625,-0.3362936079502106,0.3573762476444244,-0.2832455635070801,42.82608032226562,99.0359344482422,-8.24456787109375
112340,-0.357666015625,0.24798583984375,0.390411376953125,-0.2129668593406677,0.5259042978286743,-0.1421145349740982,42.78166198730469,99.13760375976562,-8.00677490234375
112341,-0.3553009033203125,0.3409576416015625,0.4069061279296875,-0.0844469740986824,0.6264466047286987,-0.0028258801903575,42.72163391113281,99.2344207763672,-7.760299682617188
112342,-0.3383026123046875,0.4899444580078125,0.4073638916015625,-0.0093927029520273,0.5986520051956177,0.0106087019667029,42.52268981933594,99.37623596191406,-7.686752319335938
112343,-0.3409576416015625,0.6046142578125,0.4293212890625,-0.0118571920320391,0.471615731716156,-0.0865689814090728,42.43043518066406,99.62361145019533,-7.600234985351562
112344,-0.3502349853515625,0.6642608642578125,0.4551544189453125,-0.1337383538484573,0.2844714224338531,-0.2046471536159515,42.32589721679688,99.78765869140624,-7.597900390625
112345,-0.297393798828125,0.6383209228515625,0.4577178955078125,-0.7175131440162659,-0.3349984884262085,-0.4290829300880432,42.05311584472656,100.1154479980469,-7.862274169921875
112346,-0.297393798828125,0.6383209228515625,0.4577178955078125,-0.7175131440162659,-0.3349984884262085,-0.4290829300880432,42.05311584472656,100.1154479980469,-7.862274169921875
112347,-0.2222900390625,0.55279541015625,0.451019287109375,-1.117326617240906,-0.7826103568077087,-0.5547505617141724,41.92781066894531,100.1416931152344,-7.666366577148438
112348,-0.1529083251953125,0.43243408203125,0.429931640625,-1.471988558769226,-1.264953255653381,-0.6562300324440002,41.79267883300781,100.0835113525391,-7.405609130859375
112349,-0.1052703857421875,0.297210693359375,0.403594970703125,-1.708156824111938,-1.698813080787659,-0.7099558711051941,41.73489379882812,99.85847473144533,-6.846038818359375
112350,-0.069091796875,0.191802978515625,0.370513916015625,-1.85302209854126,-2.059940099716187,-0.7187402844429016,41.58537292480469,99.49177551269533,-6.1866455078125
112351,-0.03515625,0.132171630859375,0.341827392578125,-1.938126921653748,-2.31538462638855,-0.7030494809150696,41.50480651855469,99.1328125,-5.3477783203125
112352,0.0073089599609375,0.106170654296875,0.303863525390625,-2.000603199005127,-2.442314386367798,-0.6767712831497192,41.37701416015625,98.43984985351562,-4.170516967773438
112353,0.09698486328125,0.06573486328125,0.17633056640625,-2.091558218002319,-2.418523073196411,-0.535727858543396,41.44842529296875,97.36680603027344,-1.941604614257812
112354,0.09698486328125,0.06573486328125,0.17633056640625,-2.091558218002319,-2.418523073196411,-0.535727858543396,41.44842529296875,97.36680603027344,-1.941604614257812
112355,0.1320953369140625,0.0522613525390625,0.152313232421875,-2.093479156494141,-2.254865646362305,-0.3498994112014771,41.53337097167969,96.83485412597656,-0.811370849609375
112356,0.1468048095703125,0.0463714599609375,0.15203857421875,-2.053703784942627,-1.796616911888123,-0.0905203148722648,41.67401123046875,96.4990234375,0.3883514404296875
112357,0.196075439453125,0.0514068603515625,0.08917236328125,-1.745108723640442,-0.1079368516802788,0.5696839690208435,41.81257629394531,95.87614440917967,2.672576904296875
112358,0.196075439453125,0.0514068603515625,0.08917236328125,-1.745108723640442,-0.1079368516802788,0.5696839690208435,41.81257629394531,95.87614440917967,2.672576904296875
112359,0.395233154296875,0.0374603271484375,-1.096282958984375,-1.050295352935791,-0.3776066899299622,1.091209173202515,41.78244018554688,95.7962646484375,3.819366455078125
112360,0.509368896484375,0.2412567138671875,-1.36907958984375,0.2282470166683197,-2.44269847869873,1.640417695045471,41.76441955566406,95.89230346679688,4.703353881835938
112361,0.3810577392578125,0.4093017578125,-0.1703643798828125,0.4176079034805298,-0.0783113166689872,1.5411137342453,41.93936157226562,95.95758056640624,5.55322265625
112362,0.26654052734375,0.449462890625,-0.5562744140625,0.4510577321052551,1.035722255706787,1.339574813842773,42.39021301269531,96.1685791015625,6.000411987304688
112363,0.2078399658203125,0.57257080078125,-0.58233642578125,0.4994617402553558,0.7860926985740662,1.162084460258484,43.10047912597656,96.38200378417967,6.188003540039062
112364,0.136962890625,1.064773559570312,-0.4080047607421875,-0.1316184848546982,0.0057058227248489,0.6273373961448669,43.93359375,96.54588317871094,6.208541870117188
112365,0.136962890625,1.064773559570312,-0.4080047607421875,-0.1316184848546982,0.0057058227248489,0.6273373961448669,43.93359375,96.54588317871094,6.208541870117188
112366,0.1253662109375,1.389007568359375,-0.3938140869140625,-0.5742135047912598,-0.3540520966053009,0.1996214985847473,44.24378967285156,96.60455322265624,6.060302734375
112367,0.1413726806640625,1.79107666015625,-0.4087677001953125,-0.7887247204780579,-0.6741440892219543,-0.3171047270298004,44.50448608398438,96.51751708984376,6.068695068359375
112368,0.2108612060546875,2.215362548828125,-0.480255126953125,-0.4901627898216248,-1.064786076545715,-0.7998042702674866,44.73329162597656,96.19247436523438,6.35577392578125
112369,0.3303985595703125,2.5269775390625,-0.530303955078125,0.3686898946762085,-1.424440741539001,-0.9760940670967102,44.7254638671875,96.0447235107422,6.770248413085938
112370,0.336578369140625,2.638534545898438,-0.40850830078125,1.439221739768982,-1.22048807144165,-0.6998915076255798,44.59767150878906,95.89054870605467,6.9539794921875
112371,0.1878509521484375,2.562774658203125,-0.32281494140625,2.252236127853394,-0.1511514335870743,-0.1530220359563828,44.39863586425781,95.90557861328124,6.758132934570312
112372,-0.0030975341796875,2.277862548828125,-0.7328338623046875,2.473437309265137,0.879941999912262,0.5263687372207642,44.21156311035156,95.89129638671876,6.341888427734375
112373,-0.001495361328125,2.03131103515625,-1.181838989257812,1.980563044548035,0.8381167650222778,1.188424706459045,44.16777038574219,96.30152893066406,5.486602783203125
112374,0.304229736328125,2.265609741210938,-1.09112548828125,1.074288010597229,0.5063228607177734,1.420037746429443,44.14826965332031,96.78572082519533,4.253311157226562
112375,0.390838623046875,2.530075073242188,-0.8066558837890625,0.3812240362167358,0.1510598212480545,1.377943515777588,44.28184509277344,97.18096923828124,3.205535888671875
112376,0.2978668212890625,2.670623779296875,-0.3447723388671875,0.2617226839065552,0.0727061629295349,1.296170353889465,44.744384765625,97.622314453125,2.517898559570312
112377,0.19012451171875,3.147903442382812,0.027801513671875,0.6630176305770874,0.297146201133728,1.153990864753723,45.23570251464844,97.85704040527344,2.264129638671875
112378,0.0350341796875,3.879409790039062,0.2201995849609375,1.263102412223816,0.7665528059005737,0.5811217427253723,45.70875549316406,98.10197448730467,2.102310180664062
112379,-0.1016387939453125,4.543899536132812,0.235107421875,1.779166579246521,1.143743753433228,-0.3231463730335236,46.14646911621094,98.25108337402344,1.72113037109375
112380,-0.3090057373046875,4.57476806640625,0.1450653076171875,1.888547658920288,1.301106810569763,-1.172077655792236,46.43429565429688,98.58892822265624,1.092941284179688
112381,-0.5093994140625,3.525360107421875,0.0244140625,1.627671003341675,0.9681312441825868,-1.535000205039978,46.4697265625,98.965087890625,0.18975830078125
112382,-0.7098846435546875,2.100601196289062,0.2122802734375,1.236311793327332,1.130390167236328,-1.252650260925293,46.18902587890625,99.30152893066406,-0.8206634521484375
112383,-0.848602294921875,1.335891723632812,0.30419921875,0.9156014323234558,1.80232036113739,-0.5074450969696045,45.79141235351562,99.39308166503906,-1.91876220703125
112384,-0.94427490234375,0.989044189453125,0.199981689453125,0.9892535209655762,1.830804705619812,0.3758420646190643,45.38526916503906,99.47091674804688,-2.902389526367188
112385,-0.927703857421875,0.9267730712890624,0.474334716796875,1.76155698299408,0.4784339666366577,0.9671509265899658,45.33782958984375,99.47038269042967,-4.202850341796875
112386,-0.927703857421875,0.9267730712890624,0.474334716796875,1.76155698299408,0.4784339666366577,0.9671509265899658,45.33782958984375,99.47038269042967,-4.202850341796875
112387,-0.87261962890625,0.859588623046875,0.65771484375,1.952969789505005,0.1552993059158325,0.8384890556335449,45.72531127929688,99.44940185546876,-4.964431762695312
112388,-0.684051513671875,0.747283935546875,0.5567626953125,1.884936928749084,0.1210206970572472,0.7464848756790161,46.12356567382812,99.62516784667967,-5.729232788085938
112389,-0.4178924560546875,0.6877593994140625,0.1883087158203125,1.655377507209778,-0.2185909301042557,0.6597989797592163,46.47018432617188,99.70376586914062,-6.603057861328125
112390,-0.202606201171875,0.6683502197265625,0.0469970703125,1.352647423744202,-0.7813570499420166,0.555304229259491,46.8094482421875,99.87144470214844,-7.46624755859375
112391,-0.0778045654296875,0.6100616455078125,0.2036285400390625,1.041617155075073,-0.9294189810752868,0.4386500716209412,47.29646301269531,100.046630859375,-9.194686889648438
112392,0.1019439697265625,0.3717803955078125,0.174774169921875,0.541694164276123,-0.639729380607605,0.3665415048599243,47.56036376953125,100.1533813476562,-10.28782653808594
112393,0.1019439697265625,0.3717803955078125,0.174774169921875,0.541694164276123,-0.639729380607605,0.3665415048599243,47.56036376953125,100.1533813476562,-10.28782653808594
112394,0.163909912109375,0.2495574951171875,0.0689849853515625,0.4134584069252014,-0.7305524945259094,0.4394753575325012,47.71238708496094,100.1896514892578,-10.54420471191406
112395,0.2150115966796875,0.1448516845703125,0.00543212890625,0.3665132820606232,-1.002297401428223,0.5327991843223572,47.98736572265625,100.2121124267578,-10.65437316894531
112396,0.186981201171875,0.0561065673828125,0.2999267578125,0.4320147931575775,-0.9206723570823668,0.6446466445922852,48.41279602050781,100.3170013427734,-10.56527709960938
112397,0.186981201171875,0.0561065673828125,0.2999267578125,0.4320147931575775,-0.9206723570823668,0.6446466445922852,48.41279602050781,100.3170013427734,-10.56527709960938
112398,0.1500091552734375,0.050445556640625,0.399810791015625,0.4365461468696594,-0.460563600063324,0.5708235502243042,48.74974060058594,100.2697448730469,-10.59384155273438
112399,0.1107177734375,0.0330047607421875,0.34442138671875,0.3231301307678223,-0.2172369807958603,0.4179610311985016,49.165283203125,100.1989135742188,-10.56039428710938
112400,0.0595855712890625,0.03271484375,0.270904541015625,0.0863596573472023,-0.2545326948165894,0.2062599658966064,49.47593688964844,100.0930786132812,-10.55416870117188
112401,-0.0153961181640625,0.09625244140625,0.221466064453125,-0.2272645831108093,-0.4522329866886139,-0.0874302461743354,49.72019958496094,100.0189514160156,-10.60838317871094
112402,-0.0907135009765625,0.19390869140625,0.2721710205078125,-0.5598539710044861,-0.5195686221122742,-0.3095743656158447,49.77865600585938,100.1038208007812,-10.57003784179688
112403,-0.1117706298828125,0.3302459716796875,0.3348388671875,-0.9531741142272948,-0.4995027482509613,-0.4597856998443604,49.8121337890625,100.1568450927734,-10.42486572265625
112404,-0.144012451171875,0.53021240234375,0.3970947265625,-1.31961464881897,-0.4045003354549408,-0.601182222366333,49.57070922851562,100.2952728271484,-10.11555480957031
112405,-0.291229248046875,0.8150482177734375,0.3567352294921875,-1.656736731529236,-0.5711519122123718,-0.8372187614440918,49.1939697265625,100.268798828125,-9.05401611328125
112406,-0.291229248046875,0.8150482177734375,0.3567352294921875,-1.656736731529236,-0.5711519122123718,-0.8372187614440918,49.1939697265625,100.268798828125,-9.05401611328125
112407,-0.3755645751953125,0.8126678466796875,0.303466796875,-1.630694508552551,-0.9964837431907654,-0.9380300641059875,48.93280029296875,100.2332916259766,-8.321319580078125
112408,-0.415985107421875,0.7706298828125,0.2318267822265625,-1.570891618728638,-2.126062631607056,-1.10377562046051,48.3887939453125,100.0698852539062,-6.962570190429688
112409,-0.415985107421875,0.7706298828125,0.2318267822265625,-1.570891618728638,-2.126062631607056,-1.10377562046051,48.3887939453125,100.0698852539062,-6.962570190429688
112410,-0.3849945068359375,0.78009033203125,0.26165771484375,-1.59668755531311,-2.39762282371521,-1.121870398521423,47.97496032714844,99.95590209960938,-6.257705688476562
112411,-0.3673248291015625,0.7864532470703125,0.3118896484375,-1.63530957698822,-2.259448051452637,-1.069079995155334,47.59478759765625,99.66586303710938,-5.55047607421875
112412,-0.3998260498046875,0.74884033203125,0.307464599609375,-1.672791957855225,-1.694045782089233,-0.8789107799530029,47.27241516113281,99.49851989746094,-4.851959228515625
112413,-0.411956787109375,0.6652984619140625,0.1187896728515625,-1.68311083316803,-0.8450223207473755,-0.6072108149528503,46.8309326171875,99.3751220703125,-4.165252685546875
112414,-0.270477294921875,0.54638671875,-0.228546142578125,-1.517901659011841,-0.4515834450721741,-0.4163442254066467,46.635009765625,99.21907043457033,-3.494476318359375
112415,-0.096588134765625,0.4031982421875,-0.3203582763671875,-1.107856392860413,-0.5591027140617371,-0.2666532695293427,46.47647094726562,98.87954711914062,-2.385711669921875
112416,-0.0166168212890625,0.2716827392578125,-0.1527252197265625,-0.6927124261856079,-0.5800743103027344,-0.079640232026577,46.36691284179688,98.7702178955078,-2.059906005859375
112417,0.027587890625,0.1537628173828125,-0.0413818359375,-0.472331315279007,-0.470201849937439,0.1136317551136017,46.33895874023438,98.48851013183594,-1.460006713867188
112418,0.0445404052734375,0.062713623046875,-0.0111846923828125,-0.452487051486969,-0.389272928237915,0.2847329378128052,46.41641235351562,98.2281494140625,-0.9680938720703124
112419,0.0547027587890625,0.0009918212890625,-0.0340423583984375,-0.5357060432434082,-0.4144025146961212,0.4070263504981995,46.62171936035156,98.14640808105467,-0.654022216796875
112420,0.0700531005859375,-0.0439910888671875,-0.0853118896484375,-0.6343036890029907,-0.5732696652412415,0.5014727115631104,46.85884094238281,98.12956237792967,-0.4058990478515625
112421,0.0872955322265625,-0.0710601806640625,-0.1342315673828125,-0.7020856738090515,-0.8242552876472473,0.588096559047699,47.16255187988281,97.95542907714844,0.048736572265625
112422,0.1024322509765625,-0.0774078369140625,-0.1681976318359375,-0.7370093464851379,-1.098747253417969,0.6858665347099304,47.36961364746094,97.95921325683594,0.611968994140625
112423,0.1192474365234375,-0.072906494140625,-0.185455322265625,-0.7475937604904175,-1.323308229446411,0.7960271239280701,47.80442810058594,97.92498779296876,1.134536743164062
112424,0.142822265625,-0.0550384521484375,-0.188232421875,-0.7369052171707153,-1.446955919265747,0.90230131149292,48.17684936523438,97.91139221191406,1.63616943359375
112425,0.163482666015625,0.0058135986328125,-0.164337158203125,-0.7226879000663757,-1.299201607704163,0.9596431851387024,48.56706237792969,97.98443603515624,2.000839233398438
112426,0.190826416015625,0.108001708984375,-0.1843719482421875,-0.7530143857002258,-0.6933534741401672,0.8855897188186646,49.07594299316406,97.91465759277344,2.40704345703125
112427,0.22308349609375,0.2412567138671875,-0.372772216796875,-0.7933357357978821,-0.1365767568349838,0.7293074727058411,49.6112060546875,97.82479858398438,3.062469482421875
112428,0.2126312255859375,0.630462646484375,-0.4950714111328125,-0.6250718832015991,-0.4390151798725128,0.2611234784126282,50.39501953125,97.48838806152344,3.946304321289062
112429,0.2126312255859375,0.630462646484375,-0.4950714111328125,-0.6250718832015991,-0.4390151798725128,0.2611234784126282,50.39501953125,97.48838806152344,3.946304321289062
112430,0.205657958984375,0.8286285400390625,-0.410491943359375,-0.5371119379997253,-0.4670337736606598,-0.0391676425933837,50.7041015625,97.24957275390624,4.371627807617188
112431,0.1688079833984375,1.016189575195312,-0.425689697265625,-0.3894950151443481,-0.4115734398365021,-0.3439869284629822,50.85179138183594,97.13658142089844,4.707290649414062
112432,0.1134033203125,1.195831298828125,-0.517181396484375,-0.102893091738224,-0.4565443694591522,-0.654228925704956,50.82469177246094,97.0618896484375,4.96856689453125
112433,0.1405792236328125,1.63934326171875,-0.54705810546875,0.8942186236381531,-0.6336853504180908,-0.8966242671012878,50.48776245117188,96.95635986328124,5.057846069335938
112434,0.1405792236328125,1.63934326171875,-0.54705810546875,0.8942186236381531,-0.6336853504180908,-0.8966242671012878,50.48776245117188,96.95635986328124,5.057846069335938
112435,0.1706390380859375,1.885574340820312,-0.295684814453125,1.179364323616028,-0.0991683974862098,-0.6533359885215759,50.14846801757812,97.00965881347656,4.871017456054688
112436,0.21185302734375,2.14251708984375,-0.100616455078125,1.018309950828552,0.7376655340194702,-0.3354919850826263,49.77142333984375,97.05331420898438,4.463851928710938
112437,0.2840728759765625,2.357620239257812,-0.0809173583984375,0.542290449142456,1.05542266368866,-0.0126984845846891,49.37129211425781,97.28823852539062,3.813796997070312
112438,0.345855712890625,2.714706420898438,0.0032501220703125,0.0956908389925956,0.8341789841651917,0.3358823955059052,48.9906005859375,97.52171325683594,3.296463012695312
112439,0.35125732421875,3.329666137695312,0.1004180908203125,-0.0924915820360183,0.4722948372364044,0.6089072823524475,48.814453125,97.58985900878906,2.951217651367188
112440,0.4746246337890625,4.909454345703125,0.01861572265625,0.404964804649353,-0.5381801128387451,1.085134267807007,48.83283996582031,97.63632202148438,2.716110229492188
112441,0.4746246337890625,4.909454345703125,0.01861572265625,0.404964804649353,-0.5381801128387451,1.085134267807007,48.83283996582031,97.63632202148438,2.716110229492188
112442,0.266937255859375,5.008575439453125,0.387054443359375,0.9740053415298462,-0.4343724846839905,0.9221943616867064,49.04544067382812,97.80307006835938,2.4014892578125
112443,0.0131072998046875,4.201248168945312,0.6661529541015625,1.498122334480286,0.7228562235832214,0.240146815776825,49.44752502441406,97.91555786132812,2.153335571289062
112444,-0.206787109375,3.4598388671875,0.5720977783203125,1.743780374526978,1.885426640510559,-0.5613315105438232,49.74293518066406,98.30870056152344,1.541549682617188
112445,-0.37060546875,2.96160888671875,0.3126220703125,1.624871492385864,2.297468662261963,-1.147263407707214,49.76890563964844,98.68840026855467,0.773162841796875
112446,-0.5519561767578125,2.597854614257812,0.06842041015625,1.356799602508545,1.923214554786682,-1.490090608596802,49.56880187988281,98.9191436767578,-0.09442138671875
112447,-0.81121826171875,2.154037475585938,-0.018157958984375,1.116490364074707,1.335579037666321,-1.455331563949585,49.13166809082031,99.20735168457033,-1.1231689453125
112448,-1.10968017578125,1.579635620117188,0.0655059814453125,0.841846227645874,1.036585927009583,-0.8381050229072571,48.6297607421875,99.41569519042967,-1.890457153320312
112449,-1.18988037109375,1.09307861328125,0.1374969482421875,0.7611154317855835,0.7138651013374329,0.0743344202637672,48.24754333496094,99.40065002441406,-2.61138916015625
112450,-0.9814910888671876,0.8790130615234375,0.1720428466796875,0.8767035603523254,0.0851407274603843,0.5694533586502075,48.07154846191406,99.39442443847656,-3.149337768554688
112451,-0.843994140625,0.731109619140625,0.2853240966796875,1.092445731163025,-0.5483272671699524,0.7194689512252808,48.19355773925781,99.37864685058594,-3.57440185546875
112452,-0.7360992431640625,0.56048583984375,0.390380859375,1.263963460922241,-0.7912757396697998,0.7310936450958252,48.52259826660156,99.27969360351562,-3.8553466796875
112453,-0.6086273193359375,0.3978729248046875,0.387847900390625,1.330150961875916,-0.6708811521530151,0.6824446320533752,48.79974365234375,99.5447235107422,-4.40716552734375
112454,-0.440399169921875,0.262481689453125,0.2084503173828125,1.25678539276123,-0.311904102563858,0.6342219710350037,49.19609069824219,99.58201599121094,-4.910415649414062
112455,-0.2178955078125,0.1762237548828125,-0.16961669921875,1.211474657058716,-0.2186383306980133,0.6356472969055176,49.49864196777344,99.58091735839844,-5.4251708984375
112456,0.0345916748046875,0.18328857421875,-0.257843017578125,1.414433836936951,-0.951976239681244,0.7120885252952576,50.15443420410156,99.67141723632812,-6.693359375
112457,0.077911376953125,0.2178192138671875,-0.0457000732421875,1.441835641860962,-1.03033435344696,0.6417917013168335,50.59512329101562,99.61434936523438,-7.3814697265625
112458,0.077911376953125,0.2178192138671875,-0.0457000732421875,1.441835641860962,-1.03033435344696,0.6417917013168335,50.59512329101562,99.61434936523438,-7.3814697265625
112459,0.1495361328125,0.1899261474609375,0.0656280517578125,1.336309790611267,-1.024185180664062,0.6391048431396484,51.00752258300781,99.76213073730467,-7.918197631835938
112460,0.211578369140625,0.1762847900390625,0.1185150146484375,1.15440571308136,-0.914608359336853,0.7331530451774597,51.20501708984375,99.89109802246094,-8.381988525390625
112461,0.267852783203125,0.1941375732421875,0.0024871826171875,0.947791576385498,-0.8345382809638977,0.8654594421386719,51.39863586425781,100.0123596191406,-8.976150512695312
112462,0.305572509765625,0.2246551513671875,-0.13409423828125,0.7154654264450073,-1.096201062202454,0.9484928250312804,51.60800170898438,100.1968994140625,-9.575286865234377
112463,0.288848876953125,0.2593841552734375,0.0293121337890625,0.4812390506267548,-1.197239756584167,0.9378026127815248,51.97520446777344,100.3564605712891,-9.7476806640625
112464,0.258819580078125,0.288665771484375,0.2257080078125,0.2487970292568207,-0.8943177461624146,0.8111677169799805,52.27738952636719,100.4194488525391,-9.90435791015625
112465,0.217559814453125,0.29473876953125,0.2274322509765625,0.0205702558159828,-0.5809624791145325,0.5583346486091614,52.79464721679688,100.4529571533203,-10.1890869140625
112466,0.1519927978515625,0.30609130859375,0.189117431640625,-0.184517115354538,-0.541096568107605,0.1617516130208969,53.2486572265625,100.4342651367188,-10.2686767578125
112467,0.0476226806640625,0.3386688232421875,0.2977752685546875,-0.3572814464569092,-0.5862946510314941,-0.3036991655826569,53.62562561035156,100.387939453125,-10.07374572753906
112468,-0.0545654296875,0.384857177734375,0.499237060546875,-0.5253140926361084,-0.311273455619812,-0.5437450408935547,53.86065673828125,100.2679748535156,-9.886367797851562
112469,-0.1062774658203125,0.537567138671875,0.548828125,-0.7729252576828003,0.0153368785977363,-0.7775359749794006,53.86015319824219,100.3468475341797,-9.682571411132812
112470,-0.172576904296875,0.74237060546875,0.522491455078125,-1.099454879760742,0.1508811265230179,-1.055388569831848,53.803955078125,100.2694854736328,-9.448928833007812
112471,-0.28216552734375,0.9019012451171876,0.48126220703125,-1.385110020637512,0.0358959473669529,-1.331225037574768,53.45059204101562,100.2650299072266,-9.020675659179688
112472,-0.4857025146484375,0.83807373046875,0.3775634765625,-1.32589864730835,-0.8436535000801086,-1.591127634048462,52.60165405273438,100.2579650878906,-8.330368041992188
112473,-0.4857025146484375,0.83807373046875,0.3775634765625,-1.32589864730835,-0.8436535000801086,-1.591127634048462,52.60165405273438,100.2579650878906,-8.330368041992188
112474,-0.5288238525390625,0.7250823974609375,0.309783935546875,-1.068947076797485,-1.423545360565186,-1.552025318145752,52.138427734375,100.258544921875,-7.904617309570312
112475,-0.5114593505859375,0.640655517578125,0.2891998291015625,-0.8882507681846619,-1.908680081367493,-1.467606782913208,51.54270935058594,100.296142578125,-7.426605224609375
112476,-0.4877166748046875,0.5861053466796875,0.3500823974609375,-0.8879224061965942,-2.044121265411377,-1.345434069633484,50.97134399414062,100.4114837646484,-7.0694580078125
112477,-0.527099609375,0.485809326171875,0.3918304443359375,-1.08534574508667,-1.644194841384888,-1.057751655578613,50.45761108398438,100.3415069580078,-6.723434448242188
112478,-0.52093505859375,0.37310791015625,0.3022308349609375,-1.35283899307251,-0.9002485871315002,-0.6558665037155151,49.93772888183594,100.2842559814453,-6.535018920898438
112479,-0.311065673828125,0.4090576171875,0.0416717529296875,-1.470691323280334,-0.434035062789917,-0.4990241825580597,49.53132629394531,100.2051086425781,-6.013015747070312
112480,-0.158203125,0.39569091796875,-0.13421630859375,-1.301364898681641,-0.5967382192611694,-0.4874772429466248,49.28016662597656,100.1174774169922,-5.26416015625
112481,-0.094268798828125,0.2913818359375,-0.0997314453125,-1.036151051521301,-0.7747047543525696,-0.4258429110050201,49.08369445800781,99.97080993652344,-4.641769409179688
112482,-0.026519775390625,0.2036590576171875,-0.035400390625,-0.8667779564857483,-0.7853124141693115,-0.2905583381652832,48.97611999511719,99.84048461914062,-3.914276123046875
112483,0.01422119140625,0.1257781982421875,-0.01385498046875,-0.8212720155715942,-0.7301011085510254,-0.1336448788642883,48.91502380371094,99.6873779296875,-3.19970703125
112484,0.0372467041015625,0.059783935546875,-0.019561767578125,-0.8477882742881775,-0.7062239646911621,0.0006079996819607,48.88203430175781,99.4601593017578,-2.652145385742188
112485,0.0555572509765625,0.005889892578125,-0.04931640625,-0.8952910900115967,-0.7534332871437073,0.1096910759806633,48.95065307617188,99.17472839355467,-2.169784545898438
112486,0.0829010009765625,-0.0426483154296875,-0.090667724609375,-0.9115819334983826,-0.8513124585151672,0.2319850325584412,49.01853942871094,99.01914978027344,-1.732101440429688
112487,0.104827880859375,-0.072113037109375,-0.1252288818359375,-0.8644426465034485,-0.9247429966926576,0.3727487921714783,49.16331481933594,98.77650451660156,-1.256805419921875
112488,0.1390228271484375,-0.07470703125,-0.1917572021484375,-0.7000861763954163,-0.9454621076583862,0.6435054540634155,49.43453979492188,98.62452697753906,-0.2653350830078125
112489,0.1390228271484375,-0.07470703125,-0.1917572021484375,-0.7000861763954163,-0.9454621076583862,0.6435054540634155,49.43453979492188,98.62452697753906,-0.2653350830078125
112490,0.1546173095703125,-0.048492431640625,-0.1975250244140625,-0.6286687254905701,-0.8625882863998413,0.7807046175003052,49.66325378417969,98.44468688964844,0.215789794921875
112491,0.1744232177734375,0.0231170654296875,-0.212127685546875,-0.5809645652770996,-0.6691562533378601,0.8676741123199463,49.91773986816406,98.45256042480467,0.5916748046875
112492,0.207305908203125,0.1351165771484375,-0.2777862548828125,-0.5878693461418152,-0.4118693172931671,0.8550496697425842,50.18072509765625,98.451416015625,1.077346801757812
112493,0.2430419921875,0.305572509765625,-0.413177490234375,-0.5986921787261963,-0.3103471994400024,0.7695131897926331,50.59518432617188,98.40521240234376,1.485000610351562
112494,0.2618255615234375,0.5618743896484375,-0.521697998046875,-0.5685084462165833,-0.4565728604793549,0.57285076379776,51.07325744628906,98.23330688476562,1.794769287109375
112495,0.2665252685546875,0.8700408935546875,-0.5039520263671875,-0.5042375922203064,-0.5788870453834534,0.2688538432121277,51.4638671875,98.1015167236328,2.08099365234375
112496,0.2177581787109375,1.170516967773438,-0.4715576171875,-0.3900100886821747,-0.4346071183681488,-0.064442902803421,51.67930603027344,97.92311096191406,2.49456787109375
112497,0.069580078125,1.420394897460938,-0.6040496826171875,-0.0639952272176742,-0.1841453313827515,-0.3684435486793518,51.88813781738281,97.85958862304688,2.872467041015625
112498,-0.042266845703125,1.692977905273438,-0.887451171875,0.5510756969451904,-0.1277707517147064,-0.6450122594833374,51.97248840332031,97.81515502929688,3.135101318359375
112499,-0.05120849609375,1.9295654296875,-0.8902740478515625,1.212813377380371,-0.1030925661325455,-0.7105345726013184,51.75556945800781,97.79287719726562,3.280899047851562
112500,0.0514068603515625,2.267303466796875,0.2305908203125,0.9315167665481568,1.688339233398438,-0.5325011610984802,51.09027099609375,98.01866149902344,2.663162231445312
112501,0.0514068603515625,2.267303466796875,0.2305908203125,0.9315167665481568,1.688339233398438,-0.5325011610984802,51.09027099609375,98.01866149902344,2.663162231445312
112502,0.1388702392578125,2.531051635742188,0.2606201171875,0.2676732540130615,2.041840076446533,-0.463507741689682,50.56666564941406,98.1800537109375,2.068649291992188
112503,0.1851959228515625,3.069442749023438,0.1919708251953125,-0.1475247442722321,1.730021119117737,-0.1491229087114334,50.05039978027344,98.27911376953124,1.5550537109375
112504,0.1062164306640625,4.243484497070312,0.292633056640625,-0.1580953598022461,0.8678147196769714,0.8536975979804993,49.24484252929688,98.28131103515624,0.83160400390625
112505,0.1062164306640625,4.243484497070312,0.292633056640625,-0.1580953598022461,0.8678147196769714,0.8536975979804993,49.24484252929688,98.28131103515624,0.83160400390625
112506,0.06298828125,4.400115966796875,0.3425750732421875,0.2005842328071594,0.1632342040538788,1.439992189407349,49.07199096679688,98.30126953125,0.569091796875
112507,-0.00537109375,3.9398193359375,0.4278106689453125,0.8835207223892212,-0.2131951004266739,1.262184739112854,49.17091369628906,98.38455200195312,0.409759521484375
112508,-0.126251220703125,3.399307250976562,0.4500579833984375,1.471860647201538,0.0686435103416442,0.8265756964683533,49.60848999023438,98.4500732421875,0.4201812744140625
112509,-0.2671051025390625,3.099258422851562,0.3886871337890625,1.789337754249573,0.6988965272903442,0.2184556424617767,50.13998413085938,98.65797424316406,0.1921844482421875
112510,-0.38861083984375,2.800323486328125,0.0125274658203125,1.759143114089966,0.8163584470748901,-0.3126372694969177,50.60377502441406,98.87147521972656,-0.3888397216796875
112511,-0.5159149169921875,2.511077880859375,-0.1204376220703125,1.402227282524109,0.3312636911869049,-0.7237364053726196,50.78317260742188,99.27415466308594,-1.324050903320312
112512,-0.584197998046875,2.116790771484375,0.161163330078125,0.9895401000976562,0.3476692736148834,-0.9618970155715942,50.83462524414062,99.57858276367188,-2.118179321289062
112513,-0.663848876953125,1.617401123046875,0.2612152099609375,0.5930598974227905,0.7484816908836365,-0.9433214664459229,50.73574829101562,99.85519409179688,-2.905059814453125
112514,-0.797332763671875,1.165054321289062,0.168609619140625,0.3155885934829712,0.9249536395072936,-0.6233178973197937,50.565673828125,100.1197357177734,-3.658935546875
112515,-0.9447021484375,0.824188232421875,0.0184478759765625,0.3447012007236481,0.5318588614463806,-0.0864318236708641,50.33914184570312,100.1856384277344,-4.147735595703125
112516,-0.937530517578125,0.6150054931640625,-0.0063934326171875,0.6830654144287109,-0.3964655995368958,0.3593637645244598,50.24493408203125,100.23095703125,-4.463088989257812
112517,-0.7993927001953125,0.5227508544921875,0.2511444091796875,1.08057975769043,-1.089432120323181,0.4915747940540314,50.34596252441406,100.0892639160156,-4.212921142578125
112518,-0.6892242431640625,0.395538330078125,0.4972991943359375,1.298336267471313,-0.9935678839683532,0.5045140385627747,50.54862976074219,99.8775634765625,-4.337142944335938
112519,-0.5627288818359375,0.26019287109375,0.4019775390625,1.248906135559082,-0.362867683172226,0.4834625422954559,50.96293640136719,99.73991394042967,-4.395736694335938
112520,-0.4134368896484375,0.180145263671875,0.0079193115234375,1.046966910362244,0.0558534115552902,0.4125652015209198,51.28805541992188,99.6368408203125,-4.765823364257812
112521,-0.279083251953125,0.21490478515625,-0.249481201171875,0.9131302833557128,-0.0205446891486644,0.2852171063423157,51.66091918945312,99.5887451171875,-5.343032836914062
112522,-0.2033538818359375,0.37042236328125,-0.143463134765625,0.948003590106964,-0.047561127692461,0.0541822798550128,51.80583190917969,99.6651611328125,-5.922714233398438
112523,-0.1422882080078125,0.463775634765625,0.0203094482421875,1.086113572120667,0.1262151896953583,-0.1111867055296898,51.99298095703125,99.70077514648438,-6.2821044921875
112524,-0.075958251953125,0.493896484375,0.09228515625,1.174164533615112,0.2389436066150665,-0.1746940463781357,51.92539978027344,99.86309814453124,-6.761810302734375
112525,0.0355224609375,0.4801177978515625,0.0813751220703125,0.9679759740829468,-0.0669912844896316,-0.17196324467659,51.6513671875,100.0300140380859,-7.977447509765625
112526,0.0355224609375,0.4801177978515625,0.0813751220703125,0.9679759740829468,-0.0669912844896316,-0.17196324467659,51.6513671875,100.0300140380859,-7.977447509765625
112527,0.0693511962890625,0.425567626953125,0.1053924560546875,0.8003379702568054,-0.4038550555706024,-0.1361605077981949,51.57331848144531,100.1773223876953,-8.511520385742188
112528,0.0710296630859375,0.390869140625,0.2009735107421875,0.6493633389472961,-0.6215008497238159,-0.1247517839074135,51.46890258789062,100.1941528320312,-8.921661376953125
112529,0.0504608154296875,0.3610382080078125,0.283447265625,0.509040892124176,-0.669547975063324,-0.1536268442869186,51.46522521972656,100.22119140625,-9.282272338867188
112530,-0.0054473876953125,0.3440093994140625,0.290283203125,0.3439200818538666,-0.6460421085357666,-0.2667701840400696,51.34722900390625,100.4098205566406,-9.707611083984377
112531,-0.0809326171875,0.3243560791015625,0.25665283203125,0.120012953877449,-0.6471571922302246,-0.4244338274002075,51.27085876464844,100.5024261474609,-9.92535400390625
112532,-0.18048095703125,0.310455322265625,0.272491455078125,-0.1641713678836823,-0.592366635799408,-0.4565478265285492,51.212646484375,100.5971221923828,-10.18853759765625
112533,-0.25006103515625,0.3734283447265625,0.3287200927734375,-0.4328568875789642,-0.4387182295322418,-0.4003841578960419,51.126708984375,100.6644592285156,-10.242431640625
112534,-0.3050689697265625,0.5083465576171875,0.377960205078125,-0.5964481830596924,-0.2760249376296997,-0.3694573938846588,50.9229736328125,100.8591613769531,-10.25
112535,-0.37603759765625,0.646820068359375,0.3789520263671875,-0.6125563383102417,-0.2687041759490967,-0.417112797498703,50.78965759277344,100.8321685791016,-10.08686828613281
112536,-0.450439453125,0.670013427734375,0.3623046875,-0.5773637294769287,-0.4000706970691681,-0.4867483377456665,50.72700500488281,100.8457641601562,-9.784576416015623
112537,-0.481048583984375,0.6176300048828125,0.3313751220703125,-0.5637270212173462,-0.6273376941680908,-0.5357595682144165,50.67106628417969,100.8551788330078,-9.477142333984377
112538,-0.44659423828125,0.522003173828125,0.2973785400390625,-0.6354504823684692,-0.907504379749298,-0.5842999219894409,50.56068420410156,100.8470611572266,-9.071929931640623
112539,-0.384002685546875,0.4393157958984375,0.2854461669921875,-0.805004894733429,-1.167795896530151,-0.6500254273414612,50.40756225585938,100.990234375,-8.876235961914062
112540,-0.27008056640625,0.3331146240234375,0.29302978515625,-1.235394835472107,-1.440752267837524,-0.7243534326553345,50.05487060546875,100.9718170166016,-8.326461791992188
112541,-0.27008056640625,0.3331146240234375,0.29302978515625,-1.235394835472107,-1.440752267837524,-0.7243534326553345,50.05487060546875,100.9718170166016,-8.326461791992188
112542,-0.240081787109375,0.3209228515625,0.3006744384765625,-1.374428629875183,-1.360906720161438,-0.7557406425476074,49.810546875,100.9581756591797,-7.943038940429688
112543,-0.216156005859375,0.31170654296875,0.2775726318359375,-1.422401547431946,-1.189876079559326,-0.7802020907402039,49.720703125,100.80419921875,-7.310653686523438
112544,-0.19049072265625,0.30438232421875,0.218475341796875,-1.394097924232483,-1.01922345161438,-0.7784259915351868,49.46426391601562,100.6586761474609,-6.597427368164062
112545,-0.1635284423828125,0.294525146484375,0.14501953125,-1.347713947296143,-0.870832085609436,-0.7698109149932861,49.20167541503906,100.5994262695312,-5.885284423828125
112546,-0.1256561279296875,0.2775115966796875,0.0687255859375,-1.32151460647583,-0.7640790343284607,-0.7534346580505371,48.99250793457031,100.3447723388672,-5.083160400390625
112547,-0.070556640625,0.2308197021484375,-0.0978851318359375,-1.322272300720215,-0.7706839442253113,-0.7046367526054382,48.58113098144531,100.0494384765625,-3.954513549804688
112548,0.0355072021484375,0.1455078125,-0.4256591796875,-1.330845713615417,-1.23760449886322,-0.5591341257095337,48.58113098144531,100.0494384765625,-3.954513549804688
112549,0.120208740234375,0.06884765625,-0.507904052734375,-1.290461897850037,-1.781337261199951,-0.2648029029369354,48.17800903320312,99.70515441894533,-2.633041381835938
112550,0.1358642578125,0.0477447509765625,-0.3045806884765625,-1.142756819725037,-1.811028599739075,0.0764553621411323,48.02206420898438,99.614990234375,-1.891555786132812
112551,0.129302978515625,0.0514068603515625,-0.098480224609375,-0.8624263405799866,-1.336025595664978,0.3712598383426666,48.14968872070312,99.46891784667967,-1.140884399414062
112552,0.114837646484375,0.0647125244140625,-0.0118560791015625,-0.5319209098815918,-0.7038031816482544,0.5744025707244873,48.21199035644531,99.35411071777344,-0.5497894287109375
112553,0.1167449951171875,0.09771728515625,-0.0545196533203125,-0.1605310887098312,0.121823638677597,0.8179718255996704,48.73933410644531,99.25698852539062,0.2846832275390625
112554,0.1167449951171875,0.09771728515625,-0.0545196533203125,-0.1605310887098312,0.121823638677597,0.8179718255996704,48.73933410644531,99.25698852539062,0.2846832275390625
112555,0.11322021484375,0.168304443359375,-0.0953826904296875,-0.1789564341306686,0.1985719501972198,0.869407057762146,49.07907104492188,99.18826293945312,0.58624267578125
112556,0.108673095703125,0.2916717529296875,-0.165313720703125,-0.2960058152675629,0.0523279197514057,0.8386459350585938,49.33993530273438,99.26043701171876,0.6468658447265625
112557,0.1107025146484375,0.455352783203125,-0.2672119140625,-0.433285653591156,-0.3179161846637726,0.7309844493865967,49.71916198730469,99.28904724121094,0.8031005859375
112558,0.1000213623046875,0.62847900390625,-0.3340301513671875,-0.5342413187026978,-0.8421240448951721,0.5439485311508179,50.08041381835938,99.26490783691406,1.011444091796875
112559,0.0631256103515625,0.7828521728515625,-0.3149871826171875,-0.5845319032669067,-1.223620772361755,0.2951749265193939,50.3106689453125,99.24685668945312,1.4237060546875
112560,-0.1136932373046875,1.09783935546875,-0.3359527587890625,-0.4108823537826538,-0.9386705160140992,-0.0437317676842212,50.75996398925781,99.04348754882812,1.983428955078125
112561,-0.1136932373046875,1.09783935546875,-0.3359527587890625,-0.4108823537826538,-0.9386705160140992,-0.0437317676842212,50.75996398925781,99.04348754882812,1.983428955078125
112562,-0.1881103515625,1.396820068359375,-0.477691650390625,-0.1075855791568756,-0.5606750249862671,-0.1396990418434143,50.89830017089844,98.94674682617188,2.361236572265625
112563,-0.158355712890625,1.779708862304688,-0.5531463623046875,0.3237431943416595,-0.2522956430912018,-0.1938935667276382,50.9150390625,98.99545288085938,2.399200439453125
112564,0.1236419677734375,2.307418823242188,-0.0427093505859375,0.906315803527832,0.6018741130828857,0.1397408545017242,50.49320983886719,99.11666870117188,2.049209594726562
112565,0.1328277587890625,2.526641845703125,0.1976165771484375,0.9154834747314452,1.014538645744324,0.3595999777317047,50.31491088867188,99.1099853515625,1.78509521484375
112566,0.1328277587890625,2.526641845703125,0.1976165771484375,0.9154834747314452,1.014538645744324,0.3595999777317047,50.31491088867188,99.1099853515625,1.78509521484375
112567,0.1254730224609375,2.794174194335938,0.30645751953125,0.8436545133590698,1.295742869377136,0.6385996341705322,50.33242797851562,99.17330932617188,1.498733520507812
112568,0.15753173828125,3.145233154296875,0.27349853515625,0.7540266513824463,1.188373565673828,1.027836322784424,50.37429809570312,99.17543029785156,0.9647979736328124
112569,0.2096405029296875,3.48480224609375,0.3023223876953125,0.6718636155128479,0.6498743891716003,1.49156379699707,50.51693725585938,99.37001037597656,0.3165130615234375
112570,0.228057861328125,3.704544067382812,0.3964691162109375,0.6136391758918762,-0.040016658604145,1.798930168151855,50.84022521972656,99.34922790527344,-0.1739044189453125
112571,0.213287353515625,3.728530883789062,0.3959503173828125,0.7690418362617493,-0.5613879561424255,1.664714336395264,51.36279296875,99.52560424804688,-0.5849456787109375
112572,0.17425537109375,3.508682250976562,0.2486114501953125,1.227775096893311,-0.7368053197860718,1.204830527305603,52.11331176757812,99.52040100097656,-1.04071044921875
112573,-0.04046630859375,3.349456787109375,0.2137298583984375,1.713098645210266,-0.4119771718978882,0.7209792137145996,52.82969665527344,99.74302673339844,-1.315277099609375
112574,-0.2647247314453125,3.224212646484375,0.28155517578125,1.881491899490356,0.2673811018466949,0.1809854954481125,53.40261840820312,99.9696807861328,-2.034622192382812
112575,-0.413787841796875,2.99908447265625,0.246826171875,1.680736660957336,0.7554314732551575,-0.3607161045074463,53.83114624023438,100.1851348876953,-2.654403686523438
112576,-0.5858917236328125,2.021881103515625,0.1958770751953125,1.010829091072083,0.8368083238601685,-1.185423374176025,53.96746826171875,100.5356903076172,-4.527786254882812
112577,-0.5858917236328125,2.021881103515625,0.1958770751953125,1.010829091072083,0.8368083238601685,-1.185423374176025,53.96746826171875,100.5356903076172,-4.527786254882812
112578,-0.6495208740234375,1.520889282226562,0.1879425048828125,0.847526490688324,0.7275798916816711,-1.179941415786743,53.8192138671875,100.7516784667969,-5.313400268554688
112579,-0.8012847900390625,1.07708740234375,0.1268463134765625,0.8453176617622375,0.3885341584682465,-0.9169854521751404,53.54205322265625,101.0022888183594,-5.812210083007812
112580,-1.050888061523438,0.667694091796875,0.1854095458984375,1.006699085235596,-0.0610857233405113,-0.2593772411346436,53.32333374023438,101.0630187988281,-6.114227294921875
112581,-0.9564971923828124,0.3128204345703125,0.297576904296875,1.654667735099792,-0.4721648693084717,0.7253734469413757,53.19099426269531,101.0852508544922,-6.960052490234375
112582,-0.9564971923828124,0.3128204345703125,0.297576904296875,1.654667735099792,-0.4721648693084717,0.7253734469413757,53.19099426269531,101.0852508544922,-6.960052490234375
112583,-0.772186279296875,0.2861480712890625,0.2996673583984375,1.746890425682068,-0.5760220289230347,0.7424355149269104,53.59378051757812,100.8773040771484,-7.379287719726562
112584,-0.577850341796875,0.28070068359375,0.2423553466796875,1.424437522888184,-0.152353048324585,0.6145574450492859,53.89808654785156,100.9978790283203,-8.157699584960938
112585,-0.3716278076171875,0.3579864501953125,-0.00634765625,0.9767712950706482,0.2019762694835663,0.4181714057922363,54.20281982421875,101.0163726806641,-8.964569091796875
112586,-0.2481689453125,0.51385498046875,-0.142425537109375,0.8344482779502869,0.1261877566576004,0.1590027064085007,54.47529602050781,100.9466705322266,-9.738189697265623
112587,-0.164337158203125,0.55548095703125,-0.075958251953125,0.9925721287727356,0.0533337965607643,-0.0039422772824764,54.64219665527344,100.8838806152344,-10.30390930175781
112588,-0.0707855224609375,0.548919677734375,0.0122833251953125,1.185100317001343,0.1271749883890152,-0.0541846752166748,54.66604614257812,100.8523864746094,-10.61627197265625
112589,-0.004638671875,0.527435302734375,0.05035400390625,1.303804278373718,0.1586397141218185,-0.0708912163972854,54.55490112304688,100.8207244873047,-11.12812805175781
112590,0.0512237548828125,0.4760284423828125,0.084716796875,1.30322265625,0.0408691354095935,-0.0347755588591098,54.49739074707031,100.9417572021484,-11.74658203125
112591,0.0935821533203125,0.4149169921875,0.117034912109375,1.194315075874329,-0.1842292249202728,0.0779288858175277,54.41770935058594,100.9396667480469,-12.30380249023438
112592,0.1150665283203125,0.344879150390625,0.1528778076171875,1.004260778427124,-0.3968861103057861,0.2477930188179016,54.42922973632812,101.1018981933594,-12.88699340820312
112593,0.11920166015625,0.2809906005859375,0.16973876953125,0.7753415107727051,-0.5823923349380493,0.4109049737453461,54.36906433105469,101.1754760742188,-13.54617309570312
112594,0.09722900390625,0.2605133056640625,0.191009521484375,0.572856605052948,-0.812559187412262,0.4638361036777496,54.50369262695312,101.2626190185547,-14.03253173828125
112595,0.0490875244140625,0.2960662841796875,0.2271575927734375,0.4267574548721313,-1.083147287368774,0.3026048839092255,54.66960144042969,101.1600646972656,-14.21746826171875
112596,0.0023193359375,0.341522216796875,0.27020263671875,0.2788196504116058,-1.327020883560181,-0.0416414514183998,55.00521850585938,101.0098114013672,-14.35504150390625
112597,-0.0657806396484375,0.382080078125,0.355560302734375,0.050087135285139,-1.428549408912659,-0.4013205170631409,55.10855102539062,101.1115112304688,-14.45306396484375
112598,-0.182373046875,0.423553466796875,0.45355224609375,-0.2702770233154297,-1.214210271835327,-0.5156175494194031,55.15676879882812,101.1511535644531,-14.6109619140625
112599,-0.246551513671875,0.5539398193359375,0.4395294189453125,-0.6112692356109619,-0.991887390613556,-0.6116990447044373,55.03730773925781,101.2935638427734,-14.72029113769531
112600,-0.3131103515625,0.649688720703125,0.3967437744140625,-0.8802303671836853,-0.983731210231781,-0.7088655829429626,54.78945922851562,101.2758178710938,-14.53103637695312
112601,-0.368621826171875,0.6554412841796875,0.3444061279296875,-1.046788454055786,-1.216319441795349,-0.7788465023040771,54.47886657714844,101.4595489501953,-14.50071716308594
112602,-0.389739990234375,0.61279296875,0.291107177734375,-1.153932452201843,-1.601219415664673,-0.8097394704818726,54.24478149414062,101.3966827392578,-14.14027404785156
112603,-0.380340576171875,0.5667266845703125,0.2691497802734375,-1.262498378753662,-1.949209094047546,-0.8119519948959351,54.01423645019531,101.4057922363281,-13.59675598144531
112604,-0.356109619140625,0.5309295654296875,0.229766845703125,-1.377203702926636,-2.186372518539429,-0.8016820549964905,53.78121948242188,101.3714294433594,-13.05636596679688
112605,-0.3178558349609375,0.54107666015625,0.187164306640625,-1.469439625740051,-2.166117191314697,-0.7428312301635742,53.4627685546875,101.4427337646484,-12.48703002929688
112606,-0.34429931640625,0.573211669921875,0.139617919921875,-1.545889616012573,-1.744138836860657,-0.637039065361023,53.13835144042969,101.4512023925781,-12.00601196289062
112607,-0.4108734130859375,0.5789337158203125,0.049407958984375,-1.519340634346008,-1.17510461807251,-0.5088339447975159,52.8160400390625,101.5151519775391,-11.37907409667969
112608,-0.4199676513671875,0.535186767578125,-0.0483245849609375,-1.302080750465393,-0.7847148180007935,-0.4198470711708069,52.55596923828125,101.4779663085938,-10.60713195800781
112609,-0.3356781005859375,0.45391845703125,-0.08477783203125,-0.9614866375923156,-0.6769481301307678,-0.3644783496856689,52.29293823242188,101.5609893798828,-9.84765625
112610,-0.2321014404296875,0.36004638671875,-0.045196533203125,-0.6936078071594238,-0.5040732622146606,-0.2872621417045593,52.13766479492188,101.4409942626953,-9.233062744140623
112611,-0.1476898193359375,0.261749267578125,-0.0667572021484375,-0.5770848989486694,-0.2825264930725098,-0.202802374958992,52.00718688964844,101.3260345458984,-8.704315185546875
112612,-0.0815277099609375,0.16131591796875,-0.1110382080078125,-0.5701026320457458,-0.1385573446750641,-0.1053935363888741,51.94302368164062,101.1354370117188,-8.208816528320312
112613,-0.03399658203125,0.09014892578125,-0.14605712890625,-0.6273012161254883,-0.1172336786985397,-0.0350586511194706,51.88694763183594,100.9108581542969,-7.89520263671875
112614,0.0035552978515625,0.03375244140625,-0.167083740234375,-0.6837479472160339,-0.2222612947225571,0.0078765647485852,51.77603149414062,100.841064453125,-7.478622436523438
112615,0.0274658203125,-0.000396728515625,-0.160186767578125,-0.7121862769126892,-0.3894934356212616,0.0451078228652477,51.92503356933594,100.6742401123047,-7.124649047851562
112616,0.0666961669921875,-0.044219970703125,-0.0905303955078125,-0.6872212290763855,-0.5998373627662659,0.0914281830191612,51.95245361328125,100.649169921875,-6.301193237304688
112617,0.08837890625,-0.0549774169921875,-0.0751953125,-0.6487109065055847,-0.6349644660949707,0.1498741805553436,51.98751831054688,100.6729125976562,-6.002655029296875
112618,0.08837890625,-0.0549774169921875,-0.0751953125,-0.6487109065055847,-0.6349644660949707,0.1498741805553436,51.98751831054688,100.6729125976562,-6.002655029296875
112619,0.1105499267578125,-0.048065185546875,-0.072601318359375,-0.5969435572624207,-0.65116286277771,0.2239329665899277,52.075927734375,100.5992736816406,-5.588760375976562
112620,0.162506103515625,0.0518951416015625,-0.1928558349609375,-0.4191088378429413,-0.818158745765686,0.4158622026443481,52.26246643066406,100.5720672607422,-5.006866455078125
112621,0.162506103515625,0.0518951416015625,-0.1928558349609375,-0.4191088378429413,-0.818158745765686,0.4158622026443481,52.26246643066406,100.5720672607422,-5.006866455078125
112622,0.1858367919921875,0.203643798828125,-0.2386932373046875,-0.3249392211437225,-1.008658647537231,0.533774733543396,52.34918212890625,100.5682678222656,-4.805267333984375
112623,0.1943511962890625,0.4552154541015625,-0.2651214599609375,-0.2891343235969543,-1.040453910827637,0.6018890738487244,52.44392395019531,100.5456085205078,-4.449691772460938
112624,0.1966552734375,0.7289581298828125,-0.3629608154296875,-0.3108303248882294,-0.9792789220809937,0.5545052886009216,52.63838195800781,100.5733184814453,-4.1414794921875
112625,0.1884307861328125,0.9456634521484376,-0.4300384521484375,-0.3004301488399506,-0.9355642199516296,0.3732295036315918,52.78819274902344,100.6325531005859,-3.9080810546875
112626,0.1298065185546875,1.067901611328125,-0.390625,-0.2298142910003662,-0.7584834694862366,0.0838610753417015,52.9832763671875,100.5879669189453,-3.757095336914062
112627,0.0156097412109375,1.134063720703125,-0.3947601318359375,-0.0880821868777275,-0.5407021045684814,-0.1236327216029167,53.22402954101562,100.5967407226562,-3.64044189453125
112628,-0.010406494140625,1.339508056640625,-0.4940948486328125,0.1259595304727554,-0.4684420526027679,-0.241631805896759,53.2020263671875,100.5132293701172,-3.305618286132812
112629,0.066070556640625,1.710342407226562,-0.5023193359375,0.3929044008255005,-0.4337354600429535,-0.2637664079666138,53.26994323730469,100.4294738769531,-3.201583862304688
112630,0.1091461181640625,2.113677978515625,-0.1986846923828125,0.5648080110549927,-0.0082712452858686,-0.2108368724584579,53.14141845703125,100.4782562255859,-3.296127319335938
112631,0.1250457763671875,2.477859497070312,0.099395751953125,0.5167858600616455,0.7195837497711182,-0.1807836294174194,53.0537109375,100.4976196289062,-3.418258666992188
112632,0.1645660400390625,3.27801513671875,0.2527923583984375,0.3894090056419373,0.8124366998672485,0.0888454467058181,52.62550354003906,100.4884796142578,-3.912185668945312
112633,0.1645660400390625,3.27801513671875,0.2527923583984375,0.3894090056419373,0.8124366998672485,0.0888454467058181,52.62550354003906,100.4884796142578,-3.912185668945312
112634,0.1567840576171875,3.754623413085938,0.4755706787109375,0.4152834713459015,0.7570091485977173,0.5427713990211487,52.39924621582031,100.5318450927734,-4.37945556640625
112635,0.133026123046875,4.139984130859375,0.5180511474609375,0.3736028969287872,0.6027995944023132,1.052258133888245,52.28564453125,100.4273986816406,-4.5201416015625
112636,0.1534881591796875,4.108627319335938,0.4527130126953125,0.4394713640213013,0.092528335750103,1.352460026741028,52.4580078125,100.3734130859375,-4.7100830078125
112637,0.1309356689453125,3.431640625,0.386749267578125,0.8546507358551025,-0.3450340926647186,1.157765030860901,52.83503723144531,100.4774475097656,-5.189620971679688
112638,-0.003143310546875,2.888336181640625,0.3704071044921875,1.433743357658386,-0.1512052267789841,0.9257118701934814,53.44915771484375,100.5442657470703,-5.4957275390625
112639,-0.12237548828125,2.782852172851562,0.25262451171875,1.831249713897705,0.3848962783813477,0.6003713011741638,54.04426574707031,100.5459442138672,-5.896804809570312
112640,-0.2290496826171875,2.819259643554688,0.07879638671875,1.76972222328186,0.4729353189468384,0.2537409365177155,54.53445434570312,100.7826385498047,-6.453033447265625
112641,-0.3430328369140625,2.699859619140625,0.2054443359375,1.387738347053528,0.4615902602672577,-0.1087416633963585,54.79246520996094,101.0211029052734,-7.31512451171875
112642,-0.424468994140625,2.353363037109375,0.3576812744140625,1.005119562149048,0.6673226356506348,-0.4463596343994141,55.04734802246094,101.2550048828125,-8.245529174804688
112643,-0.4939727783203125,1.911865234375,0.3739013671875,0.7999113202095032,0.7981477975845337,-0.6344752311706543,55.21835327148438,101.2330474853516,-9.069137573242188
112644,-0.5664520263671875,1.490798950195312,0.3235321044921875,0.7958539724349976,0.6588415503501892,-0.6738860011100769,55.27427673339844,101.24658203125,-9.532913208007812
112645,-0.6466827392578125,1.127395629882812,0.2731781005859375,0.9670707583427428,0.160041332244873,-0.6289078593254089,55.26263427734375,101.0886535644531,-9.948196411132812
112646,-0.7160797119140625,0.81494140625,0.3288726806640625,1.215767860412598,-0.4231595098972321,-0.4807519614696503,55.26702880859375,101.0839996337891,-10.3992919921875
112647,-0.8128509521484375,0.5331268310546875,0.46844482421875,1.410282254219055,-0.6299664974212646,-0.1816550195217133,55.19483947753906,101.0377349853516,-10.69503784179688
112648,-0.8679962158203125,0.2826995849609375,0.507354736328125,1.470290184020996,-0.4040542542934418,0.2186460494995117,55.11309814453125,100.9683532714844,-11.22129821777344
112649,-0.7660064697265625,0.1653900146484375,0.290618896484375,1.403649926185608,-0.2003261744976044,0.4737031161785126,55.10061645507812,101.0173187255859,-12.10289001464844
112650,-0.5673065185546875,0.1573486328125,0.0066375732421875,1.171114683151245,-0.3637350797653198,0.4897113740444183,55.13385009765625,101.1233367919922,-12.85137939453125
112651,-0.391815185546875,0.28729248046875,-0.0992584228515625,0.816055953502655,-0.4455476403236389,0.3377056121826172,55.36557006835938,101.1520080566406,-13.55940246582031
112652,-0.2762603759765625,0.5035552978515625,-0.1253509521484375,0.6267195343971252,-0.404811680316925,0.0482412986457347,55.49079895019531,101.2353057861328,-14.2852783203125
112653,-0.1948394775390625,0.555511474609375,-0.11102294921875,0.8181787133216858,-0.4089725911617279,-0.1469393819570541,55.59014892578125,101.2097473144531,-14.82255554199219
112654,-0.119415283203125,0.51348876953125,-0.044952392578125,1.132001399993896,-0.3192863762378693,-0.2033137083053589,55.65235900878906,101.1540222167969,-15.32069396972656
112655,-0.038543701171875,0.453643798828125,0.018951416015625,1.300745606422424,-0.1677218824625015,-0.1416442096233368,55.63435363769531,101.1023559570312,-15.85787963867188
112656,0.027984619140625,0.40496826171875,0.0657501220703125,1.308838486671448,-0.0633560717105865,-0.0167984217405319,55.55165100097656,100.9656524658203,-16.32746887207031
112657,0.0687408447265625,0.3807525634765625,0.0803680419921875,1.220011949539185,-0.1390638798475266,0.1379216462373734,55.50581359863281,101.0185546875,-16.97244262695312
112658,0.0889739990234375,0.3506011962890625,0.096923828125,1.000884413719177,-0.3132140934467316,0.3349335193634033,55.425537109375,101.0220031738281,-17.563720703125
112659,0.0896453857421875,0.3514862060546875,0.1370849609375,0.7182577252388,-0.5557412505149841,0.5186471343040466,55.39736938476562,101.0073394775391,-18.04104614257812
112660,0.0094146728515625,0.452362060546875,0.2840118408203125,0.2217369228601456,-0.9451388120651244,0.2975049316883087,55.74407958984375,101.0312805175781,-18.99330139160156
112661,0.0094146728515625,0.452362060546875,0.2840118408203125,0.2217369228601456,-0.9451388120651244,0.2975049316883087,55.74407958984375,101.0312805175781,-18.99330139160156
112662,-0.01934814453125,0.4702301025390625,0.324798583984375,0.0477254427969455,-1.144009351730347,-0.1106721833348274,55.94377136230469,101.1024932861328,-19.17709350585938
112663,-0.0958709716796875,0.4255218505859375,0.40826416015625,-0.0536344647407531,-1.241121768951416,-0.4026188254356384,56.10008239746094,100.9722290039062,-19.13722229003906
112664,-0.1849517822265625,0.3881378173828125,0.4681549072265625,-0.1375722438097,-1.095059633255005,-0.3832485973834991,56.14956665039062,101.0440368652344,-19.1776123046875
112665,-0.279815673828125,0.5868682861328125,0.4635772705078125,-0.4197195172309875,-1.00518536567688,-0.3484951257705688,55.84681701660156,101.2644805908203,-19.18421936035156
112666,-0.279815673828125,0.5868682861328125,0.4635772705078125,-0.4197195172309875,-1.00518536567688,-0.3484951257705688,55.84681701660156,101.2644805908203,-19.18421936035156
112667,-0.3262939453125,0.6607666015625,0.4537200927734375,-0.6668568849563599,-1.180988311767578,-0.4093065559864044,55.75590515136719,101.4375762939453,-19.21318054199219
112668,-0.3708343505859375,0.601287841796875,0.4073028564453125,-1.301594614982605,-1.699776172637939,-0.5485800504684448,55.30508422851562,101.5296783447266,-18.84480285644531
112669,-0.3708343505859375,0.601287841796875,0.4073028564453125,-1.301594614982605,-1.699776172637939,-0.5485800504684448,55.30508422851562,101.5296783447266,-18.84480285644531
112670,-0.3743743896484375,0.60174560546875,0.3890228271484375,-1.555248260498047,-1.874474763870239,-0.6068076491355896,55.14884948730469,101.5576171875,-18.43917846679688
112671,-0.380706787109375,0.64251708984375,0.3514862060546875,-1.704834580421448,-1.828285694122314,-0.6869895458221436,54.92123413085938,101.5722503662109,-17.89393615722656
112672,-0.4630584716796875,0.6615142822265625,0.123931884765625,-1.755810856819153,-1.819822430610657,-0.7658255100250244,54.34349060058594,101.7809295654297,-16.64381408691406
112673,-0.4630584716796875,0.6615142822265625,0.123931884765625,-1.755810856819153,-1.819822430610657,-0.7658255100250244,54.34349060058594,101.7809295654297,-16.64381408691406
112674,-0.5250396728515625,0.57110595703125,0.210723876953125,-1.706668376922607,-1.192071318626404,-0.621423065662384,53.95932006835938,101.9027099609375,-15.90596008300781
112675,-0.438079833984375,0.4845733642578125,0.053253173828125,-1.513702392578125,-0.6176307201385498,-0.4834324419498444,53.56414794921875,101.9733734130859,-15.15934753417969
112676,-0.243865966796875,0.4246978759765625,-0.0894775390625,-1.142630577087402,-0.6320117712020874,-0.4718674123287201,53.19406127929688,102.0314331054688,-14.28462219238281
112677,-0.1495361328125,0.343505859375,-0.05657958984375,-0.8519780039787292,-0.6305478811264038,-0.4508894085884094,52.95077514648438,102.1285247802734,-13.42718505859375
112678,-0.073486328125,0.2660064697265625,-0.05462646484375,-0.7557340264320374,-0.5693374872207642,-0.3917467296123505,52.711181640625,102.0139617919922,-12.72528076171875
112679,-0.019683837890625,0.18597412109375,-0.0778656005859375,-0.742243766784668,-0.6439997553825378,-0.3069905638694763,52.50857543945312,101.9653778076172,-12.15283203125
112680,0.0780181884765625,0.0398101806640625,-0.116607666015625,-0.7796601057052612,-1.100553750991821,-0.0753900930285453,52.35296630859375,101.5704956054688,-11.21124267578125
112681,0.0780181884765625,0.0398101806640625,-0.116607666015625,-0.7796601057052612,-1.100553750991821,-0.0753900930285453,52.35296630859375,101.5704956054688,-11.21124267578125
112682,0.1262054443359375,-0.0205078125,-0.12451171875,-0.7340375185012817,-1.343439102172852,0.1303140670061111,52.26535034179688,101.5139312744141,-10.86158752441406
112683,0.155029296875,-0.047393798828125,-0.1393890380859375,-0.6041079759597778,-1.516392469406128,0.37343430519104,52.1951904296875,101.3739929199219,-10.26080322265625
112684,0.1708831787109375,-0.0462188720703125,-0.1573028564453125,-0.4056947827339172,-1.633322596549988,0.5918667912483215,52.23310852050781,101.3841400146484,-9.746917724609377
112685,0.1855010986328125,-0.0227508544921875,-0.1526031494140625,-0.2023381888866425,-1.641772747039795,0.77460116147995,52.19404602050781,101.3096008300781,-9.158203125
112686,0.212432861328125,0.036895751953125,-0.170806884765625,-0.0601616092026233,-1.593552231788635,0.9388335347175598,52.37890625,101.4972686767578,-8.923980712890625
112687,0.239593505859375,0.1695556640625,-0.2296295166015625,-0.0368115454912185,-1.416373133659363,1.039549469947815,52.64404296875,101.6027374267578,-8.968826293945312
112688,0.2664031982421875,0.6639404296875,-0.5213470458984375,-0.0849601626396179,-1.25454306602478,0.6781430840492249,53.42060852050781,101.5088500976562,-8.948150634765625
112689,0.2664031982421875,0.6639404296875,-0.5213470458984375,-0.0849601626396179,-1.25454306602478,0.6781430840492249,53.42060852050781,101.5088500976562,-8.948150634765625
112690,0.2164154052734375,0.88983154296875,-0.5670166015625,-0.0670807659626007,-1.208484411239624,0.2509467303752899,53.93109130859375,101.5346527099609,-8.822723388671875
112691,0.0807342529296875,1.052322387695312,-0.500946044921875,0.0348730273544788,-1.009682893753052,-0.1921731680631638,54.26670837402344,101.4645385742188,-8.73150634765625
112692,-0.027435302734375,1.195541381835938,-0.5249176025390625,0.2556224465370178,-0.6807058453559875,-0.5404376983642578,54.56602478027344,101.4515075683594,-8.58984375
112693,0.0201873779296875,1.45233154296875,-0.7093505859375,0.6623598337173462,-0.4478768408298492,-0.7391678094863892,54.52377319335938,101.4141693115234,-8.481216430664062
112694,0.1432952880859375,1.74261474609375,-0.792083740234375,1.109609246253967,-0.3922314345836639,-0.6547562479972839,54.43846130371094,101.3431091308594,-8.599472045898438
112695,0.181427001953125,2.010452270507812,-0.449981689453125,1.21433436870575,-0.0427485294640064,-0.4511852860450745,54.07368469238281,101.3919067382812,-8.801437377929688
112696,0.194793701171875,2.207565307617188,-0.010894775390625,0.8433583974838257,0.5786420702934265,-0.3790130913257599,53.70217895507812,101.3377227783203,-9.151107788085938
112697,0.2345123291015625,2.378250122070312,0.1418914794921875,0.4086663126945496,0.8538587093353271,-0.3025555908679962,53.44366455078125,101.3614044189453,-9.653823852539062
112698,0.253875732421875,2.711456298828125,0.1994171142578125,0.2415066361427307,0.6856739521026611,-0.0273690391331911,53.14640808105469,101.4299163818359,-10.30525207519531
112699,0.1848907470703125,3.205490112304688,0.382598876953125,0.1610757112503052,0.6463971138000488,0.3468208014965057,52.98614501953125,101.3892517089844,-10.61163330078125
112700,0.0760650634765625,3.616348266601562,0.5190277099609375,-0.0368946343660354,0.9027503728866576,0.7363014221191406,52.82766723632812,101.376953125,-10.81678771972656
112701,-0.07196044921875,3.824554443359375,0.4078216552734375,-0.0887090936303138,0.8193766474723816,1.039618134498596,52.90020751953125,101.2938842773438,-10.97068786621094
112702,-0.2387542724609375,3.64190673828125,0.246490478515625,0.3846043944358826,0.2123556733131409,0.9480395317077636,53.15345764160156,101.4153442382812,-11.2783203125
112703,-0.22698974609375,3.238800048828125,0.337158203125,1.103243231773376,-0.1169441938400269,0.646308422088623,53.53593444824219,101.5974884033203,-11.42413330078125
112704,-0.3778533935546875,2.974380493164062,0.574798583984375,1.778930902481079,1.302807211875916,-0.2210759222507477,54.28648376464844,101.8368377685547,-11.85273742675781
112705,-0.3778533935546875,2.974380493164062,0.574798583984375,1.778930902481079,1.302807211875916,-0.2210759222507477,54.28648376464844,101.8368377685547,-11.85273742675781
112706,-0.4447479248046875,2.802505493164062,0.3437957763671875,1.804282307624817,1.859104037284851,-0.5731884241104126,54.56573486328125,101.9662933349609,-12.60134887695312
112707,-0.527099609375,2.465621948242188,0.025390625,1.760475993156433,1.669594764709473,-0.8082534074783325,54.52529907226562,102.0836791992188,-13.57414245605469
112708,-0.7430419921875,1.487258911132812,0.1174468994140625,1.289721727371216,1.17364227771759,-0.7077257037162781,54.25218200683594,102.2440032958984,-15.38865661621094
112709,-0.7430419921875,1.487258911132812,0.1174468994140625,1.289721727371216,1.17364227771759,-0.7077257037162781,54.25218200683594,102.2440032958984,-15.38865661621094
112710,-0.899566650390625,0.9978790283203124,0.0508880615234375,0.9947692155838012,1.134694337844849,-0.1061866208910942,53.98161315917969,102.2500762939453,-17.26028442382812
112711,-0.9682769775390624,0.714813232421875,0.0114898681640625,0.8226850628852844,0.8201212286949158,0.7090138792991638,54.04708862304688,102.1914215087891,-17.86404418945312
112712,-0.790191650390625,0.77001953125,0.1144256591796875,0.9037216305732728,0.1221306994557381,1.04183292388916,54.35890197753906,102.1812133789062,-18.39141845703125
112713,-0.6359405517578125,0.8213348388671875,0.367340087890625,1.103055477142334,-0.4961066842079163,0.9989162683486938,54.86582946777344,102.1535797119141,-18.82365417480469
112714,-0.557952880859375,0.77056884765625,0.5241546630859375,1.298426866531372,-0.6927238702774048,0.8009536862373352,55.48228454589844,101.9875335693359,-19.21205139160156
112715,-0.4413909912109375,0.6935272216796875,0.4444580078125,1.423640370368958,-0.6420494914054871,0.5946122407913208,55.92697143554688,101.7721557617188,-19.7288818359375
112716,-0.2768402099609375,0.6645660400390625,0.10845947265625,1.3958660364151,-0.8594460487365723,0.4479024112224579,56.32856750488281,101.4848480224609,-20.14828491210938
112717,-0.159271240234375,0.6914520263671875,-0.12896728515625,1.22539210319519,-1.363636493682861,0.2833456993103027,56.42057800292969,101.1979370117188,-20.94091796875
112718,-0.075042724609375,0.6923370361328125,-0.1402130126953125,0.9950411319732666,-1.721519470214844,0.1018304899334908,56.42684936523438,101.0886383056641,-21.596435546875
112719,0.010345458984375,0.614776611328125,-0.1118621826171875,0.8162029385566711,-1.784226536750793,0.0021800636313855,56.30821228027344,100.9843597412109,-22.26884460449219
112720,0.1021575927734375,0.492462158203125,-0.06842041015625,0.7739481329917908,-1.613032221794128,0.0361851677298545,56.08070373535156,100.9884033203125,-22.86898803710938
112721,0.182769775390625,0.3744964599609375,0.0131683349609375,0.8802237510681152,-1.401400685310364,0.1699445694684982,55.81912231445312,100.9085235595703,-23.40792846679688
112722,0.23626708984375,0.2982330322265625,0.1222381591796875,1.063185334205627,-1.217600226402283,0.3508765399456024,55.6580810546875,100.7502136230469,-23.94517517089844
112723,0.2388916015625,0.2674102783203125,0.2159271240234375,1.180197715759277,-1.022711396217346,0.5162351131439209,55.57742309570312,100.5997161865234,-24.34907531738281
112724,0.1415557861328125,0.29278564453125,0.237396240234375,1.0834641456604,-0.6498504281044006,0.5466654896736145,55.95394897460938,100.3876037597656,-25.49461364746094
112725,0.1415557861328125,0.29278564453125,0.237396240234375,1.0834641456604,-0.6498504281044006,0.5466654896736145,55.95394897460938,100.3876037597656,-25.49461364746094
112726,0.102081298828125,0.316436767578125,0.250244140625,0.859471321105957,-0.5895982980728149,0.4454187452793121,56.22392272949219,100.1280364990234,-25.98928833007812
112727,0.06268310546875,0.34222412109375,0.3031768798828125,0.5362535715103149,-0.5586574077606201,0.3279294073581696,56.52388000488281,100.0377960205078,-26.45941162109375
112728,-0.11334228515625,0.5113372802734375,0.59564208984375,-0.1904722154140472,-0.1120189428329468,0.1663668751716614,56.89314270019531,100.006103515625,-27.08384704589844
112729,-0.11334228515625,0.5113372802734375,0.59564208984375,-0.1904722154140472,-0.1120189428329468,0.1663668751716614,56.89314270019531,100.006103515625,-27.08384704589844
112730,-0.2299652099609375,0.5951995849609375,0.623748779296875,-0.5244459509849548,0.2456441223621368,0.1130967289209366,57.12693786621094,99.97621154785156,-27.0546875
112731,-0.3496551513671875,0.6672821044921875,0.5662384033203125,-0.7858700752258301,0.250336080789566,0.0052517536096274,57.28717041015625,100.0887908935547,-26.86068725585938
112732,-0.46881103515625,0.6836700439453125,0.52337646484375,-0.9384308457374572,-0.0847862586379051,-0.125876173377037,57.55570983886719,100.1129302978516,-26.62069702148438
112733,-0.5707244873046875,0.56634521484375,0.478271484375,-1.062741637229919,-1.040524482727051,-0.3782216012477875,57.67771911621094,100.4521026611328,-25.83699035644531
112734,-0.5707244873046875,0.56634521484375,0.478271484375,-1.062741637229919,-1.040524482727051,-0.3782216012477875,57.67771911621094,100.4521026611328,-25.83699035644531
112735,-0.5504608154296875,0.48284912109375,0.47344970703125,-1.178308963775635,-1.330710172653198,-0.4599761068820953,57.64700317382812,100.4000854492188,-25.28915405273438
112736,-0.51507568359375,0.4097442626953125,0.46136474609375,-1.341275811195374,-1.369232296943665,-0.4489599466323853,57.426513671875,100.6091766357422,-24.78985595703125
112737,-0.4513702392578125,0.3770294189453125,0.4306488037109375,-1.497653126716614,-1.1949383020401,-0.3898513615131378,57.161376953125,100.7692108154297,-24.39654541015625
112738,-0.3668365478515625,0.40924072265625,0.3728179931640625,-1.604368448257446,-0.9340741634368896,-0.4267001748085022,56.824462890625,100.9969177246094,-23.85292053222656
112739,-0.305938720703125,0.414031982421875,0.2896575927734375,-1.634006977081299,-0.7640233635902405,-0.5036309361457825,56.57334899902344,101.1042022705078,-23.07795715332031
112740,-0.27178955078125,0.3796539306640625,0.2042999267578125,-1.601137399673462,-0.6827490329742432,-0.5638543367385864,56.27145385742188,101.2789154052734,-22.31709289550781
112741,-0.133941650390625,0.2830047607421875,-0.1930084228515625,-1.452095985412598,-1.115511655807495,-0.5987571477890015,55.68228149414062,101.5045776367188,-20.79568481445312
112742,-0.133941650390625,0.2830047607421875,-0.1930084228515625,-1.452095985412598,-1.115511655807495,-0.5987571477890015,55.68228149414062,101.5045776367188,-20.79568481445312
112743,-0.042327880859375,0.203460693359375,-0.331695556640625,-1.390327453613281,-1.708642363548279,-0.5400451421737671,55.45649719238281,101.5187683105469,-19.82008361816406
112744,0.06903076171875,0.073577880859375,-0.2499542236328125,-1.349777698516846,-2.086005926132202,-0.2389723658561707,54.76126098632812,101.6662292480469,-18.6455078125
112745,0.06903076171875,0.073577880859375,-0.2499542236328125,-1.349777698516846,-2.086005926132202,-0.2389723658561707,54.76126098632812,101.6662292480469,-18.6455078125
112746,0.1116943359375,0.021484375,-0.2289276123046875,-1.235491871833801,-1.963550567626953,0.0047436226159334,54.43809509277344,101.7508544921875,-18.03675842285156
112747,0.1684112548828125,-0.0113983154296875,-0.2113189697265625,-0.9614427089691162,-1.869212865829468,0.2963456511497498,54.23265075683594,101.6526641845703,-17.36756896972656
112748,0.223175048828125,0.001434326171875,-0.177398681640625,-0.2439490109682083,-1.44987416267395,0.8401450514793396,54.16424560546875,101.8622131347656,-16.13020324707031
112749,0.223175048828125,0.001434326171875,-0.177398681640625,-0.2439490109682083,-1.44987416267395,0.8401450514793396,54.16424560546875,101.8622131347656,-16.13020324707031
112750,0.2668304443359375,0.05767822265625,-0.208892822265625,-0.0664530619978904,-0.8004457950592041,0.9939391016960144,54.22727966308594,101.9687347412109,-15.77580261230469
112751,0.2986297607421875,0.1814117431640625,-0.3752288818359375,-0.0545814856886863,-0.1734032034873962,1.007214426994324,54.54389953613281,101.9789733886719,-15.42710876464844
112752,0.289306640625,0.3324127197265625,-0.494659423828125,-0.1264226585626602,-0.0241540726274251,0.8424587845802307,54.91311645507812,101.8599243164062,-15.11863708496094
112753,0.2839508056640625,0.4616851806640625,-0.496124267578125,-0.2314033955335617,-0.2477245777845383,0.5994756817817688,55.32093811035156,101.9275512695312,-15.07260131835938
112754,0.2665252685546875,0.6085968017578125,-0.4753875732421875,-0.3382145464420319,-0.6045287847518921,0.34751296043396,55.65779113769531,101.8534088134766,-14.97389221191406
112755,0.1967620849609375,0.8080291748046875,-0.440460205078125,-0.4155367612838745,-0.8630689978599548,0.0465845465660095,55.87925720214844,101.8361053466797,-14.70028686523438
112756,0.1035003662109375,1.005340576171875,-0.425384521484375,-0.4058897197246552,-0.8966317176818848,-0.2970234155654907,55.9659423828125,101.785400390625,-14.41143798828125
112757,0.0211029052734375,1.233795166015625,-0.553863525390625,-0.2141106873750687,-0.8607786893844604,-0.6243035197257996,55.85597229003906,101.7542114257812,-14.18283081054688
112758,-0.0113372802734375,1.59161376953125,-0.7954864501953125,0.2396048605442047,-1.080654621124268,-0.956153392791748,55.69865417480469,101.8930206298828,-13.92251586914062
112759,0.0897216796875,1.951812744140625,-0.7412567138671875,0.8280074000358582,-1.184733510017395,-1.075592398643494,55.27743530273438,102.0117797851562,-13.96658325195312
112760,0.22332763671875,2.1728515625,-0.3049774169921875,1.315469980239868,-0.5141778588294983,-0.8044282793998718,54.775146484375,102.0531005859375,-14.00653076171875
112761,0.250732421875,2.327285766601562,0.036651611328125,1.5514976978302,0.4329290688037872,-0.4240026772022247,54.21376037597656,102.0237731933594,-14.42658996582031
112762,0.2812652587890625,2.444473266601562,0.0548095703125,1.571712970733643,0.8722693920135498,-0.0441850386559963,53.79960632324219,102.0763854980469,-15.12599182128906
112763,0.2887725830078125,2.655838012695312,0.0115814208984375,1.370391368865967,0.630318284034729,0.4549699127674103,53.56782531738281,102.1022186279297,-15.85498046875
112764,0.1659698486328125,3.459686279296875,0.1848297119140625,0.4434357583522797,-0.0259770061820745,1.201884627342224,53.84591674804688,101.9117126464844,-17.3804931640625
112765,0.1659698486328125,3.459686279296875,0.1848297119140625,0.4434357583522797,-0.0259770061820745,1.201884627342224,53.84591674804688,101.9117126464844,-17.3804931640625
112766,0.090087890625,3.938491821289062,0.22418212890625,0.2998455762863159,-0.3068214654922485,1.277652025222778,54.16993713378906,101.8230133056641,-17.92013549804688
112767,-0.0477294921875,4.272476196289062,0.291412353515625,0.7671030163764954,-0.4269515872001648,0.9525480270385742,54.71662902832031,101.8705139160156,-18.31013488769531
112768,-0.366546630859375,3.918167114257812,0.7123260498046875,1.691100358963013,1.20714807510376,-0.5447301268577576,55.48130798339844,102.0202178955078,-19.01019287109375
112769,-0.366546630859375,3.918167114257812,0.7123260498046875,1.691100358963013,1.20714807510376,-0.5447301268577576,55.48130798339844,102.0202178955078,-19.01019287109375
112770,-0.5650482177734375,3.378082275390625,0.5465240478515625,1.846804141998291,2.173686027526855,-1.361429810523987,55.56919860839844,102.1494140625,-19.83331298828125
112771,-0.6722564697265625,2.682418823242188,0.25811767578125,1.909288883209229,2.377355098724365,-1.901842951774597,55.67274475097656,102.0065765380859,-20.65484619140625
112772,-1.239761352539062,1.080032348632812,-0.0057830810546875,1.566045761108398,1.404163360595703,-1.084008812904358,55.14358520507812,102.1024017333984,-23.04202270507812
112773,-1.239761352539062,1.080032348632812,-0.0057830810546875,1.566045761108398,1.404163360595703,-1.084008812904358,55.14358520507812,102.1024017333984,-23.04202270507812
112774,-1.38067626953125,0.6314697265625,-0.006561279296875,1.110501408576965,1.148095965385437,0.4568820595741272,54.81045532226562,102.1025085449219,-24.1263427734375
112775,-0.9442596435546876,0.756378173828125,-0.0338897705078125,0.831600546836853,0.2981664538383484,1.030205011367798,54.87823486328125,101.8879699707031,-24.85887145996094
112776,-0.7208709716796875,0.828857421875,0.30548095703125,0.7213762998580933,-0.4366026222705841,1.026034235954285,55.17779541015625,101.6221771240234,-25.40447998046875
112777,-0.66778564453125,0.7248077392578125,0.5495147705078125,0.7219414114952087,-0.4636992216110229,0.830405592918396,55.69102478027344,101.4722900390625,-25.76576232910156
112778,-0.5573272705078125,0.5644073486328125,0.521392822265625,0.8018364906311035,-0.1938456296920776,0.6004930138587952,56.22444152832031,101.2179565429688,-25.89646911621094
112779,-0.4018707275390625,0.364349365234375,0.290435791015625,0.8554523587226868,0.0066451192833483,0.4438717067241669,56.64810180664062,100.8633880615234,-26.12699890136719
112780,-0.103668212890625,0.239959716796875,-0.2097320556640625,0.8519590497016907,-0.7331003546714783,0.3209567070007324,56.91545104980469,100.3230743408203,-27.12556457519531
112781,-0.103668212890625,0.239959716796875,-0.2097320556640625,0.8519590497016907,-0.7331003546714783,0.3209567070007324,56.91545104980469,100.3230743408203,-27.12556457519531
112782,-0.0151824951171875,0.4256591796875,-0.1318511962890625,0.8049625158309937,-0.7008726000785828,0.1920972764492035,56.98002624511719,100.3091888427734,-27.43731689453125
112783,0.05133056640625,0.58984375,-0.1217498779296875,0.8848520517349243,-0.5472543239593506,0.1008086353540421,56.99885559082031,100.1630096435547,-27.75978088378906
112784,0.082733154296875,0.694976806640625,-0.088165283203125,1.082743763923645,-0.4698276817798615,0.0814543813467025,56.91508483886719,99.9350128173828,-28.03411865234375
112785,0.0939178466796875,0.72857666015625,-0.0106201171875,1.247679471969604,-0.4077827036380768,0.056121326982975,56.78765869140625,99.64743041992188,-28.52891540527344
112786,0.1148681640625,0.6578216552734375,0.0573577880859375,1.234471321105957,-0.3789430558681488,0.0345702283084392,56.73106384277344,99.5683135986328,-29.25392150878906
112787,0.131134033203125,0.541839599609375,0.125640869140625,1.047384738922119,-0.4019865989685059,0.0364149995148181,56.67720031738281,99.3555908203125,-30.05934143066406
112788,0.1224212646484375,0.4623565673828125,0.150421142578125,0.7630696892738342,-0.5279663801193237,0.0362051427364349,56.49569702148438,99.21240234375,-30.6549072265625
112789,-0.0207061767578125,0.373748779296875,0.2788543701171875,0.3099805116653442,-0.7593194246292114,-0.081915371119976,56.45077514648438,98.84739685058594,-31.70455932617188
112790,-0.0207061767578125,0.373748779296875,0.2788543701171875,0.3099805116653442,-0.7593194246292114,-0.081915371119976,56.45077514648438,98.84739685058594,-31.70455932617188
112791,-0.1316070556640625,0.3435821533203125,0.333282470703125,0.2117050588130951,-0.5896222591400146,-0.0424563810229301,56.34883117675781,98.62913513183594,-31.69876098632812
112792,-0.21051025390625,0.3633575439453125,0.3376617431640625,0.1317945122718811,-0.3771222531795502,-0.0098821921274065,56.26654052734375,98.68295288085938,-31.92227172851562
112793,-0.27471923828125,0.428741455078125,0.3439483642578125,-0.0169241223484277,-0.2184740155935287,-0.0282971523702144,56.12660217285156,98.90093994140624,-32.29739379882812
112794,-0.3419952392578125,0.530364990234375,0.3833465576171875,-0.28243088722229,-0.0793800428509712,-0.0981630533933639,56.12730407714844,99.01036071777344,-32.50282287597656
112795,-0.4056549072265625,0.62310791015625,0.403076171875,-0.578694760799408,-0.0025063008069992,-0.2131389081478119,56.09732055664062,99.0443115234375,-32.50033569335938
112796,-0.5577850341796875,0.64910888671875,0.347900390625,-0.8392012119293213,-0.4942613840103149,-0.4038097858428955,56.04879760742188,99.25015258789062,-32.04669189453125
112797,-0.5577850341796875,0.64910888671875,0.347900390625,-0.8392012119293213,-0.4942613840103149,-0.4038097858428955,56.04879760742188,99.25015258789062,-32.04669189453125
112798,-0.6141510009765625,0.5930023193359375,0.3632354736328125,-0.845954179763794,-0.8633763194084167,-0.4175876379013062,55.94454956054688,99.41848754882812,-31.63720703125
112799,-0.607696533203125,0.5112457275390625,0.3861846923828125,-0.8919919729232788,-1.100318789482117,-0.3818589448928833,55.81842041015625,99.61262512207033,-31.23106384277344
112800,-0.331695556640625,0.4532623291015625,0.3200836181640625,-1.200548768043518,-1.313884854316711,-0.4333415925502777,55.27516174316406,100.0399932861328,-30.54248046875
112801,-0.331695556640625,0.4532623291015625,0.3200836181640625,-1.200548768043518,-1.313884854316711,-0.4333415925502777,55.27516174316406,100.0399932861328,-30.54248046875
112802,-0.2624359130859375,0.394744873046875,0.309600830078125,-1.339912533760071,-1.28635585308075,-0.500378429889679,54.98289489746094,100.1190490722656,-30.1273193359375
112803,-0.222137451171875,0.3456878662109375,0.2742919921875,-1.418171644210815,-1.155231118202209,-0.5513108372688293,54.756103515625,100.1710815429688,-29.64950561523438
112804,-0.1320953369140625,0.2437896728515625,0.0825653076171875,-1.448436260223389,-1.040293574333191,-0.5774574875831604,53.94955444335938,100.5747833251953,-28.42921447753906
112805,-0.1320953369140625,0.2437896728515625,0.0825653076171875,-1.448436260223389,-1.040293574333191,-0.5774574875831604,53.94955444335938,100.5747833251953,-28.42921447753906
112806,-0.0530853271484375,0.1883544921875,-0.0897369384765625,-1.370740413665771,-1.208763003349304,-0.5201992392539978,53.6253662109375,100.6815032958984,-27.84304809570312
112807,0.033111572265625,0.1333160400390625,-0.2481231689453125,-1.205759167671204,-1.555473566055298,-0.3721551895141602,53.29371643066406,100.7389068603516,-26.94859313964844
112808,0.0993804931640625,0.0655364990234375,-0.1738739013671875,-0.8838967680931091,-1.693916916847229,0.0838392376899719,52.54055786132812,101.0994262695312,-25.76068115234375
112809,0.0993804931640625,0.0655364990234375,-0.1738739013671875,-0.8838967680931091,-1.693916916847229,0.0838392376899719,52.54055786132812,101.0994262695312,-25.76068115234375
112810,0.1208038330078125,0.0585784912109375,-0.149749755859375,-0.7639564871788025,-1.586743593215942,0.3139573931694031,52.13124084472656,101.1549530029297,-25.2808837890625
112811,0.135040283203125,0.0606231689453125,-0.1408538818359375,-0.61910080909729,-1.574469923973083,0.5008029341697693,51.95051574707031,101.2584075927734,-24.70755004882812
112812,0.142791748046875,0.0595245361328125,-0.1241607666015625,-0.4678369760513306,-1.593927502632141,0.6346930861473083,51.8526611328125,101.1523895263672,-24.23982238769531
112813,0.15509033203125,0.0540008544921875,-0.1241302490234375,-0.343772292137146,-1.569530248641968,0.7057163715362549,51.87469482421875,101.2783050537109,-23.72610473632812
112814,0.164154052734375,0.015350341796875,-0.115142822265625,-0.4299894571304321,-1.173989534378052,0.7563891410827637,51.91854858398438,101.3079071044922,-23.294189453125
112815,0.1837158203125,0.0243682861328125,-0.3108978271484375,-0.5621823668479919,-0.8511015176773071,0.8011987209320068,52.07331848144531,101.4393463134766,-22.90673828125
112816,0.1693878173828125,0.0984649658203125,-0.3675537109375,-0.4735848605632782,-0.9564931988716124,0.7993355393409729,52.22038269042969,101.51513671875,-22.63525390625
112817,0.160797119140625,0.183746337890625,-0.2681732177734375,-0.4046835601329803,-0.9200853705406188,0.7026726603507996,52.42897033691406,101.6611328125,-22.56741333007812
112818,0.17559814453125,0.31158447265625,-0.29937744140625,-0.4101105630397797,-0.6838531494140625,0.5233734846115112,52.63114929199219,101.7556610107422,-22.38581848144531
112819,0.163726806640625,0.4770355224609375,-0.469329833984375,-0.4374100863933563,-0.5498679280281067,0.3231894969940186,52.86102294921875,101.8317718505859,-22.02618408203125
112820,0.0167083740234375,0.9566497802734376,-0.6466522216796875,-0.1694635897874832,-0.7875835299491882,-0.0007595335482619,53.04405212402344,101.9508972167969,-21.44038391113281
112821,0.0167083740234375,0.9566497802734376,-0.6466522216796875,-0.1694635897874832,-0.7875835299491882,-0.0007595335482619,53.04405212402344,101.9508972167969,-21.44038391113281
112822,-0.068939208984375,1.310302734375,-0.7166595458984375,0.1875214278697968,-0.6922309398651123,-0.1920410841703415,53.03619384765625,101.9597778320312,-21.21734619140625
112823,-0.07293701171875,1.700439453125,-0.913909912109375,0.6739994883537292,-0.4018134772777557,-0.3164144158363342,52.92898559570312,102.0450897216797,-21.22239685058594
112824,0.2564239501953125,2.323867797851562,-0.3298187255859375,0.3941302597522736,0.834972620010376,0.1281582415103912,52.26776123046875,101.8845672607422,-21.88693237304688
112825,0.2564239501953125,2.323867797851562,-0.3298187255859375,0.3941302597522736,0.834972620010376,0.1281582415103912,52.26776123046875,101.8845672607422,-21.88693237304688
112826,0.2564239501953125,2.323867797851562,-0.3298187255859375,0.3941302597522736,0.834972620010376,0.1281582415103912,52.26776123046875,101.8845672607422,-21.88693237304688
112827,0.3119659423828125,2.392822265625,-0.0379486083984375,0.1237746700644493,0.7141961455345154,0.2704914212226868,52.26664733886719,101.6884460449219,-22.18292236328125
112828,0.2183837890625,2.866424560546875,0.2351531982421875,0.4701533913612366,0.9156400561332704,1.005724191665649,52.58027648925781,101.3901672363281,-22.4925537109375
112829,0.10003662109375,3.066619873046875,0.094146728515625,0.5619059205055237,1.124663829803467,1.19535768032074,52.87664794921875,101.3987426757812,-22.63937377929688
112830,0.10003662109375,3.066619873046875,0.094146728515625,0.5619059205055237,1.124663829803467,1.19535768032074,52.87664794921875,101.3987426757812,-22.63937377929688
112831,0.0506439208984375,3.233795166015625,-0.1088409423828125,0.5797083973884583,0.7146235704421997,1.216629147529602,53.38348388671875,101.4712982177734,-22.90058898925781
112832,0.010650634765625,3.39764404296875,-0.0178985595703125,0.6363272070884705,0.2541467845439911,1.102160096168518,54.00244140625,101.4437255859375,-23.2239990234375
112833,-0.0926971435546875,3.5555419921875,0.2073516845703125,0.7728871703147888,0.238594725728035,0.892576277256012,54.51272583007812,101.5025177001953,-23.55490112304688
112834,-0.2578582763671875,3.731399536132812,0.4932098388671875,0.9813919067382812,0.8115605115890503,0.4782826900482178,54.99949645996094,101.4814300537109,-23.89308166503906
112835,-0.4467315673828125,3.749908447265625,0.64849853515625,1.129247188568115,1.747714877128601,-0.128718301653862,55.45091247558594,101.5640258789062,-24.45553588867188
112836,-0.8089752197265625,2.859771728515625,0.239959716796875,1.275462627410889,1.924184679985046,-1.303670287132263,56.26260375976562,101.662109375,-25.11611938476562
112837,-0.941741943359375,2.051467895507812,0.171783447265625,1.302090287208557,1.341715693473816,-1.4659583568573,56.49845886230469,101.7283630371094,-25.75161743164062
112838,-0.941741943359375,2.051467895507812,0.171783447265625,1.302090287208557,1.341715693473816,-1.4659583568573,56.49845886230469,101.7283630371094,-25.75161743164062
112839,-1.294281005859375,1.25506591796875,0.2490386962890625,1.168238520622253,1.102638959884644,-0.9146432280540466,56.47622680664062,101.6069946289062,-26.30789184570312
112840,-1.643020629882812,0.6315155029296875,0.2894134521484375,1.009811878204346,1.240735292434692,0.5773149728775024,56.46846008300781,101.5620574951172,-26.91009521484375
112841,-1.2896728515625,0.5818023681640625,0.1780548095703125,1.011931419372559,0.9559070467948914,1.34219217300415,56.41964721679688,101.600830078125,-27.76895141601562
112842,-0.9207000732421876,0.7116851806640625,0.2846527099609375,1.151034712791443,0.2266760170459747,1.348915576934814,56.68109130859375,101.4475555419922,-28.60391235351562
112843,-0.7670440673828125,0.688751220703125,0.4744720458984375,1.252333879470825,-0.0606915764510631,1.115703940391541,57.34686279296875,101.3174591064453,-29.05596923828125
112844,-0.5846099853515625,0.5851898193359375,0.4445953369140625,1.244001984596252,-0.03276327252388,0.8804075121879578,58.02548217773438,100.9145050048828,-29.29627990722656
112845,-0.3698577880859375,0.515167236328125,0.25909423828125,1.204367399215698,-0.0781792253255844,0.6899965405464172,58.56707763671875,100.5982666015625,-29.81172180175781
112846,-0.18707275390625,0.467926025390625,0.0739898681640625,1.117214441299438,-0.2810601592063904,0.5241535305976868,59.04008483886719,100.2689971923828,-30.36558532714844
112847,-0.063873291015625,0.4819183349609375,-0.0865020751953125,0.9763681292533876,-0.587510347366333,0.3439373970031738,59.34187316894531,99.9118194580078,-31.01480102539062
112848,0.1183929443359375,0.595916748046875,-0.373687744140625,0.7527573704719543,-1.587159872055054,0.0359912887215614,59.49497985839844,99.22862243652344,-31.95220947265625
112849,0.1183929443359375,0.595916748046875,-0.373687744140625,0.7527573704719543,-1.587159872055054,0.0359912887215614,59.49497985839844,99.22862243652344,-31.95220947265625
112850,0.1750640869140625,0.639801025390625,-0.3092041015625,0.7673895955085754,-1.901769995689392,-0.0391351506114006,59.30723571777344,99.08528137207033,-32.48997497558594
112851,0.23199462890625,0.619903564453125,-0.121368408203125,0.8660277724266052,-1.744098305702209,-0.0522687956690788,59.0206298828125,98.86253356933594,-33.08453369140625
112852,0.3208465576171875,0.3679962158203125,0.02899169921875,0.9348843097686768,-1.051827430725098,0.0948514118790626,58.17240905761719,98.68968200683594,-33.96591186523438
112853,0.3208465576171875,0.3679962158203125,0.02899169921875,0.9348843097686768,-1.051827430725098,0.0948514118790626,58.17240905761719,98.68968200683594,-33.96591186523438
112854,0.2425537109375,0.3124542236328125,0.08056640625,0.8531590700149536,-0.8784804344177246,0.1752357333898544,57.75688171386719,98.551025390625,-34.55471801757812
112855,0.0887603759765625,0.354095458984375,0.11871337890625,0.761513352394104,-0.770564615726471,0.0804279968142509,57.577392578125,98.2128448486328,-35.09977722167969
112856,-0.1694793701171875,0.4034576416015625,0.169525146484375,0.5523800849914551,-0.8164631128311157,-0.0851276740431785,57.41842651367188,97.74305725097656,-35.84439086914062
112857,-0.1694793701171875,0.4034576416015625,0.169525146484375,0.5523800849914551,-0.8164631128311157,-0.0851276740431785,57.41842651367188,97.74305725097656,-35.84439086914062
112858,-0.2467803955078125,0.45513916015625,0.22930908203125,0.3420715928077698,-0.7767053246498108,-0.0891088396310806,57.285888671875,97.5955810546875,-36.31758117675781
112859,-0.29107666015625,0.533447265625,0.2981414794921875,0.037910096347332,-0.7328609228134155,-0.0957472994923591,57.12428283691406,97.40635681152344,-36.630126953125
112860,-0.384735107421875,0.64276123046875,0.44390869140625,-0.6769886016845703,-0.4410836696624756,-0.0566201359033584,56.88525390625,97.12800598144533,-37.06845092773438
112861,-0.384735107421875,0.64276123046875,0.44390869140625,-0.6769886016845703,-0.4410836696624756,-0.0566201359033584,56.88525390625,97.12800598144533,-37.06845092773438
112862,-0.4332427978515625,0.6445770263671875,0.4369354248046875,-0.9966970682144164,-0.3946277499198914,-0.0566989667713642,56.76564025878906,97.16668701171876,-37.09770202636719
112863,-0.4822540283203125,0.60894775390625,0.376983642578125,-1.182452797889709,-0.5002524256706238,-0.0843108892440795,56.78724670410156,97.34085083007812,-37.00852966308594
112864,-0.4764862060546875,0.4993133544921875,0.3115997314453125,-1.087393403053284,-0.8882883191108704,-0.0906348302960395,56.71159362792969,97.76210021972656,-36.22853088378906
112865,-0.4764862060546875,0.4993133544921875,0.3115997314453125,-1.087393403053284,-0.8882883191108704,-0.0906348302960395,56.71159362792969,97.76210021972656,-36.22853088378906
112866,-0.3435821533203125,0.504669189453125,0.3013153076171875,-1.022832274436951,-0.8742846250534058,-0.0907032713294029,56.56332397460938,97.94937133789062,-35.82562255859375
112867,-0.2139892578125,0.467620849609375,0.27142333984375,-1.066826343536377,-0.740526556968689,-0.1575813740491867,56.4088134765625,98.13499450683594,-35.45126342773438
112868,-0.127197265625,0.3048248291015625,0.2135009765625,-1.117857098579407,-0.2785735726356506,-0.2526200115680695,56.04176330566406,98.46412658691406,-34.30802917480469
112869,-0.127197265625,0.3048248291015625,0.2135009765625,-1.117857098579407,-0.2785735726356506,-0.2526200115680695,56.04176330566406,98.46412658691406,-34.30802917480469
112870,-0.085174560546875,0.240509033203125,0.127593994140625,-1.067073822021484,-0.2001906186342239,-0.2882349789142609,55.82894897460938,98.7252197265625,-33.96827697753906
112871,-0.02490234375,0.159271240234375,0.0343170166015625,-1.023108243942261,-0.3145177364349365,-0.2835371792316437,55.61625671386719,99.08836364746094,-32.723876953125
112872,0.0621337890625,0.049652099609375,-0.01806640625,-1.05664587020874,-0.7397542595863342,-0.1574431508779526,55.17286682128906,99.59056091308594,-31.91307067871094
112873,0.0621337890625,0.049652099609375,-0.01806640625,-1.05664587020874,-0.7397542595863342,-0.1574431508779526,55.17286682128906,99.59056091308594,-31.91307067871094
112874,0.1059722900390625,0.00201416015625,-0.0259552001953125,-1.134304761886597,-0.9335852265357972,-0.0313917435705661,55.01498413085938,99.7965850830078,-31.39166259765625
112875,0.1528472900390625,-0.043731689453125,-0.0588226318359375,-1.198133826255798,-1.131638169288635,0.1361980587244034,54.82350158691406,99.84812927246094,-30.7640380859375
112876,0.190460205078125,-0.0767822265625,-0.124053955078125,-1.194684982299805,-1.378295063972473,0.3255109786987305,54.67938232421875,99.89739990234376,-30.10246276855469
112877,0.212921142578125,-0.0927276611328125,-0.18133544921875,-1.107534170150757,-1.578903198242188,0.4903135299682617,54.57698059082031,99.98699951171876,-29.45576477050781
112878,0.229400634765625,-0.0944671630859375,-0.2220458984375,-0.9572468996047974,-1.669736981391907,0.63816237449646,54.45451354980469,100.2209777832031,-28.89480590820312
112879,0.27374267578125,-0.0838775634765625,-0.1985626220703125,-0.8393839001655579,-1.42218017578125,0.7755412459373474,54.39356994628906,100.4257049560547,-28.18133544921875
112880,0.32220458984375,0.037811279296875,-0.4408111572265625,-0.882422149181366,0.1173351481556892,0.7892885208129883,54.48968505859375,100.8067321777344,-27.00712585449219
112881,0.32220458984375,0.037811279296875,-0.4408111572265625,-0.882422149181366,0.1173351481556892,0.7892885208129883,54.48968505859375,100.8067321777344,-27.00712585449219
112882,0.2300872802734375,0.16912841796875,-0.3045501708984375,-0.769967257976532,-0.0190256219357252,0.6410220861434937,54.8267822265625,100.7801513671875,-26.1263427734375
112883,0.17718505859375,0.257598876953125,-0.213623046875,-0.749271035194397,-0.0973342731595039,0.3872726261615753,55.30227661132812,100.6795196533203,-25.61231994628906
112884,0.0713958740234375,0.478607177734375,-0.3057098388671875,-0.7867928743362427,-0.3442524373531342,-0.09892338514328,55.72850036621094,100.7602996826172,-24.661865234375
112885,0.0713958740234375,0.478607177734375,-0.3057098388671875,-0.7867928743362427,-0.3442524373531342,-0.09892338514328,55.72850036621094,100.7602996826172,-24.661865234375
112886,0.0105133056640625,0.632476806640625,-0.402252197265625,-0.7522316575050354,-0.4034925997257233,-0.3604758977890015,55.71022033691406,100.7895050048828,-24.50933837890625
112887,-0.04254150390625,0.8947906494140625,-0.5323333740234375,-0.620978057384491,-0.4405161440372467,-0.6616796851158142,55.46258544921875,100.9151916503906,-23.99208068847656
112888,-0.170806884765625,1.684524536132812,-0.898834228515625,0.0188115052878856,-0.5293096303939819,-1.03387188911438,54.7103271484375,101.3807678222656,-23.57762145996094
112889,-0.170806884765625,1.684524536132812,-0.898834228515625,0.0188115052878856,-0.5293096303939819,-1.03387188911438,54.7103271484375,101.3807678222656,-23.57762145996094
112890,-0.189422607421875,2.034042358398438,-0.9503631591796876,0.533638060092926,-0.5773586630821228,-1.007201671600342,53.99554443359375,101.6085968017578,-23.65823364257812
112891,-0.043487548828125,2.268722534179688,-0.6691131591796875,0.8512541651725769,-0.1366228312253952,-0.6827330589294434,53.45394897460938,101.5925445556641,-23.74691772460938
112892,0.3726959228515625,2.385086059570312,-0.05712890625,0.6858513355255127,0.5436622500419617,0.4341304004192352,52.6617431640625,101.4743957519531,-24.49969482421875
112893,0.3726959228515625,2.385086059570312,-0.05712890625,0.6858513355255127,0.5436622500419617,0.4341304004192352,52.6617431640625,101.4743957519531,-24.49969482421875
112894,0.417755126953125,2.45843505859375,0.1706695556640625,0.5675808787345886,0.7066684365272522,1.037010192871094,52.72929382324219,101.3415679931641,-24.88809204101562
112895,0.3909149169921875,2.727874755859375,0.18914794921875,0.4612946510314941,0.8321928381919861,1.602675676345825,53.07948303222656,101.1668701171875,-25.19020080566406
112896,0.32891845703125,3.1236572265625,0.063751220703125,0.338249683380127,0.580630898475647,1.964004039764404,53.68931579589844,100.9907073974609,-25.51065063476562
112897,0.2576446533203125,3.471923828125,0.0009613037109375,0.3758521974086761,0.01519067119807,1.930836200714111,54.5242919921875,100.9557037353516,-25.82608032226562
112898,0.210357666015625,3.617324829101562,0.1014404296875,0.767122745513916,-0.4983717203140259,1.572789669036865,55.47428894042969,100.6320037841797,-26.06629943847656
112899,0.0509490966796875,3.676223754882812,0.3813018798828125,1.264435291290283,-0.226377472281456,1.159868955612183,56.37040710449219,100.4595336914062,-26.26411437988281
112900,-0.3857574462890625,3.844207763671875,0.229583740234375,1.483804702758789,1.373331189155579,-0.1899020224809647,57.20780944824219,100.4581909179688,-27.39527893066406
112901,-0.54595947265625,3.43927001953125,0.05279541015625,1.205110192298889,1.374446272850037,-0.9731712341308594,57.51821899414062,100.2104339599609,-28.1441650390625
112902,-0.54595947265625,3.43927001953125,0.05279541015625,1.205110192298889,1.374446272850037,-0.9731712341308594,57.51821899414062,100.2104339599609,-28.1441650390625
112903,-0.6228790283203125,2.634033203125,0.0882720947265625,0.9167601466178894,1.180171012878418,-1.500804424285889,57.67048645019531,100.1320190429688,-28.84004211425781
112904,-0.7691802978515625,1.44317626953125,0.223388671875,0.4495498538017273,1.444776892662048,-1.680101275444031,57.22512817382812,100.33203125,-30.24891662597656
112905,-0.7691802978515625,1.44317626953125,0.223388671875,0.4495498538017273,1.444776892662048,-1.680101275444031,57.22512817382812,100.33203125,-30.24891662597656
112906,-1.104034423828125,0.9388580322265624,0.0492706298828125,0.2630580067634583,1.522202968597412,-1.006696939468384,56.96237182617188,100.3339080810547,-30.80560302734375
112907,-1.370376586914062,0.553009033203125,-0.1331024169921875,0.3475606143474579,1.045256853103638,0.3583147525787354,56.81172180175781,100.4174499511719,-31.08247375488281
112908,-0.6473236083984375,0.6546173095703125,0.2846527099609375,0.8804812431335449,-0.0769088938832283,0.8081865310668945,57.33966064453125,100.2077026367188,-31.47270202636719
112909,-0.6473236083984375,0.6546173095703125,0.2846527099609375,0.8804812431335449,-0.0769088938832283,0.8081865310668945,57.33966064453125,100.2077026367188,-31.47270202636719
112910,-0.45709228515625,0.5892333984375,0.36846923828125,0.8980461359024048,-0.0973353385925293,0.6592868566513062,57.79046630859375,99.9485321044922,-31.684326171875
112911,-0.271240234375,0.5203399658203125,0.2247314453125,0.8035308122634888,0.0279583968222141,0.4765854477882385,58.14544677734375,99.67034912109376,-31.93705749511719
112912,-0.0003814697265625,0.4549102783203125,-0.1010894775390625,0.6876777410507202,-0.3737924993038177,0.2290563583374023,58.59620666503906,99.18594360351562,-32.59111022949219
