time_idx,accelerometerAccelerationX(G),accelerometerAccelerationY(G),accelerometerAccelerationZ(G),gyroRotationX(rad/s),gyroRotationY(rad/s),gyroRotationZ(rad/s),magnetometerX(µT),magnetometerY(µT),magnetometerZ(µT)
306646,-0.24981689453125,1.001129150390625,0.1669464111328125,-0.2271292954683304,-0.1866622865200043,-0.4185173511505127,62.6895751953125,97.1331024169922,-34.51065063476562
306647,-0.285369873046875,0.952667236328125,0.16912841796875,-0.267674595117569,-0.1618112623691559,-0.4500622451305389,62.56663513183594,97.30361938476562,-34.3948974609375
306648,-0.3180084228515625,0.9011688232421876,0.151458740234375,-0.2861177623271942,-0.1524555832147598,-0.4647210836410522,62.34620666503906,97.44085693359376,-34.39044189453125
306649,-0.3180084228515625,0.9011688232421876,0.151458740234375,-0.2861177623271942,-0.1524555832147598,-0.4647210836410522,62.34620666503906,97.44085693359376,-34.39044189453125
306650,-0.377197265625,0.8506622314453125,0.111053466796875,-0.2989574074745178,-0.1253185123205185,-0.4761276543140411,62.07850646972656,97.46192932128906,-34.21640014648438
306651,-0.3960723876953125,0.8563079833984375,0.0865631103515625,-0.3193542957305908,-0.0206200573593378,-0.4763346016407013,61.80288696289062,97.7903289794922,-33.99786376953125
306652,-0.410491943359375,0.8793487548828125,0.0522613525390625,-0.3349153995513916,0.1040920466184616,-0.4814683496952057,61.66355895996094,97.87606811523438,-33.89828491210938
306653,-0.408782958984375,0.905517578125,0.0363616943359375,-0.347396582365036,0.1877861469984055,-0.4713203907012939,61.30064392089844,97.87847900390624,-33.77766418457031
306654,-0.4051361083984375,0.9449462890625,0.03948974609375,-0.3652797043323517,0.2531632781028748,-0.4638659358024597,61.23393249511719,98.02894592285156,-33.609375
306655,-0.3903350830078125,0.992095947265625,0.0293121337890625,-0.4181373417377472,0.2690730094909668,-0.436982661485672,61.05021667480469,98.3061065673828,-33.37948608398438
306656,-0.3616180419921875,1.024765014648438,0.0062255859375,-0.4950869679450989,0.2377609014511108,-0.3972996771335602,60.87828063964844,98.52752685546876,-33.12446594238281
306657,-0.3616180419921875,1.024765014648438,0.0062255859375,-0.4950869679450989,0.2377609014511108,-0.3972996771335602,60.87828063964844,98.52752685546876,-33.12446594238281
306658,-0.283966064453125,1.095947265625,-0.1029205322265625,-0.6263219714164734,0.1312253922224045,-0.2570067644119263,60.365966796875,98.9389190673828,-32.65538024902344
306659,-0.2247314453125,1.081863403320312,-0.1381988525390625,-0.630098819732666,0.0430127158761024,-0.1921209692955017,60.14689636230469,99.09562683105467,-32.34410095214844
306660,-0.1576995849609375,1.047592163085938,-0.123992919921875,-0.6231186985969543,-0.0192946027964353,-0.136677160859108,60.00837707519531,99.26271057128906,-31.99102783203125
306661,-0.1576995849609375,1.047592163085938,-0.123992919921875,-0.6231186985969543,-0.0192946027964353,-0.136677160859108,60.00837707519531,99.26271057128906,-31.99102783203125
306662,-0.0930938720703125,1.0477294921875,-0.144378662109375,-0.6111541986465454,0.0518789105117321,-0.1078628152608871,59.73577880859375,99.4710693359375,-31.46298217773438
306663,-0.0855255126953125,1.07147216796875,-0.2163543701171875,-0.6205111742019653,0.0515582673251628,-0.107174925506115,59.69380187988281,99.55851745605467,-31.05458068847656
306664,-0.0776214599609375,1.095840454101562,-0.2576141357421875,-0.6133403778076172,0.0082510057836771,-0.0978868827223777,59.63328552246094,99.7901611328125,-30.73486328125
306665,-0.0776214599609375,1.095840454101562,-0.2576141357421875,-0.6133403778076172,0.0082510057836771,-0.0978868827223777,59.63328552246094,99.7901611328125,-30.73486328125
306666,-0.0815277099609375,1.122406005859375,-0.26544189453125,-0.4855144917964935,-0.0883303955197334,-0.0363324396312236,59.41427612304688,99.86692810058594,-29.96647644042969
306667,-0.0815277099609375,1.122406005859375,-0.26544189453125,-0.4855144917964935,-0.0883303955197334,-0.0363324396312236,59.41427612304688,99.86692810058594,-29.96647644042969
306668,-0.033966064453125,1.038604736328125,-0.2991485595703125,-0.161615788936615,-0.1661205291748047,0.1117957755923271,59.30636596679688,100.0567626953125,-29.25205993652344
306669,0.04412841796875,0.96490478515625,-0.341094970703125,0.051094077527523,-0.1822670102119446,0.2048655301332474,59.22047424316406,100.0482330322266,-29.18194580078125
306670,0.1444091796875,0.9029388427734376,-0.395294189453125,0.2790095210075378,-0.1531128585338593,0.3041225969791412,59.19563293457031,99.90155029296876,-29.00779724121094
306671,0.2169952392578125,0.8900299072265625,-0.45623779296875,0.4879840612411499,-0.1304802447557449,0.3882089853286743,59.237060546875,99.70472717285156,-29.05049133300781
306672,0.2628021240234375,0.903839111328125,-0.4937591552734375,0.626502513885498,-0.1200598254799843,0.4468587338924408,59.414306640625,99.67539978027344,-29.22929382324219
306673,0.2748565673828125,0.944061279296875,-0.5064849853515625,0.6637886166572571,-0.1178765669465065,0.4482227861881256,59.50550842285156,99.47500610351562,-29.36944580078125
306674,0.2731170654296875,0.990020751953125,-0.49432373046875,0.6295191049575806,-0.1182587295770645,0.4090602099895477,59.76255798339844,99.2589111328125,-29.59999084472656
306675,0.2650146484375,1.050125122070312,-0.4692840576171875,0.5785030126571655,-0.1230255216360092,0.3676789402961731,59.89237976074219,99.16464233398438,-29.888671875
306676,0.2436065673828125,1.09991455078125,-0.4426116943359375,0.5555393695831299,-0.1099326238036156,0.3435277938842773,60.10881042480469,98.9441375732422,-30.37933349609375
306677,0.226776123046875,1.150009155273438,-0.4215087890625,0.556037962436676,-0.1143092662096024,0.3281989097595215,60.26727294921875,98.80111694335938,-30.78837585449219
306678,0.221282958984375,1.216094970703125,-0.40032958984375,0.5557631254196167,-0.1252316832542419,0.304437130689621,60.35659790039062,98.70480346679688,-30.95370483398438
306679,0.2191925048828125,1.287734985351562,-0.37078857421875,0.5687702298164368,-0.1252284944057465,0.2872922420501709,60.50933837890625,98.6439971923828,-31.15452575683594
306680,0.2041778564453125,1.36090087890625,-0.302093505859375,0.570168137550354,-0.1162813380360603,0.2703944742679596,60.63133239746094,98.57235717773438,-31.46194458007812
306681,0.2041778564453125,1.36090087890625,-0.302093505859375,0.570168137550354,-0.1162813380360603,0.2703944742679596,60.63133239746094,98.57235717773438,-31.46194458007812
306682,0.117156982421875,1.480194091796875,-0.165313720703125,0.4850729405879974,-0.2548253536224365,0.1787780076265335,60.90644836425781,98.38381958007812,-32.03781127929688
306683,0.117156982421875,1.480194091796875,-0.165313720703125,0.4850729405879974,-0.2548253536224365,0.1787780076265335,60.90644836425781,98.38381958007812,-32.03781127929688
306684,0.0129241943359375,1.464614868164062,0.0702056884765625,0.3336791694164276,-0.462988942861557,0.0544424690306186,61.16015625,98.09303283691406,-32.66326904296875
306685,-0.0543975830078125,1.396453857421875,0.1647186279296875,0.4182100296020508,-0.3946674168109894,0.0283035431057214,61.21038818359375,98.11770629882812,-33.07402038574219
306686,-0.135528564453125,1.304397583007812,0.1631927490234375,0.594081699848175,-0.3741272687911987,0.0008980178972706,61.28419494628906,98.08201599121094,-33.23123168945312
306687,-0.2100372314453125,1.193267822265625,0.124542236328125,0.8084339499473572,-0.4529480338096619,-0.0251799207180738,61.23175048828125,98.03009033203124,-33.43331909179688
306688,-0.2545928955078125,1.077835083007812,0.0839996337890625,0.9271382689476012,-0.7918901443481445,-0.1304964870214462,61.27128601074219,98.01409912109376,-33.75909423828125
306689,-0.2545928955078125,1.077835083007812,0.0839996337890625,0.9271382689476012,-0.7918901443481445,-0.1304964870214462,61.27128601074219,98.01409912109376,-33.75909423828125
306690,-0.2836151123046875,0.8552093505859375,0.000457763671875,0.8560065627098083,-1.018652200698853,-0.1640302091836929,61.30410766601562,97.59317016601562,-34.60983276367188
306691,-0.2816314697265625,0.7703857421875,-0.0532684326171875,0.7725198864936829,-1.280139684677124,-0.163951650261879,61.28659057617188,97.39389038085938,-35.13385009765625
306692,-0.2479705810546875,0.737518310546875,-0.06884765625,0.7125324606895447,-1.476757168769836,-0.1653218418359756,61.03839111328125,97.27218627929688,-35.55426025390625
306693,-0.2479705810546875,0.737518310546875,-0.06884765625,0.7125324606895447,-1.476757168769836,-0.1653218418359756,61.03839111328125,97.27218627929688,-35.55426025390625
306694,-0.1591033935546875,0.7743988037109375,-0.0678558349609375,0.7322646379470825,-1.374741554260254,-0.1837059110403061,60.55230712890625,96.8682098388672,-36.69488525390625
306695,-0.1420745849609375,0.8029022216796875,-0.059326171875,0.7882924675941467,-1.145636439323425,-0.1879456639289856,60.190185546875,96.67738342285156,-37.03813171386719
306696,-0.1386260986328125,0.8194427490234375,-0.0569000244140625,0.8415383696556091,-0.8603597283363342,-0.1524183005094528,59.93215942382812,96.5266571044922,-37.55667114257812
306697,-0.1386260986328125,0.8194427490234375,-0.0569000244140625,0.8415383696556091,-0.8603597283363342,-0.1524183005094528,59.93215942382812,96.5266571044922,-37.55667114257812
306698,-0.1727142333984375,0.823333740234375,-0.0116424560546875,0.7477714419364929,-0.5941826701164246,-0.0086454199627041,59.39894104003906,96.16043090820312,-38.41065979003906
306699,-0.16943359375,0.77117919921875,0.06939697265625,0.574885368347168,-0.4788765609264374,0.0443035475909709,59.27447509765625,95.876708984375,-38.88444519042969
306700,-0.151275634765625,0.6788787841796875,0.10784912109375,0.37642902135849,-0.328272670507431,0.0840714648365974,59.1973876953125,95.69895935058594,-39.38427734375
306701,-0.151275634765625,0.6788787841796875,0.10784912109375,0.37642902135849,-0.328272670507431,0.0840714648365974,59.1973876953125,95.69895935058594,-39.38427734375
306702,-0.1126708984375,0.483245849609375,0.1390533447265625,-0.0300244782119989,-0.1900317221879959,0.1648153215646744,59.00326538085938,95.34820556640624,-39.92167663574219
306703,-0.09112548828125,0.420684814453125,0.153350830078125,-0.2307469248771667,-0.1833594441413879,0.2121327668428421,59.12861633300781,95.31478881835938,-40.07989501953125
306704,-0.0576324462890625,0.38616943359375,0.1557159423828125,-0.397684782743454,-0.219255656003952,0.2544056475162506,59.08769226074219,95.259765625,-40.02070617675781
306705,-0.0576324462890625,0.38616943359375,0.1557159423828125,-0.397684782743454,-0.219255656003952,0.2544056475162506,59.08769226074219,95.259765625,-40.02070617675781
306706,0.0225677490234375,0.6149749755859375,0.157135009765625,-0.5479264855384827,-0.3809601366519928,0.2906355559825897,59.21504211425781,95.28369140625,-39.67007446289062
306707,0.0224609375,0.8553619384765625,0.151458740234375,-0.5645893216133118,-0.4939740300178528,0.3083546459674835,59.24116516113281,95.452880859375,-39.50091552734375
306708,0.0151519775390625,1.0274658203125,0.1358795166015625,-0.5894067883491516,-0.5624492168426514,0.288779616355896,59.21528625488281,95.6875,-39.33929443359375
306709,0.0151519775390625,1.0274658203125,0.1358795166015625,-0.5894067883491516,-0.5624492168426514,0.288779616355896,59.21528625488281,95.6875,-39.33929443359375
306710,-0.0422821044921875,1.298858642578125,0.1596221923828125,-0.760329008102417,-0.4113087058067322,0.1526079177856445,59.00660705566406,95.94102478027344,-38.87208557128906
306711,-0.0422821044921875,1.298858642578125,0.1596221923828125,-0.760329008102417,-0.4113087058067322,0.1526079177856445,59.00660705566406,95.94102478027344,-38.87208557128906
306712,-0.08056640625,1.41558837890625,0.1543426513671875,-0.82554692029953,-0.3682973384857178,0.0564962998032569,59.04052734375,96.11553955078124,-38.6448974609375
306713,-0.1284637451171875,1.517959594726562,0.253326416015625,-0.7787855267524719,-0.2825906872749329,-0.1456916928291321,58.87165832519531,96.5369873046875,-38.0181884765625
306714,-0.1576080322265625,1.500564575195312,0.2380828857421875,-0.7080668807029724,-0.1612994074821472,-0.2129556834697723,58.77299499511719,96.57887268066406,-37.73699951171875
306715,-0.1925811767578125,1.427825927734375,0.176788330078125,-0.6036946773529053,-0.0781097188591957,-0.2390293627977371,58.57733154296875,96.69847106933594,-37.28961181640625
306716,-0.225677490234375,1.32208251953125,0.1276092529296875,-0.4895622432231903,0.0085277082398533,-0.2337493747472763,58.39938354492188,96.95207214355467,-36.94073486328125
306717,-0.225677490234375,1.32208251953125,0.1276092529296875,-0.4895622432231903,0.0085277082398533,-0.2337493747472763,58.39938354492188,96.95207214355467,-36.94073486328125
306718,-0.237762451171875,1.142807006835938,0.040802001953125,-0.3508850634098053,0.2099108844995499,-0.1659575402736664,58.34968566894531,97.260009765625,-36.34135437011719
306719,-0.2312164306640625,1.094406127929688,-0.012939453125,-0.2943536043167114,0.3168975114822388,-0.1255203783512115,58.21601867675781,97.34088134765624,-35.96553039550781
306720,-0.2152252197265625,1.064437866210938,-0.0796661376953125,-0.2249068766832352,0.3680398166179657,-0.0967089682817459,58.2681884765625,97.41128540039062,-35.87631225585938
306721,-0.2152252197265625,1.064437866210938,-0.0796661376953125,-0.2249068766832352,0.3680398166179657,-0.0967089682817459,58.2681884765625,97.41128540039062,-35.87631225585938
306722,-0.148223876953125,0.99566650390625,-0.200042724609375,-0.1256575286388397,0.4317373037338257,-0.095744103193283,58.26698303222656,97.63783264160156,-35.53485107421875
306723,-0.102264404296875,0.938629150390625,-0.24737548828125,-0.1209623739123344,0.4560940265655518,-0.1261097341775894,58.29916381835938,97.68505859375,-35.39129638671875
306724,-0.0533599853515625,0.88238525390625,-0.291229248046875,-0.1426666080951691,0.4832681119441986,-0.1570093184709549,58.2581787109375,97.7404327392578,-35.2330322265625
306725,-0.0533599853515625,0.88238525390625,-0.291229248046875,-0.1426666080951691,0.4832681119441986,-0.1570093184709549,58.2581787109375,97.7404327392578,-35.2330322265625
306726,0.040496826171875,0.8212127685546875,-0.341400146484375,-0.2217148095369339,0.3956373333930969,-0.2109870761632919,58.28422546386719,97.8906707763672,-35.17916870117188
306727,0.071746826171875,0.8162994384765625,-0.35638427734375,-0.1993368119001389,0.3425213992595673,-0.1892050802707672,58.34539794921875,97.84754943847656,-34.93168640136719
306728,0.0944976806640625,0.8264923095703125,-0.3958892822265625,-0.1993368119001389,0.3425213992595673,-0.1892050802707672,58.28240966796875,97.86009216308594,-34.73016357421875
306729,0.1166229248046875,0.83660888671875,-0.4460296630859375,-0.1340462118387222,0.3123866617679596,-0.1242689564824104,58.21202087402344,97.8897705078125,-34.42362976074219
306730,0.1235504150390625,0.8838043212890625,-0.4993896484375,-0.010645986534655,0.3288575112819672,-0.0407780557870864,58.17379760742188,97.95204162597656,-34.26470947265625
306731,0.120697021484375,0.9496917724609376,-0.5506439208984375,0.1395328640937805,0.3779044151306152,0.0392693765461444,58.13951110839844,98.0994110107422,-34.33795166015625
306732,0.10748291015625,1.027175903320312,-0.572967529296875,0.2758299708366394,0.449236661195755,0.105929359793663,58.19413757324219,98.10919189453124,-34.55369567871094
306733,0.086090087890625,1.093643188476562,-0.564483642578125,0.3775179982185364,0.5218442678451538,0.1667961776256561,58.32598876953125,97.99298095703124,-34.55792236328125
306734,0.051788330078125,1.149200439453125,-0.52490234375,0.4571252167224884,0.5867633819580078,0.1984571665525436,58.47064208984375,97.91990661621094,-34.44792175292969
306735,0.01654052734375,1.188644409179688,-0.4734649658203125,0.5142660140991211,0.6184765696525574,0.2043243795633316,58.59234619140625,97.63487243652344,-34.51605224609375
306736,-0.0070343017578125,1.2115478515625,-0.4457550048828125,0.5616665482521057,0.6252284646034241,0.2017168700695038,58.71104431152344,97.5752410888672,-34.79100036621094
306737,-0.0070343017578125,1.2115478515625,-0.4457550048828125,0.5616665482521057,0.6252284646034241,0.2017168700695038,58.71104431152344,97.5752410888672,-34.79100036621094
306738,-0.0657958984375,1.19189453125,-0.397491455078125,0.6036241054534912,0.5920079350471497,0.1759404093027115,59.08309936523438,97.49253845214844,-35.09274291992188
306739,-0.0833892822265625,1.140350341796875,-0.3367767333984375,0.4997826516628265,0.5341755151748657,0.1187644675374031,59.22482299804688,97.50457763671876,-35.32078552246094
306740,-0.0820159912109375,1.053878784179688,-0.3048553466796875,0.3493148386478424,0.4528769254684448,0.0455752089619636,59.37147521972656,97.42178344726562,-35.65437316894531
306741,-0.0836029052734375,0.9643096923828124,-0.2776336669921875,0.2353352904319763,0.3431293964385986,-0.0042490735650062,59.49205017089844,97.34054565429688,-35.75987243652344
306742,-0.0902252197265625,0.8795166015625,-0.232330322265625,0.2074607759714127,0.290164977312088,-0.0331936404109001,59.4752197265625,97.37063598632812,-35.76115417480469
306743,-0.08984375,0.82666015625,-0.1707305908203125,0.2619125843048096,0.2575878500938416,-0.0356882214546203,59.60601806640625,97.49639892578124,-36.03076171875
306744,-0.0761871337890625,0.80810546875,-0.065948486328125,0.296811431646347,0.2432134449481964,-0.0520091392099857,59.63050842285156,97.37513732910156,-36.24348449707031
306745,-0.0761871337890625,0.80810546875,-0.065948486328125,0.296811431646347,0.2432134449481964,-0.0520091392099857,59.63050842285156,97.37513732910156,-36.24348449707031
306746,-0.133148193359375,0.84515380859375,0.0615997314453125,0.0941568613052368,0.0872299745678901,-0.0014588796766474,59.73371887207031,97.15277099609376,-36.29429626464844
306747,-0.133148193359375,0.84515380859375,0.0615997314453125,0.0941568613052368,0.0872299745678901,-0.0014588796766474,59.73371887207031,97.15277099609376,-36.29429626464844
306748,-0.125732421875,0.8713226318359375,0.1045989990234375,-0.081529214978218,-0.0562270544469356,0.0568212047219276,59.81048583984375,97.19338989257812,-36.60009765625
306749,-0.0912322998046875,0.9366912841796876,0.143768310546875,-0.2440808415412903,-0.2335544377565384,0.2020870596170425,59.90959167480469,97.0527801513672,-36.71504211425781
306750,-0.066131591796875,0.9483184814453124,0.123992919921875,-0.1535986065864563,-0.3465488851070404,0.2552120685577393,59.99858093261719,97.08152770996094,-36.53660583496094
306751,-0.02935791015625,0.9183807373046876,0.097900390625,0.0034607779234647,-0.4618121087551117,0.2997851073741913,60.07431030273438,97.030517578125,-36.66213989257812
306752,0.0066986083984375,0.87567138671875,0.074066162109375,0.1558026522397995,-0.5519470572471619,0.3046110272407532,60.22834777832031,96.92173767089844,-36.6435546875
306753,0.0066986083984375,0.87567138671875,0.074066162109375,0.1558026522397995,-0.5519470572471619,0.3046110272407532,60.22834777832031,96.92173767089844,-36.6435546875
306754,0.082977294921875,0.7828521728515625,0.012542724609375,0.2731130123138428,-0.6124324798583984,0.29868283867836,60.35089111328125,96.81788635253906,-36.63821411132812
306755,0.119293212890625,0.7783203125,-0.0086669921875,0.241208627820015,-0.5855430960655212,0.3058091998100281,60.28335571289062,96.73516845703124,-36.78703308105469
306756,0.11065673828125,0.8822021484375,-0.0083770751953125,0.1773675978183746,-0.45428866147995,0.2460374683141708,60.24600219726562,96.57861328125,-36.78526306152344
306757,0.0345306396484375,1.011245727539062,-0.025360107421875,0.0894443914294242,-0.3119224607944489,0.1395602971315384,60.23207092285156,96.6202392578125,-37.01072692871094
306758,-0.075927734375,1.088973999023438,-0.023834228515625,0.0171158704906702,-0.3260590732097626,0.0390810891985893,60.29830932617188,96.57821655273438,-37.08811950683594
306759,-0.1376495361328125,1.123794555664062,0.025604248046875,-0.0239689815789461,-0.3963284492492676,-0.0465667024254798,60.24462890625,96.5857391357422,-37.27804565429688
306760,-0.1841278076171875,1.118484497070312,0.0445404052734375,-0.0397189185023307,-0.44960817694664,-0.1392292678356171,60.20889282226562,96.62434387207033,-37.33894348144531
306761,-0.250518798828125,1.069503784179688,0.0381317138671875,-0.035777173936367,-0.4992992877960205,-0.1935670673847198,60.14804077148438,96.59707641601562,-37.46202087402344
306762,-0.3171234130859375,1.010604858398438,0.038604736328125,-0.0256089568138122,-0.4945239722728729,-0.2198218405246735,59.99874877929688,96.5242156982422,-37.25251770019531
306763,-0.3749237060546875,0.9644622802734376,0.0374755859375,-0.0449333861470222,-0.4231398105621338,-0.2240139245986938,59.85563659667969,96.6174774169922,-37.3399658203125
306764,-0.4167633056640625,0.923431396484375,0.041107177734375,-0.0906936824321746,-0.3055652379989624,-0.2056152075529099,59.76577758789062,96.65852355957033,-37.3763427734375
306765,-0.4167633056640625,0.923431396484375,0.041107177734375,-0.0906936824321746,-0.3055652379989624,-0.2056152075529099,59.76577758789062,96.65852355957033,-37.3763427734375
306766,-0.4430694580078125,0.8643035888671875,0.02685546875,-0.196951687335968,-0.0988890305161476,-0.1798035800457001,59.42147827148438,96.87062072753906,-37.29830932617188
306767,-0.45025634765625,0.8594818115234375,0.0254058837890625,-0.247202068567276,-0.0099178785458207,-0.1976166665554047,59.28582763671875,96.88771057128906,-37.26651000976562
306768,-0.46063232421875,0.8674468994140625,0.015106201171875,-0.3718246817588806,0.1924173831939697,-0.2569761276245117,59.16169738769531,96.995849609375,-37.20904541015625
306769,-0.46063232421875,0.8674468994140625,0.015106201171875,-0.3718246817588806,0.1924173831939697,-0.2569761276245117,59.16169738769531,96.995849609375,-37.20904541015625
306770,-0.4501800537109375,0.909881591796875,-0.013519287109375,-0.4404013454914093,0.276235044002533,-0.272266685962677,59.13034057617188,97.1864013671875,-37.06130981445312
306771,-0.412384033203125,0.933563232421875,-0.015380859375,-0.5107961297035217,0.3269943594932556,-0.262637734413147,59.10908508300781,97.3312530517578,-36.84095764160156
306772,-0.3707122802734375,0.966461181640625,-0.01177978515625,-0.6147172451019287,0.3841327428817749,-0.2037371546030045,59.06272888183594,97.43049621582033,-36.63079833984375
306773,-0.3707122802734375,0.966461181640625,-0.01177978515625,-0.6147172451019287,0.3841327428817749,-0.2037371546030045,59.06272888183594,97.43049621582033,-36.63079833984375
306774,-0.2860565185546875,1.033645629882812,-0.0181427001953125,-0.6407509446144104,0.4441848993301392,-0.0947392955422401,58.92594909667969,97.65870666503906,-36.31266784667969
306775,-0.2296295166015625,1.071456909179688,-0.0301971435546875,-0.6407509446144104,0.4441848993301392,-0.0947392955422401,58.88604736328125,97.80682373046876,-35.95230102539062
306776,-0.1804046630859375,1.111068725585938,-0.0435333251953125,-0.5851218104362488,0.5381321907043457,-0.0084552699699997,58.84820556640625,98.05973815917967,-35.665771484375
306777,-0.1804046630859375,1.111068725585938,-0.0435333251953125,-0.5851218104362488,0.5381321907043457,-0.0084552699699997,58.84820556640625,98.05973815917967,-35.665771484375
306778,-0.1173858642578125,1.144607543945312,-0.089569091796875,-0.5388797521591187,0.5486636161804199,0.0040778322145342,58.81480407714844,98.3352508544922,-34.86982727050781
306779,-0.0926361083984375,1.137619018554688,-0.1243743896484375,-0.4848505854606628,0.5099825859069824,0.0269554518163204,58.87974548339844,98.46678161621094,-34.55549621582031
306780,-0.058563232421875,1.119659423828125,-0.1690673828125,-0.4248295724391937,0.441655695438385,0.0639800503849983,58.80062866210938,98.522705078125,-34.24516296386719
306781,-0.058563232421875,1.119659423828125,-0.1690673828125,-0.4248295724391937,0.441655695438385,0.0639800503849983,58.80062866210938,98.522705078125,-34.24516296386719
306782,0.01092529296875,1.069549560546875,-0.2363433837890625,-0.3190237879753113,0.2447500973939896,0.1441262811422348,58.92143249511719,98.69293212890624,-33.68243408203125
306783,0.01092529296875,1.069549560546875,-0.2363433837890625,-0.3190237879753113,0.2447500973939896,0.1441262811422348,58.92143249511719,98.69293212890624,-33.68243408203125
306784,0.0786895751953125,0.9972686767578124,-0.26336669921875,-0.2467317581176758,0.0667657107114791,0.2232874184846878,59.00373840332031,98.75360107421876,-33.2120361328125
306785,0.1108856201171875,0.9654541015625,-0.2723541259765625,-0.2283548712730408,-0.0619613714516162,0.2230631709098816,59.18536376953125,98.73828125,-33.03764343261719
306786,0.1329803466796875,0.9275054931640624,-0.2704315185546875,-0.2035134434700012,-0.1913414597511292,0.209137499332428,59.29252624511719,98.74237060546876,-32.80351257324219
306787,0.1569671630859375,0.884857177734375,-0.270843505859375,-0.1667080223560333,-0.3017753064632416,0.1718292832374573,59.34295654296875,98.80496215820312,-32.72917175292969
306788,0.18212890625,0.849609375,-0.269683837890625,-0.1029860377311707,-0.3699857890605927,0.1504052132368088,59.36244201660156,98.787109375,-32.64505004882812
306789,0.18212890625,0.849609375,-0.269683837890625,-0.1029860377311707,-0.3699857890605927,0.1504052132368088,59.36244201660156,98.787109375,-32.64505004882812
306790,0.2305145263671875,0.83648681640625,-0.30316162109375,0.1550612151622772,-0.4044148623943329,0.1581068187952042,59.46675109863281,98.5963897705078,-32.49497985839844
306791,0.2305145263671875,0.83648681640625,-0.30316162109375,0.1550612151622772,-0.4044148623943329,0.1581068187952042,59.46675109863281,98.5963897705078,-32.49497985839844
306792,0.253204345703125,0.9128875732421876,-0.3883056640625,0.4312014579772949,-0.3633451759815216,0.2049499452114105,59.40786743164062,98.53753662109376,-32.82138061523438
306793,0.253204345703125,0.9128875732421876,-0.3883056640625,0.4312014579772949,-0.3633451759815216,0.2049499452114105,59.40786743164062,98.53753662109376,-32.82138061523438
306794,0.2397003173828125,1.033798217773438,-0.45562744140625,0.4911553561687469,-0.421553373336792,0.2315120548009872,59.49539184570312,98.33010864257812,-33.04829406738281
306795,0.2339019775390625,1.07281494140625,-0.477081298828125,0.4696646928787231,-0.4684510827064514,0.2533403933048248,59.49540710449219,98.32600402832033,-33.29327392578125
306796,0.2359161376953125,1.10833740234375,-0.483795166015625,0.4851946532726288,-0.4696564376354218,0.2818194329738617,59.4293212890625,98.23899841308594,-33.55999755859375
306797,0.2516632080078125,1.1458740234375,-0.477630615234375,0.5313072800636292,-0.4471183717250824,0.3011233508586884,59.531005859375,98.16043090820312,-33.79524230957031
306798,0.2635498046875,1.178482055664062,-0.4451904296875,0.5585980415344238,-0.4369474947452545,0.2953488230705261,59.62309265136719,98.0205535888672,-34.10960388183594
306799,0.268829345703125,1.193008422851562,-0.394287109375,0.5471959710121155,-0.4440892934799194,0.2684338390827179,59.63638305664062,97.87893676757812,-34.22950744628906
306800,0.2641754150390625,1.191802978515625,-0.3272857666015625,0.5307379364967346,-0.4713936150074005,0.2289754003286362,59.74490356445312,97.6982879638672,-34.7115478515625
306801,0.2641754150390625,1.191802978515625,-0.3272857666015625,0.5307379364967346,-0.4713936150074005,0.2289754003286362,59.74490356445312,97.6982879638672,-34.7115478515625
306802,0.2128143310546875,1.168624877929688,-0.1436309814453125,0.4999277889728546,-0.5217830538749695,0.1279425173997879,59.8309326171875,97.33131408691406,-35.22496032714844
306803,0.1647796630859375,1.133987426757812,-0.07550048828125,0.553799569606781,-0.5503947138786316,0.0681553483009338,59.83274841308594,97.14134216308594,-35.46826171875
306804,0.112548828125,1.118255615234375,-0.013946533203125,0.6350027918815613,-0.5982104539871216,0.0300058349967002,59.85652160644531,96.98448181152344,-35.77754211425781
306805,0.112548828125,1.118255615234375,-0.013946533203125,0.6350027918815613,-0.5982104539871216,0.0300058349967002,59.85652160644531,96.98448181152344,-35.77754211425781
306806,-0.0328369140625,1.091583251953125,0.037261962890625,0.7937372922897339,-0.6910240054130554,-0.0456148907542228,59.771728515625,96.59909057617188,-36.50035095214844
306807,-0.0969085693359375,1.063796997070312,0.0163116455078125,0.8246318697929382,-0.807093620300293,-0.0858430042862892,59.75936889648438,96.55819702148438,-36.833984375
306808,-0.1521453857421875,1.031417846679688,-0.0052642822265625,0.7920339703559875,-0.9595577120780944,-0.1052158996462822,59.64767456054688,96.42025756835938,-37.26268005371094
306809,-0.1521453857421875,1.031417846679688,-0.0052642822265625,0.7920339703559875,-0.9595577120780944,-0.1052158996462822,59.64767456054688,96.42025756835938,-37.26268005371094
306810,-0.200286865234375,1.010177612304688,-0.0276947021484375,0.681272029876709,-1.29784893989563,-0.0679588094353675,59.34376525878906,96.13392639160156,-38.34951782226562
306811,-0.200286865234375,1.010177612304688,-0.0276947021484375,0.681272029876709,-1.29784893989563,-0.0679588094353675,59.34376525878906,96.13392639160156,-38.34951782226562
306812,-0.1714019775390625,0.9818878173828124,-0.043365478515625,0.7136611342430115,-1.597224950790405,-0.0817012563347816,58.78355407714844,95.90177917480467,-39.07426452636719
306813,-0.165557861328125,0.9494476318359376,-0.0377044677734375,0.7136611342430115,-1.597224950790405,-0.0817012563347816,58.49894714355469,95.8072509765625,-39.42213439941406
306814,-0.153564453125,0.9657440185546876,-0.013275146484375,0.6981977224349976,-1.488560795783997,-0.1042827293276787,58.15522766113281,95.59632873535156,-39.94857788085938
306815,-0.14776611328125,1.03460693359375,0.0269012451171875,0.646303117275238,-1.291560173034668,-0.123087577521801,57.88032531738281,95.63082885742188,-40.44290161132812
306816,-0.1818695068359375,1.099014282226562,0.101165771484375,0.5671164393424988,-1.10287070274353,-0.1056534573435783,57.54127502441406,95.4938507080078,-40.83108520507812
306817,-0.1818695068359375,1.099014282226562,0.101165771484375,0.5671164393424988,-1.10287070274353,-0.1056534573435783,57.54127502441406,95.4938507080078,-40.83108520507812
306818,-0.2417755126953125,1.032241821289062,0.2711029052734375,0.2901732325553894,-0.7028257846832275,-0.0343505181372165,56.86764526367188,95.26504516601562,-41.57125854492188
306819,-0.2540435791015625,0.921905517578125,0.260986328125,0.1262282431125641,-0.5025947093963623,0.0072616413235664,56.66593933105469,95.25210571289062,-41.69477844238281
306820,-0.2355499267578125,0.7854766845703125,0.1978759765625,0.0044967476278543,-0.4388071894645691,0.0622979961335659,56.55215454101562,95.14356994628906,-41.87017822265625
306821,-0.2355499267578125,0.7854766845703125,0.1978759765625,0.0044967476278543,-0.4388071894645691,0.0622979961335659,56.55215454101562,95.14356994628906,-41.87017822265625
306822,-0.167083740234375,0.592620849609375,0.180572509765625,-0.2714775800704956,-0.5009051561355591,0.2398032695055008,56.34468078613281,94.94871520996094,-42.05717468261719
306823,-0.120758056640625,0.5524444580078125,0.1882476806640625,-0.2714775800704956,-0.5009051561355591,0.2398032695055008,56.37844848632812,95.00241088867188,-41.95773315429688
306824,-0.0513763427734375,0.7066802978515625,0.165618896484375,-0.6481438875198364,-0.3894593417644501,0.2756355702877045,56.36050415039062,94.90811157226562,-41.925048828125
306825,-0.0513763427734375,0.7066802978515625,0.165618896484375,-0.6481438875198364,-0.3894593417644501,0.2756355702877045,56.36050415039062,94.90811157226562,-41.925048828125
306826,-0.057342529296875,0.918060302734375,0.13330078125,-0.6481438875198364,-0.3894593417644501,0.2756355702877045,56.42953491210938,95.0498504638672,-41.90934753417969
306827,-0.061370849609375,1.05328369140625,0.10333251953125,-0.6484565734863281,-0.4819391965866089,0.1966054737567902,56.38925170898438,95.04924011230467,-41.65013122558594
306828,-0.057861328125,1.1585693359375,0.0923004150390625,-0.6484565734863281,-0.4819391965866089,0.1966054737567902,56.36109924316406,95.184814453125,-41.22315979003906
306829,-0.0541839599609375,1.240097045898438,0.090362548828125,-0.655429482460022,-0.4156824350357056,0.1282301396131516,56.23614501953125,95.34776306152344,-40.97550964355469
306830,-0.047882080078125,1.290618896484375,0.058013916015625,-0.6680694222450256,-0.2885993123054504,0.0605171397328376,56.24455261230469,95.42918395996094,-40.5526123046875
306831,-0.03668212890625,1.3092041015625,0.047332763671875,-0.6669521927833557,-0.1765558570623398,-0.0133051527664065,56.19442749023438,95.5373077392578,-40.33488464355469
306832,-0.03485107421875,1.295181274414062,0.071044921875,-0.6787606477737427,-0.0103969806805253,-0.0844027623534202,56.08094787597656,95.69149780273438,-40.31622314453125
306833,-0.03485107421875,1.295181274414062,0.071044921875,-0.6787606477737427,-0.0103969806805253,-0.0844027623534202,56.08094787597656,95.69149780273438,-40.31622314453125
306834,-0.0934295654296875,1.197799682617188,0.0382080078125,-0.6456354856491089,0.2591655254364014,-0.228057935833931,56.01411437988281,96.01519775390624,-39.83427429199219
306835,-0.1165924072265625,1.14300537109375,0.0055694580078125,-0.5815272927284241,0.3099599778652191,-0.2563228607177734,56.072021484375,96.14456176757812,-39.50741577148438
306836,-0.1194610595703125,1.10498046875,-0.0238037109375,-0.4516132473945618,0.332865297794342,-0.2207408994436264,56.03404235839844,96.26617431640624,-39.13233947753906
306837,-0.11041259765625,1.084808349609375,-0.0582733154296875,-0.4516132473945618,0.332865297794342,-0.2207408994436264,55.97959899902344,96.5559539794922,-38.83860778808594
306838,-0.1051788330078125,1.077743530273438,-0.089874267578125,-0.3794708847999573,0.3791254758834839,-0.171681746840477,55.93763732910156,96.57257080078124,-38.48712158203125
306839,-0.1165771484375,1.104202270507812,-0.1289215087890625,-0.3023508191108704,0.4721052348613739,-0.1491143852472305,55.91973876953125,96.68795776367188,-38.21464538574219
306840,-0.128662109375,1.109466552734375,-0.152191162109375,-0.2003698498010635,0.6821449995040894,-0.1433078944683075,55.9420166015625,96.82525634765624,-38.04193115234375
306841,-0.1488800048828125,1.114166259765625,-0.175537109375,-0.2003698498010635,0.6821449995040894,-0.1433078944683075,55.971435546875,96.95086669921876,-37.85781860351562
306842,-0.162841796875,1.09588623046875,-0.2223663330078125,-0.1865046322345734,0.719763994216919,-0.1501114666461945,55.9801025390625,97.03065490722656,-37.66470336914062
306843,-0.1573486328125,1.056045532226562,-0.266754150390625,-0.1804478019475937,0.7336952686309814,-0.1517293453216553,56.06675720214844,97.0614776611328,-37.59040832519531
306844,-0.1318359375,1.0140380859375,-0.30120849609375,-0.1398271471261978,0.792226254940033,-0.1545331180095673,56.06375122070312,97.1400146484375,-37.40171813964844
306845,-0.0878448486328125,0.9572601318359376,-0.312652587890625,-0.1398271471261978,0.792226254940033,-0.1545331180095673,56.12898254394531,97.23992919921876,-37.17941284179688
306846,-0.0410308837890625,0.9039154052734376,-0.31402587890625,-0.1312677413225174,0.7786552906036377,-0.1428351849317551,56.10984802246094,97.27238464355467,-37.03651428222656
306847,-0.0410308837890625,0.9039154052734376,-0.31402587890625,-0.1312677413225174,0.7786552906036377,-0.1428351849317551,56.10984802246094,97.27238464355467,-37.03651428222656
306848,0.064666748046875,0.8074798583984375,-0.3365478515625,-0.131406232714653,0.5703854560852051,-0.060019128024578,56.20281982421875,97.31044006347656,-36.73661804199219
306849,0.0975494384765625,0.7732696533203125,-0.3769378662109375,-0.0986844971776008,0.4355860948562622,0.004219246096909,56.32797241210938,97.4674835205078,-36.81297302246094
306850,0.1154632568359375,0.7554168701171875,-0.417633056640625,-0.0199816972017288,0.3382387757301331,0.0864339545369148,56.40933227539062,97.60646057128906,-36.61138916015625
306851,0.1124725341796875,0.76629638671875,-0.468109130859375,0.0973981916904449,0.2854876816272736,0.1638294160366058,56.54092407226562,97.61798095703124,-36.49378967285156
306852,0.1061553955078125,0.7890777587890625,-0.50933837890625,0.3556257486343384,0.3008354604244232,0.2805810570716858,56.56607055664062,97.45936584472656,-36.38710021972656
306853,0.081634521484375,0.8489990234375,-0.525177001953125,0.3556257486343384,0.3008354604244232,0.2805810570716858,56.73777770996094,97.30618286132812,-36.40830993652344
306854,0.0551605224609375,0.918914794921875,-0.5215301513671875,0.4223533868789673,0.3244353234767914,0.290757805109024,56.90133666992188,97.3123779296875,-36.36891174316406
306855,0.0343475341796875,0.9720611572265624,-0.485687255859375,0.4467023909091949,0.3252710402011871,0.2619642317295074,57.06547546386719,97.35899353027344,-36.43824768066406
306856,0.02545166015625,1.005203247070312,-0.4525604248046875,0.4605250060558319,0.2869031429290771,0.2253692001104355,57.24984741210938,97.351806640625,-36.56967163085938
306857,0.022125244140625,1.01904296875,-0.4377288818359375,0.505396842956543,0.2379236072301865,0.1875323504209518,57.49447631835938,97.18069458007812,-36.68434143066406
306858,0.010833740234375,1.017715454101562,-0.4315338134765625,0.5636537671089172,0.1686766296625137,0.1524031162261963,57.62300109863281,97.18162536621094,-36.859619140625
306859,-0.01361083984375,0.9979400634765624,-0.4168548583984375,0.594906747341156,0.0956865772604942,0.114544153213501,57.80073547363281,97.0635986328125,-37.07888793945312
306860,-0.041412353515625,0.9625091552734376,-0.390472412109375,0.5699194073677063,-0.0091679319739341,0.0692712143063545,57.97366333007812,96.86343383789062,-37.36846923828125
306861,-0.0567626953125,0.9046630859375,-0.3407135009765625,0.492614209651947,-0.1393917202949524,0.0331350490450859,58.00334167480469,96.73236083984376,-37.69186401367188
306862,-0.0565032958984375,0.8325347900390625,-0.269775390625,0.3882582485675812,-0.2493014335632324,0.0132622756063938,57.97412109375,96.64552307128906,-37.84144592285156
306863,-0.056304931640625,0.767913818359375,-0.197052001953125,0.2620798051357269,-0.3027273714542389,-0.0029609024059027,57.97431945800781,96.55538940429688,-38.11033630371094
306864,-0.06219482421875,0.736572265625,-0.134918212890625,0.1354694068431854,-0.3231514394283295,0.0117472037672996,58.04840087890625,96.4551239013672,-38.4281005859375
306865,-0.06219482421875,0.736572265625,-0.134918212890625,0.1354694068431854,-0.3231514394283295,0.0117472037672996,58.04840087890625,96.4551239013672,-38.4281005859375
306866,-0.05963134765625,0.7655181884765625,-0.0393218994140625,-0.0149243548512458,-0.4068271517753601,0.0702480673789978,57.99993896484375,96.1967315673828,-38.75837707519531
306867,-0.0702362060546875,0.8047027587890625,-0.018524169921875,-0.0809177532792091,-0.4627055823802948,0.1191615462303162,58.01780700683594,96.21986389160156,-38.80238342285156
306868,-0.0661773681640625,0.85565185546875,0.0130767822265625,-0.1439342647790909,-0.4991964995861053,0.1583736687898636,57.80372619628906,96.0828094482422,-38.98710632324219
306869,-0.052276611328125,0.91412353515625,0.0320892333984375,-0.1667192131280899,-0.5220807790756226,0.2100360542535782,57.72880554199219,96.05191040039062,-38.98255920410156
306870,-0.039398193359375,0.9667205810546876,0.0376434326171875,-0.1385677307844162,-0.5416100025177002,0.2605322599411011,57.78108215332031,96.1332550048828,-39.01176452636719
306871,-0.039398193359375,0.9667205810546876,0.0376434326171875,-0.1385677307844162,-0.5416100025177002,0.2605322599411011,57.78108215332031,96.1332550048828,-39.01176452636719
306872,0.0005645751953125,1.024917602539062,0.0290985107421875,-0.0035728968214243,-0.4601388275623322,0.3425818383693695,57.81086730957031,96.09219360351562,-38.96058654785156
306873,0.0141754150390625,1.061325073242188,0.0127105712890625,0.0316396839916706,-0.3502011597156525,0.3662538826465607,57.83866882324219,96.05842590332033,-39.03306579589844
306874,0.0142059326171875,1.115219116210938,0.0084381103515625,0.0381356664001941,-0.2008374929428101,0.3709967136383057,57.864013671875,95.9154815673828,-39.09257507324219
306875,0.0037689208984375,1.170379638671875,0.02874755859375,0.0274199061095714,-0.064304418861866,0.3552238643169403,57.91719055175781,95.9970245361328,-39.060546875
306876,-0.0153045654296875,1.21044921875,0.0631561279296875,0.0095602152869105,0.0368411056697368,0.3026946187019348,57.97962951660156,96.0531768798828,-39.12699890136719
306877,-0.043182373046875,1.224945068359375,0.088165283203125,-0.0180290676653385,0.0814370661973953,0.2247809171676636,58.09329223632812,96.25123596191406,-39.14128112792969
306878,-0.0780181884765625,1.232025146484375,0.0985107421875,-0.0593914203345775,0.0790412873029708,0.1323023736476898,58.18051147460938,96.26101684570312,-39.06988525390625
306879,-0.107330322265625,1.2310791015625,0.11175537109375,-0.107995443046093,0.0214949063956737,0.0451485700905323,58.2269287109375,96.33154296875,-39.028076171875
306880,-0.131805419921875,1.224456787109375,0.13519287109375,-0.1533823609352112,-0.0617800094187259,-0.039808664470911,58.23765563964844,96.41998291015624,-39.00079345703125
306881,-0.1602325439453125,1.1912841796875,0.1609039306640625,-0.1963042616844177,-0.1389624178409576,-0.1029450222849846,58.28094482421875,96.41265869140624,-39.04635620117188
306882,-0.196746826171875,1.1285400390625,0.1644134521484375,-0.2202759087085724,-0.1898333132266998,-0.1438016444444656,58.25,96.42849731445312,-39.01617431640625
306883,-0.235198974609375,1.038406372070312,0.1339874267578125,-0.2065843343734741,-0.2426509857177734,-0.1741451621055603,58.23069763183594,96.38851928710938,-38.97650146484375
306884,-0.266082763671875,0.940399169921875,0.09912109375,-0.1721150428056717,-0.3031854331493378,-0.1941947788000107,58.20709228515625,96.41194152832033,-38.71231079101562
306885,-0.294830322265625,0.8651275634765625,0.07525634765625,-0.1523325443267822,-0.3253021836280823,-0.2096435129642487,58.13229370117188,96.5923309326172,-38.73577880859375
306886,-0.31689453125,0.8254241943359375,0.047027587890625,-0.1700020879507065,-0.290764182806015,-0.2379369288682938,57.98048400878906,96.66677856445312,-38.81739807128906
306887,-0.3303680419921875,0.82061767578125,0.0125579833984375,-0.2239052653312683,-0.2153325527906418,-0.267752081155777,57.85404968261719,96.7983856201172,-38.64634704589844
306888,-0.33502197265625,0.8402099609375,-0.0109710693359375,-0.3045026361942291,-0.1311260610818863,-0.2916685938835144,57.71922302246094,96.7508544921875,-38.55172729492188
306889,-0.3322906494140625,0.87396240234375,-0.0121002197265625,-0.4072892069816589,-0.0487558208405971,-0.3037811815738678,57.59825134277344,96.76893615722656,-38.51582336425781
306890,-0.3236236572265625,0.9102630615234376,-0.0054931640625,-0.5238056778907776,0.0278667844831943,-0.3012152314186096,57.49678039550781,96.9052276611328,-38.44790649414062
306891,-0.3236236572265625,0.9102630615234376,-0.0054931640625,-0.5238056778907776,0.0278667844831943,-0.3012152314186096,57.49678039550781,96.9052276611328,-38.44790649414062
306892,-0.2651519775390625,0.9644012451171876,0.0045928955078125,-0.7483437061309814,0.1193381100893021,-0.2950755953788757,57.24240112304688,97.20724487304688,-38.03228759765625
306893,-0.228668212890625,0.97808837890625,0.0119781494140625,-0.829206109046936,0.1615063399076462,-0.2761562168598175,57.10865783691406,97.4741668701172,-37.56202697753906
306894,-0.1992645263671875,0.9895172119140624,0.0184478759765625,-0.8765962719917297,0.2055771201848984,-0.2663789689540863,56.95037841796875,97.65782165527344,-37.20539855957031
306895,-0.1992645263671875,0.9895172119140624,0.0184478759765625,-0.8765962719917297,0.2055771201848984,-0.2663789689540863,56.95037841796875,97.65782165527344,-37.20539855957031
306896,-0.1432952880859375,1.013534545898438,-0.001922607421875,-0.9226087331771852,0.2653445899486542,-0.2414717376232147,56.6279296875,98.0211181640625,-36.36465454101562
306897,-0.11798095703125,1.0360107421875,-0.019287109375,-0.9226087331771852,0.2653445899486542,-0.2414717376232147,56.50250244140625,98.20941162109376,-35.96780395507812
306898,-0.086273193359375,1.071609497070312,-0.037994384765625,-0.9046928882598876,0.246512308716774,-0.2198117226362228,56.3427734375,98.49421691894533,-35.48091125488281
306899,-0.05963134765625,1.1046142578125,-0.0553741455078125,-0.8487129211425781,0.2122547328472137,-0.1778520196676254,56.26936340332031,98.80557250976562,-35.14131164550781
306900,-0.0236663818359375,1.14306640625,-0.0796966552734375,-0.7442184686660767,0.1904692798852921,-0.125565379858017,56.18254089355469,99.00889587402344,-34.65896606445312
306901,0.012054443359375,1.173202514648438,-0.118316650390625,-0.6410907506942749,0.1634027808904648,-0.064683124423027,56.05647277832031,99.16864013671876,-34.20321655273438
306902,0.04168701171875,1.1973876953125,-0.1758575439453125,-0.5295661091804504,0.1022206470370293,-0.0043649207800626,56.01828002929688,99.32481384277344,-33.78300476074219
306903,0.0837860107421875,1.2008056640625,-0.222381591796875,-0.4268157780170441,-0.0091343764215707,0.0296902507543563,55.93757629394531,99.51565551757812,-33.51962280273438
306904,0.124298095703125,1.176055908203125,-0.238861083984375,-0.3195092976093292,-0.117029681801796,0.0664655789732933,55.92695617675781,99.56275939941406,-33.29789733886719
306905,0.124298095703125,1.176055908203125,-0.238861083984375,-0.3195092976093292,-0.117029681801796,0.0664655789732933,55.92695617675781,99.56275939941406,-33.29789733886719
306906,0.1813507080078125,1.0426025390625,-0.235076904296875,-0.0870518088340759,-0.2697225511074066,0.1028608679771423,55.89949035644531,99.3743896484375,-32.84158325195312
306907,0.2211151123046875,0.9585113525390624,-0.223388671875,0.0509947389364242,-0.3276007771492004,0.1178448796272278,55.95065307617188,99.29290771484376,-32.68576049804688
306908,0.255645751953125,0.876678466796875,-0.2403106689453125,0.1991264224052429,-0.3957249522209167,0.1424072086811066,55.98118591308594,99.34214782714844,-32.75437927246094
306909,0.283843994140625,0.8093414306640625,-0.26959228515625,0.3576995432376862,-0.4570671617984772,0.1800416707992554,56.07809448242188,99.25065612792967,-32.71621704101562
306910,0.3088226318359375,0.7674560546875,-0.3073883056640625,0.5162505507469177,-0.5081678628921509,0.2213861793279648,56.18116760253906,99.182373046875,-32.78427124023438
306911,0.3088226318359375,0.7674560546875,-0.3073883056640625,0.5162505507469177,-0.5081678628921509,0.2213861793279648,56.18116760253906,99.182373046875,-32.78427124023438
306912,0.33819580078125,0.7525177001953125,-0.3602142333984375,0.84184730052948,-0.4733494520187378,0.2868133783340454,56.34144592285156,98.83766174316406,-33.1842041015625
306913,0.3321685791015625,0.77783203125,-0.3724365234375,0.84184730052948,-0.4733494520187378,0.2868133783340454,56.41947937011719,98.60443115234376,-33.47402954101562
306914,0.3109283447265625,0.803955078125,-0.3896331787109375,0.8321208953857422,-0.4473423361778259,0.2822146415710449,56.48924255371094,98.50578308105467,-33.80511474609375
306915,0.270965576171875,0.832763671875,-0.3997039794921875,0.7986699938774109,-0.4326020181179047,0.2870379090309143,56.53939819335938,98.2208251953125,-34.20829772949219
306916,0.230255126953125,0.8769378662109375,-0.3886566162109375,0.7545369267463684,-0.4107297360897064,0.3073612749576569,56.61734008789062,98.1138916015625,-34.67404174804688
306917,0.230255126953125,0.8769378662109375,-0.3886566162109375,0.7545369267463684,-0.4107297360897064,0.3073612749576569,56.61734008789062,98.1138916015625,-34.67404174804688
306918,0.170989990234375,1.007843017578125,-0.3290863037109375,0.6746026873588562,-0.3225106596946716,0.312317430973053,56.87557983398438,97.81500244140624,-35.47981262207031
306919,0.15435791015625,1.070480346679688,-0.303314208984375,0.6615071296691895,-0.2916627526283264,0.2726456522941589,56.94940185546875,97.6450653076172,-35.86404418945312
306920,0.13812255859375,1.146026611328125,-0.2877655029296875,0.6793287396430969,-0.2764587700366974,0.2312238961458206,57.01799011230469,97.49264526367188,-36.13514709472656
306921,0.1111602783203125,1.2313232421875,-0.266632080078125,0.7100573182106018,-0.2802532315254211,0.1746058911085129,57.13681030273438,97.39712524414062,-36.45236206054688
306922,0.07513427734375,1.300827026367188,-0.231109619140625,0.716607928276062,-0.3184008896350861,0.0984690487384796,57.14337158203125,97.25242614746094,-36.80596923828125
306923,0.0232391357421875,1.339218139648438,-0.1614227294921875,0.6592370271682739,-0.3881405591964722,-0.0048858351074159,57.21699523925781,97.12811279296876,-37.25071716308594
306924,-0.02728271484375,1.313308715820312,-0.059844970703125,0.534527063369751,-0.5130302906036377,-0.1806696504354477,57.25270080566406,96.95899963378906,-37.69065856933594
306925,-0.0806732177734375,1.23370361328125,0.0186767578125,0.6567328572273254,-0.5942082405090332,-0.2321754544973373,57.21615600585938,96.83029174804688,-38.01959228515625
306926,-0.1200714111328125,1.150039672851562,0.0240936279296875,0.6567328572273254,-0.5942082405090332,-0.2321754544973373,57.06668090820312,96.74880981445312,-38.27000427246094
306927,-0.1404266357421875,1.0684814453125,0.00982666015625,0.8175798058509827,-0.7130033373832703,-0.2748270332813263,56.91796875,96.55694580078124,-38.3612060546875
306928,-0.1700592041015625,1.0010986328125,-0.005279541015625,0.8756231069564819,-0.8509443998336792,-0.2631144523620605,56.75352478027344,96.46286010742188,-38.78050231933594
306929,-0.217315673828125,0.995269775390625,-0.0005950927734375,0.8315501809120178,-0.9661474227905272,-0.2417596280574799,56.63493347167969,96.18869018554688,-39.07890319824219
306930,-0.2505645751953125,0.9779815673828124,0.0118865966796875,0.756287693977356,-1.036656260490417,-0.2242930233478546,56.47477722167969,96.03411865234376,-39.49909973144531
306931,-0.2674407958984375,0.950653076171875,-0.0099029541015625,0.7061749696731567,-1.083497524261475,-0.191087394952774,56.16964721679688,95.81320190429688,-39.99986267089844
306932,-0.2696533203125,0.928802490234375,-0.0337677001953125,0.6759920120239258,-1.052783489227295,-0.1586397141218185,55.82882690429688,95.70907592773438,-40.55227661132812
306933,-0.2696533203125,0.928802490234375,-0.0337677001953125,0.6759920120239258,-1.052783489227295,-0.1586397141218185,55.82882690429688,95.70907592773438,-40.55227661132812
306934,-0.227142333984375,0.9938812255859376,-0.0260162353515625,0.6769800782203674,-0.7742264866828918,-0.1263454258441925,55.246337890625,95.3936004638672,-41.44252014160156
306935,-0.213592529296875,1.044479370117188,0.0211334228515625,0.6448599696159363,-0.6111573576927185,-0.084014743566513,55.00918579101562,95.17919921875,-41.70504760742188
306936,-0.199371337890625,1.093292236328125,0.0967864990234375,0.5655345320701599,-0.4423883259296417,-0.0108787463977932,54.770751953125,94.9741668701172,-42.093994140625
306937,-0.199371337890625,1.093292236328125,0.0967864990234375,0.5655345320701599,-0.4423883259296417,-0.0108787463977932,54.770751953125,94.9741668701172,-42.093994140625
306938,-0.1960906982421875,1.057998657226562,0.18011474609375,0.312956839799881,-0.2331376522779465,0.0676078051328659,54.45027160644531,94.85748291015624,-42.60539245605469
306939,-0.1960906982421875,1.057998657226562,0.18011474609375,0.312956839799881,-0.2331376522779465,0.0676078051328659,54.45027160644531,94.85748291015624,-42.60539245605469
306940,-0.1611785888671875,0.9624176025390624,0.2014923095703125,-0.0516634620726108,-0.2098903805017471,0.0656229555606842,54.36154174804688,94.66400146484376,-42.97135925292969
306941,-0.1342620849609375,0.9152374267578124,0.1939697265625,-0.1815737932920456,-0.2713766396045685,0.0631142556667327,54.46565246582031,94.7125244140625,-43.06314086914062
306942,-0.1245574951171875,0.9076995849609376,0.19537353515625,-0.2311674356460571,-0.2984479367733002,0.0764367207884788,54.40017700195312,94.63688659667967,-42.89994812011719
306943,-0.127044677734375,0.9486236572265624,0.17828369140625,-0.2530469000339508,-0.2984599173069,0.0826298967003822,54.36839294433594,94.62461853027344,-42.85472106933594
306944,-0.065032958984375,0.9829254150390624,0.0760650634765625,-0.3647798299789429,-0.2689164280891418,0.1395347267389297,54.22769165039062,94.7296905517578,-42.63121032714844
306945,-0.065032958984375,0.9829254150390624,0.0760650634765625,-0.3647798299789429,-0.2689164280891418,0.1395347267389297,54.22769165039062,94.7296905517578,-42.63121032714844
306946,-0.0211334228515625,1.00994873046875,0.067657470703125,-0.4151961207389832,-0.2091702669858932,0.1767438799142838,54.19709777832031,94.83001708984376,-42.56246948242188
306947,0.000396728515625,1.023956298828125,0.097137451171875,-0.42827969789505,-0.1271917670965195,0.2192021310329437,54.080810546875,94.88507080078124,-42.51834106445312
306948,0.0099029541015625,1.040863037109375,0.119598388671875,-0.4531373977661133,-0.0545532554388046,0.209509551525116,54.16841125488281,95.00749206542967,-42.39892578125
306949,0.0099029541015625,1.040863037109375,0.119598388671875,-0.4531373977661133,-0.0545532554388046,0.209509551525116,54.16841125488281,95.00749206542967,-42.39892578125
306950,0.0380859375,1.048736572265625,0.08233642578125,-0.4981868863105774,-0.1036419719457626,0.1584956347942352,54.34613037109375,95.22003173828124,-42.02726745605469
306951,0.021392822265625,1.07086181640625,0.056396484375,-0.5470276474952698,-0.1949401944875717,0.0908662602305412,54.37782287597656,95.29306030273438,-41.731689453125
306952,-0.0027313232421875,1.096542358398438,0.04266357421875,-0.578472912311554,-0.2650745511054993,0.0257809963077306,54.34425354003906,95.4547882080078,-41.70903015136719
306953,-0.0027313232421875,1.096542358398438,0.04266357421875,-0.578472912311554,-0.2650745511054993,0.0257809963077306,54.34425354003906,95.4547882080078,-41.70903015136719
306954,-0.0493621826171875,1.112808227539062,0.020477294921875,-0.5564137101173401,-0.2167839705944061,-0.0770037025213241,54.29388427734375,95.68089294433594,-41.10063171386719
306955,-0.0493621826171875,1.112808227539062,0.020477294921875,-0.5564137101173401,-0.2167839705944061,-0.0770037025213241,54.29388427734375,95.68089294433594,-41.10063171386719
306956,-0.1083984375,1.085769653320312,0.0053558349609375,-0.4122131168842316,-0.0645941719412803,-0.1296709030866623,54.17134094238281,96.08918762207033,-40.50917053222656
306957,-0.1361846923828125,1.073318481445312,-0.0119476318359375,-0.3450327515602112,-0.0211955662816762,-0.1393722742795944,54.03219604492188,96.2632293701172,-40.07563781738281
306958,-0.1565399169921875,1.078460693359375,-0.0560150146484375,-0.2996767163276672,0.0003624562232289,-0.144563302397728,53.91358947753906,96.32992553710938,-39.90219116210938
306959,-0.152313232421875,1.079071044921875,-0.1136474609375,-0.2743513882160187,-0.0078259650617837,-0.1572716385126114,53.836181640625,96.41632080078124,-39.79827880859375
306960,-0.13818359375,1.058853149414062,-0.179229736328125,-0.2301173508167267,0.013937653042376,-0.1559967845678329,53.78883361816406,96.48239135742188,-39.63372802734375
306961,-0.13818359375,1.058853149414062,-0.179229736328125,-0.2301173508167267,0.013937653042376,-0.1559967845678329,53.78883361816406,96.48239135742188,-39.63372802734375
306962,-0.1020965576171875,1.006561279296875,-0.2849273681640625,-0.1173987984657288,0.1156530976295471,-0.160041868686676,53.65159606933594,96.71310424804688,-39.40045166015625
306963,-0.1020965576171875,1.006561279296875,-0.2849273681640625,-0.1173987984657288,0.1156530976295471,-0.160041868686676,53.65159606933594,96.71310424804688,-39.40045166015625
306964,-0.0914306640625,0.9645233154296876,-0.3060302734375,-0.07244623452425,0.1643093079328537,-0.180595338344574,53.49681091308594,96.74375915527344,-39.34051513671875
306965,-0.071624755859375,0.85467529296875,-0.3478240966796875,-0.0601365752518177,0.1197389140725136,-0.1877075880765915,53.41513061523438,96.95318603515624,-39.20498657226562
306966,-0.05596923828125,0.797454833984375,-0.366851806640625,-0.0310908071696758,0.0822527930140495,-0.1773742437362671,53.30018615722656,96.93572998046876,-39.07508850097656
306967,-0.05596923828125,0.797454833984375,-0.366851806640625,-0.0310908071696758,0.0822527930140495,-0.1773742437362671,53.30018615722656,96.93572998046876,-39.07508850097656
306968,-0.0223388671875,0.713134765625,-0.4439239501953125,0.2260581701993942,0.0746417492628097,-0.0861466005444526,53.20460510253906,96.92527770996094,-38.98272705078125
306969,-0.0044708251953125,0.70477294921875,-0.4992828369140625,0.2260581701993942,0.0746417492628097,-0.0861466005444526,53.15728759765625,96.89767456054688,-38.97854614257812
306970,0.0170440673828125,0.707366943359375,-0.5393218994140625,0.3248507976531982,0.1010730862617493,-0.0374184772372245,53.21516418457031,96.78306579589844,-38.94410705566406
306971,0.030120849609375,0.7248382568359375,-0.5675048828125,0.4030920565128326,0.1459851711988449,0.0131304496899247,53.24879455566406,96.68258666992188,-38.98777770996094
306972,0.029541015625,0.7573699951171875,-0.5814056396484375,0.4542306065559387,0.1864095628261566,0.0607696063816547,53.16702270507812,96.58219909667967,-39.1905517578125
306973,0.029541015625,0.7573699951171875,-0.5814056396484375,0.4542306065559387,0.1864095628261566,0.0607696063816547,53.16702270507812,96.58219909667967,-39.1905517578125
306974,0.015350341796875,0.8256378173828125,-0.56671142578125,0.4524793326854706,0.2370482385158539,0.11761424690485,53.35688781738281,96.47154235839844,-39.5458984375
306975,0.00726318359375,0.8514251708984375,-0.5228729248046875,0.4211509525775909,0.276194840669632,0.1368159055709839,53.52561950683594,96.38101196289062,-39.69583129882812
306976,0.0041961669921875,0.8702239990234375,-0.4839935302734375,0.3867240250110626,0.3183958232402802,0.1587108224630356,53.56698608398438,96.2598876953125,-39.77194213867188
306977,0.0041961669921875,0.8702239990234375,-0.4839935302734375,0.3867240250110626,0.3183958232402802,0.1587108224630356,53.56698608398438,96.2598876953125,-39.77194213867188
306978,-0.00250244140625,0.92822265625,-0.43365478515625,0.2929445207118988,0.3324429392814636,0.1936943680047989,53.82171630859375,96.0569305419922,-40.13603210449219
306979,0.004974365234375,0.9657135009765624,-0.40606689453125,0.2188340723514557,0.3015041947364807,0.2014841139316559,53.99496459960938,96.07406616210938,-40.26710510253906
306980,0.01806640625,0.989593505859375,-0.36822509765625,0.1451753079891205,0.2585932016372681,0.2007964849472046,54.08584594726562,96.03851318359376,-40.49031066894531
306981,0.01806640625,0.989593505859375,-0.36822509765625,0.1451753079891205,0.2585932016372681,0.2007964849472046,54.08584594726562,96.03851318359376,-40.49031066894531
306982,0.03094482421875,1.02716064453125,-0.28363037109375,0.0060134176164865,0.2843140065670013,0.2300004363059998,54.29637145996094,95.93199157714844,-40.74742126464844
306983,0.0271148681640625,1.047119140625,-0.1945648193359375,-0.037443246692419,0.2855987250804901,0.2663323581218719,54.40145874023438,95.9330596923828,-40.79067993164062
306984,0.0308074951171875,1.064483642578125,-0.0785064697265625,-0.0317227765917778,0.2899447381496429,0.3139448761940002,54.5389404296875,95.7860107421875,-40.83854675292969
306985,0.0308074951171875,1.064483642578125,-0.0785064697265625,-0.0317227765917778,0.2899447381496429,0.3139448761940002,54.5389404296875,95.7860107421875,-40.83854675292969
306986,0.030853271484375,1.141754150390625,0.060577392578125,0.0228280834853649,0.2255795896053314,0.4052002131938934,54.9822998046875,95.84138488769533,-40.80574035644531
306987,0.0360260009765625,1.178451538085938,0.0711822509765625,0.1029370352625847,-0.0082057323306798,0.3941656947135925,55.2291259765625,95.87416076660156,-40.80079650878906
306988,0.037750244140625,1.189376831054688,0.0755615234375,0.1370041966438293,-0.1075957044959068,0.3472069501876831,55.52528381347656,95.80760192871094,-40.7318115234375
306989,0.037750244140625,1.189376831054688,0.0755615234375,0.1370041966438293,-0.1075957044959068,0.3472069501876831,55.52528381347656,95.80760192871094,-40.7318115234375
306990,0.04742431640625,1.145095825195312,0.129302978515625,0.1539775878190994,-0.1649402230978012,0.3035225868225098,55.88816833496094,95.59619140625,-40.78903198242188
306991,0.04742431640625,1.145095825195312,0.129302978515625,0.1539775878190994,-0.1649402230978012,0.3035225868225098,55.88816833496094,95.59619140625,-40.78903198242188
306992,0.0574951171875,1.058319091796875,0.1229705810546875,0.1432429105043411,-0.2800495028495789,0.2513275742530823,56.08746337890625,95.51441955566406,-40.99443054199219
306993,0.0529327392578125,1.048110961914062,0.10540771484375,0.1033708602190018,-0.3396025598049164,0.2414736151695251,56.13215637207031,95.44801330566406,-41.140869140625
306994,0.0334014892578125,1.056228637695312,0.074859619140625,0.0466812178492546,-0.3741357922554016,0.2161677181720734,56.19075012207031,95.31297302246094,-41.18338012695312
306995,0.0334014892578125,1.056228637695312,0.074859619140625,0.0466812178492546,-0.3741357922554016,0.2161677181720734,56.19075012207031,95.31297302246094,-41.18338012695312
306996,-0.0771942138671875,1.087478637695312,0.0191192626953125,-0.0866328924894332,-0.4769119620323181,0.0282843690365552,56.25093078613281,95.26231384277344,-41.26023864746094
306997,-0.1345367431640625,1.079849243164062,0.0321502685546875,-0.0866328924894332,-0.4769119620323181,0.0282843690365552,56.30372619628906,95.2958984375,-41.23141479492188
306998,-0.184844970703125,1.057388305664062,0.05047607421875,-0.1241773441433907,-0.4387704432010651,-0.0698283463716507,56.27239990234375,95.23664855957033,-41.30380249023438
306999,-0.2307281494140625,1.032333374023438,0.0507965087890625,-0.1338440775871277,-0.3859351873397827,-0.1610842198133469,56.12178039550781,95.21873474121094,-41.32138061523438
307000,-0.263092041015625,0.9972991943359376,0.0501251220703125,-0.1177711114287376,-0.3475925922393799,-0.2320026010274887,56.04104614257812,95.24993896484376,-41.23974609375
307001,-0.2799835205078125,0.9565277099609376,0.054046630859375,-0.1129316091537476,-0.2892642915248871,-0.2675813734531403,55.95538330078125,95.32479858398438,-41.23388671875
307002,-0.277252197265625,0.9137115478515624,0.052886962890625,-0.1372441351413727,-0.2517203986644745,-0.2805978357791901,55.828125,95.32151794433594,-41.17465209960938
307003,-0.277252197265625,0.9137115478515624,0.052886962890625,-0.1372441351413727,-0.2517203986644745,-0.2805978357791901,55.828125,95.32151794433594,-41.17465209960938
307004,-0.2737274169921875,0.865692138671875,0.056304931640625,-0.2000281661748886,-0.2470020651817322,-0.2930076420307159,55.73088073730469,95.34878540039062,-41.14254760742188
307005,-0.275299072265625,0.7874603271484375,0.0547943115234375,-0.3414944708347321,-0.2442081421613693,-0.3056776225566864,55.43267822265625,95.6653289794922,-41.23065185546875
307006,-0.2707366943359375,0.7854156494140625,0.0540008544921875,-0.4088263809680939,-0.1927119344472885,-0.3109573423862457,55.240966796875,95.65846252441406,-41.09033203125
307007,-0.2707366943359375,0.7854156494140625,0.0540008544921875,-0.4088263809680939,-0.1927119344472885,-0.3109573423862457,55.240966796875,95.65846252441406,-41.09033203125
307008,-0.27655029296875,0.798980712890625,0.048370361328125,-0.469667375087738,-0.0988943576812744,-0.311385303735733,54.9930419921875,95.67892456054688,-40.88822937011719
307009,-0.2907867431640625,0.8417510986328125,0.0350189208984375,-0.5906736850738525,0.1020342260599136,-0.2924989759922028,54.68505859375,96.12213134765624,-40.572265625
307010,-0.2787933349609375,0.8518218994140625,0.0179901123046875,-0.6583080887794495,0.13204325735569,-0.27384352684021,54.42750549316406,96.2248992919922,-40.41706848144531
307011,-0.2468719482421875,0.862701416015625,0.01177978515625,-0.7441415190696716,0.122259333729744,-0.2451791316270828,54.30026245117188,96.36685180664062,-40.10354614257812
307012,-0.2468719482421875,0.862701416015625,0.01177978515625,-0.7441415190696716,0.122259333729744,-0.2451791316270828,54.30026245117188,96.36685180664062,-40.10354614257812
307013,-0.1449432373046875,0.92779541015625,0.0252685546875,-0.9529885053634644,0.1185644641518593,-0.2002449482679367,54.12788391113281,96.6837158203125,-39.40351867675781
307014,-0.1044769287109375,0.9782257080078124,0.0304718017578125,-1.015773057937622,0.1302701234817505,-0.1937851756811142,54.05813598632812,96.989013671875,-39.10356140136719
307015,-0.1044769287109375,0.9782257080078124,0.0304718017578125,-1.015773057937622,0.1302701234817505,-0.1937851756811142,54.05813598632812,96.989013671875,-39.10356140136719
307016,-0.0813140869140625,1.036209106445312,0.0418243408203125,-1.023173213005066,0.1367634385824203,-0.1987016499042511,53.99163818359375,97.20562744140624,-38.72573852539062
307017,-0.0673675537109375,1.114181518554688,0.0058135986328125,-0.9321343302726746,0.1640653759241104,-0.2186926603317261,53.81170654296875,97.7724609375,-37.88949584960938
307018,-0.045318603515625,1.147415161132812,-0.03045654296875,-0.8611006140708923,0.091658815741539,-0.2025664299726486,53.60177612304688,98.02113342285156,-37.40116882324219
307019,-0.045318603515625,1.147415161132812,-0.03045654296875,-0.8611006140708923,0.091658815741539,-0.2025664299726486,53.60177612304688,98.02113342285156,-37.40116882324219
307020,-0.0022125244140625,1.173995971679688,-0.05523681640625,-0.7923476696014404,0.012596751563251,-0.1768131256103516,53.41261291503906,98.39793395996094,-36.92303466796875
307021,0.0410614013671875,1.176162719726562,-0.090087890625,-0.7067387700080872,-0.0421415939927101,-0.1294394880533218,53.32514953613281,98.51991271972656,-36.34881591796875
307022,0.124481201171875,1.186370849609375,-0.1767578125,-0.4823847413063049,-0.1403736174106598,-0.0093402387574315,53.08515930175781,98.74996948242188,-35.58042907714844
307023,0.135345458984375,1.16473388671875,-0.2057647705078125,-0.3641188442707062,-0.2233577221632004,0.0319211818277835,53.01615905761719,98.935302734375,-35.25027465820312
307024,0.123565673828125,1.140716552734375,-0.2130279541015625,-0.1351405084133148,-0.4447998404502869,0.0390414074063301,52.92889404296875,99.13006591796876,-34.97114562988281
307025,0.123565673828125,1.140716552734375,-0.2130279541015625,-0.1351405084133148,-0.4447998404502869,0.0390414074063301,52.92889404296875,99.13006591796876,-34.97114562988281
307026,0.1397247314453125,1.01348876953125,-0.2019500732421875,0.025293106213212,-0.4751875698566437,0.0556060038506984,52.79121398925781,99.04353332519533,-34.54776000976562
307027,0.1397247314453125,1.01348876953125,-0.2019500732421875,0.025293106213212,-0.4751875698566437,0.0556060038506984,52.79121398925781,99.04353332519533,-34.54776000976562
307028,0.236297607421875,0.86962890625,-0.3113555908203125,0.588477611541748,-0.4704268872737885,0.1796113103628159,52.724853515625,98.94483947753906,-34.08790588378906
307029,0.260498046875,0.8332366943359375,-0.363800048828125,0.588477611541748,-0.4704268872737885,0.1796113103628159,52.80482482910156,98.92788696289062,-34.09886169433594
307030,0.2746429443359375,0.8233184814453125,-0.40380859375,0.6875711679458618,-0.4757231175899506,0.2127460837364197,52.88179016113281,98.65939331054688,-34.14070129394531
307031,0.2746429443359375,0.8233184814453125,-0.40380859375,0.6875711679458618,-0.4757231175899506,0.2127460837364197,52.88179016113281,98.65939331054688,-34.14070129394531
307032,0.290863037109375,0.88232421875,-0.4364013671875,0.6317571997642517,-0.5000489950180054,0.2588182389736176,52.867919921875,98.469482421875,-34.83746337890625
307033,0.282318115234375,0.939056396484375,-0.430419921875,0.6317571997642517,-0.5000489950180054,0.2588182389736176,52.94479370117188,98.27145385742188,-35.27381896972656
307034,0.2583770751953125,1.020828247070312,-0.40765380859375,0.5363558530807495,-0.4327476918697357,0.2606563568115234,52.89141845703125,98.2140655517578,-35.782958984375
307035,0.2270660400390625,1.1153564453125,-0.377044677734375,0.5363558530807495,-0.4327476918697357,0.2606563568115234,52.93357849121094,97.83860778808594,-36.39732360839844
307036,0.2270660400390625,1.1153564453125,-0.377044677734375,0.5363558530807495,-0.4327476918697357,0.2606563568115234,52.93357849121094,97.83860778808594,-36.39732360839844
307037,0.1609039306640625,1.295196533203125,-0.30908203125,0.500386655330658,-0.3238033652305603,0.2095793187618256,53.1021728515625,97.68489074707033,-36.91705322265625
307038,0.1322784423828125,1.359603881835938,-0.2581329345703125,0.4814633131027222,-0.276902973651886,0.156570166349411,53.15647888183594,97.58941650390624,-37.28948974609375
307039,0.1322784423828125,1.359603881835938,-0.2581329345703125,0.4814633131027222,-0.276902973651886,0.156570166349411,53.15647888183594,97.58941650390624,-37.28948974609375
307040,0.0854949951171875,1.429290771484375,-0.148651123046875,0.4397158622741699,-0.2237212359905243,0.0020969731267541,53.1875,97.25830078125,-37.63081359863281
307041,0.0500640869140625,1.432296752929688,-0.102752685546875,0.4745137691497803,-0.2583982646465302,-0.0606822557747364,53.28268432617188,97.28077697753906,-38.00617980957031
307042,0.022918701171875,1.403549194335938,-0.0588836669921875,0.5432822108268738,-0.3846930861473083,-0.1205357387661934,53.2744140625,97.2280731201172,-38.17536926269531
307043,0.022918701171875,1.403549194335938,-0.0588836669921875,0.5432822108268738,-0.3846930861473083,-0.1205357387661934,53.2744140625,97.2280731201172,-38.17536926269531
307044,-0.041839599609375,1.212982177734375,0.017425537109375,0.6868771910667419,-0.730730414390564,-0.2285013496875763,53.12736511230469,96.97439575195312,-38.95309448242188
307045,-0.0798492431640625,1.069595336914062,0.0567474365234375,0.7506505846977234,-0.8101024627685547,-0.231904074549675,53.00727844238281,96.86233520507812,-39.14765930175781
307046,-0.110931396484375,0.964263916015625,0.062957763671875,0.7820358872413635,-0.8754092454910278,-0.2483397722244263,52.82528686523438,96.77066040039062,-39.37855529785156
307047,-0.1583709716796875,0.875335693359375,0.059783935546875,0.7600739002227783,-0.9744964241981506,-0.2328779846429825,52.61100769042969,96.58319091796876,-39.77166748046875
307048,-0.218048095703125,0.8217315673828125,0.0626373291015625,0.7237920761108398,-1.09929883480072,-0.2006348371505737,52.394287109375,96.454833984375,-40.19276428222656
307049,-0.264312744140625,0.7889251708984375,0.0520477294921875,0.6573547124862671,-1.19788134098053,-0.169649213552475,52.162109375,96.23898315429688,-40.56504821777344
307050,-0.2916412353515625,0.7626190185546875,0.044464111328125,0.5522650480270386,-1.201978325843811,-0.1514518409967422,51.91224670410156,96.1027374267578,-40.79171752929688
307051,-0.2916412353515625,0.7626190185546875,0.044464111328125,0.5522650480270386,-1.201978325843811,-0.1514518409967422,51.91224670410156,96.1027374267578,-40.79171752929688
307052,-0.3020172119140625,0.757293701171875,0.0154876708984375,0.4920616149902344,-1.136725783348083,-0.1411861479282379,51.64994812011719,95.9027862548828,-41.11219787597656
307053,-0.3133544921875,0.7629852294921875,-0.0159912109375,0.5033766031265259,-1.027837157249451,-0.1252886801958084,51.35890197753906,95.64682006835938,-41.4583740234375
307054,-0.282501220703125,0.796142578125,-0.0089111328125,0.6261203289031982,-0.6437031030654907,-0.0915448293089866,50.94230651855469,95.3413543701172,-41.86863708496094
307055,-0.2270965576171875,0.80279541015625,0.00433349609375,0.6309694647789001,-0.4701310098171234,-0.0552419498562812,50.67869567871094,95.06608581542967,-42.01216125488281
307056,-0.1526947021484375,0.8124237060546875,0.05047607421875,0.5486913323402405,-0.3544526100158691,0.0059023639187216,50.49142456054688,94.93637084960938,-42.37391662597656
307057,-0.0787811279296875,0.81463623046875,0.126068115234375,0.3738412261009216,-0.2558642625808716,0.0875056162476539,50.33042907714844,94.82044982910156,-42.63723754882812
307058,-0.0407867431640625,0.7977294921875,0.1930389404296875,0.1523045897483826,-0.1362811475992203,0.15367691218853,50.20970153808594,94.67088317871094,-42.80281066894531
307059,-0.0106658935546875,0.7635498046875,0.229888916015625,-0.070575900375843,-0.0505132414400577,0.2150180339813232,50.16673278808594,94.65911865234376,-42.95210266113281
307060,0.0044097900390625,0.7532958984375,0.26727294921875,-0.2697361409664154,-0.0019896477460861,0.2514205276966095,50.20706176757812,94.681884765625,-42.92709350585938
307061,-0.0042572021484375,0.769561767578125,0.3116607666015625,-0.434257447719574,0.0551167801022529,0.2537446618080139,50.27366638183594,94.75779724121094,-42.8555908203125
307062,-0.0554351806640625,0.80023193359375,0.337188720703125,-0.5651326179504395,0.1349309235811234,0.2255700081586838,50.484375,94.86004638671876,-42.593994140625
307063,-0.121307373046875,0.84979248046875,0.3053436279296875,-0.628454864025116,0.1562114357948303,0.2092568129301071,50.60940551757812,95.00344848632812,-42.42784118652344
307064,-0.1417083740234375,0.904205322265625,0.254852294921875,-0.632788896560669,0.0247279834002256,0.2095068842172623,50.69430541992188,95.06002807617188,-42.05500793457031
307065,-0.1417083740234375,0.904205322265625,0.254852294921875,-0.632788896560669,0.0247279834002256,0.2095068842172623,50.69430541992188,95.06002807617188,-42.05500793457031
307066,-0.068695068359375,0.965423583984375,0.3272247314453125,-0.6369218826293945,-0.1772110015153885,0.2192540615797043,50.90391540527344,95.41078186035156,-41.58045959472656
307067,-0.0389862060546875,1.001907348632812,0.3427276611328125,-0.6999223828315735,-0.1243408620357513,0.2059968411922455,50.95756530761719,95.6823272705078,-41.45820617675781
307068,-0.0267486572265625,1.05413818359375,0.324188232421875,-0.7792513370513916,-0.094207189977169,0.1697485595941544,50.91839599609375,95.98199462890624,-41.28370666503906
307069,-0.0333251953125,1.11456298828125,0.2996673583984375,-0.8334311842918396,-0.1266492903232574,0.1066329702734947,50.94686889648438,96.22015380859376,-41.00494384765625
307070,-0.052001953125,1.164016723632812,0.2864837646484375,-0.8684824109077454,-0.189985916018486,0.0140124885365366,50.89306640625,96.30465698242188,-40.50691223144531
307071,-0.0774078369140625,1.201629638671875,0.265411376953125,-0.8857644200325012,-0.262484073638916,-0.0941576585173606,50.91737365722656,96.44898986816406,-40.17240905761719
307072,-0.1004486083984375,1.239761352539062,0.2294158935546875,-0.8470498323440552,-0.3244633078575134,-0.2925263941287994,50.80079650878906,96.65623474121094,-39.81156921386719
307073,-0.1223297119140625,1.264984130859375,0.1791229248046875,-0.8470498323440552,-0.3244633078575134,-0.2925263941287994,50.69244384765625,96.90171813964844,-39.357177734375
307074,-0.1434783935546875,1.262161254882812,0.1142120361328125,-0.7830809354782104,-0.2344694882631302,-0.337089866399765,50.37281799316406,97.17073059082033,-38.98170471191406
307075,-0.1434783935546875,1.262161254882812,0.1142120361328125,-0.7830809354782104,-0.2344694882631302,-0.337089866399765,50.37281799316406,97.17073059082033,-38.98170471191406
307076,-0.1590576171875,1.2166748046875,0.0497894287109375,-0.6766684651374817,-0.1252588480710983,-0.3373777568340302,50.2252197265625,97.34434509277344,-38.46646118164062
307077,-0.14215087890625,1.107620239257812,0.0028839111328125,-0.4042164385318756,0.0781488642096519,-0.241469606757164,49.79200744628906,97.7406005859375,-37.82179260253906
307078,-0.119659423828125,1.070526123046875,-0.03289794921875,-0.3197119534015656,0.1473441869020462,-0.1968150585889816,49.52439880371094,97.9312744140625,-37.52479553222656
307079,-0.119659423828125,1.070526123046875,-0.03289794921875,-0.3197119534015656,0.1473441869020462,-0.1968150585889816,49.52439880371094,97.9312744140625,-37.52479553222656
307080,-0.0793304443359375,1.058334350585938,-0.1649932861328125,-0.3520376682281494,0.1070774495601654,-0.1716327369213104,49.37281799316406,98.06973266601562,-37.19476318359375
307081,-0.06976318359375,1.060867309570312,-0.2019805908203125,-0.3707610368728638,0.0433610565960407,-0.1765140444040298,49.23582458496094,98.16456604003906,-37.06954956054688
307082,-0.046966552734375,1.039947509765625,-0.2252349853515625,-0.3522706925868988,0.0134625453501939,-0.15860216319561,49.15800476074219,98.22714233398438,-36.94412231445312
307083,-0.0287017822265625,1.0228271484375,-0.2578887939453125,-0.3018772900104523,-0.0055910404771566,-0.1514182835817337,48.99082946777344,98.4433135986328,-36.71170043945312
307084,-0.012664794921875,1.002197265625,-0.3005828857421875,-0.2253220677375793,-0.040773794054985,-0.1259155869483948,48.87205505371094,98.40203857421876,-36.52967834472656
307085,-0.012664794921875,1.002197265625,-0.3005828857421875,-0.2253220677375793,-0.040773794054985,-0.1259155869483948,48.87205505371094,98.40203857421876,-36.52967834472656
307086,0.08251953125,0.9651031494140624,-0.42095947265625,-0.0216626841574907,-0.0559077411890029,-0.0143094304949045,48.78097534179688,98.45387268066406,-36.21002197265625
307087,0.08251953125,0.9651031494140624,-0.42095947265625,-0.0216626841574907,-0.0559077411890029,-0.0143094304949045,48.78097534179688,98.45387268066406,-36.21002197265625
307088,0.1342010498046875,0.9585418701171876,-0.48309326171875,0.1012278199195862,0.0235620513558387,0.0681931674480438,48.61976623535156,98.49275207519533,-36.11358642578125
307089,0.189666748046875,1.013641357421875,-0.5222930908203125,0.2815206348896027,0.1776871681213379,0.1967199891805649,48.60523986816406,98.38055419921876,-36.03218078613281
307090,0.1667327880859375,1.078628540039062,-0.5154266357421875,0.3430409729480743,0.2396730482578278,0.1902085542678833,48.72918701171875,98.40505981445312,-36.06605529785156
307091,0.1667327880859375,1.078628540039062,-0.5154266357421875,0.3430409729480743,0.2396730482578278,0.1902085542678833,48.72918701171875,98.40505981445312,-36.06605529785156
307092,0.058563232421875,1.152374267578125,-0.47442626953125,0.5329387187957764,0.3803883492946625,0.1342558115720749,49.102294921875,98.16310119628906,-36.35011291503906
307093,0.0155029296875,1.162872314453125,-0.47802734375,0.5329387187957764,0.3803883492946625,0.1342558115720749,49.27664184570312,97.95053100585938,-36.51808166503906
307094,-0.0161895751953125,1.161392211914062,-0.4538726806640625,0.6044363379478455,0.4409449100494385,0.1278996467590332,49.34786987304688,97.99461364746094,-36.85565185546875
307095,-0.043487548828125,1.161758422851562,-0.394561767578125,0.6320688128471375,0.5160002112388611,0.1146972849965096,49.56327819824219,97.86805725097656,-37.185302734375
307096,-0.0584716796875,1.151153564453125,-0.3242034912109375,0.5998080372810364,0.5613355040550232,0.0853692293167114,49.78364562988281,97.86557006835938,-37.455810546875
307097,-0.051727294921875,1.122879028320312,-0.247772216796875,0.5001317858695984,0.5754355788230896,0.0595394931733608,49.80267333984375,97.71688842773438,-37.66645812988281
307098,-0.047576904296875,1.080657958984375,-0.163909912109375,0.3548265397548676,0.5240882635116577,0.0272891446948051,50.01069641113281,97.68556213378906,-38.01359558105469
307099,-0.047576904296875,1.080657958984375,-0.163909912109375,0.3548265397548676,0.5240882635116577,0.0272891446948051,50.01069641113281,97.68556213378906,-38.01359558105469
307100,-0.04949951171875,0.9637603759765624,-0.05828857421875,0.1411693692207336,0.1044766083359718,0.1084423214197159,50.43782043457031,97.52806091308594,-38.49099731445312
307101,-0.0439605712890625,0.9322509765625,0.001068115234375,0.1411693692207336,0.1044766083359718,0.1084423214197159,50.53092956542969,97.39479064941406,-38.6097412109375
307102,-0.0469818115234375,0.916473388671875,0.0859222412109375,0.1955820173025131,-0.0723045542836189,0.1775058060884476,50.69920349121094,97.46669006347656,-38.66824340820312
307103,-0.0469818115234375,0.916473388671875,0.0859222412109375,0.1955820173025131,-0.0723045542836189,0.1775058060884476,50.69920349121094,97.46669006347656,-38.66824340820312
307104,-0.0456390380859375,0.892547607421875,0.1923065185546875,0.2152779549360275,-0.2795195281505585,0.3323401212692261,51.00462341308594,97.3743133544922,-38.84159851074219
307105,-0.0361480712890625,0.8943939208984375,0.2039337158203125,0.1609902232885361,-0.3495955467224121,0.3782703280448914,50.9822998046875,97.28176879882812,-38.96630859375
307106,-0.0191802978515625,0.8759765625,0.20623779296875,0.0663699656724929,-0.3988600373268127,0.4026521146297455,51.1788330078125,97.10821533203124,-39.01057434082031
307107,0.0047454833984375,0.8594207763671875,0.20269775390625,-0.001031974912621,-0.4192872941493988,0.411580890417099,51.27882385253906,97.076416015625,-39.16242980957031
307108,0.0634765625,0.8450775146484375,0.17730712890625,-0.0383380688726902,-0.4547749757766724,0.407207190990448,51.36721801757812,97.0751495361328,-39.35092163085938
307109,0.1269073486328125,0.8568572998046875,0.17913818359375,-0.0273248311132192,-0.4421103000640869,0.384980171918869,51.54045104980469,97.03172302246094,-39.33964538574219
307110,0.1682281494140625,0.8729248046875,0.1753082275390625,0.0171574149280786,-0.3927451372146606,0.3728713095188141,51.62026977539062,97.05780029296876,-39.43280029296875
307111,0.167083740234375,0.899169921875,0.1516265869140625,0.1548050194978714,-0.2870112657546997,0.2884605526924133,51.69609069824219,97.01150512695312,-39.20939636230469
307112,0.167083740234375,0.899169921875,0.1516265869140625,0.1548050194978714,-0.2870112657546997,0.2884605526924133,51.69609069824219,97.01150512695312,-39.20939636230469
307113,0.1208648681640625,0.87152099609375,0.0447235107421875,0.2042119950056076,-0.3494639992713928,0.2369257211685181,51.87281799316406,96.8426513671875,-39.33984375
307114,0.1151275634765625,0.8267974853515625,0.0039520263671875,0.2321775704622269,-0.4401020109653473,0.1868005096912384,51.95582580566406,96.87338256835938,-39.37138366699219
307115,0.1151275634765625,0.8267974853515625,0.0039520263671875,0.2321775704622269,-0.4401020109653473,0.1868005096912384,51.95582580566406,96.87338256835938,-39.37138366699219
307116,0.046600341796875,0.820709228515625,-0.0311737060546875,0.2746017277240753,-0.4204635918140411,0.0855210274457931,51.95602416992188,96.75291442871094,-39.74058532714844
307117,-0.0366058349609375,0.8510589599609375,-0.0302734375,0.2874520123004913,-0.3063037395477295,0.0343896634876728,51.97978210449219,96.80532836914062,-39.71548461914062
307118,-0.128143310546875,0.89227294921875,0.0083160400390625,0.2654199600219727,-0.214887797832489,-0.0334964394569397,51.99784851074219,96.65293884277344,-39.76687622070312
307119,-0.209991455078125,0.931427001953125,0.060943603515625,0.1964741796255112,-0.1427025496959686,-0.1206174939870834,51.84371948242188,96.6322784423828,-39.853759765625
307120,-0.277099609375,0.96234130859375,0.0935211181640625,0.0951438248157501,-0.092546708881855,-0.2226533144712448,51.85011291503906,96.74110412597656,-40.05213928222656
307121,-0.277099609375,0.96234130859375,0.0935211181640625,0.0951438248157501,-0.092546708881855,-0.2226533144712448,51.85011291503906,96.74110412597656,-40.05213928222656
307122,-0.3896331787109375,0.98583984375,0.1306915283203125,-0.0619382038712501,-0.0412188097834587,-0.3887011408805847,51.65342712402344,96.70968627929688,-40.22856140136719
307123,-0.3896331787109375,0.98583984375,0.1306915283203125,-0.0619382038712501,-0.0412188097834587,-0.3887011408805847,51.65342712402344,96.70968627929688,-40.22856140136719
307124,-0.4175872802734375,0.9647979736328124,0.146514892578125,-0.0736979246139526,-0.018630675971508,-0.4073078632354736,51.51905822753906,96.69699096679688,-40.16421508789062
307125,-0.42657470703125,0.9317626953125,0.1537628173828125,-0.0469451397657394,0.0190876740962266,-0.3591315448284149,51.34695434570312,96.764892578125,-40.11666870117188
307126,-0.397430419921875,0.9196624755859376,0.1371002197265625,-0.0055849151685833,0.0789888277649879,-0.254560112953186,51.1514892578125,96.77236938476562,-40.02947998046875
307127,-0.3946685791015625,0.9325408935546876,0.1394500732421875,-0.0163600649684667,0.126180574297905,-0.2311389446258545,51.08615112304688,96.892333984375,-40.02723693847656
307128,-0.4023590087890625,0.9547882080078124,0.1409149169921875,-0.0277014020830392,0.1865014433860779,-0.2158806324005127,50.98806762695312,96.93592834472656,-39.88276672363281
307129,-0.4114227294921875,0.9787445068359376,0.1414031982421875,-0.0332389138638973,0.2286243885755539,-0.2126028090715408,50.83560180664062,96.9789581298828,-39.82559204101562
307130,-0.40985107421875,0.9957275390625,0.1451263427734375,-0.0503166988492012,0.2537662386894226,-0.1983676850795746,50.85563659667969,96.98567199707033,-39.63436889648438
307131,-0.3910980224609375,1.01300048828125,0.149932861328125,-0.09259545058012,0.2629005908966064,-0.1832680851221085,50.82682800292969,96.9224090576172,-39.62271118164062
307132,-0.3510284423828125,1.019638061523438,0.1478118896484375,-0.1644802838563919,0.2547489404678345,-0.1800491362810135,50.80506896972656,97.05485534667967,-39.82745361328125
307133,-0.3510284423828125,1.019638061523438,0.1478118896484375,-0.1644802838563919,0.2547489404678345,-0.1800491362810135,50.80506896972656,97.05485534667967,-39.82745361328125
307134,-0.255828857421875,1.036514282226562,0.076904296875,-0.3499225974082947,0.250905454158783,-0.1500070691108704,50.634521484375,97.2521514892578,-39.79283142089844
307135,-0.255828857421875,1.036514282226562,0.076904296875,-0.3499225974082947,0.250905454158783,-0.1500070691108704,50.634521484375,97.2521514892578,-39.79283142089844
307136,-0.193023681640625,1.056304931640625,-0.0179290771484375,-0.4007564783096313,0.2342005223035812,-0.1184336990118027,50.5528564453125,97.26153564453124,-39.74212646484375
307137,-0.039337158203125,1.05859375,-0.1433868408203125,-0.4920317828655243,0.0686773285269737,-0.0868390277028083,50.49984741210938,97.23796081542967,-39.34004211425781
307138,0.0311126708984375,1.076828002929688,-0.159393310546875,-0.5252326130867004,-0.0334756672382354,-0.0804469063878059,50.43283081054688,97.34300231933594,-39.09950256347656
307139,0.1149749755859375,1.101425170898438,-0.155792236328125,-0.5111881494522095,-0.0994360446929931,-0.0743754282593727,50.39952087402344,97.42518615722656,-38.85438537597656
307140,0.1605072021484375,1.166778564453125,-0.1763763427734375,-0.4359346926212311,-0.142261266708374,-0.0681311190128326,50.32579040527344,97.60545349121094,-38.60238647460938
307141,0.18658447265625,1.211639404296875,-0.194427490234375,-0.3591555058956146,-0.196710392832756,-0.1152893081307411,50.29249572753906,97.68869018554688,-38.36689758300781
307142,0.1989593505859375,1.211593627929688,-0.2073211669921875,-0.3048696219921112,-0.283924400806427,-0.1679746210575104,50.10308837890625,97.77777099609376,-38.00143432617188
307143,0.1989593505859375,1.211593627929688,-0.2073211669921875,-0.3048696219921112,-0.283924400806427,-0.1679746210575104,50.10308837890625,97.77777099609376,-38.00143432617188
307144,0.200592041015625,1.192489624023438,-0.2160491943359375,-0.2318097949028015,-0.4028979241847992,-0.1943937093019485,49.99180603027344,97.932861328125,-37.86625671386719
307145,0.188140869140625,1.152175903320312,-0.2396240234375,-0.102923184633255,-0.4907303154468536,-0.1891576796770096,49.86846923828125,97.94059753417967,-37.62945556640625
307146,0.234588623046875,1.052947998046875,-0.3813323974609375,0.2523952424526215,-0.6330600380897522,-0.0195515975356102,49.47808837890625,97.7711944580078,-37.30007934570312
307147,0.275421142578125,1.018630981445312,-0.4730682373046875,0.4417137503623962,-0.6548334956169128,0.1003598943352699,49.38272094726562,97.57766723632812,-37.27580261230469
307148,0.2957916259765625,1.021209716796875,-0.5377349853515625,0.6052930951118469,-0.6824089288711548,0.2051049470901489,49.27142333984375,97.60260009765624,-37.37290954589844
307149,0.2957916259765625,1.021209716796875,-0.5377349853515625,0.6052930951118469,-0.6824089288711548,0.2051049470901489,49.27142333984375,97.60260009765624,-37.37290954589844
307150,0.296173095703125,1.065185546875,-0.5587310791015625,0.769209623336792,-0.6580747961997986,0.3434423208236694,49.13650512695312,97.127197265625,-37.77983093261719
307151,0.296173095703125,1.065185546875,-0.5587310791015625,0.769209623336792,-0.6580747961997986,0.3434423208236694,49.13650512695312,97.127197265625,-37.77983093261719
307152,0.2865753173828125,1.113937377929688,-0.5373077392578125,0.7792696952819824,-0.6599147915840149,0.3539495468139648,49.19190979003906,96.967041015625,-38.11738586425781
307153,0.3113250732421875,1.131851196289062,-0.501983642578125,0.7665344476699829,-0.6441832184791565,0.3689644634723663,49.26695251464844,96.6756591796875,-38.47956848144531
307154,0.36480712890625,1.185806274414062,-0.488494873046875,0.7596192955970764,-0.5897541046142578,0.3996019959449768,49.35105895996094,96.42066955566406,-39.27619934082031
307155,0.36480712890625,1.185806274414062,-0.488494873046875,0.7596192955970764,-0.5897541046142578,0.3996019959449768,49.35105895996094,96.42066955566406,-39.27619934082031
307156,0.3532257080078125,1.238983154296875,-0.46173095703125,0.7188191413879395,-0.5747237205505371,0.3662392497062683,49.37347412109375,96.23838806152344,-39.45419311523438
307157,0.32110595703125,1.283706665039062,-0.4120025634765625,0.6420124769210815,-0.5859289765357971,0.3129304945468903,49.5343017578125,96.011474609375,-39.87330627441406
307158,0.2320709228515625,1.298568725585938,-0.30963134765625,0.5293834209442139,-0.752183198928833,0.1857901066541672,49.60284423828125,95.67828369140624,-40.62042236328125
307159,0.2320709228515625,1.298568725585938,-0.30963134765625,0.5293834209442139,-0.752183198928833,0.1857901066541672,49.60284423828125,95.67828369140624,-40.62042236328125
307160,0.194305419921875,1.287567138671875,-0.2492523193359375,0.5127370953559875,-0.8460769653320312,0.1163220852613449,49.55491638183594,95.5392608642578,-40.81982421875
307161,0.149200439453125,1.251174926757812,-0.1915130615234375,0.6562817096710205,-0.9499775171279908,-0.0026080335956066,49.50680541992188,95.4281768798828,-41.19363403320312
307162,-0.000274658203125,1.132110595703125,-0.0793914794921875,0.886069118976593,-0.9705983996391296,-0.0768668204545974,49.22840881347656,95.19377136230467,-41.60398864746094
307163,-0.052337646484375,1.069808959960938,-0.048553466796875,1.113821029663086,-0.9644744396209716,-0.1657298505306244,49.06396484375,95.18687438964844,-41.89515686035156
307164,-0.052337646484375,1.069808959960938,-0.048553466796875,1.113821029663086,-0.9644744396209716,-0.1657298505306244,49.06396484375,95.18687438964844,-41.89515686035156
307165,-0.0959014892578125,0.9786834716796876,-0.0601043701171875,1.168419003486633,-1.234971761703491,-0.2062096297740936,48.87303161621094,94.9715576171875,-42.31069946289062
307166,-0.181915283203125,0.865753173828125,-0.01605224609375,0.9763894081115724,-1.456224679946899,-0.2165802419185638,48.31927490234375,94.47244262695312,-43.21101379394531
307167,-0.181915283203125,0.865753173828125,-0.01605224609375,0.9763894081115724,-1.456224679946899,-0.2165802419185638,48.31927490234375,94.47244262695312,-43.21101379394531
307168,-0.2150421142578125,0.7930145263671875,0.0335235595703125,0.7344148755073547,-1.585080742835999,-0.2203696519136429,48.09922790527344,94.12254333496094,-43.61064147949219
307169,-0.2455291748046875,0.717864990234375,0.05413818359375,0.4823863506317139,-1.555978775024414,-0.1070369705557823,47.71461486816406,93.8949737548828,-43.98551940917969
307170,-0.244873046875,0.7097930908203125,0.0726470947265625,0.5096669793128967,-1.353516221046448,-0.1139904856681824,46.84672546386719,93.42898559570312,-44.57896423339844
307171,-0.244873046875,0.7097930908203125,0.0726470947265625,0.5096669793128967,-1.353516221046448,-0.1139904856681824,46.84672546386719,93.42898559570312,-44.57896423339844
307172,-0.30999755859375,0.758544921875,0.0602569580078125,0.6819615364074707,-0.8911416530609131,-0.1676633059978485,45.91014099121094,92.99623107910156,-44.82337951660156
307173,-0.33355712890625,0.785675048828125,0.09063720703125,0.7188761234283447,-0.7082714438438416,-0.1705357879400253,45.68620300292969,92.73200988769533,-44.97686767578125
307174,-0.3271942138671875,0.77789306640625,0.1310882568359375,0.6535863280296326,-0.5165150165557861,-0.1612943559885025,45.320068359375,92.51423645019533,-45.16645812988281
307175,-0.3271942138671875,0.77789306640625,0.1310882568359375,0.6535863280296326,-0.5165150165557861,-0.1612943559885025,45.320068359375,92.51423645019533,-45.16645812988281
307176,-0.30267333984375,0.756256103515625,0.160400390625,0.526380717754364,-0.3110798597335815,-0.1181516721844673,44.99284362792969,92.3468780517578,-45.3529052734375
307177,-0.2687835693359375,0.75347900390625,0.1967315673828125,0.3568358719348907,-0.1274588853120804,-0.0959598198533058,44.81794738769531,92.31529235839844,-45.73974609375
307178,-0.2496185302734375,0.7271728515625,0.2714691162109375,-0.0788695141673088,0.1772304326295853,-0.0499025769531726,44.56382751464844,92.11932373046876,-46.14170837402344
307179,-0.2496185302734375,0.7271728515625,0.2714691162109375,-0.0788695141673088,0.1772304326295853,-0.0499025769531726,44.56382751464844,92.11932373046876,-46.14170837402344
307180,-0.25433349609375,0.7562103271484375,0.306854248046875,-0.3230177462100983,0.2536770105361938,-0.0033065807074308,44.51939392089844,92.0692138671875,-46.0850830078125
307181,-0.2623748779296875,0.810394287109375,0.3386993408203125,-0.5361412167549133,0.2619969844818115,0.0381404608488082,44.51589965820312,92.1497039794922,-46.21531677246094
307182,-0.248321533203125,0.8753509521484375,0.3218536376953125,-0.7351853251457214,0.044029776006937,0.1022478118538857,44.815185546875,92.22390747070312,-45.86940002441406
307183,-0.248321533203125,0.8753509521484375,0.3218536376953125,-0.7351853251457214,0.044029776006937,0.1022478118538857,44.815185546875,92.22390747070312,-45.86940002441406
307184,-0.2108612060546875,0.860687255859375,0.29949951171875,-0.7096458673477173,-0.1403517872095108,0.1451880782842636,44.86839294433594,92.56993103027344,-45.66477966308594
307185,-0.1417999267578125,0.8675994873046875,0.288726806640625,-0.6697258949279785,-0.2804833352565765,0.1636440604925156,44.90147399902344,92.700927734375,-45.39862060546875
307186,-0.0348052978515625,0.9525146484375,0.28594970703125,-0.7914288640022278,-0.179377481341362,0.1538864970207214,44.94606018066406,93.01776123046876,-44.70515441894531
307187,-0.0348052978515625,0.9525146484375,0.28594970703125,-0.7914288640022278,-0.179377481341362,0.1538864970207214,44.94606018066406,93.01776123046876,-44.70515441894531
307188,0.0073089599609375,1.06585693359375,0.093505859375,-0.9636461734771729,-0.048095092177391,0.0797004178166389,44.84988403320312,93.4046630859375,-44.35667419433594
307189,-0.0003509521484375,1.092620849609375,0.0394439697265625,-0.9636461734771729,-0.048095092177391,0.0797004178166389,44.81083679199219,93.70245361328124,-43.89834594726562
307190,-0.0127410888671875,1.102249145507812,0.0482635498046875,-0.8535252809524536,-0.1127007156610489,0.020765732973814,44.72830200195312,93.96878051757812,-43.4722900390625
307191,-0.0127410888671875,1.102249145507812,0.0482635498046875,-0.8535252809524536,-0.1127007156610489,0.020765732973814,44.72830200195312,93.96878051757812,-43.4722900390625
307192,-0.0246124267578125,1.104049682617188,0.078765869140625,-0.7570602297782898,-0.1094402074813843,-0.0461211577057838,44.73027038574219,94.29763793945312,-43.02207946777344
307193,-0.0466461181640625,1.10821533203125,0.0886993408203125,-0.6959042549133301,-0.0839614793658256,-0.1844188421964645,44.73094177246094,94.50877380371094,-42.64060974121094
307194,-0.063018798828125,1.121047973632812,0.0024566650390625,-0.6937335133552551,-0.1350542306900024,-0.2402679920196533,44.558349609375,94.78358459472656,-41.93045043945312
307195,-0.063018798828125,1.121047973632812,0.0024566650390625,-0.6937335133552551,-0.1350542306900024,-0.2402679920196533,44.558349609375,94.78358459472656,-41.93045043945312
307196,-0.06298828125,1.152481079101562,-0.1317138671875,-0.5801400542259216,-0.1741558164358139,-0.2670913636684418,44.32833862304688,95.37664794921876,-41.24755859375
307197,-0.067901611328125,1.148605346679688,-0.1912841796875,-0.4402183890342712,-0.0733596980571746,-0.2495989054441452,44.07302856445312,95.47100830078124,-40.76593017578125
307198,-0.06427001953125,1.119842529296875,-0.2510986328125,-0.3156018853187561,0.0516549386084079,-0.2333584278821945,43.97184753417969,95.70970153808594,-40.45785522460938
307199,-0.0845489501953125,1.098846435546875,-0.2953033447265625,-0.2672426104545593,0.1782035529613495,-0.236971527338028,43.82391357421875,95.81204223632812,-40.155029296875
307200,-0.0845489501953125,1.098846435546875,-0.2953033447265625,-0.2672426104545593,0.1782035529613495,-0.236971527338028,43.82391357421875,95.81204223632812,-40.155029296875
307201,-0.1011962890625,1.115371704101562,-0.3289794921875,-0.2565931677818298,0.1979511678218842,-0.2432352900505066,43.69474792480469,95.90025329589844,-39.82264709472656
307202,-0.0864410400390625,1.158172607421875,-0.37091064453125,-0.1990537196397781,0.1432114839553833,-0.2028476595878601,43.46876525878906,95.99845886230467,-39.66688537597656
307203,-0.0864410400390625,1.158172607421875,-0.37091064453125,-0.1990537196397781,0.1432114839553833,-0.2028476595878601,43.46876525878906,95.99845886230467,-39.66688537597656
307204,-0.0619964599609375,1.1343994140625,-0.4095001220703125,-0.0955001562833786,0.1428945660591125,-0.1492888182401657,43.23211669921875,96.12757873535156,-39.24365234375
307205,-0.0267486572265625,1.10040283203125,-0.4755706787109375,0.0598428286612033,0.1707618832588196,-0.0765272676944732,43.24333190917969,96.19268798828124,-39.18707275390625
307206,0.0849609375,1.011734008789062,-0.6017608642578125,0.4044055342674255,0.2494710832834244,0.139460951089859,43.2608642578125,95.87771606445312,-39.16091918945312
307207,0.0849609375,1.011734008789062,-0.6017608642578125,0.4044055342674255,0.2494710832834244,0.139460951089859,43.2608642578125,95.87771606445312,-39.16091918945312
307208,0.11358642578125,0.999267578125,-0.6360931396484375,0.5525553226470947,0.3204762935638428,0.2323464155197144,43.46762084960938,95.85536193847656,-39.44050598144531
307209,0.08587646484375,0.9875946044921876,-0.603607177734375,0.661246120929718,0.3758822679519653,0.2636894285678864,43.84120178222656,95.55455017089844,-39.93132019042969
307210,0.04339599609375,0.9915313720703124,-0.5814971923828125,0.6741925477981567,0.4035578370094299,0.2361938953399658,44.03903198242188,95.438720703125,-40.11457824707031
307211,0.04339599609375,0.9915313720703124,-0.5814971923828125,0.6741925477981567,0.4035578370094299,0.2361938953399658,44.03903198242188,95.438720703125,-40.11457824707031
307212,0.0212554931640625,1.001480102539062,-0.593994140625,0.7081457376480103,0.4886589050292969,0.1950267404317856,44.23799133300781,95.24440002441406,-40.46302795410156
307213,-0.0466156005859375,1.066452026367188,-0.624542236328125,0.7263577580451965,0.5998914241790771,0.0778945311903953,44.6156005859375,94.9699249267578,-41.26004028320312
307214,-0.0853729248046875,1.10125732421875,-0.615325927734375,0.6751821637153625,0.6144514679908752,-0.006148706190288,44.84844970703125,94.95269775390624,-41.50001525878906
307215,-0.0853729248046875,1.10125732421875,-0.615325927734375,0.6751821637153625,0.6144514679908752,-0.006148706190288,44.84844970703125,94.95269775390624,-41.50001525878906
307216,-0.135528564453125,1.093353271484375,-0.513824462890625,0.5329712629318237,0.4257731437683105,-0.1340651214122772,45.02696228027344,94.8935546875,-42.35748291015625
307217,-0.1341705322265625,1.086990356445312,-0.380279541015625,0.4400583505630493,0.3327481150627136,-0.1438996493816376,45.01434326171875,94.7776336669922,-42.69390869140625
307218,-0.1089630126953125,1.069198608398438,-0.2498779296875,0.300963819026947,0.282844752073288,-0.1127510517835617,45.07493591308594,94.69142150878906,-42.87213134765625
307219,-0.1089630126953125,1.069198608398438,-0.2498779296875,0.300963819026947,0.282844752073288,-0.1127510517835617,45.07493591308594,94.69142150878906,-42.87213134765625
307220,-0.0733642578125,1.027511596679688,-0.1609954833984375,0.1295241713523865,0.2158345580101013,-0.0209452286362648,45.09912109375,94.74830627441406,-43.14268493652344
307221,-0.049102783203125,1.0079345703125,-0.0001678466796875,-0.043650809675455,-0.0472889505326747,0.2564296424388885,45.16302490234375,94.55506896972656,-43.39181518554688
307222,-0.037261962890625,1.040908813476562,0.09185791015625,-0.0102790025994181,-0.1198491752147675,0.3710395991802216,45.22451782226562,94.55795288085938,-43.43150329589844
307223,-0.037261962890625,1.040908813476562,0.09185791015625,-0.0102790025994181,-0.1198491752147675,0.3710395991802216,45.22451782226562,94.55795288085938,-43.43150329589844
307224,-0.035614013671875,1.06109619140625,0.149261474609375,0.0290345810353756,-0.106041744351387,0.4301942586898804,45.43907165527344,94.49040222167967,-43.59170532226562
307225,0.0037078857421875,0.954833984375,0.120391845703125,0.05701694637537,-0.197457417845726,0.45626500248909,45.73397827148438,94.41944885253906,-43.40072631835938
307226,0.0199737548828125,0.89093017578125,0.132293701171875,0.0871524810791015,-0.2889945209026337,0.4148350059986115,45.90557861328125,94.4856414794922,-43.37431335449219
307227,0.0199737548828125,0.89093017578125,0.132293701171875,0.0871524810791015,-0.2889945209026337,0.4148350059986115,45.90557861328125,94.4856414794922,-43.37431335449219
307228,0.03564453125,0.8504791259765625,0.157928466796875,0.1999650448560715,-0.3024094104766846,0.3693468868732452,46.072265625,94.46372985839844,-43.42742919921875
307229,0.06744384765625,0.92584228515625,0.1301422119140625,0.2219076305627823,-0.309259831905365,0.3363591134548187,46.30206298828125,94.33367919921876,-43.35478210449219
307230,0.0731201171875,0.96630859375,0.0638275146484375,0.2042271643877029,-0.4352313578128815,0.304470419883728,46.37606811523438,94.26521301269533,-43.29257202148438
307231,0.0731201171875,0.96630859375,0.0638275146484375,0.2042271643877029,-0.4352313578128815,0.304470419883728,46.37606811523438,94.26521301269533,-43.29257202148438
307232,0.0777435302734375,0.9414215087890624,0.00213623046875,0.1818185299634933,-0.6500051617622375,0.2854035198688507,46.40940856933594,94.3840789794922,-43.72061157226562
307233,0.0834808349609375,0.888763427734375,-0.041107177734375,0.1421353071928024,-1.060555934906006,0.2667225003242493,46.32783508300781,94.242919921875,-43.84503173828125
307234,0.0592041015625,0.8490753173828125,-0.0952301025390625,0.1310653388500214,-1.137781739234924,0.2039358168840408,46.14457702636719,94.06707763671876,-43.95137023925781
307235,0.0592041015625,0.8490753173828125,-0.0952301025390625,0.1310653388500214,-1.137781739234924,0.2039358168840408,46.14457702636719,94.06707763671876,-43.95137023925781
307236,-0.069244384765625,0.8803863525390625,-0.133270263671875,0.079179510474205,-0.7223382592201233,-0.068645104765892,45.78849792480469,94.09994506835938,-43.98463439941406
307237,-0.1820220947265625,0.8807373046875,-0.1250152587890625,0.079179510474205,-0.7223382592201233,-0.068645104765892,45.60316467285156,93.95864868164062,-43.94943237304688
307238,-0.2716217041015625,0.8749847412109375,-0.0485992431640625,0.0668583959341049,-0.6070718169212341,-0.0973393395543098,45.47036743164062,93.89689636230467,-44.04971313476562
307239,-0.2716217041015625,0.8749847412109375,-0.0485992431640625,0.0668583959341049,-0.6070718169212341,-0.0973393395543098,45.47036743164062,93.89689636230467,-44.04971313476562
307240,-0.33099365234375,0.854583740234375,0.0691986083984375,-0.0365950278937816,-0.4068423211574554,-0.1742540895938873,45.22164916992188,93.8460693359375,-43.94248962402344
307241,-0.341156005859375,0.82720947265625,0.082733154296875,-0.1148829087615013,-0.3396055102348328,-0.1787676215171814,45.15022277832031,93.88539123535156,-44.02079772949219
307242,-0.34173583984375,0.8102874755859375,0.1032257080078125,-0.1810416877269745,-0.2525118887424469,-0.1656470149755478,45.11915588378906,93.81553649902344,-43.81439208984375
307243,-0.34173583984375,0.8102874755859375,0.1032257080078125,-0.1810416877269745,-0.2525118887424469,-0.1656470149755478,45.11915588378906,93.81553649902344,-43.81439208984375
307244,-0.3439788818359375,0.8170013427734375,0.1306610107421875,-0.2440792471170425,-0.1277744770050049,-0.1504960358142853,44.91900634765625,93.7644500732422,-43.83970642089844
307245,-0.349029541015625,0.8480224609375,0.1551361083984375,-0.3084252178668976,0.0314942747354507,-0.1451153755187988,44.75357055664062,93.83888244628906,-43.70269775390625
307246,-0.3580322265625,0.912750244140625,0.1911773681640625,-0.4476821720600128,0.3246507942676544,-0.1372220367193222,44.697998046875,94.12161254882812,-43.4654541015625
307247,-0.3580322265625,0.912750244140625,0.1911773681640625,-0.4476821720600128,0.3246507942676544,-0.1372220367193222,44.697998046875,94.12161254882812,-43.4654541015625
307248,-0.3817138671875,0.9361114501953124,0.221954345703125,-0.7074812650680542,0.3368555307388306,-0.1640022546052933,44.65444946289062,94.54974365234376,-43.16905212402344
307249,-0.3875885009765625,0.934722900390625,0.227386474609375,-0.7074812650680542,0.3368555307388306,-0.1640022546052933,44.57125854492188,94.7664031982422,-42.90242004394531
307250,-0.3844757080078125,0.93609619140625,0.2357025146484375,-0.7860714197158813,0.2335967719554901,-0.1399421840906143,44.59710693359375,94.95167541503906,-42.73658752441406
307251,-0.3844757080078125,0.93609619140625,0.2357025146484375,-0.7860714197158813,0.2335967719554901,-0.1399421840906143,44.59710693359375,94.95167541503906,-42.73658752441406
307252,-0.3607940673828125,0.949859619140625,0.2392120361328125,-0.8675057888031006,0.1691253781318665,-0.0963406488299369,44.60636901855469,95.20549011230467,-42.40821838378906
307253,-0.2618560791015625,1.037857055664062,0.136871337890625,-0.9735299944877625,0.1386095434427261,-0.0191420037299394,44.61131286621094,95.64511108398438,-41.57878112792969
307254,-0.1938934326171875,1.089126586914062,0.057220458984375,-0.9509759545326232,0.0801355838775634,-0.02026585675776,44.58601379394531,95.90371704101562,-41.18740844726562
307255,-0.1938934326171875,1.089126586914062,0.057220458984375,-0.9509759545326232,0.0801355838775634,-0.02026585675776,44.58601379394531,95.90371704101562,-41.18740844726562
307256,-0.0743255615234375,1.05633544921875,-0.038726806640625,-0.7567798495292664,0.0315810963511467,-0.0840504318475723,44.38059997558594,96.4028778076172,-40.4117431640625
307257,-0.0364837646484375,1.019912719726562,-0.0846710205078125,-0.6470139026641846,0.0852405950427055,-0.0823494642972946,44.316650390625,96.500732421875,-39.99317932128906
307258,0.0139923095703125,1.02349853515625,-0.13909912109375,-0.5708137154579163,0.1101741716265678,-0.0647771283984184,44.2122802734375,96.67356872558594,-39.61369323730469
307259,0.0139923095703125,1.02349853515625,-0.13909912109375,-0.5708137154579163,0.1101741716265678,-0.0647771283984184,44.2122802734375,96.67356872558594,-39.61369323730469
307260,0.05328369140625,1.061386108398438,-0.20526123046875,-0.5265532732009888,0.1246388703584671,-0.0745519995689392,44.20918273925781,96.71047973632812,-39.13177490234375
307261,0.1195526123046875,1.152618408203125,-0.3614349365234375,-0.413890928030014,-0.0630157142877578,-0.1535669267177582,44.10256958007812,97.0627899169922,-38.5992431640625
307262,0.1212310791015625,1.198715209960938,-0.373992919921875,-0.3400531709194183,-0.1759265512228012,-0.1736950874328613,43.98776245117188,97.02064514160156,-38.30552673339844
307263,0.1212310791015625,1.198715209960938,-0.373992919921875,-0.3400531709194183,-0.1759265512228012,-0.1736950874328613,43.98776245117188,97.02064514160156,-38.30552673339844
307264,0.1353302001953125,1.269790649414062,-0.4150543212890625,0.2339688241481781,-0.4469010531902313,-0.0323760509490966,43.73269653320312,97.11968994140624,-37.95452880859375
307265,0.175872802734375,1.272369384765625,-0.4763946533203125,0.2339688241481781,-0.4469010531902313,-0.0323760509490966,43.65011596679688,97.02774047851562,-37.73774719238281
307266,0.2241668701171875,1.243576049804688,-0.5599822998046875,0.5215097665786743,-0.4361488223075867,0.0762843862175941,43.57131958007812,96.9169464111328,-37.68852233886719
307267,0.2241668701171875,1.243576049804688,-0.5599822998046875,0.5215097665786743,-0.4361488223075867,0.0762843862175941,43.57131958007812,96.9169464111328,-37.68852233886719
307268,0.272735595703125,1.200698852539062,-0.647552490234375,0.78191739320755,-0.4229283630847931,0.190544381737709,43.5087890625,96.80345153808594,-37.63095092773438
307269,0.345458984375,1.08843994140625,-0.67572021484375,1.002063035964966,-0.4585481286048889,0.3645382821559906,43.45951843261719,96.3496551513672,-38.26248168945312
307270,0.3614654541015625,1.037429809570312,-0.6254730224609375,0.9622003436088562,-0.4851270020008087,0.4055671989917755,43.46084594726562,96.05657958984376,-38.66680908203125
307271,0.3614654541015625,1.037429809570312,-0.6254730224609375,0.9622003436088562,-0.4851270020008087,0.4055671989917755,43.46084594726562,96.05657958984376,-38.66680908203125
307272,0.39093017578125,0.98345947265625,-0.566986083984375,0.8764830827713013,-0.462353527545929,0.4915415048599243,43.76814270019531,95.64984130859376,-39.66242980957031
307273,0.387725830078125,1.0018310546875,-0.5322723388671875,0.8496676683425903,-0.42593052983284,0.5259585976600647,43.95252990722656,95.36624145507812,-40.07272338867188
307274,0.379974365234375,1.044296264648438,-0.5059661865234375,0.7811264395713806,-0.3807106018066406,0.5315560102462769,44.1351318359375,95.10655212402344,-40.27330017089844
307275,0.379974365234375,1.044296264648438,-0.5059661865234375,0.7811264395713806,-0.3807106018066406,0.5315560102462769,44.1351318359375,95.10655212402344,-40.27330017089844
307276,0.3563995361328125,1.107284545898438,-0.4812774658203125,0.6617484092712402,-0.3864427804946899,0.4890919327735901,44.30152893066406,94.97821044921876,-40.61878967285156
307277,0.2887420654296875,1.217605590820312,-0.32257080078125,0.3817601501941681,-0.517337441444397,0.360883891582489,44.46867370605469,94.70831298828124,-41.33436584472656
307278,0.252044677734375,1.256637573242188,-0.2185211181640625,0.2919168174266815,-0.5528775453567505,0.261734664440155,44.5853271484375,94.66111755371094,-41.52168273925781
307279,0.252044677734375,1.256637573242188,-0.2185211181640625,0.2919168174266815,-0.5528775453567505,0.261734664440155,44.5853271484375,94.66111755371094,-41.52168273925781
307280,0.1248626708984375,1.287841796875,-0.0578155517578125,0.5839684009552002,-0.5209076404571533,-0.0602329820394516,44.51972961425781,94.57562255859376,-41.70298767089844
307281,0.034332275390625,1.28692626953125,-0.0389556884765625,0.5839684009552002,-0.5209076404571533,-0.0602329820394516,44.48858642578125,94.53205871582033,-41.821533203125
307282,-0.0535736083984375,1.2060546875,-0.03460693359375,0.7381709814071655,-0.6050699353218079,-0.1664448976516724,44.57058715820312,94.2978057861328,-41.98703002929688
307283,-0.0535736083984375,1.2060546875,-0.03460693359375,0.7381709814071655,-0.6050699353218079,-0.1664448976516724,44.57058715820312,94.2978057861328,-41.98703002929688
307284,-0.14453125,1.092575073242188,-0.031494140625,0.8408100008964539,-0.8270902037620544,-0.1741592884063721,44.41972351074219,94.16041564941406,-42.24449157714844
307285,-0.2014617919921875,1.001678466796875,0.0079345703125,0.880766749382019,-1.04444146156311,-0.1328797489404678,44.36151123046875,93.95021057128906,-42.5665283203125
307286,-0.2071075439453125,0.8411102294921875,0.049835205078125,0.7542517185211182,-1.368098616600037,-0.0444351099431514,43.89791870117188,93.51242065429688,-43.27790832519531
307287,-0.1917724609375,0.788299560546875,0.051025390625,0.6533628702163696,-1.476774215698242,-0.0257919151335954,43.54672241210938,93.31803894042967,-43.53564453125
307288,-0.1917724609375,0.788299560546875,0.051025390625,0.6533628702163696,-1.476774215698242,-0.0257919151335954,43.54672241210938,93.31803894042967,-43.53564453125
307289,-0.1674652099609375,0.773223876953125,0.044403076171875,0.6198763251304626,-1.422874808311462,-0.0703668370842933,42.86656188964844,92.97500610351562,-43.96745300292969
307290,-0.1943511962890625,0.7891387939453125,0.026885986328125,0.664914608001709,-1.25417172908783,-0.1071224585175514,42.48817443847656,92.72122192382812,-44.0531005859375
307291,-0.1943511962890625,0.7891387939453125,0.026885986328125,0.664914608001709,-1.25417172908783,-0.1071224585175514,42.48817443847656,92.72122192382812,-44.0531005859375
307292,-0.2439422607421875,0.8018951416015625,0.0119781494140625,0.7434006333351135,-1.013355135917664,-0.1178209111094475,42.16693115234375,92.45269775390624,-44.08964538574219
307293,-0.2839813232421875,0.8116912841796875,-0.00067138671875,0.8179183006286621,-0.8158894777297974,-0.1136842221021652,41.81365966796875,92.2606201171875,-44.44795227050781
307294,-0.2527008056640625,0.7550506591796875,0.0569915771484375,0.6732742786407471,-0.5707364678382874,-0.0658309459686279,41.3055419921875,91.8462371826172,-44.76698303222656
307295,-0.2527008056640625,0.7550506591796875,0.0569915771484375,0.6732742786407471,-0.5707364678382874,-0.0658309459686279,41.3055419921875,91.8462371826172,-44.76698303222656
307296,-0.2015533447265625,0.6993560791015625,0.0867462158203125,0.4774371385574341,-0.4755273759365082,-0.0153605807572603,41.04531860351562,91.55706787109376,-44.96426391601562
307297,-0.1325836181640625,0.637237548828125,0.135040283203125,-0.1991197615861893,-0.3397706151008606,0.1343151926994324,40.717529296875,91.40489196777344,-45.47618103027344
307298,-0.100433349609375,0.6327056884765625,0.1568145751953125,-0.1991197615861893,-0.3397706151008606,0.1343151926994324,40.58827209472656,91.30525207519533,-45.45730590820312
307299,-0.100433349609375,0.6327056884765625,0.1568145751953125,-0.1991197615861893,-0.3397706151008606,0.1343151926994324,40.58827209472656,91.30525207519533,-45.45730590820312
307300,-0.0635223388671875,0.6715240478515625,0.20159912109375,-0.398498922586441,-0.3077698051929474,0.189742773771286,40.44601440429688,91.25602722167967,-45.47904968261719
307301,-0.092376708984375,0.9267425537109376,0.231353759765625,-0.6735504269599915,-0.1500379741191864,0.1753742098808289,40.43560791015625,91.44601440429688,-45.17646789550781
307302,-0.1221466064453125,0.993927001953125,0.2130889892578125,-0.7001000642776489,-0.1258572638034821,0.1505114734172821,40.45761108398438,91.77880859375,-44.96929931640625
307303,-0.1221466064453125,0.993927001953125,0.2130889892578125,-0.7001000642776489,-0.1258572638034821,0.1505114734172821,40.45761108398438,91.77880859375,-44.96929931640625
307304,-0.1118011474609375,1.0330810546875,0.2226409912109375,-0.6971247792243958,-0.0724084228277206,0.12771375477314,40.49818420410156,91.93365478515624,-44.62364196777344
307305,-0.0867156982421875,1.060317993164062,0.2439117431640625,-0.7074077725410461,0.0158000010997057,0.110607735812664,40.51834106445312,92.11549377441406,-44.39694213867188
307306,-0.0501251220703125,1.094207763671875,0.25933837890625,-0.7729915380477905,0.1231978312134743,0.0786039978265762,40.50535583496094,92.52772521972656,-43.85520935058594
307307,-0.0480194091796875,1.108856201171875,0.2430877685546875,-0.8475880026817322,0.0944950804114341,0.0072294170968234,40.44520568847656,92.76190185546876,-43.47720336914062
307308,-0.0480194091796875,1.108856201171875,0.2430877685546875,-0.8475880026817322,0.0944950804114341,0.0072294170968234,40.44520568847656,92.76190185546876,-43.47720336914062
307309,-0.0740509033203125,1.137985229492188,0.1596527099609375,-0.8813638091087341,0.0434950143098831,-0.0527910441160202,40.5225830078125,93.3621826171875,-42.85015869140625
307310,-0.0914306640625,1.16162109375,0.105804443359375,-0.8813928365707397,-0.0659939274191856,-0.1215152442455292,40.61567687988281,93.49684143066406,-42.54925537109375
307311,-0.0914306640625,1.16162109375,0.105804443359375,-0.8813928365707397,-0.0659939274191856,-0.1215152442455292,40.61567687988281,93.49684143066406,-42.54925537109375
307312,-0.1100311279296875,1.203140258789062,0.0526580810546875,-0.8050751686096191,-0.0882973745465278,-0.2263825386762619,40.49494934082031,93.88543701171876,-41.81529235839844
307313,-0.120819091796875,1.2255859375,0.0158233642578125,-0.7093111276626587,-0.043446809053421,-0.2550850212574005,40.4005126953125,94.08503723144533,-41.37879943847656
307314,-0.1253509521484375,1.2467041015625,-0.0176544189453125,-0.5688139200210571,0.0571572966873645,-0.2633658647537231,40.27735900878906,94.39601135253906,-41.01777648925781
307315,-0.1253509521484375,1.2467041015625,-0.0176544189453125,-0.5688139200210571,0.0571572966873645,-0.2633658647537231,40.27735900878906,94.39601135253906,-41.01777648925781
307316,-0.1197662353515625,1.258010864257812,-0.068206787109375,-0.407660186290741,0.199717104434967,-0.2480657249689102,40.13777160644531,94.6429443359375,-40.76556396484375
307317,-0.0811920166015625,1.227294921875,-0.1901092529296875,-0.1737542152404785,0.363350510597229,-0.1711118221282959,39.929931640625,94.77473449707033,-40.21438598632812
307318,-0.0574493408203125,1.18353271484375,-0.2256622314453125,-0.1365360021591187,0.3000426590442657,-0.1599052399396896,39.80906677246094,94.94367980957033,-39.96856689453125
307319,-0.0574493408203125,1.18353271484375,-0.2256622314453125,-0.1365360021591187,0.3000426590442657,-0.1599052399396896,39.80906677246094,94.94367980957033,-39.96856689453125
307320,-0.0389556884765625,1.088668823242188,-0.215545654296875,-0.1530963480472565,0.2500005066394806,-0.1667636781930923,39.73127746582031,95.087158203125,-39.8104248046875
307321,0.0409698486328125,0.90399169921875,-0.305206298828125,-0.1970273107290268,0.14120052754879,-0.2048018872737885,39.75996398925781,95.07131958007812,-39.7125244140625
307322,0.080535888671875,0.84857177734375,-0.3759918212890625,-0.1792967915534973,0.0657350718975067,-0.1981045603752136,39.67874145507812,95.11257934570312,-39.5191650390625
307323,0.080535888671875,0.84857177734375,-0.3759918212890625,-0.1792967915534973,0.0657350718975067,-0.1981045603752136,39.67874145507812,95.11257934570312,-39.5191650390625
307324,0.1408538818359375,0.8485107421875,-0.5170440673828125,-0.0820724964141845,-0.0300377942621707,-0.120501384139061,39.56629943847656,95.05101013183594,-39.38821411132812
307325,0.16253662109375,0.902557373046875,-0.5947113037109375,0.0272622480988502,0.0014458301011472,-0.0436947494745254,39.61717224121094,94.96305847167967,-39.22280883789062
307326,0.1672821044921875,0.97088623046875,-0.6524200439453125,0.2749098539352417,0.1798768192529678,0.0798484906554222,39.54922485351562,94.93551635742188,-39.22334289550781
307327,0.153411865234375,1.0377197265625,-0.665252685546875,0.2749098539352417,0.1798768192529678,0.0798484906554222,39.62860107421875,94.94589233398438,-39.21279907226562
307328,0.153411865234375,1.0377197265625,-0.665252685546875,0.2749098539352417,0.1798768192529678,0.0798484906554222,39.62860107421875,94.94589233398438,-39.21279907226562
307329,0.06976318359375,1.126373291015625,-0.609588623046875,0.4806971251964569,0.3449989259243011,0.0896702334284782,39.74577331542969,94.72802734375,-39.23835754394531
307330,0.0368194580078125,1.129287719726562,-0.5938720703125,0.5721955895423889,0.4186760783195496,0.0756771862506866,39.92098999023438,94.63552856445312,-39.25514221191406
307331,0.0368194580078125,1.129287719726562,-0.5938720703125,0.5721955895423889,0.4186760783195496,0.0756771862506866,39.92098999023438,94.63552856445312,-39.25514221191406
307332,0.023529052734375,1.083602905273438,-0.603485107421875,0.5942947864532471,0.6425278186798096,0.0368538871407508,40.19671630859375,94.38217163085938,-39.97488403320312
