time_idx,accelerometerAccelerationX(G),accelerometerAccelerationY(G),accelerometerAccelerationZ(G),gyroRotationX(rad/s),gyroRotationY(rad/s),gyroRotationZ(rad/s),magnetometerX(µT),magnetometerY(µT),magnetometerZ(µT)
143768,-0.5709381103515625,0.5398406982421875,-0.031890869140625,-0.7740887999534607,0.3770812451839447,-0.6893664598464966,40.68717956542969,99.52140808105467,-19.17448425292969
143769,-0.5600128173828125,0.580352783203125,-0.0891571044921875,-0.8647686243057251,0.1877275556325912,-0.6408202052116394,40.28326416015625,99.4546356201172,-18.86788940429688
143770,-0.5600128173828125,0.580352783203125,-0.0891571044921875,-0.8647686243057251,0.1877275556325912,-0.6408202052116394,40.28326416015625,99.4546356201172,-18.86788940429688
143771,-0.5546112060546875,0.6685943603515625,-0.1571044921875,-0.9408737421035768,-0.0376720130443573,-0.6197255849838257,39.84088134765625,99.46315002441406,-18.6593017578125
143772,-0.5178375244140625,0.8285369873046875,-0.3062744140625,-0.9563589692115784,-0.4922315180301666,-0.5744765996932983,39.08445739746094,99.28396606445312,-17.55311584472656
143773,-0.4908294677734375,0.9087371826171876,-0.3088226318359375,-0.9456387162208556,-0.594906747341156,-0.5462963581085205,38.75619506835938,99.1649932861328,-17.03096008300781
143774,-0.471893310546875,1.003250122070312,-0.3036041259765625,-0.9284130930900574,-0.5734238624572754,-0.5509310364723206,38.29489135742188,99.22586059570312,-16.59169006347656
143775,-0.471893310546875,1.003250122070312,-0.3036041259765625,-0.9284130930900574,-0.5734238624572754,-0.5509310364723206,38.29489135742188,99.22586059570312,-16.59169006347656
143776,-0.475982666015625,1.139633178710938,-0.32489013671875,-0.7911500334739685,-0.4072465896606445,-0.6438482403755188,37.52845764160156,98.85572814941406,-15.38543701171875
143777,-0.525787353515625,1.188095092773438,-0.36407470703125,-0.67021244764328,-0.3352147340774536,-0.6299630403518677,37.14616394042969,98.5874481201172,-14.80813598632812
143778,-0.525787353515625,1.188095092773438,-0.36407470703125,-0.67021244764328,-0.3352147340774536,-0.6299630403518677,37.14616394042969,98.5874481201172,-14.80813598632812
143779,-0.600250244140625,1.217819213867188,-0.4250640869140625,-0.4880042970180511,-0.2826242446899414,-0.5652759075164795,36.71290588378906,98.49102783203124,-14.37873840332031
143780,-0.6600494384765625,1.195175170898438,-0.5830535888671875,-0.015558186918497,-0.3685788214206696,-0.3088273406028748,36.06353759765625,98.2290496826172,-13.68843078613281
143781,-0.62701416015625,1.158172607421875,-0.6429901123046875,0.225365474820137,-0.3542235791683197,-0.1605766266584396,35.84449768066406,98.24191284179688,-13.50607299804688
143782,-0.62701416015625,1.158172607421875,-0.6429901123046875,0.225365474820137,-0.3542235791683197,-0.1605766266584396,35.84449768066406,98.24191284179688,-13.50607299804688
143783,-0.59906005859375,1.127471923828125,-0.707305908203125,0.4460738897323608,-0.3025870323181152,-0.0189598426222801,35.69662475585938,98.29371643066406,-13.55105590820312
143784,-0.548553466796875,1.112808227539062,-0.720367431640625,0.7505261898040771,0.0090949609875679,0.2206351757049561,35.64076232910156,98.17088317871094,-13.75865173339844
143785,-0.5153045654296875,1.114059448242188,-0.686553955078125,0.8019140362739563,0.1973221302032471,0.26637202501297,35.77587890625,98.11750793457033,-13.81932067871094
143786,-0.5153045654296875,1.114059448242188,-0.686553955078125,0.8019140362739563,0.1973221302032471,0.26637202501297,35.77587890625,98.11750793457033,-13.81932067871094
143787,-0.5047454833984375,1.088287353515625,-0.650299072265625,0.7776898741722107,0.352778285741806,0.2798457741737366,35.89347839355469,98.26583862304688,-14.35670471191406
143788,-0.520751953125,1.080230712890625,-0.5288238525390625,0.6064691543579102,0.465381532907486,0.351323664188385,36.24678039550781,98.2746124267578,-15.21574401855469
143789,-0.5289459228515625,1.099746704101562,-0.4439849853515625,0.5130345225334167,0.5116068124771118,0.3834696412086487,36.42860412597656,98.45407104492188,-15.55160522460938
143790,-0.536407470703125,1.108261108398438,-0.365447998046875,0.4299359321594238,0.5613040924072266,0.3918668329715729,36.69329833984375,98.38899230957033,-15.65447998046875
143791,-0.536407470703125,1.108261108398438,-0.365447998046875,0.4299359321594238,0.5613040924072266,0.3918668329715729,36.69329833984375,98.38899230957033,-15.65447998046875
143792,-0.601654052734375,1.118316650390625,-0.213043212890625,0.3498536050319672,0.6263938546180725,0.3571860790252686,37.1033935546875,98.60397338867188,-16.07586669921875
143793,-0.6409759521484375,1.125686645507812,-0.16619873046875,0.36805659532547,0.6151909828186035,0.3052137196063995,37.32810974121094,98.66880798339844,-16.21676635742188
143794,-0.6409759521484375,1.125686645507812,-0.16619873046875,0.36805659532547,0.6151909828186035,0.3052137196063995,37.32810974121094,98.66880798339844,-16.21676635742188
143795,-0.739654541015625,1.145721435546875,-0.1037445068359375,0.4385091662406921,0.5992426872253418,0.1146165952086449,37.58779907226562,99.03102111816406,-17.23408508300781
143796,-0.794586181640625,1.100509643554688,-0.073272705078125,0.4543400704860687,0.5820133686065674,0.0067761470563709,37.63861083984375,99.11056518554688,-17.49427795410156
143797,-0.84930419921875,1.02691650390625,-0.0690460205078125,0.4941910803318024,0.5378365516662598,-0.0523449629545211,37.78250122070312,99.240234375,-17.77944946289062
143798,-0.8691253662109375,0.95098876953125,-0.0861968994140625,0.5229665637016296,0.4694921374320984,-0.06065109744668,37.76945495605469,99.1964111328125,-17.98701477050781
143799,-0.8691253662109375,0.95098876953125,-0.0861968994140625,0.5229665637016296,0.4694921374320984,-0.06065109744668,37.76945495605469,99.1964111328125,-17.98701477050781
143800,-0.8539886474609375,0.8942108154296875,-0.128326416015625,0.5421063899993896,0.3586577475070953,-0.0537260770797729,37.76239013671875,99.21035766601562,-18.37542724609375
143801,-0.7470703125,0.7772674560546875,-0.183624267578125,0.6299111247062683,0.0230163689702749,0.0108089717105031,37.88203430175781,99.1429443359375,-18.68902587890625
143802,-0.7470703125,0.7772674560546875,-0.183624267578125,0.6299111247062683,0.0230163689702749,0.0108089717105031,37.88203430175781,99.1429443359375,-18.68902587890625
143803,-0.6014862060546875,0.6953277587890625,-0.1371612548828125,0.7520284652709961,-0.1389725357294083,0.0757783874869346,38.15740966796875,99.13333129882812,-19.20787048339844
143804,-0.6014862060546875,0.6953277587890625,-0.1371612548828125,0.7520284652709961,-0.1389725357294083,0.0757783874869346,38.15740966796875,99.13333129882812,-19.20787048339844
143805,-0.5408477783203125,0.5983123779296875,-0.043060302734375,0.7182241678237915,-0.0705719068646431,0.0636016130447387,38.50392150878906,98.99215698242188,-19.59098815917969
143806,-0.481292724609375,0.4967498779296875,0.03607177734375,0.7278611063957214,0.0024431839119642,-0.00332708703354,38.84696960449219,98.8656768798828,-20.3612060546875
143807,-0.481292724609375,0.4967498779296875,0.03607177734375,0.7278611063957214,0.0024431839119642,-0.00332708703354,38.84696960449219,98.8656768798828,-20.3612060546875
143808,-0.481292724609375,0.4967498779296875,0.03607177734375,0.7278611063957214,0.0024431839119642,-0.00332708703354,38.84696960449219,98.8656768798828,-20.3612060546875
143809,-0.45965576171875,0.4401702880859375,0.096405029296875,0.6966203451156616,0.2175853252410889,-0.0441693253815174,38.97593688964844,98.83258056640624,-20.91339111328125
143810,-0.449798583984375,0.3886871337890625,0.1070556640625,0.6148676872253418,0.4545528590679169,-0.0973598435521125,39.07563781738281,98.65087890625,-21.00883483886719
143811,-0.39892578125,0.320068359375,0.13226318359375,0.3580998182296753,0.5753546357154846,-0.1142229810357094,38.97845458984375,98.9093017578125,-21.90287780761719
143812,-0.350799560546875,0.30712890625,0.1810760498046875,0.1729744374752045,0.5052866339683533,-0.0783483311533927,39.02751159667969,98.96871948242188,-22.22224426269531
143813,-0.3005828857421875,0.3069610595703125,0.2101898193359375,-0.0237428806722164,0.3392792642116547,-0.0286739896982908,39.06378173828125,99.0486297607422,-22.47257995605469
143814,-0.3005828857421875,0.3069610595703125,0.2101898193359375,-0.0237428806722164,0.3392792642116547,-0.0286739896982908,39.06378173828125,99.0486297607422,-22.47257995605469
143815,-0.26690673828125,0.3363189697265625,0.249542236328125,-0.199965313076973,0.1234052926301956,0.0124739799648523,39.09725952148438,98.94705200195312,-22.575927734375
143816,-0.381072998046875,0.5651397705078125,0.398956298828125,-0.4728538393974304,-0.1066287085413933,0.0461808107793331,39.1729736328125,98.90066528320312,-22.61512756347656
143817,-0.514495849609375,0.6959228515625,0.3849334716796875,-0.6008645296096802,0.0574337318539619,-0.0091463606804609,39.14881896972656,99.01629638671876,-22.33454895019531
143818,-0.615509033203125,0.76434326171875,0.25482177734375,-0.6878793239593506,0.0782202333211898,-0.0840552225708961,39.15788269042969,99.07057189941406,-22.18287658691406
143819,-0.6786041259765625,0.807464599609375,0.1744537353515625,-0.7350580096244812,-0.0517295077443122,-0.1569009274244308,39.13650512695312,99.04672241210938,-21.86985778808594
143820,-0.6786041259765625,0.807464599609375,0.1744537353515625,-0.7350580096244812,-0.0517295077443122,-0.1569009274244308,39.13650512695312,99.04672241210938,-21.86985778808594
143821,-0.67529296875,0.8617095947265625,0.216033935546875,-0.8571775555610657,-0.1732958853244781,-0.2089766561985016,38.92030334472656,99.10212707519533,-21.46217346191406
143822,-0.67529296875,0.8617095947265625,0.216033935546875,-0.8571775555610657,-0.1732958853244781,-0.2089766561985016,38.92030334472656,99.10212707519533,-21.46217346191406
143823,-0.6246795654296875,0.8795623779296875,0.2358551025390625,-0.944574773311615,-0.2022511065006256,-0.2169126123189926,38.71269226074219,99.14984130859376,-21.13992309570312
143824,-0.588653564453125,0.8813018798828125,0.2577667236328125,-1.033638596534729,-0.2470816969871521,-0.2502106428146362,38.55778503417969,99.24256896972656,-20.63555908203125
143825,-0.5706787109375,0.8419036865234375,0.264923095703125,-1.072341799736023,-0.2622332274913788,-0.3050395250320435,38.33314514160156,99.27255249023438,-20.00849914550781
143826,-0.5626220703125,0.8054656982421875,0.2624053955078125,-1.068907618522644,-0.245500311255455,-0.3425573408603668,38.16624450683594,99.09849548339844,-19.3375244140625
143827,-0.5931396484375,0.835174560546875,0.224090576171875,-1.037913799285889,-0.2297855317592621,-0.4244434237480164,37.97758483886719,99.16383361816406,-18.8843994140625
143828,-0.606292724609375,0.8242340087890625,0.1543121337890625,-0.996582806110382,-0.2867537438869476,-0.4780523180961609,37.77987670898438,98.9897003173828,-18.46328735351562
143829,-0.62103271484375,0.817657470703125,0.0666961669921875,-0.929123878479004,-0.3426702618598938,-0.5106906890869141,37.44921875,99.02284240722656,-18.0760498046875
143830,-0.62896728515625,0.7864532470703125,-0.069183349609375,-0.8408097624778748,-0.4171551465988159,-0.5605626702308655,37.15789794921875,98.91590881347656,-17.51130676269531
143831,-0.6086273193359375,0.7249908447265625,-0.1957855224609375,-0.7507269978523254,-0.5061113834381104,-0.573303759098053,36.78309631347656,99.05787658691406,-17.07450866699219
143832,-0.5898284912109375,0.7217559814453125,-0.2837982177734375,-0.651381254196167,-0.4527035653591156,-0.5936346054077148,36.41827392578125,98.94078063964844,-16.58174133300781
143833,-0.556793212890625,0.7535247802734375,-0.3655853271484375,-0.5605447888374329,-0.3420790433883667,-0.6097860932350159,36.03437805175781,98.92507934570312,-16.11000061035156
143834,-0.540802001953125,0.8204193115234375,-0.4353179931640625,-0.4761761426925659,-0.1926464140415192,-0.6265110373497009,35.72219848632812,98.71662902832033,-15.67048645019531
143835,-0.5454559326171875,0.9168853759765624,-0.5044403076171875,-0.4148933291435242,-0.1131920665502548,-0.6363559365272522,35.35890197753906,98.59088134765624,-15.32749938964844
143836,-0.5748748779296875,1.019943237304688,-0.5671234130859375,-0.3827577531337738,-0.1427827179431915,-0.5936649441719055,34.91203308105469,98.5036163330078,-15.15127563476562
143837,-0.6219329833984375,1.083572387695312,-0.5888824462890625,-0.3404132425785065,-0.217033252120018,-0.5342522263526917,34.49482727050781,98.34423828125,-14.94831848144531
143838,-0.648101806640625,1.10430908203125,-0.556854248046875,-0.2727609574794769,-0.2518279850482941,-0.4253808557987213,34.17564392089844,98.22566223144533,-14.60165405273438
143839,-0.6832122802734375,1.01116943359375,-0.5192718505859375,-0.0948143899440765,-0.0679564103484153,-0.1023735105991364,33.66355895996094,98.05740356445312,-14.26925659179688
143840,-0.6832122802734375,1.01116943359375,-0.5192718505859375,-0.0948143899440765,-0.0679564103484153,-0.1023735105991364,33.66355895996094,98.05740356445312,-14.26925659179688
143841,-0.7026214599609375,0.94122314453125,-0.536590576171875,-0.0203609317541122,0.1137273609638214,0.0968208163976669,33.61062622070312,97.90843200683594,-14.01512145996094
143842,-0.7119293212890625,0.9023284912109376,-0.58917236328125,0.0387591123580932,0.3008226752281189,0.2674309015274048,33.47541809082031,97.70692443847656,-13.83436584472656
143843,-0.6660614013671875,0.88250732421875,-0.6434783935546875,0.0693045035004615,0.4655559659004211,0.4257608950138092,33.47233581542969,97.84780883789062,-13.77255249023438
143844,-0.6037750244140625,0.896026611328125,-0.6393280029296875,0.067790500819683,0.6334107518196106,0.5342910885810852,33.56681823730469,97.88914489746094,-13.76358032226562
143845,-0.543426513671875,0.9246978759765624,-0.6024322509765625,0.0301427226513624,0.8044877052307129,0.6059471964836121,33.82357788085938,98.00877380371094,-13.88566589355469
143846,-0.500640869140625,0.9781494140625,-0.517181396484375,-0.0525702685117721,1.006331920623779,0.6002253890037537,34.33283996582031,98.22671508789062,-14.11213684082031
143847,-0.500640869140625,0.9781494140625,-0.517181396484375,-0.0525702685117721,1.006331920623779,0.6002253890037537,34.33283996582031,98.22671508789062,-14.11213684082031
143848,-0.51849365234375,1.002853393554688,-0.48052978515625,-0.0919946357607841,1.047088146209717,0.5662274360656738,34.60205078125,98.4241180419922,-14.25138854980469
143849,-0.5459136962890625,1.037246704101562,-0.4494476318359375,-0.1143723800778389,1.0975182056427,0.5134862065315247,34.91844177246094,98.5178680419922,-14.27603149414062
143850,-0.5855865478515625,1.074462890625,-0.4259490966796875,-0.0990200564265251,1.160911798477173,0.4589971303939819,35.05891418457031,98.66062927246094,-14.40411376953125
143851,-0.6389617919921875,1.111495971679688,-0.3896026611328125,-0.0649254694581031,1.181295990943909,0.3825937211513519,35.22193908691406,98.70082092285156,-14.58503723144531
143852,-0.7060089111328125,1.137283325195312,-0.333953857421875,-0.0844917148351669,1.143071055412292,0.2931264042854309,35.49833679199219,98.6072998046875,-14.58084106445312
143853,-0.7682037353515625,1.145858764648438,-0.2730255126953125,-0.1611524075269699,1.042818784713745,0.199417769908905,35.67384338378906,98.73635864257812,-14.79722595214844
143854,-0.82098388671875,1.13226318359375,-0.2231597900390625,-0.2123697847127914,0.887791633605957,0.123233251273632,35.77310180664062,98.92788696289062,-14.79910278320312
143855,-0.843841552734375,1.086822509765625,-0.1721343994140625,-0.1769553422927856,0.7570781111717224,0.0977603793144226,35.93928527832031,98.88543701171876,-14.88059997558594
143856,-0.81060791015625,1.018295288085938,-0.147918701171875,-0.0627776309847831,0.6532153487205505,0.1978060156106949,36.13627624511719,98.83625793457033,-14.76231384277344
143857,-0.7471160888671875,0.9783782958984376,-0.138031005859375,0.0922532305121421,0.5475208759307861,0.3655588030815125,36.33372497558594,98.76014709472656,-14.81097412109375
143858,-0.6322479248046875,0.9082183837890624,-0.1501007080078125,0.2434672564268112,0.3675274252891541,0.5305160880088806,36.54328918457031,98.8221435546875,-14.71803283691406
143859,-0.51678466796875,0.8070526123046875,-0.120819091796875,0.3238156139850616,0.2094602882862091,0.6601787209510803,36.81320190429688,98.8374481201172,-14.70834350585938
143860,-0.4449920654296875,0.7199249267578125,-0.0538330078125,0.2979826927185059,0.0993380397558212,0.7568464279174805,37.04925537109375,98.94252014160156,-14.99427795410156
143861,-0.418212890625,0.666168212890625,0.023529052734375,0.2158159166574478,0.0152063835412263,0.7987453937530518,37.4583740234375,98.96829223632812,-15.36506652832031
143862,-0.4148101806640625,0.6415252685546875,0.1217803955078125,0.1386604160070419,-0.0118766333907842,0.7776718139648438,37.9183349609375,98.98696899414062,-15.46726989746094
143863,-0.403350830078125,0.5948638916015625,0.26556396484375,0.0075276908464729,0.0596135295927524,0.6494557857513428,38.98880004882812,99.09329223632812,-15.59159851074219
143864,-0.403350830078125,0.5948638916015625,0.26556396484375,0.0075276908464729,0.0596135295927524,0.6494557857513428,38.98880004882812,99.09329223632812,-15.59159851074219
143865,-0.4150848388671875,0.575103759765625,0.2832489013671875,-0.0381561741232872,0.1641425937414169,0.5742936134338379,39.47119140625,99.12611389160156,-15.57792663574219
143866,-0.412384033203125,0.5533599853515625,0.273406982421875,-0.0804993659257888,0.3074262738227844,0.4987562596797943,39.89447021484375,99.24073791503906,-15.5255126953125
143867,-0.3864593505859375,0.5377197265625,0.2565460205078125,-0.1315851956605911,0.4449225962162018,0.4551853537559509,40.13172912597656,99.2316436767578,-15.58163452148438
143868,-0.3615875244140625,0.5487518310546875,0.2609405517578125,-0.2051920294761658,0.5728877782821655,0.4309215545654297,40.42678833007812,99.2937469482422,-15.62052917480469
143869,-0.3509063720703125,0.5750885009765625,0.2577667236328125,-0.2894786894321442,0.6733869314193726,0.4154363572597504,40.671630859375,99.42076110839844,-15.57882690429688
143870,-0.352386474609375,0.6066741943359375,0.2048187255859375,-0.3457267880439758,0.6798048615455627,0.3819625377655029,40.81217956542969,99.27162170410156,-15.36691284179688
143871,-0.399017333984375,0.7014007568359375,0.1096038818359375,-0.3586553633213043,0.5112577080726624,0.2395127266645432,41.24235534667969,99.30111694335938,-15.24322509765625
143872,-0.399017333984375,0.7014007568359375,0.1096038818359375,-0.3586553633213043,0.5112577080726624,0.2395127266645432,41.24235534667969,99.30111694335938,-15.24322509765625
143873,-0.4196624755859375,0.728515625,0.0903472900390625,-0.3337747752666473,0.4941135942935944,0.1326592415571213,41.41888427734375,99.28199768066406,-15.11163330078125
143874,-0.430419921875,0.740234375,0.0735931396484375,-0.2943570613861084,0.5018498301506042,0.00650051003322,41.52128601074219,99.2666473388672,-14.94047546386719
143875,-0.4398651123046875,0.7387847900390625,0.0460662841796875,-0.2489759922027588,0.4841938316822052,-0.1203932538628578,41.5462646484375,99.195556640625,-14.84455871582031
143876,-0.4492034912109375,0.73504638671875,0.0146942138671875,-0.2214200049638748,0.4180587530136108,-0.2315615862607956,41.61172485351562,99.22184753417967,-14.81700134277344
143877,-0.4573822021484375,0.7310943603515625,-0.014129638671875,-0.224803552031517,0.2913069427013397,-0.3191710710525513,41.54290771484375,99.25906372070312,-14.6331787109375
143878,-0.4665069580078125,0.7349853515625,-0.020172119140625,-0.2432707101106644,0.161053329706192,-0.3886755704879761,41.40264892578125,99.24038696289062,-14.58511352539062
143879,-0.48040771484375,0.733245849609375,-0.0041961669921875,-0.2585985362529755,0.0808112248778343,-0.4400844275951385,41.27157592773438,99.2939453125,-14.50715637207031
143880,-0.4974517822265625,0.732940673828125,0.0063629150390625,-0.2832618057727814,0.0716653987765312,-0.4817653000354767,41.07330322265625,99.28561401367188,-14.39414978027344
143881,-0.5059356689453125,0.714263916015625,-0.00482177734375,-0.314109742641449,0.096017874777317,-0.5102608799934387,40.84295654296875,99.3546142578125,-14.23695373535156
143882,-0.5305023193359375,0.69757080078125,-0.008697509765625,-0.4140677452087402,0.2455708831548691,-0.5453882217407227,40.34487915039062,99.1777801513672,-14.141845703125
143883,-0.5305023193359375,0.69757080078125,-0.008697509765625,-0.4140677452087402,0.2455708831548691,-0.5453882217407227,40.34487915039062,99.1777801513672,-14.141845703125
143884,-0.5471954345703125,0.688507080078125,-0.0062713623046875,-0.4304682910442352,0.2776763439178467,-0.5630031824111938,40.0482177734375,99.08821105957033,-13.95675659179688
143885,-0.56658935546875,0.67388916015625,0.0203399658203125,-0.4498523771762848,0.2954915761947632,-0.5838021636009216,39.73831176757812,98.97344970703124,-13.90945434570312
143886,-0.58953857421875,0.670257568359375,0.0385894775390625,-0.4941519200801849,0.322822779417038,-0.6189455389976501,39.44746398925781,98.87437438964844,-13.78257751464844
143887,-0.6051025390625,0.664794921875,0.024688720703125,-0.5366842150688171,0.2979925572872162,-0.6705951690673828,39.06338500976562,98.87725830078124,-13.59919738769531
143888,-0.607574462890625,0.652618408203125,0.0183258056640625,-0.5810617804527283,0.2453804612159729,-0.7035810351371765,38.72164916992188,98.77117919921876,-13.27749633789062
143889,-0.6105804443359375,0.6660919189453125,0.016143798828125,-0.63823401927948,0.2286856472492218,-0.7129151821136475,38.43167114257812,98.69450378417967,-12.97540283203125
143890,-0.61126708984375,0.708343505859375,-0.0192413330078125,-0.6698422431945801,0.1700423061847687,-0.6962195634841919,38.11006164550781,98.565673828125,-12.55278015136719
143891,-0.612213134765625,0.75537109375,-0.065826416015625,-0.6675497889518738,0.1002371236681938,-0.677154004573822,37.65043640136719,98.43800354003906,-12.33473205566406
143892,-0.5654296875,0.8787841796875,-0.1997222900390625,-0.5610324144363403,-0.0894835442304611,-0.5712741613388062,36.65321350097656,98.45912170410156,-12.04229736328125
143893,-0.5654296875,0.8787841796875,-0.1997222900390625,-0.5610324144363403,-0.0894835442304611,-0.5712741613388062,36.65321350097656,98.45912170410156,-12.04229736328125
143894,-0.5379180908203125,0.9533233642578124,-0.260528564453125,-0.5005962252616882,-0.1404338032007217,-0.5254267454147339,36.32566833496094,98.27154541015624,-11.70710754394531
143895,-0.50018310546875,1.009811401367188,-0.305206298828125,-0.4528681337833405,-0.1778205931186676,-0.4673104584217072,35.96902465820312,98.18165588378906,-11.40361022949219
143896,-0.4611358642578125,1.049423217773438,-0.352630615234375,-0.4303913414478302,-0.2569087445735931,-0.4067453742027283,35.68000793457031,98.0615234375,-11.17674255371094
143897,-0.456756591796875,1.078781127929688,-0.4140472412109375,-0.3890020847320557,-0.3213609755039215,-0.3530504703521729,35.39056396484375,98.00274658203124,-10.92558288574219
143898,-0.4683685302734375,1.065231323242188,-0.4914398193359375,-0.2970167696475983,-0.4044271111488342,-0.3150069415569305,35.09663391113281,97.83303833007812,-10.69068908691406
143899,-0.462677001953125,1.019424438476562,-0.539337158203125,-0.1893893629312515,-0.437807708978653,-0.25302454829216,34.85530090332031,97.7921905517578,-10.35061645507812
143900,-0.452301025390625,0.9863433837890624,-0.592620849609375,-0.0275757014751434,-0.4202593266963959,-0.1654294431209564,34.65873718261719,97.62229919433594,-10.16026306152344
143901,-0.4523162841796875,1.0147705078125,-0.7340545654296875,0.3563157618045807,-0.30002161860466,0.0534286051988601,34.4310302734375,97.34294128417967,-9.568206787109377
143902,-0.4523162841796875,1.0147705078125,-0.7340545654296875,0.3563157618045807,-0.30002161860466,0.0534286051988601,34.4310302734375,97.34294128417967,-9.568206787109377
143903,-0.4644622802734375,1.101043701171875,-0.7748870849609375,0.5081204771995544,-0.2334428429603577,0.1558865308761597,34.42764282226562,97.22723388671876,-9.55474853515625
143904,-0.473876953125,1.202438354492188,-0.7742919921875,0.6019551157951355,-0.1022592633962631,0.2386032491922379,34.37510681152344,97.36959838867188,-9.594573974609377
143905,-0.4819488525390625,1.28558349609375,-0.749298095703125,0.6224542260169983,0.0812799409031868,0.247205525636673,34.467529296875,97.49934387207033,-9.642227172851562
143906,-0.49029541015625,1.2806396484375,-0.7209014892578125,0.6063809990882874,0.2381241470575333,0.268392026424408,34.55503845214844,97.47084045410156,-9.79010009765625
143907,-0.520538330078125,1.23883056640625,-0.6672515869140625,0.5852711796760559,0.3578058183193207,0.3137334287166595,34.72506713867188,97.4049835205078,-9.946075439453123
143908,-0.5047607421875,1.201126098632812,-0.62091064453125,0.5493946671485901,0.4544700384140015,0.3703144192695618,34.87211608886719,97.54324340820312,-10.45921325683594
143909,-0.4300384521484375,1.158767700195312,-0.460601806640625,0.4049552083015442,0.4354036748409271,0.3985002338886261,35.18351745605469,97.79981994628906,-11.18289184570312
143910,-0.4300384521484375,1.158767700195312,-0.460601806640625,0.4049552083015442,0.4354036748409271,0.3985002338886261,35.18351745605469,97.79981994628906,-11.18289184570312
143911,-0.4331512451171875,1.139266967773438,-0.367401123046875,0.3335606455802917,0.4012153446674347,0.3602724373340607,35.42338562011719,97.8354034423828,-11.4825439453125
143912,-0.4705657958984375,1.137786865234375,-0.3073883056640625,0.3147635459899902,0.3213154375553131,0.256768673658371,35.63206481933594,98.0220947265625,-11.88436889648438
143913,-0.5337066650390625,1.154403686523438,-0.239501953125,0.3403221666812897,0.1968470215797424,0.1061554625630379,35.74990844726562,98.1264190673828,-12.00785827636719
143914,-0.600250244140625,1.177886962890625,-0.1646881103515625,0.3349782526493073,0.1252937316894531,-0.0662900730967521,35.9814453125,98.25010681152344,-12.33177185058594
143915,-0.6751556396484375,1.200790405273438,-0.1199798583984375,0.3017180263996124,0.1018738970160484,-0.2421750873327255,36.0247802734375,98.3701629638672,-12.71928405761719
143916,-0.8730926513671875,1.098388671875,-0.047576904296875,0.3540129363536835,0.0596755817532539,-0.4429976642131805,36.02980041503906,98.41773986816406,-13.06918334960938
143917,-0.9432373046875,1.011917114257812,-0.0445098876953125,0.4608072936534882,0.0196461398154497,-0.3605485856533051,35.92182922363281,98.40821838378906,-13.30044555664062
143918,-0.9322967529296876,0.932159423828125,-0.0663909912109375,0.5308145880699158,-0.0508093833923339,-0.2513531446456909,35.77426147460938,98.32237243652344,-13.46804809570312
143919,-0.9322967529296876,0.932159423828125,-0.0663909912109375,0.5308145880699158,-0.0508093833923339,-0.2513531446456909,35.77426147460938,98.32237243652344,-13.46804809570312
143920,-0.7732696533203125,0.7760772705078125,-0.181243896484375,0.6437414288520813,-0.4386484622955322,-0.0961028337478637,35.50726318359375,98.37689208984376,-13.9052734375
143921,-0.6898040771484375,0.6926116943359375,-0.168212890625,0.7500766515731812,-0.5939115285873413,-0.0337033681571483,35.54727172851562,98.45394897460938,-13.93360900878906
143922,-0.6898040771484375,0.6926116943359375,-0.168212890625,0.7500766515731812,-0.5939115285873413,-0.0337033681571483,35.54727172851562,98.45394897460938,-13.93360900878906
143923,-0.638763427734375,0.6374359130859375,-0.119415283203125,0.8341696858406067,-0.5609882473945618,0.08496655523777,35.63417053222656,98.5,-14.06578063964844
143924,-0.5799102783203125,0.5929718017578125,-0.0466461181640625,0.8244113326072693,-0.2879484295845032,0.2582741677761078,35.85362243652344,98.61085510253906,-14.88607788085938
143925,-0.5799102783203125,0.5929718017578125,-0.0466461181640625,0.8244113326072693,-0.2879484295845032,0.2582741677761078,35.85362243652344,98.61085510253906,-14.88607788085938
143926,-0.55499267578125,0.570068359375,0.009185791015625,0.8217660188674927,-0.1808659136295319,0.2826021313667297,36.29653930664062,98.38877868652344,-15.38101196289062
143927,-0.510528564453125,0.5565643310546875,0.0537109375,0.8479464650154114,-0.1326192915439606,0.2749154567718506,36.54241943359375,98.54893493652344,-15.73008728027344
143928,-0.48876953125,0.5395050048828125,0.1180419921875,0.8668298721313477,-0.111046090722084,0.2065912634134293,36.86427307128906,98.62745666503906,-16.12193298339844
143929,-0.4366912841796875,0.4445953369140625,0.2671966552734375,0.8285978436470032,0.1813846975564957,-0.0182626266032457,37.22134399414062,98.77220153808594,-16.935302734375
143930,-0.4366912841796875,0.4445953369140625,0.2671966552734375,0.8285978436470032,0.1813846975564957,-0.0182626266032457,37.22134399414062,98.77220153808594,-16.935302734375
143931,-0.42144775390625,0.384857177734375,0.30743408203125,0.7349147200584412,0.3653183281421661,-0.1242215484380722,37.28581237792969,98.76791381835938,-17.19682312011719
143932,-0.3591156005859375,0.245574951171875,0.2478485107421875,0.4118493497371674,0.4239922761917114,-0.1856420338153839,37.22576904296875,98.91879272460938,-18.17556762695312
143933,-0.355560302734375,0.2235565185546875,0.240447998046875,0.1792219579219818,0.2271716296672821,-0.0863415449857711,37.14837646484375,98.86837768554688,-18.40966796875
143934,-0.355560302734375,0.2235565185546875,0.240447998046875,0.1792219579219818,0.2271716296672821,-0.0863415449857711,37.14837646484375,98.86837768554688,-18.40966796875
143935,-0.39898681640625,0.30999755859375,0.2868499755859375,-0.0813590362668037,0.051708735525608,0.0733700841665267,37.08106994628906,98.88955688476562,-18.60096740722656
143936,-0.5054473876953125,0.5462646484375,0.3287353515625,-0.4233739078044891,0.1322544366121292,0.186252698302269,37.06735229492188,98.91389465332033,-18.71305847167969
143937,-0.544952392578125,0.62237548828125,0.287628173828125,-0.4826723635196686,0.166151151061058,0.1663908362388611,37.05912780761719,99.00666809082033,-18.61347961425781
143938,-0.573638916015625,0.6853179931640625,0.2645263671875,-0.5243593454360962,0.1719762831926346,0.1224002167582512,37.03994750976562,99.0569305419922,-18.44259643554688
143939,-0.5929718017578125,0.7421875,0.25506591796875,-0.5990549325942993,0.1651026755571365,0.0625211670994758,37.07618713378906,99.0701141357422,-18.25302124023438
143940,-0.59197998046875,0.7925872802734375,0.2393798828125,-0.6945281624794006,0.1316903829574585,0.003784618107602,37.06040954589844,99.01483154296876,-17.91636657714844
143941,-0.578521728515625,0.851470947265625,0.2132110595703125,-0.7788649201393127,0.0200639888644218,-0.0405873730778694,37.074462890625,98.88571166992188,-17.65977478027344
143942,-0.5659637451171875,0.9159088134765624,0.200531005859375,-0.8579109907150269,-0.1568764299154282,-0.1012419313192368,37.0789794921875,98.89129638671876,-17.48153686523438
143943,-0.5659637451171875,0.9159088134765624,0.200531005859375,-0.8579109907150269,-0.1568764299154282,-0.1012419313192368,37.0789794921875,98.89129638671876,-17.48153686523438
143944,-0.5596466064453125,0.9456329345703124,0.227630615234375,-0.9239075779914856,-0.2642460465431213,-0.1590168178081512,37.01925659179688,98.98818969726562,-17.16773986816406
143945,-0.543670654296875,0.900634765625,0.2339324951171875,-1.049867153167725,-0.2087473571300507,-0.3058637678623199,36.77484130859375,98.81039428710938,-16.11917114257812
143946,-0.557891845703125,0.8275909423828125,0.16943359375,-0.9913371801376344,0.0091626057401299,-0.3987252712249756,36.38088989257812,98.68757629394533,-15.28158569335938
143947,-0.557891845703125,0.8275909423828125,0.16943359375,-0.9913371801376344,0.0091626057401299,-0.3987252712249756,36.38088989257812,98.68757629394533,-15.28158569335938
143948,-0.570037841796875,0.788330078125,0.115234375,-0.9204715490341188,0.1667682081460953,-0.4348587691783905,36.16998291015625,98.63430786132812,-14.71505737304688
143949,-0.5595855712890625,0.74298095703125,0.0241851806640625,-0.8341739773750305,0.3195692002773285,-0.4441196620464325,35.77549743652344,98.5865478515625,-14.2490234375
143950,-0.5595855712890625,0.74298095703125,0.0241851806640625,-0.8341739773750305,0.3195692002773285,-0.4441196620464325,35.77549743652344,98.5865478515625,-14.2490234375
143951,-0.560150146484375,0.72235107421875,-0.28802490234375,-0.5918889045715332,0.2917549014091492,-0.443632572889328,35.1038818359375,98.51008605957033,-13.5709228515625
143952,-0.5647125244140625,0.780029296875,-0.4354400634765625,-0.5327951908111572,0.0586507953703403,-0.4615247547626495,34.87135314941406,98.3089599609375,-13.13414001464844
143953,-0.5647125244140625,0.780029296875,-0.4354400634765625,-0.5327951908111572,0.0586507953703403,-0.4615247547626495,34.87135314941406,98.3089599609375,-13.13414001464844
143954,-0.5680694580078125,0.8625640869140625,-0.484954833984375,-0.5778350830078125,-0.0680365711450576,-0.5291144251823425,34.58314514160156,98.06193542480467,-12.59390258789062
143955,-0.5732269287109375,1.081390380859375,-0.5787353515625,-0.6107773780822754,-0.0442297793924808,-0.5891628861427307,33.8243408203125,97.78271484375,-12.16644287109375
143956,-0.5853271484375,1.133071899414062,-0.56982421875,-0.5914598703384399,0.0068834722042083,-0.5603517293930054,33.45274353027344,97.56779479980467,-11.64015197753906
143957,-0.6329498291015625,1.150909423828125,-0.5398406982421875,-0.5625120997428894,0.0981870219111442,-0.4823368191719055,33.08529663085938,97.33482360839844,-11.28831481933594
143958,-0.6329498291015625,1.150909423828125,-0.5398406982421875,-0.5625120997428894,0.0981870219111442,-0.4823368191719055,33.08529663085938,97.33482360839844,-11.28831481933594
143959,-0.69305419921875,1.107406616210938,-0.5539703369140625,-0.361856997013092,0.2113274186849594,-0.1430927067995071,32.49607849121094,96.94627380371094,-10.94003295898438
143960,-0.7162017822265625,1.06195068359375,-0.613067626953125,-0.2080812901258469,0.2943735718727112,0.0370048880577087,32.23545837402344,96.937255859375,-10.79023742675781
143961,-0.6988983154296875,1.031005859375,-0.7094268798828125,-0.0630474090576171,0.4029474556446075,0.2018889188766479,32.22479248046875,96.8985595703125,-10.62564086914062
143962,-0.6988983154296875,1.031005859375,-0.7094268798828125,-0.0630474090576171,0.4029474556446075,0.2018889188766479,32.22479248046875,96.8985595703125,-10.62564086914062
143963,-0.6604461669921875,1.045059204101562,-0.7905731201171875,0.0490852557122707,0.548870861530304,0.3523748219013214,32.25309753417969,96.81346130371094,-10.53471374511719
143964,-0.5729827880859375,1.134536743164062,-0.7925262451171875,0.0610516369342804,0.9265280961990356,0.50382399559021,32.40280151367188,96.86973571777344,-10.54365539550781
143965,-0.5664215087890625,1.148452758789062,-0.779815673828125,0.0241716485470533,1.0112464427948,0.4909340441226959,32.56552124023438,97.05841064453124,-10.68125915527344
143966,-0.5664215087890625,1.148452758789062,-0.779815673828125,0.0241716485470533,1.0112464427948,0.4909340441226959,32.56552124023438,97.05841064453124,-10.68125915527344
143967,-0.572723388671875,1.071304321289062,-0.7268218994140625,0.0134460339322686,0.9949117302894592,0.4092884361743927,32.81246948242188,97.28143310546876,-10.95413208007812
143968,-0.572723388671875,1.071304321289062,-0.7268218994140625,0.0134460339322686,0.9949117302894592,0.4092884361743927,32.81246948242188,97.28143310546876,-10.95413208007812
143969,-0.5984954833984375,1.0640869140625,-0.66802978515625,-0.0179521031677722,0.9487631320953368,0.3704329133033752,32.90953063964844,97.46624755859376,-11.06610107421875
143970,-0.6311187744140625,1.0526123046875,-0.5962982177734375,-0.1374803632497787,0.8117533326148987,0.303576648235321,33.08419799804688,97.5352020263672,-11.24644470214844
143971,-0.64752197265625,0.982025146484375,-0.4930267333984375,-0.308024138212204,0.5874376893043518,0.2345254272222519,33.18177795410156,97.7077178955078,-11.52386474609375
143972,-0.662811279296875,0.8976898193359375,-0.363525390625,-0.3987540304660797,0.4418495893478394,0.1783076822757721,33.17837524414062,97.75735473632812,-11.53707885742188
143973,-0.6746063232421875,0.8424835205078125,-0.2470245361328125,-0.3107839822769165,0.4659029841423035,0.1607438772916794,33.41690063476562,97.80535888671876,-11.50547790527344
143974,-0.6846771240234375,0.83447265625,-0.14599609375,-0.1043184176087379,0.5449392199516296,0.1990348100662231,33.54310607910156,97.92520141601562,-11.47024536132812
143975,-0.678924560546875,0.8502044677734375,-0.0704193115234375,0.0967286750674247,0.6286178827285767,0.3019159138202667,33.64884948730469,97.99740600585938,-11.57052612304688
143976,-0.6463470458984375,0.853729248046875,-0.058624267578125,0.2328588217496872,0.6568614840507507,0.4178827404975891,33.83474731445312,98.04998779296876,-11.65187072753906
143977,-0.6016845703125,0.8352813720703125,-0.06695556640625,0.314561128616333,0.5780497789382935,0.5512237548828125,34.09132385253906,98.19309997558594,-11.68333435058594
143978,-0.503204345703125,0.810699462890625,-0.009521484375,0.4414365291595459,0.3891932964324951,0.8287829160690308,34.77058410644531,98.25064086914062,-12.10139465332031
143979,-0.503204345703125,0.810699462890625,-0.009521484375,0.4414365291595459,0.3891932964324951,0.8287829160690308,34.77058410644531,98.25064086914062,-12.10139465332031
143980,-0.45465087890625,0.8236236572265625,0.0083160400390625,0.533635139465332,0.3107829093933105,0.893094539642334,35.22941589355469,98.26287841796876,-12.33280944824219
143981,-0.4185028076171875,0.8274688720703125,0.0387725830078125,0.5899330377578735,0.2635232508182526,0.8746622800827026,35.75929260253906,98.3913116455078,-12.73992919921875
143982,-0.37591552734375,0.82806396484375,0.065093994140625,0.570995569229126,0.2150121778249741,0.7824772000312805,36.25648498535156,98.33103942871094,-12.76953125
143983,-0.3239898681640625,0.809112548828125,0.10479736328125,0.4717941582202911,0.1509144157171249,0.6264130473136902,36.75552368164062,98.4509735107422,-13.08976745605469
143984,-0.269012451171875,0.74298095703125,0.1526947021484375,0.3235484957695007,0.0590121857821941,0.4656316041946411,37.22872924804688,98.40283203125,-13.36090087890625
143985,-0.2378997802734375,0.6416015625,0.2238311767578125,0.121842548251152,0.0679881051182746,0.3472519814968109,37.60050964355469,98.49964904785156,-13.48173522949219
143986,-0.2443695068359375,0.5245208740234375,0.27520751953125,-0.0817036479711532,0.2027086317539215,0.3252614438533783,37.88018798828125,98.4522705078125,-13.35397338867188
143987,-0.2651519775390625,0.4487457275390625,0.3045806884765625,-0.2538226842880249,0.4163439571857452,0.3446436822414398,38.17755126953125,98.61648559570312,-13.44462585449219
143988,-0.2968597412109375,0.4120330810546875,0.29052734375,-0.3796136379241943,0.5485666990280151,0.3681945204734802,38.21868896484375,98.73329162597656,-13.59233093261719
143989,-0.3363037109375,0.3938446044921875,0.2650604248046875,-0.4712910950183868,0.5390424132347107,0.3592734634876251,38.35096740722656,98.83135986328124,-13.5714111328125
143990,-0.389251708984375,0.3983917236328125,0.2479095458984375,-0.5387012958526611,0.437128871679306,0.3081751465797424,38.57565307617188,98.83992004394533,-13.40257263183594
143991,-0.451446533203125,0.4405670166015625,0.212799072265625,-0.5511702299118042,0.2388802170753479,0.2135146707296371,38.78556823730469,98.85580444335938,-13.2828369140625
143992,-0.4957427978515625,0.5366363525390625,0.180877685546875,-0.4849041104316711,0.0241918880492448,0.1011077091097832,38.94195556640625,98.8941650390625,-13.14479064941406
143993,-0.5106964111328125,0.6281585693359375,0.1381988525390625,-0.3780495524406433,-0.0630287677049636,-0.0148846739903092,39.06654357910156,98.93502807617188,-12.86856079101562
143994,-0.5376129150390625,0.708404541015625,0.07110595703125,-0.2657166421413422,-0.0010040117194876,-0.1418042778968811,39.09799194335938,98.90823364257812,-12.68975830078125
143995,-0.56414794921875,0.7599334716796875,0.0185089111328125,-0.2092357724905014,0.1415781676769257,-0.2857430577278137,39.04737854003906,98.85263061523438,-12.53802490234375
143996,-0.5831298828125,0.7713623046875,-0.0432281494140625,-0.30675408244133,0.2992402315139771,-0.5113889575004578,38.72810363769531,98.80970764160156,-12.3729248046875
143997,-0.5831298828125,0.7713623046875,-0.0432281494140625,-0.30675408244133,0.2992402315139771,-0.5113889575004578,38.72810363769531,98.80970764160156,-12.3729248046875
143998,-0.5829620361328125,0.7739410400390625,-0.046600341796875,-0.3843231797218323,0.2666383385658264,-0.5741527676582336,38.52392578125,98.755615234375,-12.20635986328125
143999,-0.5884246826171875,0.7869720458984375,-0.0193023681640625,-0.4184731543064117,0.2136409133672714,-0.6147984266281128,38.24530029296875,98.70289611816406,-12.17271423339844
144000,-0.5694427490234375,0.7621612548828125,0.008758544921875,-0.4138619005680084,0.1794680207967758,-0.6229077577590942,37.92088317871094,98.64614868164062,-12.03556823730469
144001,-0.549774169921875,0.7127532958984375,0.0234375,-0.4140070378780365,0.1586596816778183,-0.5969054698944092,37.5267333984375,98.54542541503906,-11.75076293945312
144002,-0.525360107421875,0.5943603515625,0.0150299072265625,-0.4779852032661438,0.1867935806512833,-0.6006836891174316,36.99305725097656,98.23130798339844,-11.37397766113281
144003,-0.525360107421875,0.5943603515625,0.0150299072265625,-0.4779852032661438,0.1867935806512833,-0.6006836891174316,36.99305725097656,98.23130798339844,-11.37397766113281
144004,-0.5167999267578125,0.529510498046875,0.004150390625,-0.5073772072792053,0.2407561540603638,-0.6256508231163025,36.74479675292969,98.25279235839844,-11.17793273925781
144005,-0.50433349609375,0.48687744140625,-0.013214111328125,-0.5206075310707092,0.2737814784049988,-0.6271094679832458,36.31504821777344,98.06785583496094,-11.09011840820312
144006,-0.4888153076171875,0.478302001953125,-0.034423828125,-0.5441027283668518,0.2573702931404114,-0.6141396164894104,35.96858215332031,97.92936706542967,-10.75091552734375
144007,-0.4814300537109375,0.518310546875,-0.065460205078125,-0.5814229249954224,0.1988382637500763,-0.6193844079971313,35.5543212890625,98.0080108642578,-10.60380554199219
144008,-0.487823486328125,0.59442138671875,-0.1085968017578125,-0.6064963340759277,0.1285920590162277,-0.6341764330863953,35.24130249023438,97.90666198730467,-10.46626281738281
144009,-0.4952545166015625,0.685943603515625,-0.1630859375,-0.6128295660018921,0.057788997888565,-0.6628557443618774,34.91799926757812,97.7602996826172,-10.30325317382812
144010,-0.4924163818359375,0.7688140869140625,-0.2306976318359375,-0.6133962869644165,-0.0640937611460685,-0.6702550649642944,34.49765014648438,97.63912963867188,-9.911468505859377
144011,-0.4960479736328125,0.8706817626953125,-0.2835845947265625,-0.6378704905509949,-0.2209853827953339,-0.6437826752662659,34.05592346191406,97.47613525390624,-9.712478637695312
144012,-0.494903564453125,0.9765472412109376,-0.3069610595703125,-0.7030351161956787,-0.37978196144104,-0.615665853023529,33.69906616210938,97.24896240234376,-9.416213989257812
144013,-0.5029449462890625,1.060501098632812,-0.2915191650390625,-0.7441723942756653,-0.4686202108860016,-0.6190462112426758,33.28504943847656,97.0343017578125,-9.0523681640625
144014,-0.50726318359375,1.107803344726562,-0.28216552734375,-0.7192596197128296,-0.5007195472717285,-0.6306360363960266,32.77963256835938,96.80487060546876,-8.755142211914062
144015,-0.51800537109375,1.126129150390625,-0.2865753173828125,-0.6209604740142822,-0.5129098892211914,-0.6204915046691895,32.36643981933594,96.6766357421875,-8.497634887695312
144016,-0.5515594482421875,1.130691528320312,-0.3234710693359375,-0.4523136615753174,-0.5258475542068481,-0.5624310970306396,31.98170471191406,96.43212890625,-8.005416870117188
144017,-0.592010498046875,1.10919189453125,-0.3882293701171875,-0.2424387335777283,-0.5275303721427917,-0.4558863043785095,31.72395324707031,96.26133728027344,-7.434219360351562
144018,-0.6288909912109375,1.09759521484375,-0.4547271728515625,-0.0163520760834217,-0.4951586127281189,-0.3256841003894806,31.3433837890625,96.06268310546876,-6.861602783203125
144019,-0.6717376708984375,1.097213745117188,-0.54437255859375,0.1956403404474258,-0.4284408390522003,-0.2060050964355469,31.10743713378906,95.91815185546876,-6.656814575195312
144020,-0.7028656005859375,1.115447998046875,-0.647186279296875,0.3802996575832367,-0.3562068343162537,-0.0791526064276695,30.89605712890625,95.898193359375,-6.657699584960938
144021,-0.72393798828125,1.172454833984375,-0.72027587890625,0.5230016708374023,-0.2979818880558014,0.0132332472130656,30.80413818359375,95.85012817382812,-6.639389038085938
144022,-0.7252655029296875,1.238967895507812,-0.736053466796875,0.5944399237632751,-0.175494596362114,0.0912369713187217,30.78392028808594,95.8087158203125,-6.54022216796875
144023,-0.6871490478515625,1.293533325195312,-0.7183380126953125,0.6028653383255005,-0.0419245474040508,0.1253786981105804,30.82272338867188,95.77761840820312,-6.581878662109375
144024,-0.6238555908203125,1.3101806640625,-0.6681671142578125,0.5725612640380859,0.1013340801000595,0.1528345495462418,30.89480590820312,95.90997314453124,-6.879898071289062
144025,-0.5895843505859375,1.280563354492188,-0.61846923828125,0.5304332375526428,0.2299138903617859,0.1884852200746536,31.05125427246094,95.90139770507812,-7.068115234375
144026,-0.5652008056640625,1.229537963867188,-0.5792388916015625,0.483569324016571,0.3052539229393005,0.2562826573848724,31.14405822753906,95.89878845214844,-7.39141845703125
144027,-0.543365478515625,1.212234497070312,-0.4906768798828125,0.3991490006446838,0.3366600573062897,0.3379583358764648,31.19462585449219,96.17253112792967,-7.75811767578125
144028,-0.5478668212890625,1.209991455078125,-0.3948211669921875,0.3053833544254303,0.3799236416816711,0.4117939472198486,31.4068603515625,96.2577667236328,-8.053756713867188
144029,-0.5387115478515625,1.208099365234375,-0.3183746337890625,0.2580520510673523,0.3961089849472046,0.458246648311615,31.5506591796875,96.4060516357422,-8.232101440429688
144030,-0.57843017578125,1.1922607421875,-0.1905517578125,0.2748062610626221,0.3337769210338593,0.3789595663547516,32.04707336425781,96.6029052734375,-8.710952758789062
144031,-0.57843017578125,1.1922607421875,-0.1905517578125,0.2748062610626221,0.3337769210338593,0.3789595663547516,32.04707336425781,96.6029052734375,-8.710952758789062
144032,-0.6209564208984375,1.184600830078125,-0.1668853759765625,0.2998453080654144,0.2552536129951477,0.2843984365463257,32.24568176269531,96.82823181152344,-9.07061767578125
144033,-0.6783294677734375,1.17926025390625,-0.1318359375,0.3134782910346985,0.2252187430858612,0.141456201672554,32.44151306152344,96.86416625976562,-9.393157958984377
144034,-0.787200927734375,1.112533569335938,-0.099212646484375,0.3726691901683807,0.2798028886318207,-0.1262231767177582,32.71443176269531,97.07218933105467,-9.794403076171877
144035,-0.787200927734375,1.112533569335938,-0.099212646484375,0.3726691901683807,0.2798028886318207,-0.1262231767177582,32.71443176269531,97.07218933105467,-9.794403076171877
144036,-0.835723876953125,1.04791259765625,-0.108642578125,0.4391792416572571,0.2682548761367798,-0.1819738000631332,32.77189636230469,97.20098876953124,-10.06967163085938
144037,-0.8703765869140625,0.973052978515625,-0.1260528564453125,0.5290827751159668,0.1869544386863708,-0.1522103101015091,32.70254516601562,97.25613403320312,-10.32568359375
144038,-0.7806243896484375,0.844573974609375,-0.190704345703125,0.5816013813018799,-0.1554439216852188,-0.0238912180066108,32.6602783203125,97.24365234375,-10.61358642578125
144039,-0.7806243896484375,0.844573974609375,-0.190704345703125,0.5816013813018799,-0.1554439216852188,-0.0238912180066108,32.6602783203125,97.24365234375,-10.61358642578125
144040,-0.697662353515625,0.78790283203125,-0.16656494140625,0.5978359580039978,-0.3069950938224792,0.0229364745318889,32.65025329589844,97.24610900878906,-10.93704223632812
144041,-0.6272125244140625,0.721954345703125,-0.089599609375,0.6416620016098022,-0.3324264287948608,0.082035481929779,32.703857421875,97.25843811035156,-11.21083068847656
144042,-0.5765380859375,0.6616668701171875,-0.01715087890625,0.7017658352851868,-0.2639919519424438,0.1476328670978546,32.90692138671875,97.36502075195312,-11.29884338378906
144043,-0.5463714599609375,0.6092987060546875,0.0222625732421875,0.756512463092804,-0.203398123383522,0.2012207210063934,33.08753967285156,97.51316833496094,-11.4713134765625
144044,-0.51593017578125,0.56201171875,0.0416259765625,0.8094459772109985,-0.1809940189123154,0.2211904376745224,33.22369384765625,97.53050231933594,-11.675048828125
144045,-0.4845733642578125,0.50750732421875,0.0717620849609375,0.8263500928878784,-0.1559392660856247,0.1858135461807251,33.56929016113281,97.59039306640624,-12.03189086914062
144046,-0.443359375,0.43853759765625,0.103057861328125,0.8060216903686523,-0.1060862243175507,0.1243083700537682,33.88896179199219,97.5242919921875,-12.15333557128906
144047,-0.4103240966796875,0.3658447265625,0.1354522705078125,0.7723196148872375,0.0256161466240882,0.0735160261392593,34.22444152832031,97.643798828125,-12.36276245117188
144048,-0.3974761962890625,0.3212127685546875,0.1573944091796875,0.7315482497215271,0.2953703999519348,0.0356935486197471,34.35948181152344,97.73460388183594,-12.79557800292969
144049,-0.38104248046875,0.28564453125,0.1263275146484375,0.6633508205413818,0.5384395122528076,-0.0007989483419805,34.4815673828125,97.7034912109375,-12.91241455078125
144050,-0.352294921875,0.250518798828125,0.086517333984375,0.548057496547699,0.6546422839164734,-0.0443743877112865,34.53964233398438,97.77818298339844,-13.17686462402344
144051,-0.306793212890625,0.2122650146484375,0.052886962890625,0.4036785066127777,0.6102436780929565,-0.0516743808984756,34.61343383789062,97.81390380859376,-13.53790283203125
144052,-0.2685546875,0.209442138671875,0.0868682861328125,0.2136600911617279,0.4798435568809509,-0.0697830766439437,34.51478576660156,97.92686462402344,-14.16154479980469
144053,-0.2392120361328125,0.2980194091796875,0.2396240234375,-0.1610022038221359,0.11049934476614,-0.0912441611289978,34.54977416992188,97.99690246582033,-14.74687194824219
144054,-0.3354034423828125,0.4231719970703125,0.3728179931640625,-0.3029303252696991,-0.0028298748657107,-0.054154846817255,34.51585388183594,97.9560546875,-15.04312133789062
144055,-0.3354034423828125,0.4231719970703125,0.3728179931640625,-0.3029303252696991,-0.0028298748657107,-0.054154846817255,34.51585388183594,97.9560546875,-15.04312133789062
144056,-0.4708404541015625,0.5609130859375,0.47528076171875,-0.455702543258667,0.0701066479086875,-0.0788559317588806,34.49858093261719,97.80461120605467,-14.828857421875
144057,-0.5938262939453125,0.646820068359375,0.4643402099609375,-0.6341471076011658,0.1181159839034081,-0.1274503618478775,34.46656799316406,97.80241394042967,-14.67552185058594
144058,-0.7335052490234375,0.72650146484375,0.2766571044921875,-0.8620663285255432,-0.1460719853639603,-0.1755734235048294,34.39192199707031,97.80801391601562,-14.16239929199219
144059,-0.7335052490234375,0.72650146484375,0.2766571044921875,-0.8620663285255432,-0.1460719853639603,-0.1755734235048294,34.39192199707031,97.80801391601562,-14.16239929199219
144060,-0.7327117919921875,0.7532501220703125,0.199310302734375,-0.8604977130889893,-0.3696140050888062,-0.1747627556324005,34.22164916992188,97.8526611328125,-13.96937561035156
144061,-0.6859893798828125,0.7657012939453125,0.2221527099609375,-0.8544339537620544,-0.4305684268474579,-0.1464184671640396,34.10343933105469,97.83349609375,-13.76243591308594
144062,-0.620635986328125,0.790130615234375,0.2567291259765625,-0.8942394256591797,-0.319272518157959,-0.1135025918483734,33.89157104492188,97.861328125,-13.44723510742188
144063,-0.5662841796875,0.808990478515625,0.25421142578125,-0.9564042687416076,-0.1827112287282944,-0.1051085740327835,33.83920288085938,97.81927490234376,-13.10334777832031
144064,-0.548675537109375,0.808349609375,0.2178497314453125,-1.009958267211914,-0.1544881165027618,-0.1475865244865417,33.65530395507812,97.67727661132812,-12.67628479003906
144065,-0.5662384033203125,0.82037353515625,0.1746978759765625,-1.002869725227356,-0.2140230685472488,-0.2202620655298233,33.53659057617188,97.58676147460938,-12.24418640136719
144066,-0.5882720947265625,0.838104248046875,0.1285247802734375,-0.9677993655204772,-0.3422846496105194,-0.3072057366371155,33.37110900878906,97.45913696289062,-11.81654357910156
144067,-0.5998687744140625,0.86016845703125,0.0621337890625,-0.8965417146682739,-0.5102691054344177,-0.37672358751297,33.2198486328125,97.378173828125,-11.24409484863281
144068,-0.595550537109375,0.8683929443359375,-0.0114288330078125,-0.7672582864761353,-0.6007034182548523,-0.3875977993011475,32.99540710449219,97.38739013671876,-10.90666198730469
144069,-0.58392333984375,0.9166107177734376,-0.2486572265625,-0.4117971360683441,-0.4680463075637817,-0.4723939001560211,32.61790466308594,96.96914672851562,-9.752838134765623
144070,-0.58392333984375,0.9166107177734376,-0.2486572265625,-0.4117971360683441,-0.4680463075637817,-0.4723939001560211,32.61790466308594,96.96914672851562,-9.752838134765623
144071,-0.5611419677734375,0.940185546875,-0.3639373779296875,-0.3126471340656281,-0.3966139256954193,-0.4727153480052948,32.28509521484375,96.98387145996094,-9.503005981445312
144072,-0.54803466796875,0.9855804443359376,-0.4410400390625,-0.2985731065273285,-0.3050933182239532,-0.4585422873497009,31.93289184570312,96.75753784179688,-9.132247924804688
144073,-0.52593994140625,1.041641235351562,-0.5067596435546875,-0.324834018945694,-0.344742476940155,-0.4572272002696991,31.60342407226562,96.52081298828124,-8.82574462890625
144074,-0.526031494140625,1.0977783203125,-0.49578857421875,-0.3408702313899994,-0.4182321429252625,-0.4360745251178741,31.29754638671875,96.3128662109375,-8.5244140625
144075,-0.5406036376953125,1.097625732421875,-0.4451904296875,-0.3081242740154266,-0.405486524105072,-0.3698217272758484,31.08193969726562,96.24905395507812,-8.27020263671875
144076,-0.59051513671875,1.062728881835938,-0.4158172607421875,-0.2425013184547424,-0.3725839555263519,-0.1969330310821533,30.79032897949219,96.04708862304688,-8.03070068359375
144077,-0.6691436767578125,1.01080322265625,-0.395538330078125,-0.0975816845893859,-0.2001155167818069,-0.0067630973644554,30.64717102050781,95.85728454589844,-7.825637817382812
144078,-0.7191925048828125,0.97698974609375,-0.4430694580078125,0.0137810595333576,-0.0535002425312995,0.1810355633497238,30.45445251464844,95.72979736328124,-7.560394287109375
144079,-0.7674560546875,0.9265289306640624,-0.61505126953125,0.1236463040113449,0.193149745464325,0.4499479830265045,30.46986389160156,95.80628967285156,-7.293502807617188
144080,-0.7674560546875,0.9265289306640624,-0.61505126953125,0.1236463040113449,0.193149745464325,0.4499479830265045,30.46986389160156,95.80628967285156,-7.293502807617188
144081,-0.730255126953125,0.9913787841796876,-0.6936187744140625,0.1073448285460472,0.478566586971283,0.5571380853652954,30.77206420898438,95.85809326171876,-7.081161499023438
144082,-0.730255126953125,0.9913787841796876,-0.6936187744140625,0.1073448285460472,0.478566586971283,0.5571380853652954,30.77206420898438,95.85809326171876,-7.081161499023438
144083,-0.6624603271484375,1.05517578125,-0.643157958984375,0.0406904369592666,0.6285744309425354,0.5413410067558289,30.97360229492188,95.9142608642578,-7.08197021484375
144084,-0.6064910888671875,1.088668823242188,-0.5700225830078125,0.0019648801535367,0.788724422454834,0.5217958092689514,31.1448974609375,96.00201416015624,-7.313735961914062
144085,-0.5717315673828125,1.09332275390625,-0.5111541748046875,0.0713660567998886,0.95472913980484,0.4977735579013824,31.53109741210938,96.15328979492188,-7.557144165039062
144086,-0.587677001953125,1.09759521484375,-0.488006591796875,0.0821103155612945,0.9847149848937988,0.4839911758899689,31.73806762695312,96.31770324707033,-7.711929321289062
144087,-0.587677001953125,1.09759521484375,-0.488006591796875,0.0821103155612945,0.9847149848937988,0.4839911758899689,31.73806762695312,96.31770324707033,-7.711929321289062
144088,-0.6483154296875,1.117080688476562,-0.4133453369140625,0.0481278486549854,0.9744431972503662,0.4215834438800812,32.17083740234375,96.6494140625,-8.275772094726562
144089,-0.6682281494140625,1.104583740234375,-0.380615234375,0.0070147663354873,0.8484354615211487,0.3804482817649841,32.36370849609375,96.75982666015624,-8.397048950195312
144090,-0.6682281494140625,1.104583740234375,-0.380615234375,0.0070147663354873,0.8484354615211487,0.3804482817649841,32.36370849609375,96.75982666015624,-8.397048950195312
144091,-0.6889190673828125,1.088150024414062,-0.3360595703125,-0.0615448541939258,0.6727666854858398,0.3357172906398773,32.57791137695312,96.7956085205078,-8.614151000976562
144092,-0.6774749755859375,0.9891357421875,-0.144683837890625,-0.1602208316326141,0.494667261838913,0.3492759764194489,32.94110107421875,96.9046630859375,-8.76043701171875
144093,-0.66949462890625,0.94256591796875,-0.0612030029296875,-0.1004576310515404,0.5004979968070984,0.4436765015125275,33.19171142578125,96.94467163085938,-8.768753051757812
144094,-0.66949462890625,0.94256591796875,-0.0612030029296875,-0.1004576310515404,0.5004979968070984,0.4436765015125275,33.19171142578125,96.94467163085938,-8.768753051757812
144095,-0.6490325927734375,0.899658203125,-0.0012664794921875,0.026851586997509,0.4738157689571381,0.5595269203186035,33.37838745117188,97.12161254882812,-8.806777954101562
144096,-0.57122802734375,0.7937164306640625,0.076568603515625,0.174147829413414,0.2713787853717804,0.7584831714630127,34.14321899414062,97.23210144042967,-9.15484619140625
144097,-0.531158447265625,0.77178955078125,0.13250732421875,0.2009845077991486,0.1947740167379379,0.8120585083961487,34.54296875,97.22998046875,-9.148117065429688
144098,-0.531158447265625,0.77178955078125,0.13250732421875,0.2009845077991486,0.1947740167379379,0.8120585083961487,34.54296875,97.22998046875,-9.148117065429688
144099,-0.4022369384765625,0.708648681640625,0.225372314453125,0.2578307390213013,0.2566096782684326,0.7406399846076965,35.59004211425781,97.3618621826172,-9.472320556640623
144100,-0.3279266357421875,0.67889404296875,0.235443115234375,0.2507161200046539,0.3725991249084473,0.6692907214164734,35.91778564453125,97.40687561035156,-9.53173828125
144101,-0.2694091796875,0.63824462890625,0.2256011962890625,0.2126366347074509,0.5356152057647705,0.6028518080711365,36.32038879394531,97.4616241455078,-9.604293823242188
144102,-0.2143707275390625,0.597412109375,0.179290771484375,0.1595523804426193,0.6750801801681519,0.558279275894165,36.66484069824219,97.53424072265624,-9.744552612304688
144103,-0.2143707275390625,0.597412109375,0.179290771484375,0.1595523804426193,0.6750801801681519,0.558279275894165,36.66484069824219,97.53424072265624,-9.744552612304688
144104,-0.1641082763671875,0.589752197265625,0.1663818359375,-0.0076746977865695,0.770033061504364,0.4661847352981567,37.14952087402344,97.7401885986328,-9.857330322265623
144105,-0.1658782958984375,0.60736083984375,0.1749114990234375,-0.1225181892514229,0.6731190085411072,0.4022731482982635,37.36026000976562,97.83586120605467,-9.988372802734377
144106,-0.185089111328125,0.6369781494140625,0.1812591552734375,-0.2115306258201599,0.5217039585113525,0.3434745371341705,37.54383850097656,97.79180908203124,-10.108154296875
144107,-0.185089111328125,0.6369781494140625,0.1812591552734375,-0.2115306258201599,0.5217039585113525,0.3434745371341705,37.54383850097656,97.79180908203124,-10.108154296875
144108,-0.262725830078125,0.68634033203125,0.0852813720703125,-0.1868303418159485,0.2281018793582916,0.2275040000677109,37.80049133300781,97.88214111328124,-10.05143737792969
144109,-0.2625732421875,0.6830596923828125,0.02764892578125,-0.1199860572814941,0.1440695524215698,0.1629937142133713,37.96990966796875,97.7532958984375,-10.03207397460938
144110,-0.262359619140625,0.690948486328125,0.0023345947265625,-0.0709916204214096,0.1088729575276375,0.0912606716156005,38.07844543457031,97.731689453125,-10.10690307617188
144111,-0.262359619140625,0.690948486328125,0.0023345947265625,-0.0709916204214096,0.1088729575276375,0.0912606716156005,38.07844543457031,97.731689453125,-10.10690307617188
144112,-0.3040008544921875,0.7004852294921875,-0.0217132568359375,-0.0416457131505012,0.0663031265139579,-0.10306166857481,38.20355224609375,97.82522583007812,-9.85955810546875
144113,-0.33624267578125,0.707122802734375,-0.0367584228515625,-0.0410909764468669,0.0076744314283132,-0.2027443200349808,38.20986938476562,97.89338684082033,-9.792037963867188
144114,-0.33624267578125,0.707122802734375,-0.0367584228515625,-0.0410909764468669,0.0076744314283132,-0.2027443200349808,38.20986938476562,97.89338684082033,-9.792037963867188
144115,-0.37396240234375,0.70880126953125,-0.0570831298828125,-0.0729325264692306,-0.1498973518610001,-0.3648557364940643,38.02456665039062,97.8257293701172,-9.901992797851562
144116,-0.401458740234375,0.7130584716796875,-0.05535888671875,-0.1164629608392715,-0.2275575250387192,-0.4190321564674377,37.90824890136719,97.73812866210938,-9.842315673828123
144117,-0.4281463623046875,0.713165283203125,-0.04779052734375,-0.1621774584054947,-0.2979507446289062,-0.464367151260376,37.69992065429688,97.72425842285156,-9.753982543945312
144118,-0.4281463623046875,0.713165283203125,-0.04779052734375,-0.1621774584054947,-0.2979507446289062,-0.464367151260376,37.69992065429688,97.72425842285156,-9.753982543945312
144119,-0.4772186279296875,0.7079010009765625,-0.0363006591796875,-0.256503164768219,-0.3377964198589325,-0.4955855011940002,37.18437194824219,97.66085815429688,-9.745254516601562
144120,-0.4772186279296875,0.7079010009765625,-0.0363006591796875,-0.256503164768219,-0.3377964198589325,-0.4955855011940002,37.18437194824219,97.66085815429688,-9.745254516601562
144121,-0.4863433837890625,0.688812255859375,-0.03594970703125,-0.309631884098053,-0.304434210062027,-0.4963383972644806,36.98556518554688,97.53385925292967,-9.491958618164062
144122,-0.5030364990234375,0.634063720703125,-0.0153350830078125,-0.458655446767807,-0.1884085237979889,-0.5037025809288025,36.43803405761719,97.4021453857422,-9.3504638671875
144123,-0.5030364990234375,0.634063720703125,-0.0153350830078125,-0.458655446767807,-0.1884085237979889,-0.5037025809288025,36.43803405761719,97.4021453857422,-9.3504638671875
144124,-0.558502197265625,0.6250152587890625,0.06103515625,-0.6132394671440125,-0.0758196637034416,-0.5734456777572632,35.89442443847656,97.41026306152344,-8.900299072265625
144125,-0.6072540283203125,0.636749267578125,0.083740234375,-0.6737722754478455,-0.0104614291340112,-0.6210909485816956,35.47312927246094,97.33323669433594,-8.53515625
144126,-0.65008544921875,0.64990234375,0.07989501953125,-0.7282919883728027,0.0634436905384063,-0.6454543471336365,35.16934204101562,97.21424865722656,-8.339767456054688
144127,-0.65008544921875,0.64990234375,0.07989501953125,-0.7282919883728027,0.0634436905384063,-0.6454543471336365,35.16934204101562,97.21424865722656,-8.339767456054688
144128,-0.752197265625,0.7348480224609375,-0.0242156982421875,-0.7617194652557373,0.1855418980121613,-0.6204329133033752,34.42044067382812,96.93316650390624,-7.881515502929688
144129,-0.7724761962890625,0.7933349609375,-0.12152099609375,-0.7684338092803955,0.1833298802375793,-0.5885626077651978,34.03253173828125,96.75973510742188,-7.399124145507812
144130,-0.7694244384765625,0.8434600830078125,-0.2125244140625,-0.8115376234054565,0.1564165055751801,-0.5103093385696411,33.67034912109375,96.59440612792967,-7.128936767578125
144131,-0.75006103515625,0.91107177734375,-0.276611328125,-0.8579351902008057,0.115706093609333,-0.43660768866539,33.35008239746094,96.40901184082033,-6.827957153320312
144132,-0.7406463623046875,0.9993896484375,-0.3067626953125,-0.8612146377563477,0.1133156418800354,-0.3907153010368347,33.02572631835938,96.12132263183594,-6.347763061523438
144133,-0.731414794921875,1.063400268554688,-0.316253662109375,-0.7978487014770508,0.1140591949224472,-0.3654123246669769,32.75531005859375,95.9327392578125,-5.823654174804688
144134,-0.731414794921875,1.063400268554688,-0.316253662109375,-0.7978487014770508,0.1140591949224472,-0.3654123246669769,32.75531005859375,95.9327392578125,-5.823654174804688
144135,-0.721343994140625,1.090530395507812,-0.3304595947265625,-0.699203372001648,0.1237488389015198,-0.3522792160511017,32.48728942871094,95.6492156982422,-5.438919067382812
144136,-0.695770263671875,1.087631225585938,-0.396331787109375,-0.5589751601219177,0.0794775113463401,-0.3205955922603607,32.21102905273438,95.39022827148438,-5.170455932617188
144137,-0.6447601318359375,1.066818237304688,-0.47467041015625,-0.3424297869205475,-0.0075303544290363,-0.2302878051996231,31.96699523925781,95.2830047607422,-4.93878173828125
144138,-0.455841064453125,1.112075805664062,-0.5839385986328125,0.1665772646665573,-0.0624924078583717,0.0314351543784141,31.66935729980469,94.9063720703125,-4.412567138671875
144139,-0.455841064453125,1.112075805664062,-0.5839385986328125,0.1665772646665573,-0.0624924078583717,0.0314351543784141,31.66935729980469,94.9063720703125,-4.412567138671875
144140,-0.274627685546875,1.244613647460938,-0.69024658203125,0.5799232721328735,0.0168277155607938,0.2438699156045914,31.61195373535156,94.86962890625,-4.232223510742188
144141,-0.22430419921875,1.325088500976562,-0.676666259765625,0.6446876525878906,0.0770511105656623,0.2599522173404694,31.76530456542969,94.77035522460938,-4.250320434570312
144142,-0.1962890625,1.4027099609375,-0.6471405029296875,0.680303156375885,0.1322451233863831,0.2307178974151611,31.93145751953125,94.88710021972656,-4.453811645507812
144143,-0.1962890625,1.4027099609375,-0.6471405029296875,0.680303156375885,0.1322451233863831,0.2307178974151611,31.93145751953125,94.88710021972656,-4.453811645507812
144144,-0.2107696533203125,1.45355224609375,-0.5874176025390625,0.759429931640625,0.0253506302833557,0.1928301751613617,32.28315734863281,95.1360321044922,-4.903167724609375
144145,-0.2591094970703125,1.4371337890625,-0.498199462890625,0.7499352097511292,0.007906125858426,0.2151362746953964,32.39364624023438,95.2869110107422,-5.041015625
144146,-0.2591094970703125,1.4371337890625,-0.498199462890625,0.7499352097511292,0.007906125858426,0.2151362746953964,32.39364624023438,95.2869110107422,-5.041015625
144147,-0.2900543212890625,1.418426513671875,-0.420440673828125,0.6922759413719177,0.0361926257610321,0.2214607447385788,32.46438598632812,95.3371124267578,-5.484939575195312
144148,-0.32830810546875,1.3896484375,-0.347412109375,0.5956399440765381,0.0291296560317277,0.1894112080335617,32.60050964355469,95.47335815429688,-5.912277221679688
144149,-0.478424072265625,1.332962036132812,-0.1817474365234375,0.423273503780365,-0.065414160490036,0.0344631671905517,32.855224609375,95.64558410644533,-6.373809814453125
144150,-0.586456298828125,1.31024169921875,-0.107208251953125,0.4236567318439484,-0.0287970267236232,-0.0342064388096332,32.95042419433594,95.78578186035156,-6.719375610351562
144151,-0.7050933837890625,1.300399780273438,-0.0680999755859375,0.4737811386585236,0.0531590916216373,-0.1017428711056709,32.92903137207031,95.95230102539062,-6.981109619140625
144152,-0.79107666015625,1.275131225585938,-0.0501708984375,0.5463019609451294,0.1250894814729691,-0.1458256393671036,32.89175415039062,96.03068542480467,-7.331100463867188
144153,-0.79107666015625,1.275131225585938,-0.0501708984375,0.5463019609451294,0.1250894814729691,-0.1458256393671036,32.89175415039062,96.03068542480467,-7.331100463867188
144154,-0.78509521484375,1.1497802734375,-0.0710601806640625,0.6422969102859497,0.2477778494358063,-0.1742026954889297,32.68057250976562,96.29005432128906,-7.88525390625
144155,-0.78509521484375,1.1497802734375,-0.0710601806640625,0.6422969102859497,0.2477778494358063,-0.1742026954889297,32.68057250976562,96.29005432128906,-7.88525390625
144156,-0.70306396484375,0.9358673095703124,-0.144622802734375,0.714830756187439,-0.0311033241450786,-0.2085260450839996,32.41610717773438,96.49539184570312,-8.255599975585938
144157,-0.70306396484375,0.9358673095703124,-0.144622802734375,0.714830756187439,-0.0311033241450786,-0.2085260450839996,32.41610717773438,96.49539184570312,-8.255599975585938
144158,-0.6771392822265625,0.8548736572265625,-0.1288299560546875,0.7818212509155273,-0.2507928013801575,-0.1517629027366638,32.34185791015625,96.54812622070312,-8.492828369140625
144159,-0.639801025390625,0.802825927734375,-0.1261138916015625,0.8707812428474426,-0.4312741756439209,-0.0626636445522308,32.26304626464844,96.6456298828125,-9.036849975585938
144160,-0.5819244384765625,0.7718658447265625,-0.1515350341796875,0.9694119095802308,-0.5874848365783691,0.0330626107752323,32.28643798828125,96.68252563476562,-9.61346435546875
144161,-0.537994384765625,0.727447509765625,-0.1400146484375,1.0173499584198,-0.7378029227256775,0.0923839956521987,32.29780578613281,96.83474731445312,-9.927871704101562
144162,-0.5139923095703125,0.579498291015625,0.0053863525390625,0.960425078868866,-0.7862402200698853,0.1761060506105423,32.72319030761719,96.8467254638672,-10.51200866699219
144163,-0.5139923095703125,0.579498291015625,0.0053863525390625,0.960425078868866,-0.7862402200698853,0.1761060506105423,32.72319030761719,96.8467254638672,-10.51200866699219
144164,-0.469696044921875,0.4707794189453125,0.1212615966796875,0.8844709396362305,-0.7609506249427795,0.1349455714225769,33.34443664550781,97.11178588867188,-11.01473999023438
144165,-0.469696044921875,0.4707794189453125,0.1212615966796875,0.8844709396362305,-0.7609506249427795,0.1349455714225769,33.34443664550781,97.11178588867188,-11.01473999023438
144166,-0.4622344970703125,0.3423919677734375,0.17706298828125,0.7531493902206421,-0.3117296695709229,0.061663631349802,33.89260864257812,97.20736694335938,-11.50479125976562
144167,-0.4622344970703125,0.3423919677734375,0.17706298828125,0.7531493902206421,-0.3117296695709229,0.061663631349802,33.89260864257812,97.20736694335938,-11.50479125976562
144168,-0.487213134765625,0.2707977294921875,0.1510467529296875,0.7123979926109314,0.0816879421472549,0.0274811591953039,34.03799438476562,97.33900451660156,-11.91908264160156
144169,-0.5005340576171875,0.2285614013671875,0.1421356201171875,0.6662459373474121,0.3993511199951172,0.0352344214916229,34.03355407714844,97.39093017578124,-12.13067626953125
144170,-0.481536865234375,0.2458648681640625,0.1656036376953125,0.5375558733940125,0.5037944316864014,0.06242635846138,34.14093017578125,97.37815856933594,-12.28880310058594
144171,-0.447540283203125,0.28521728515625,0.2256927490234375,0.3076624870300293,0.4754323065280914,0.0781869441270828,34.16819763183594,97.5230712890625,-12.71954345703125
144172,-0.4134368896484375,0.326171875,0.2783966064453125,0.0579067096114158,0.3914588391780853,0.1028496846556664,34.21676635742188,97.5853271484375,-13.24685668945312
144173,-0.3948516845703125,0.3485107421875,0.3136138916015625,-0.1689133942127228,0.3085359930992126,0.1136418730020523,34.27877807617188,97.66496276855467,-13.43888854980469
144174,-0.4658050537109375,0.4355010986328125,0.3175048828125,-0.4584504067897797,0.1967151910066605,0.1094109117984772,34.31285095214844,97.5945281982422,-13.46304321289062
144175,-0.4658050537109375,0.4355010986328125,0.3175048828125,-0.4584504067897797,0.1967151910066605,0.1094109117984772,34.31285095214844,97.5945281982422,-13.46304321289062
144176,-0.5471649169921875,0.532440185546875,0.251129150390625,-0.5589868426322937,0.1930727809667587,0.0553681850433349,34.39141845703125,97.5749969482422,-13.40065002441406
144177,-0.59954833984375,0.6094207763671875,0.1638641357421875,-0.6340799927711487,0.1213304251432419,-0.0274819582700729,34.41670227050781,97.53533935546876,-13.20370483398438
144178,-0.591644287109375,0.7261505126953125,0.148712158203125,-0.8221713304519653,-0.0075186365284025,-0.1527911424636841,34.36087036132812,97.714599609375,-12.671630859375
144179,-0.591644287109375,0.7261505126953125,0.148712158203125,-0.8221713304519653,-0.0075186365284025,-0.1527911424636841,34.36087036132812,97.714599609375,-12.671630859375
144180,-0.5535125732421875,0.769378662109375,0.181243896484375,-0.947481095790863,-0.0486743301153183,-0.1868250072002411,34.26399230957031,97.61082458496094,-12.49705505371094
144181,-0.52398681640625,0.7940826416015625,0.2246856689453125,-1.070604920387268,-0.0737269520759582,-0.2106829434633255,34.21737670898438,97.47703552246094,-12.20793151855469
144182,-0.5275421142578125,0.730743408203125,0.2391815185546875,-1.193504214286804,0.0004000068001914,-0.3483747541904449,33.96806335449219,97.0988311767578,-11.40043640136719
144183,-0.5275421142578125,0.730743408203125,0.2391815185546875,-1.193504214286804,0.0004000068001914,-0.3483747541904449,33.96806335449219,97.0988311767578,-11.40043640136719
144184,-0.5363922119140625,0.688507080078125,0.2161712646484375,-1.19472599029541,0.0416068322956562,-0.4284674525260925,33.76254272460938,97.0851593017578,-10.83259582519531
144185,-0.5586700439453125,0.6655426025390625,0.187652587890625,-1.198868274688721,0.0919147431850433,-0.4897763729095459,33.53437805175781,96.90435791015624,-10.19383239746094
144186,-0.575775146484375,0.66998291015625,0.076995849609375,-1.249799370765686,0.1718197017908096,-0.4355727732181549,33.01570129394531,96.65304565429688,-9.270126342773438
144187,-0.575775146484375,0.66998291015625,0.076995849609375,-1.249799370765686,0.1718197017908096,-0.4355727732181549,33.01570129394531,96.65304565429688,-9.270126342773438
144188,-0.594146728515625,0.7177886962890625,-0.0198822021484375,-1.224904179573059,0.1908383965492249,-0.3897176682949066,32.64801025390625,96.51026916503906,-8.774948120117188
144189,-0.603759765625,0.770751953125,-0.1110382080078125,-1.166257381439209,0.2034551203250885,-0.3751078248023987,32.40190124511719,96.3209228515625,-8.215286254882812
144190,-0.585205078125,0.8066864013671875,-0.2028350830078125,-1.133127927780151,0.2125916332006454,-0.3446561992168427,32.15199279785156,96.07408142089844,-7.717514038085938
144191,-0.5818023681640625,0.8816375732421875,-0.28759765625,-1.107551455497742,0.2197286337614059,-0.3259038031101227,31.82498168945312,95.8283233642578,-7.287796020507812
144192,-0.59979248046875,1.001052856445312,-0.3623199462890625,-1.08026123046875,0.2255716025829315,-0.3223434090614319,31.50146484375,95.59494018554688,-6.700729370117188
144193,-0.639068603515625,1.123489379882812,-0.4297943115234375,-1.044481635093689,0.213951975107193,-0.3548201322555542,31.27163696289062,95.32077026367188,-6.100784301757812
144194,-0.661224365234375,1.196121215820312,-0.4772796630859375,-0.9047722220420836,0.1612589359283447,-0.3389522135257721,30.68185424804688,94.76512145996094,-5.126327514648438
144195,-0.661224365234375,1.196121215820312,-0.4772796630859375,-0.9047722220420836,0.1612589359283447,-0.3389522135257721,30.68185424804688,94.76512145996094,-5.126327514648438
144196,-0.6515655517578125,1.18505859375,-0.4778900146484375,-0.7609149217605591,0.225425660610199,-0.2616023123264313,30.47317504882812,94.6956787109375,-4.944503784179688
144197,-0.621246337890625,1.151443481445312,-0.5089111328125,-0.5883527398109436,0.3008184134960175,-0.1380731761455536,30.27366638183594,94.4714813232422,-4.572921752929688
144198,-0.5384979248046875,1.1204833984375,-0.6451568603515625,-0.2734155654907227,0.4633553922176361,0.2151224315166473,29.96012878417969,94.14778137207033,-3.961654663085938
144199,-0.5384979248046875,1.1204833984375,-0.6451568603515625,-0.2734155654907227,0.4633553922176361,0.2151224315166473,29.96012878417969,94.14778137207033,-3.961654663085938
144200,-0.4819793701171875,1.156219482421875,-0.684661865234375,-0.1588311940431595,0.5830117464065552,0.4016470313072205,29.90631103515625,94.04220581054688,-3.752883911132812
144201,-0.4488983154296875,1.226409912109375,-0.7047882080078125,-0.0559218563139438,0.7664199471473694,0.5115596652030945,29.93531799316406,93.900390625,-3.5242919921875
144202,-0.4478302001953125,1.355697631835938,-0.6823577880859375,0.2050793766975403,1.030604243278503,0.5395180583000183,30.03680419921875,94.03474426269533,-3.577987670898438
144203,-0.4478302001953125,1.355697631835938,-0.6823577880859375,0.2050793766975403,1.030604243278503,0.5395180583000183,30.03680419921875,94.03474426269533,-3.577987670898438
144204,-0.4712066650390625,1.373077392578125,-0.6580657958984375,0.3307113349437714,1.064684629440308,0.5224778652191162,30.07293701171875,94.23265075683594,-3.710708618164062
144205,-0.483856201171875,1.352508544921875,-0.6525115966796875,0.4217128753662109,1.067032814025879,0.465153306722641,30.18124389648438,94.2867431640625,-3.952499389648438
144206,-0.498016357421875,1.2640380859375,-0.5890655517578125,0.472734272480011,0.955397605895996,0.3013316094875336,30.37361145019531,94.62400817871094,-4.656814575195312
144207,-0.5200347900390625,1.217071533203125,-0.5494232177734375,0.4441225826740265,0.8745599985122681,0.2031256854534149,30.41886901855469,94.77859497070312,-5.080184936523438
144208,-0.5200347900390625,1.217071533203125,-0.5494232177734375,0.4441225826740265,0.8745599985122681,0.2031256854534149,30.41886901855469,94.77859497070312,-5.080184936523438
144209,-0.55462646484375,1.139373779296875,-0.5193328857421875,0.3457808494567871,0.6268223524093628,0.104564756155014,30.572021484375,94.86851501464844,-5.476776123046875
144210,-0.59674072265625,0.928466796875,-0.306610107421875,0.2885207533836365,0.1152871772646904,0.1211615800857544,30.61898803710938,95.02189636230467,-5.987625122070312
144211,-0.62896728515625,0.8911590576171875,-0.1266021728515625,0.4653429090976715,0.0533393882215023,0.2877902388572693,30.61312866210938,95.22763061523438,-6.393539428710938
144212,-0.62896728515625,0.8911590576171875,-0.1266021728515625,0.4653429090976715,0.0533393882215023,0.2877902388572693,30.61312866210938,95.22763061523438,-6.393539428710938
144213,-0.655548095703125,0.871124267578125,0.0107269287109375,0.6531961560249329,0.1362185627222061,0.4914014339447021,30.74269104003906,95.31892395019533,-6.629867553710938
144214,-0.63726806640625,0.869293212890625,0.1013031005859375,0.9737638235092164,0.0855985209345817,0.8225774765014648,31.16409301757812,95.61077880859376,-7.110275268554688
144215,-0.63726806640625,0.869293212890625,0.1013031005859375,0.9737638235092164,0.0855985209345817,0.8225774765014648,31.16409301757812,95.61077880859376,-7.110275268554688
144216,-0.61328125,0.8442840576171875,0.131378173828125,1.059204459190369,-0.054874699562788,0.8569032549858093,31.56193542480469,95.79408264160156,-7.546310424804688
144217,-0.5659332275390625,0.80291748046875,0.164337158203125,1.098263621330261,-0.1069341748952866,0.7956622242927551,31.92977905273438,96.01130676269533,-7.9090576171875
144218,-0.354644775390625,0.6842498779296875,0.2052154541015625,0.9858425855636596,0.0312170404940843,0.6107048988342285,32.93074035644531,96.27076721191406,-8.800674438476562
144219,-0.354644775390625,0.6842498779296875,0.2052154541015625,0.9858425855636596,0.0312170404940843,0.6107048988342285,32.93074035644531,96.27076721191406,-8.800674438476562
144220,-0.26116943359375,0.629730224609375,0.20037841796875,0.778257429599762,0.128080740571022,0.5895391702651978,33.38876342773438,96.45559692382812,-9.194931030273438
144221,-0.1569366455078125,0.590301513671875,0.1479034423828125,0.5532978177070618,0.1622413694858551,0.5714365839958191,33.77116394042969,96.61997985839844,-9.610916137695312
144222,-0.01556396484375,0.561126708984375,0.1374664306640625,0.3326930105686188,-0.0684429705142974,0.6180951595306396,34.47647094726562,96.7504425048828,-10.19491577148438
144223,-0.01556396484375,0.561126708984375,0.1374664306640625,0.3326930105686188,-0.0684429705142974,0.6180951595306396,34.47647094726562,96.7504425048828,-10.19491577148438
144224,-0.0026702880859375,0.5927886962890625,0.212310791015625,0.1999165713787079,-0.0318889580667018,0.5732049345970154,34.77784729003906,96.85787963867188,-10.39688110351562
144225,-0.034454345703125,0.602081298828125,0.23760986328125,0.0359113961458206,0.0360879637300968,0.4964632987976074,35.1275634765625,97.00697326660156,-10.63279724121094
144226,-0.3124847412109375,0.6684417724609375,0.152099609375,-0.2325360327959061,-0.2125732451677322,0.3494330942630768,35.74917602539062,97.18954467773438,-10.86534118652344
144227,-0.3124847412109375,0.6684417724609375,0.152099609375,-0.2325360327959061,-0.2125732451677322,0.3494330942630768,35.74917602539062,97.18954467773438,-10.86534118652344
144228,-0.435821533203125,0.699859619140625,0.1232757568359375,-0.3421578705310822,-0.4915622770786285,0.2770614326000214,35.96885681152344,97.1553192138672,-10.80923461914062
144229,-0.5026397705078125,0.712738037109375,0.1015777587890625,-0.4485865831375122,-0.6338405609130859,0.170838326215744,36.26399230957031,97.2607879638672,-10.6868896484375
144230,-0.6278228759765625,0.702880859375,0.0650787353515625,-0.465224415063858,-0.2114954739809036,-0.1926163136959076,36.58766174316406,97.58152770996094,-9.905426025390623
144231,-0.6278228759765625,0.702880859375,0.0650787353515625,-0.465224415063858,-0.2114954739809036,-0.1926163136959076,36.58766174316406,97.58152770996094,-9.905426025390623
144232,-0.6278228759765625,0.702880859375,0.0650787353515625,-0.465224415063858,-0.2114954739809036,-0.1926163136959076,36.58766174316406,97.58152770996094,-9.905426025390623
144233,-0.64892578125,0.6723785400390625,0.0723114013671875,-0.3953939378261566,0.0457046367228031,-0.3165363967418671,36.62895202636719,97.566162109375,-9.612533569335938
144234,-0.621063232421875,0.6062469482421875,0.0423126220703125,-0.4572218656539917,0.2171951681375504,-0.4684529602527618,36.46829223632812,97.50282287597656,-9.116607666015623
144235,-0.621063232421875,0.6062469482421875,0.0423126220703125,-0.4572218656539917,0.2171951681375504,-0.4684529602527618,36.46829223632812,97.50282287597656,-9.116607666015623
144236,-0.5966796875,0.59368896484375,0.0432281494140625,-0.5300478935241699,0.184025764465332,-0.4909651875495911,36.25859069824219,97.3667449951172,-8.941116333007812
144237,-0.5666961669921875,0.5991363525390625,0.057586669921875,-0.594367504119873,0.1682795584201813,-0.5071388483047485,35.98817443847656,97.1977081298828,-8.757553100585938
144238,-0.517913818359375,0.617767333984375,0.0797271728515625,-0.7000696659088135,0.2633267045021057,-0.538269579410553,35.43295288085938,97.1383819580078,-8.411239624023438
144239,-0.517913818359375,0.617767333984375,0.0797271728515625,-0.7000696659088135,0.2633267045021057,-0.538269579410553,35.43295288085938,97.1383819580078,-8.411239624023438
144240,-0.508087158203125,0.615814208984375,0.0828857421875,-0.7576794624328613,0.3153992295265198,-0.5716099739074707,35.04541015625,97.03866577148438,-8.207061767578125
144241,-0.504974365234375,0.587005615234375,0.1079254150390625,-0.849449872970581,0.4125798344612122,-0.632547914981842,34.48651123046875,96.67521667480467,-7.32275390625
144242,-0.51177978515625,0.5950927734375,0.11505126953125,-0.9069117903709412,0.4818864762783051,-0.6568393707275391,34.10317993164062,96.5860595703125,-7.088134765625
144243,-0.51177978515625,0.5950927734375,0.11505126953125,-0.9069117903709412,0.4818864762783051,-0.6568393707275391,34.10317993164062,96.5860595703125,-7.088134765625
144244,-0.520782470703125,0.6138763427734375,0.0986785888671875,-0.9808589816093444,0.4899207055568695,-0.6728670597076416,33.68711853027344,96.44912719726562,-6.919113159179688
144245,-0.616668701171875,0.739532470703125,0.047332763671875,-1.108730435371399,0.4695861339569092,-0.722661018371582,32.89768981933594,95.96176147460938,-6.283294677734375
144246,-0.6678466796875,0.8055267333984375,-0.00433349609375,-1.118233919143677,0.4244274497032166,-0.7697294354438782,32.46266174316406,95.77667236328124,-5.987213134765625
144247,-0.6678466796875,0.8055267333984375,-0.00433349609375,-1.118233919143677,0.4244274497032166,-0.7697294354438782,32.46266174316406,95.77667236328124,-5.987213134765625
144248,-0.67779541015625,0.8427886962890625,-0.0629119873046875,-1.106840372085571,0.3332964777946472,-0.7602698802947998,32.07192993164062,95.50868225097656,-5.659927368164062
144249,-0.6869659423828125,0.89129638671875,-0.1264495849609375,-1.119167327880859,0.2268927991390228,-0.7177724838256836,31.54263305664062,95.28857421875,-5.263626098632812
144250,-0.6603240966796875,1.020645141601562,-0.23553466796875,-1.091939926147461,-0.1552513688802719,-0.5647392868995667,30.08999633789062,94.63525390625,-4.082260131835938
144251,-0.6603240966796875,1.020645141601562,-0.23553466796875,-1.091939926147461,-0.1552513688802719,-0.5647392868995667,30.08999633789062,94.63525390625,-4.082260131835938
144252,-0.5943756103515625,1.105636596679688,-0.204437255859375,-0.8160945773124695,-0.0986030027270317,-0.4504928588867188,29.33482360839844,93.99636840820312,-3.063064575195312
144253,-0.5996246337890625,1.105789184570312,-0.316131591796875,-0.6011651754379272,0.1218974068760872,-0.4346188306808472,29.0018310546875,93.64483642578124,-2.511993408203125
144254,-0.5919342041015625,1.073684692382812,-0.477813720703125,-0.4181932508945465,0.2214231938123703,-0.4166874885559082,28.80731201171875,93.47897338867188,-2.013900756835938
144255,-0.5919342041015625,1.073684692382812,-0.477813720703125,-0.4181932508945465,0.2214231938123703,-0.4166874885559082,28.80731201171875,93.47897338867188,-2.013900756835938
144256,-0.589385986328125,1.059402465820312,-0.6282196044921875,-0.2502553761005402,0.1523013859987259,-0.328526496887207,28.4918212890625,93.1222686767578,-1.715621948242188
144257,-0.565826416015625,1.129928588867188,-0.759063720703125,0.0962961763143539,0.0605054199695587,-0.0351097844541072,28.181640625,92.67332458496094,-1.2657470703125
144258,-0.537933349609375,1.225997924804688,-0.7754058837890625,0.2483032792806625,0.1614416241645813,0.0910425558686256,28.10255432128906,92.4614715576172,-1.168991088867188
144259,-0.537933349609375,1.225997924804688,-0.7754058837890625,0.2483032792806625,0.1614416241645813,0.0910425558686256,28.10255432128906,92.4614715576172,-1.168991088867188
144260,-0.4380645751953125,1.397842407226562,-0.670501708984375,0.4223182201385498,0.4919998347759247,0.1825447827577591,28.01612854003906,92.5333251953125,-1.459793090820312
144261,-0.38262939453125,1.394577026367188,-0.588531494140625,0.4615700244903564,0.5880792140960693,0.182755172252655,28.06918334960938,92.58309936523438,-1.664047241210938
144262,-0.357940673828125,1.337890625,-0.5516204833984375,0.4855872094631195,0.5858943462371826,0.2435868233442307,28.1119384765625,92.75729370117188,-2.063217163085938
144263,-0.357940673828125,1.337890625,-0.5516204833984375,0.4855872094631195,0.5858943462371826,0.2435868233442307,28.1119384765625,92.75729370117188,-2.063217163085938
144264,-0.39227294921875,1.250137329101562,-0.4481964111328125,0.4064716100692749,0.4801346659660339,0.3766995966434479,28.26402282714844,92.98350524902344,-2.457382202148438
144265,-0.4120941162109375,1.214462280273438,-0.36932373046875,0.3037841320037842,0.4641415774822235,0.4118887484073639,28.38468933105469,93.15255737304688,-2.796356201171875
144266,-0.4477691650390625,1.214691162109375,-0.2682952880859375,0.2066109627485275,0.4356635808944702,0.377246081829071,28.61100769042969,93.30679321289062,-3.16094970703125
144267,-0.4477691650390625,1.214691162109375,-0.2682952880859375,0.2066109627485275,0.4356635808944702,0.377246081829071,28.61100769042969,93.30679321289062,-3.16094970703125
144268,-0.580810546875,1.270126342773438,-0.0532073974609375,0.1712292730808258,0.3268617391586304,0.1557413935661316,28.83773803710938,93.69029235839844,-3.676834106445312
144269,-0.6707000732421875,1.291915893554688,0.0283966064453125,0.236946240067482,0.3290228843688965,0.0198781006038188,28.860595703125,93.85304260253906,-3.802078247070312
144270,-0.767425537109375,1.29107666015625,0.0700225830078125,0.3312120139598846,0.3370041251182556,-0.0733570381999015,28.86575317382812,93.9502410888672,-4.136505126953125
144271,-0.844940185546875,1.272018432617188,0.0819091796875,0.4589241743087769,0.3203990459442139,-0.1161175519227982,28.95869445800781,94.08291625976562,-4.373504638671875
144272,-0.8863525390625,1.223190307617188,0.0637054443359375,0.6174429655075073,0.2725108861923218,-0.1163021102547646,28.90507507324219,94.07234191894533,-4.465667724609375
144273,-0.8863525390625,1.223190307617188,0.0637054443359375,0.6174429655075073,0.2725108861923218,-0.1163021102547646,28.90507507324219,94.07234191894533,-4.465667724609375
144274,-0.8065338134765625,1.010772705078125,-0.0396881103515625,0.8681524395942688,0.081192061305046,-0.0861806944012641,28.87431335449219,94.2376708984375,-5.143630981445312
144275,-0.8065338134765625,1.010772705078125,-0.0396881103515625,0.8681524395942688,0.081192061305046,-0.0861806944012641,28.87431335449219,94.2376708984375,-5.143630981445312
144276,-0.6562347412109375,0.7468414306640625,-0.0859832763671875,0.91656231880188,-0.234460175037384,-0.1329521983861923,28.82772827148438,94.5037841796875,-6.002212524414062
144277,-0.6139678955078125,0.646484375,-0.0832977294921875,0.9003255367279053,-0.3809598684310913,-0.138580247759819,28.82035827636719,94.55416870117188,-6.19927978515625
144278,-0.5836639404296875,0.5820770263671875,-0.08990478515625,0.8717024326324463,-0.5271791219711304,-0.1085381954908371,28.90464782714844,94.738037109375,-6.637985229492188
144279,-0.5836639404296875,0.5820770263671875,-0.08990478515625,0.8717024326324463,-0.5271791219711304,-0.1085381954908371,28.90464782714844,94.738037109375,-6.637985229492188
144280,-0.5194244384765625,0.5498046875,-0.0026702880859375,0.914987564086914,-0.5759708881378174,-0.0390781611204147,29.10671997070312,95.05120849609376,-7.1614990234375
144281,-0.475921630859375,0.513580322265625,0.0191192626953125,0.9528156518936156,-0.5385167598724365,-0.0601501576602459,29.30818176269531,95.05859375,-7.36328125
144282,-0.448150634765625,0.4674072265625,0.02862548828125,0.9535895586013794,-0.5173859000205994,-0.1027159914374352,29.51443481445312,95.11468505859376,-7.731460571289062
144283,-0.448150634765625,0.4674072265625,0.02862548828125,0.9535895586013794,-0.5173859000205994,-0.1027159914374352,29.51443481445312,95.11468505859376,-7.731460571289062
144284,-0.4095306396484375,0.3966217041015625,0.017425537109375,0.8468926548957825,-0.3790037631988525,-0.12282445281744,29.86787414550781,95.1262664794922,-8.206924438476562
144285,-0.4168548583984375,0.3750457763671875,0.012481689453125,0.7575811743736267,-0.2489893138408661,-0.1576695144176483,29.95399475097656,95.27102661132812,-8.334381103515625
144286,-0.4395599365234375,0.3455047607421875,0.03302001953125,0.671863853931427,-0.0998011603951454,-0.1811663210391998,29.92617797851562,95.49197387695312,-8.662490844726562
144287,-0.4395599365234375,0.3455047607421875,0.03302001953125,0.671863853931427,-0.0998011603951454,-0.1811663210391998,29.92617797851562,95.49197387695312,-8.662490844726562
144288,-0.4570770263671875,0.3258056640625,0.0834503173828125,0.4843259453773499,0.0416611619293689,-0.1216063275933266,29.97554016113281,95.41990661621094,-9.206619262695312
144289,-0.458404541015625,0.3335418701171875,0.1192626953125,0.3374440670013428,0.0413319952785968,-0.0557546094059944,30.00556945800781,95.43325805664062,-9.561370849609377
144290,-0.4644622802734375,0.3484039306640625,0.141632080078125,0.1874436587095261,0.0758444294333457,0.0124611966311931,29.93476867675781,95.43185424804688,-9.680465698242188
144291,-0.4644622802734375,0.3484039306640625,0.141632080078125,0.1874436587095261,0.0758444294333457,0.0124611966311931,29.93476867675781,95.43185424804688,-9.680465698242188
144292,-0.5054779052734375,0.45660400390625,0.1339569091796875,-0.1170786842703819,0.206259697675705,0.1111520901322365,29.89132690429688,95.42823791503906,-9.856460571289062
144293,-0.5099639892578125,0.498443603515625,0.11993408203125,-0.2513989508152008,0.2813927829265594,0.1326792240142822,29.90020751953125,95.45863342285156,-9.903549194335938
144294,-0.5038604736328125,0.5396881103515625,0.1183013916015625,-0.3779334425926208,0.3433768153190613,0.142317995429039,29.89408874511719,95.42848205566406,-10.02729797363281
144295,-0.5038604736328125,0.5396881103515625,0.1183013916015625,-0.3779334425926208,0.3433768153190613,0.142317995429039,29.89408874511719,95.42848205566406,-10.02729797363281
144296,-0.46636962890625,0.642913818359375,0.11529541015625,-0.5921182036399841,0.3374360799789429,0.1007817387580872,29.99777221679688,95.4253387451172,-9.941390991210938
144297,-0.4484405517578125,0.6878662109375,0.1357421875,-0.7012830376625061,0.2687379717826843,0.0417125597596168,29.98385620117188,95.39048767089844,-9.785324096679688
144298,-0.4398193359375,0.7130584716796875,0.1542205810546875,-0.8109756708145142,0.1529613137245178,-0.0213588178157806,30.01580810546875,95.406982421875,-9.704910278320312
144299,-0.4398193359375,0.7130584716796875,0.1542205810546875,-0.8109756708145142,0.1529613137245178,-0.0213588178157806,30.01580810546875,95.406982421875,-9.704910278320312
144300,-0.4839630126953125,0.7339935302734375,0.206695556640625,-1.025363922119141,-0.135574609041214,-0.177079439163208,29.90751647949219,95.32920837402344,-9.148818969726562
144301,-0.5470123291015625,0.759063720703125,0.2247772216796875,-1.086142778396606,-0.2219933867454529,-0.2590941488742828,29.80657958984375,95.19422912597656,-8.785385131835938
144302,-0.6179351806640625,0.79400634765625,0.2256317138671875,-1.109148740768433,-0.2554064691066742,-0.3507415056228638,29.69400024414062,95.03933715820312,-8.27716064453125
144303,-0.6179351806640625,0.79400634765625,0.2256317138671875,-1.109148740768433,-0.2554064691066742,-0.3507415056228638,29.69400024414062,95.03933715820312,-8.27716064453125
144304,-0.715484619140625,0.840911865234375,0.1434173583984375,-1.043702363967896,-0.1710827946662903,-0.5156663060188293,29.31443786621094,94.69821166992188,-7.156600952148438
144305,-0.7201690673828125,0.823486328125,0.057281494140625,-0.9732785820961,-0.0756707936525344,-0.5488343238830566,29.04698181152344,94.49136352539062,-6.497314453125
144306,-0.7192840576171875,0.8282470703125,-0.0316162109375,-0.9463417530059814,0.1117632836103439,-0.5425881743431091,28.66288757324219,94.3604736328125,-6.062179565429688
144307,-0.7192840576171875,0.8282470703125,-0.0316162109375,-0.9463417530059814,0.1117632836103439,-0.5425881743431091,28.66288757324219,94.3604736328125,-6.062179565429688
144308,-0.7236328125,0.8556365966796875,-0.1461944580078125,-0.9672787189483644,0.2467258870601654,-0.5187387466430664,28.22041320800781,94.27719116210938,-5.770706176757812
144309,-0.7119140625,0.88128662109375,-0.2231903076171875,-0.9908394813537598,0.2419455200433731,-0.5061377286911011,27.94717407226562,94.01277160644533,-5.338851928710938
144310,-0.6664581298828125,0.9808197021484376,-0.25372314453125,-0.9621801376342772,0.0854256823658943,-0.490254133939743,27.22505187988281,93.41447448730467,-4.631988525390625
144311,-0.6567535400390625,1.028854370117188,-0.2714080810546875,-0.890324592590332,0.0690752044320106,-0.448678195476532,27.00289916992188,93.0623779296875,-4.246246337890625
144312,-0.6567535400390625,1.028854370117188,-0.2714080810546875,-0.890324592590332,0.0690752044320106,-0.448678195476532,27.00289916992188,93.0623779296875,-4.246246337890625
144313,-0.651580810546875,1.059249877929688,-0.3043365478515625,-0.7743657231330872,0.0966863259673118,-0.3643366694450378,26.63955688476562,92.79273986816406,-3.79058837890625
144314,-0.6543121337890625,1.086639404296875,-0.3861236572265625,-0.5852892994880676,0.1506659388542175,-0.109749399125576,26.16117858886719,92.40890502929688,-3.020843505859375
144315,-0.6543121337890625,1.086639404296875,-0.3861236572265625,-0.5852892994880676,0.1506659388542175,-0.109749399125576,26.16117858886719,92.40890502929688,-3.020843505859375
144316,-0.645263671875,1.038650512695312,-0.4102783203125,-0.4433201849460602,0.2770617008209229,0.1436698138713837,25.93704223632812,92.07733154296876,-2.436065673828125
144317,-0.645263671875,1.038650512695312,-0.4102783203125,-0.4433201849460602,0.2770617008209229,0.1436698138713837,25.93704223632812,92.07733154296876,-2.436065673828125
144318,-0.619537353515625,0.9861907958984376,-0.5393829345703125,-0.1820904463529587,0.5164833664894104,0.3639960587024689,25.8441162109375,91.87059020996094,-2.14093017578125
144319,-0.5835113525390625,1.00994873046875,-0.5850982666015625,-0.0759608075022697,0.5964341163635254,0.4531389772891998,25.85334777832031,91.84771728515624,-1.95672607421875
144320,-0.5333251953125,1.068634033203125,-0.6050262451171875,-0.0158055946230888,0.675004780292511,0.4885017573833466,25.96286010742188,91.90037536621094,-1.929702758789062
144321,-0.50341796875,1.136764526367188,-0.60150146484375,0.0045931539498269,0.7526519298553467,0.4912869036197662,25.99922180175781,91.935302734375,-1.979721069335938
144322,-0.5128173828125,1.198074340820312,-0.581085205078125,0.0084446175023913,0.8388491272926331,0.4629575312137604,26.00375366210938,92.14825439453124,-2.158950805664062
144323,-0.5128173828125,1.198074340820312,-0.581085205078125,0.0084446175023913,0.8388491272926331,0.4629575312137604,26.00375366210938,92.14825439453124,-2.158950805664062
144324,-0.556884765625,1.232864379882812,-0.557891845703125,0.0338927209377288,0.8903656005859375,0.4258844554424286,26.11619567871094,92.23478698730467,-2.28857421875
144325,-0.604949951171875,1.238174438476562,-0.5267791748046875,0.0953853726387023,0.901903748512268,0.3781379759311676,26.23342895507812,92.36619567871094,-2.3892822265625
144326,-0.694610595703125,1.170883178710938,-0.46038818359375,0.2466127127408981,0.8930801749229431,0.2331722676753998,26.28958129882812,92.62295532226562,-2.758773803710938
144327,-0.732025146484375,1.1207275390625,-0.4144744873046875,0.292820155620575,0.851105809211731,0.1576583385467529,26.32081604003906,92.81100463867188,-3.1314697265625
144328,-0.732025146484375,1.1207275390625,-0.4144744873046875,0.292820155620575,0.851105809211731,0.1576583385467529,26.32081604003906,92.81100463867188,-3.1314697265625
144329,-0.7484130859375,1.0667724609375,-0.350616455078125,0.2813736200332642,0.8035723567008972,0.0949073359370231,26.27146911621094,93.04843139648438,-3.653762817382812
144330,-0.73516845703125,0.899078369140625,-0.2481231689453125,0.0930537804961204,0.3998789489269257,0.0265290793031454,26.13984680175781,93.29216003417967,-4.4005126953125
144331,-0.73516845703125,0.899078369140625,-0.2481231689453125,0.0930537804961204,0.3998789489269257,0.0265290793031454,26.13984680175781,93.29216003417967,-4.4005126953125
144332,-0.701629638671875,0.787750244140625,-0.1462554931640625,0.0822061896324157,0.2422464638948441,0.1079565584659576,26.16519165039062,93.2880401611328,-4.717864990234375
144333,-0.5957183837890625,0.74322509765625,0.0174713134765625,0.2347893416881561,0.2542519867420197,0.4759955704212189,26.3585205078125,93.31275939941406,-4.851058959960938
144334,-0.5278778076171875,0.7362213134765625,0.02056884765625,0.2625197768211365,0.2519177198410034,0.6065309643745422,26.48141479492188,93.35237121582033,-5.042510986328125
144335,-0.4795989990234375,0.735870361328125,0.0250396728515625,0.296444445848465,0.1811663210391998,0.6879147291183472,26.80430603027344,93.35977172851562,-5.150222778320312
144336,-0.4795989990234375,0.735870361328125,0.0250396728515625,0.296444445848465,0.1811663210391998,0.6879147291183472,26.80430603027344,93.35977172851562,-5.150222778320312
144337,-0.444732666015625,0.7362518310546875,0.0588226318359375,0.3567306995391846,0.0808402523398399,0.7011312246322632,27.21023559570312,93.43057250976562,-5.054290771484375
144338,-0.3313751220703125,0.710418701171875,0.1435394287109375,0.446694940328598,0.0069359368644654,0.5867487192153931,28.08045959472656,93.7890167236328,-5.301116943359375
144339,-0.3313751220703125,0.710418701171875,0.1435394287109375,0.446694940328598,0.0069359368644654,0.5867487192153931,28.08045959472656,93.7890167236328,-5.301116943359375
144340,-0.26837158203125,0.6771240234375,0.1392669677734375,0.4218505620956421,0.0479771122336387,0.5109053254127502,28.44662475585938,93.96853637695312,-5.60504150390625
144341,-0.2114105224609375,0.63140869140625,0.108734130859375,0.4046795666217804,0.0771749466657638,0.4607518911361694,28.80842590332031,94.02360534667967,-5.688796997070312
144342,-0.126739501953125,0.5499725341796875,0.127716064453125,0.2950926423072815,0.1385994255542755,0.416582852602005,29.51481628417969,94.15725708007812,-5.819503784179688
144343,-0.126739501953125,0.5499725341796875,0.127716064453125,0.2950926423072815,0.1385994255542755,0.416582852602005,29.51481628417969,94.15725708007812,-5.819503784179688
144344,-0.1117706298828125,0.530853271484375,0.1396942138671875,0.1964541971683502,0.1624355167150497,0.4057618975639343,29.74232482910156,94.27195739746094,-6.051651000976562
144345,-0.1325531005859375,0.5610504150390625,0.1446990966796875,0.0847332626581192,0.1465233862400055,0.3789065778255463,30.00791931152344,94.40640258789062,-6.2623291015625
144346,-0.3935546875,0.6975250244140625,0.09588623046875,-0.1178984045982361,0.1094055846333504,0.2830194532871246,30.42787170410156,94.60287475585938,-6.342559814453125
144347,-0.3935546875,0.6975250244140625,0.09588623046875,-0.1178984045982361,0.1094055846333504,0.2830194532871246,30.42787170410156,94.60287475585938,-6.342559814453125
144348,-0.4677581787109375,0.7059783935546875,0.05706787109375,-0.2276291698217392,0.0977100506424903,0.2126456946134567,30.59671020507812,94.6389617919922,-6.349822998046875
144349,-0.5175323486328125,0.710357666015625,0.0589141845703125,-0.3423075377941132,0.1682942062616348,0.1216611862182617,30.76992797851562,94.67356872558594,-6.204849243164062
144350,-0.5659332275390625,0.7048492431640625,0.0630645751953125,-0.4634720385074615,0.424727588891983,-0.0552869588136673,30.84637451171875,94.72103881835938,-6.146377563476562
144351,-0.577667236328125,0.68682861328125,0.064239501953125,-0.4593886137008667,0.4694079756736755,-0.1335998773574829,30.83003234863281,94.75030517578124,-6.048858642578125
144352,-0.590667724609375,0.66192626953125,0.060394287109375,-0.4413321316242218,0.4558714032173157,-0.1838590502738953,30.79080200195312,94.591064453125,-5.839126586914062
144353,-0.590667724609375,0.66192626953125,0.060394287109375,-0.4413321316242218,0.4558714032173157,-0.1838590502738953,30.79080200195312,94.591064453125,-5.839126586914062
144354,-0.5915985107421875,0.6486968994140625,0.0406646728515625,-0.4199594557285309,0.4022877812385559,-0.2210239917039871,30.66676330566406,94.55392456054688,-5.80828857421875
144355,-0.5915985107421875,0.6486968994140625,0.0406646728515625,-0.4199594557285309,0.4022877812385559,-0.2210239917039871,30.66676330566406,94.55392456054688,-5.80828857421875
144356,-0.55084228515625,0.639007568359375,0.0514373779296875,-0.4297077059745789,0.3636615574359894,-0.2797863781452179,30.40141296386719,94.48348999023438,-5.472396850585938
144357,-0.538848876953125,0.634246826171875,0.06646728515625,-0.4603281915187836,0.4372915923595428,-0.2894704341888428,30.21176147460938,94.2547607421875,-5.307586669921875
144358,-0.55010986328125,0.6240997314453125,0.0762786865234375,-0.576964259147644,0.5231489539146423,-0.3248206973075867,29.71900939941406,94.04296875,-5.035659790039062
144359,-0.576141357421875,0.6297607421875,0.066802978515625,-0.6392949819564819,0.4837594926357269,-0.3620602190494537,29.47024536132812,93.99205017089844,-5.16876220703125
144360,-0.576141357421875,0.6297607421875,0.066802978515625,-0.6392949819564819,0.4837594926357269,-0.3620602190494537,29.47024536132812,93.99205017089844,-5.16876220703125
144361,-0.616485595703125,0.65380859375,0.046875,-0.6608247756958008,0.4017807245254517,-0.4383669793605804,29.31996154785156,93.9294891357422,-5.13714599609375
144362,-0.6342620849609375,0.6487274169921875,0.0758819580078125,-0.6921731233596802,0.3377399444580078,-0.5406259298324585,28.76060485839844,93.66105651855467,-4.845245361328125
144363,-0.6342620849609375,0.6487274169921875,0.0758819580078125,-0.6921731233596802,0.3377399444580078,-0.5406259298324585,28.76060485839844,93.66105651855467,-4.845245361328125
144364,-0.6240386962890625,0.65478515625,0.0616912841796875,-0.7332691550254822,0.421292632818222,-0.5659491419792175,28.43138122558594,93.50373840332033,-4.629592895507812
144365,-0.6018829345703125,0.6551361083984375,0.0280609130859375,-0.7649165987968445,0.4562894999980927,-0.5859966278076172,28.07705688476562,93.26222229003906,-4.430694580078125
144366,-0.5419921875,0.666351318359375,-0.03582763671875,-0.8592374920845032,0.3426108658313751,-0.5680556893348694,27.27217102050781,92.87297058105467,-4.063858032226562
144367,-0.5419921875,0.666351318359375,-0.03582763671875,-0.8592374920845032,0.3426108658313751,-0.5680556893348694,27.27217102050781,92.87297058105467,-4.063858032226562
144368,-0.5139923095703125,0.704559326171875,-0.0736541748046875,-0.9010499119758606,0.2290310561656952,-0.5694535970687866,26.82769775390625,92.7495574951172,-3.942703247070312
144369,-0.486968994140625,0.771331787109375,-0.1084747314453125,-0.9141390919685364,0.1450530588626862,-0.548803448677063,26.564697265625,92.3829345703125,-3.457290649414062
144370,-0.5084075927734375,0.9388885498046876,-0.1795501708984375,-0.9128149747848512,0.1965250372886658,-0.515026330947876,25.71260070800781,91.80770874023438,-2.658706665039062
144371,-0.5084075927734375,0.9388885498046876,-0.1795501708984375,-0.9128149747848512,0.1965250372886658,-0.515026330947876,25.71260070800781,91.80770874023438,-2.658706665039062
144372,-0.5598297119140625,1.018051147460938,-0.2818145751953125,-0.8897961974143982,0.1632208824157715,-0.4939034581184387,25.25999450683594,91.59878540039062,-2.511566162109375
144373,-0.6495819091796875,1.104660034179688,-0.3732757568359375,-0.8225817680358887,0.0497065708041191,-0.4717850983142853,24.8021240234375,91.23045349121094,-2.17877197265625
144374,-0.7175140380859375,1.114013671875,-0.371185302734375,-0.7327293753623962,-0.1877544522285461,-0.320162296295166,24.20387268066406,90.59609985351562,-1.590286254882812
144375,-0.7175140380859375,1.114013671875,-0.371185302734375,-0.7327293753623962,-0.1877544522285461,-0.320162296295166,24.20387268066406,90.59609985351562,-1.590286254882812
144376,-0.7175445556640625,1.063446044921875,-0.371063232421875,-0.6317577362060547,-0.2024353891611099,-0.2297961860895157,23.84892272949219,90.30731201171876,-1.340469360351562
144377,-0.676177978515625,1.001983642578125,-0.415252685546875,-0.4326813817024231,-0.1606748998165131,-0.1023538038134575,23.67062377929688,90.05647277832031,-1.03436279296875
144378,-0.578094482421875,0.9996490478515624,-0.5774078369140625,0.0458455197513103,-0.0177678111940622,0.1645292937755585,23.58213806152344,89.49003601074219,-0.14251708984375
144379,-0.578094482421875,0.9996490478515624,-0.5774078369140625,0.0458455197513103,-0.0177678111940622,0.1645292937755585,23.58213806152344,89.49003601074219,-0.14251708984375
144380,-0.536285400390625,1.055007934570312,-0.653961181640625,0.2774558365345001,0.0223588347434997,0.2691324055194855,23.62644958496094,89.44659423828125,0.1009368896484375
144381,-0.420166015625,1.2060546875,-0.6845703125,0.5501861572265625,0.2609991133213043,0.3412308394908905,23.78408813476562,89.41020202636719,0.0897979736328125
144382,-0.3746795654296875,1.249832153320312,-0.671173095703125,0.5173954963684082,0.3752987682819366,0.2906720340251923,23.93724060058594,89.49099731445312,-0.091461181640625
144383,-0.3746795654296875,1.249832153320312,-0.671173095703125,0.5173954963684082,0.3752987682819366,0.2906720340251923,23.93724060058594,89.49099731445312,-0.091461181640625
144384,-0.3654327392578125,1.250869750976562,-0.6253814697265625,0.3991622924804688,0.4220572412014008,0.2545965909957886,23.97886657714844,89.64041137695312,-0.1055755615234375
144385,-0.386749267578125,1.237075805664062,-0.5542755126953125,0.2882621586322784,0.4332132041454315,0.2954569458961487,24.07363891601562,89.85697937011719,-0.4627685546875
144386,-0.40496826171875,1.269195556640625,-0.3632659912109375,0.0797070786356926,0.3445669710636139,0.4232583045959473,24.22233581542969,90.1094970703125,-1.073837280273438
144387,-0.40496826171875,1.269195556640625,-0.3632659912109375,0.0797070786356926,0.3445669710636139,0.4232583045959473,24.22233581542969,90.1094970703125,-1.073837280273438
144388,-0.4251861572265625,1.275238037109375,-0.2667694091796875,0.0061255367472767,0.3079791367053986,0.4339264035224915,24.37165832519531,90.2765655517578,-1.389755249023438
144389,-0.481414794921875,1.30035400390625,-0.16717529296875,-0.0128537472337484,0.3157784640789032,0.3932903110980988,24.595947265625,90.39810180664062,-1.571578979492188
144390,-0.620025634765625,1.379302978515625,-0.0085601806640625,0.0536264777183532,0.3467113375663757,0.1782437711954117,24.83647155761719,90.74620056152344,-1.541610717773438
144391,-0.620025634765625,1.379302978515625,-0.0085601806640625,0.0536264777183532,0.3467113375663757,0.1782437711954117,24.83647155761719,90.74620056152344,-1.541610717773438
144392,-0.7059326171875,1.40533447265625,0.0546875,0.1583510190248489,0.3705570101737976,0.0445235259830951,24.86659240722656,90.89533996582033,-1.678054809570312
144393,-0.781036376953125,1.378173828125,0.0817413330078125,0.3131435215473175,0.4042316377162933,-0.0508229658007621,24.96859741210938,91.04655456542967,-1.806198120117188
144394,-0.797454833984375,1.194686889648438,0.001678466796875,0.8005275726318359,0.447298139333725,-0.0543828159570694,25.0263671875,91.27606201171876,-2.01458740234375
144395,-0.797454833984375,1.194686889648438,0.001678466796875,0.8005275726318359,0.447298139333725,-0.0543828159570694,25.0263671875,91.27606201171876,-2.01458740234375
144396,-0.685028076171875,0.9300994873046876,-0.1402587890625,1.022690892219543,0.2222466468811035,-0.0789856314659118,24.84152221679688,91.49220275878906,-2.916229248046875
144397,-0.685028076171875,0.9300994873046876,-0.1402587890625,1.022690892219543,0.2222466468811035,-0.0789856314659118,24.84152221679688,91.49220275878906,-2.916229248046875
144398,-0.547454833984375,0.699951171875,-0.152557373046875,0.9686399102211,-0.2696687579154968,-0.1027559414505959,24.75848388671875,91.90159606933594,-3.667800903320312
144399,-0.547454833984375,0.699951171875,-0.152557373046875,0.9686399102211,-0.2696687579154968,-0.1027559414505959,24.75848388671875,91.90159606933594,-3.667800903320312
144400,-0.49774169921875,0.6081695556640625,-0.159912109375,0.9809868335723876,-0.4713326394557953,-0.1201130896806717,24.80210876464844,92.14602661132812,-4.137222290039062
144401,-0.4991912841796875,0.5548095703125,-0.1227264404296875,1.111193537712097,-0.5745612978935242,-0.0754273757338523,24.86543273925781,92.26960754394533,-4.308761596679688
144402,-0.543670654296875,0.4837188720703125,-0.021240234375,1.256799221038818,-0.5236805081367493,-0.0277019347995519,25.17440795898438,92.5076141357422,-4.735931396484375
144403,-0.543670654296875,0.4837188720703125,-0.021240234375,1.256799221038818,-0.5236805081367493,-0.0277019347995519,25.17440795898438,92.5076141357422,-4.735931396484375
144404,-0.55419921875,0.4365386962890625,0.060028076171875,1.193499684333801,-0.4516699910163879,-0.0259343944489955,25.41255187988281,92.69499206542967,-5.165451049804688
144405,-0.5809326171875,0.3928680419921875,0.1402435302734375,1.072416305541992,-0.2469101846218109,-0.0347787514328956,25.70010375976562,92.89045715332033,-5.566986083984375
144406,-0.5985107421875,0.33880615234375,0.143280029296875,0.9620014429092408,0.0134777259081602,-0.0503004528582096,25.98674011230469,92.97315979003906,-5.821380615234375
144407,-0.590423583984375,0.2893829345703125,0.11614990234375,0.8802090883255005,0.2217401117086411,-0.0556731149554252,26.251220703125,93.0711669921875,-6.250579833984375
144408,-0.5791015625,0.2519989013671875,0.1084747314453125,0.7642883658409119,0.3521940112113953,-0.0402861684560775,26.30636596679688,93.17214965820312,-6.772003173828125
144409,-0.529937744140625,0.2317047119140625,0.092803955078125,0.6098210215568542,0.3280343413352966,-0.0113818179816007,26.35246276855469,93.17759704589844,-7.187484741210938
144410,-0.377044677734375,0.3064727783203125,0.17938232421875,0.1675149649381638,0.2992199957370758,0.0992136672139167,26.35511779785156,93.50308227539062,-8.267425537109375
144411,-0.377044677734375,0.3064727783203125,0.17938232421875,0.1675149649381638,0.2992199957370758,0.0992136672139167,26.35511779785156,93.50308227539062,-8.267425537109375
144412,-0.37591552734375,0.5410614013671875,0.2201080322265625,-0.3216640651226044,0.4130855798721313,0.2171000987291336,26.36128234863281,93.46168518066406,-8.31292724609375
144413,-0.37591552734375,0.5410614013671875,0.2201080322265625,-0.3216640651226044,0.4130855798721313,0.2171000987291336,26.36128234863281,93.46168518066406,-8.31292724609375
144414,-0.4870758056640625,0.6292877197265625,0.117218017578125,-0.6221948266029358,0.5488969087600708,0.1896572858095169,26.40017700195312,93.42683410644533,-8.460830688476562
144415,-0.4870758056640625,0.6292877197265625,0.117218017578125,-0.6221948266029358,0.5488969087600708,0.1896572858095169,26.40017700195312,93.42683410644533,-8.460830688476562
144416,-0.4442138671875,0.7906951904296875,0.0339508056640625,-0.7033360600471497,0.3533327579498291,0.164210245013237,26.4053955078125,93.31184387207033,-8.137298583984375
144417,-0.4088287353515625,0.862457275390625,0.040802001953125,-0.7038170099258423,0.310149610042572,0.1289329528808594,26.38238525390625,93.41021728515624,-8.103836059570312
144418,-0.3724365234375,0.90338134765625,0.0428314208984375,-0.7473881840705872,0.2988055944442749,0.0855503231287002,26.36114501953125,93.30148315429688,-7.8828125
144419,-0.3724365234375,0.90338134765625,0.0428314208984375,-0.7473881840705872,0.2988055944442749,0.0855503231287002,26.36114501953125,93.30148315429688,-7.8828125
144420,-0.358245849609375,0.929351806640625,0.0717926025390625,-0.9808669686317444,0.1602202951908112,-0.0482349060475826,26.31716918945312,93.12240600585938,-7.218505859375
144421,-0.391387939453125,0.921844482421875,0.10894775390625,-1.050854563713074,0.0457232780754566,-0.1328701674938202,26.23106384277344,93.03884887695312,-6.940414428710938
144422,-0.442840576171875,0.916229248046875,0.141387939453125,-1.050814151763916,-0.0233388785272836,-0.2226370722055435,26.138427734375,93.12980651855467,-6.731842041015625
144423,-0.442840576171875,0.916229248046875,0.141387939453125,-1.050814151763916,-0.0233388785272836,-0.2226370722055435,26.138427734375,93.12980651855467,-6.731842041015625
144424,-0.5587921142578125,0.855743408203125,0.1443328857421875,-1.020805597305298,-0.0591786354780197,-0.3978395164012909,25.89109802246094,92.85011291503906,-5.893157958984375
144425,-0.5587921142578125,0.855743408203125,0.1443328857421875,-1.020805597305298,-0.0591786354780197,-0.3978395164012909,25.89109802246094,92.85011291503906,-5.893157958984375
144426,-0.658355712890625,0.7994842529296875,0.062469482421875,-0.9399595260620116,-0.0708973407745361,-0.5288446545600891,25.44392395019531,92.5946807861328,-4.93505859375
144427,-0.658355712890625,0.7994842529296875,0.062469482421875,-0.9399595260620116,-0.0708973407745361,-0.5288446545600891,25.44392395019531,92.5946807861328,-4.93505859375
144428,-0.6746826171875,0.7810516357421875,0.0309906005859375,-0.9055488109588624,0.0574422553181648,-0.569644033908844,25.2042236328125,92.1802978515625,-4.486480712890625
144429,-0.6967620849609375,0.8798065185546875,-0.0920257568359375,-0.8683332800865173,0.3508397936820984,-0.6518478393554688,24.44998168945312,91.69036865234376,-3.90765380859375
144430,-0.705596923828125,0.95086669921875,-0.1706695556640625,-0.8000532388687134,0.4261265397071838,-0.7086626291275024,24.01640319824219,91.42718505859376,-3.658950805664062
144431,-0.7100067138671875,0.9971771240234376,-0.258697509765625,-0.7200668454170227,0.4290168583393097,-0.7351789474487305,23.53550720214844,91.21728515625,-3.404373168945312
144432,-0.7087554931640625,1.025924682617188,-0.348968505859375,-0.6342566013336182,0.314415454864502,-0.6725946664810181,23.20652770996094,90.82720947265624,-2.861602783203125
144433,-0.701171875,1.053817749023438,-0.381683349609375,-0.5819087028503418,0.1892189234495163,-0.5753709077835083,22.77540588378906,90.3925323486328,-2.602081298828125
144434,-0.6898345947265625,1.078018188476562,-0.3791656494140625,-0.5156382918357849,0.153972789645195,-0.4546372890472412,22.29757690429688,90.22177124023438,-2.623580932617188
144435,-0.6898345947265625,1.078018188476562,-0.3791656494140625,-0.5156382918357849,0.153972789645195,-0.4546372890472412,22.29757690429688,90.22177124023438,-2.623580932617188
144436,-0.6339874267578125,1.059799194335938,-0.391815185546875,-0.310709148645401,0.2387918084859848,-0.1539147347211838,21.60356140136719,89.91323852539062,-2.518951416015625
144437,-0.6339874267578125,1.059799194335938,-0.391815185546875,-0.310709148645401,0.2387918084859848,-0.1539147347211838,21.60356140136719,89.91323852539062,-2.518951416015625
144438,-0.5963897705078125,0.91644287109375,-0.45587158203125,-0.1550929099321365,0.5678021907806396,0.2552189826965332,21.29823303222656,89.63587951660156,-2.327102661132812
144439,-0.5963897705078125,0.91644287109375,-0.45587158203125,-0.1550929099321365,0.5678021907806396,0.2552189826965332,21.29823303222656,89.63587951660156,-2.327102661132812
144440,-0.5704498291015625,0.90704345703125,-0.501617431640625,-0.126704677939415,0.6320996880531311,0.3341276347637177,21.23970031738281,89.53959655761719,-2.336822509765625
144441,-0.5525970458984375,0.938262939453125,-0.521087646484375,-0.1189255863428116,0.6812158226966858,0.3826310038566589,21.21556091308594,89.62173461914062,-2.31451416015625
144442,-0.543487548828125,0.98333740234375,-0.528717041015625,-0.1367056518793106,0.7507402896881104,0.4031408131122589,21.18222045898438,89.84364318847656,-2.493240356445312
144443,-0.543487548828125,0.98333740234375,-0.528717041015625,-0.1367056518793106,0.7507402896881104,0.4031408131122589,21.18222045898438,89.84364318847656,-2.493240356445312
144444,-0.551605224609375,1.037857055664062,-0.521484375,-0.1745994985103607,0.7839547395706177,0.4023844599723816,21.23846435546875,89.89657592773438,-2.567474365234375
144445,-0.5719451904296875,1.086090087890625,-0.4993743896484375,-0.1979847252368927,0.7884892821311951,0.3929187953472137,21.29421997070312,89.94154357910156,-2.665817260742188
144446,-0.6255645751953125,1.173980712890625,-0.4312286376953125,-0.133538082242012,0.8068491220474243,0.3526685833930969,21.35443115234375,90.07289123535156,-2.985015869140625
144447,-0.6519775390625,1.180160522460938,-0.3976287841796875,-0.0649885833263397,0.8556656837463379,0.3288790881633759,21.43363952636719,90.08265686035156,-3.026046752929688
144448,-0.6754608154296875,1.158218383789062,-0.3714447021484375,0.0197015330195426,0.8732558488845825,0.3029180467128754,21.37625122070312,90.15625,-3.040603637695312
144449,-0.6832427978515625,1.132568359375,-0.3531494140625,0.0656229555606842,0.830788254737854,0.2634702622890472,21.36238098144531,90.34904479980467,-3.2230224609375
144450,-0.6625518798828125,1.068313598632812,-0.3455657958984375,0.0656972527503967,0.6597433090209961,0.241114616394043,21.324951171875,90.5146484375,-3.527923583984375
144451,-0.6625518798828125,1.068313598632812,-0.3455657958984375,0.0656972527503967,0.6597433090209961,0.241114616394043,21.324951171875,90.5146484375,-3.527923583984375
144452,-0.5717315673828125,0.929931640625,-0.2350921630859375,0.1187466233968735,0.2559622824192047,0.2611229419708252,21.40867614746094,90.77365112304688,-3.86846923828125
144453,-0.5717315673828125,0.929931640625,-0.2350921630859375,0.1187466233968735,0.2559622824192047,0.2611229419708252,21.40867614746094,90.77365112304688,-3.86846923828125
