time_idx,accelerometerAccelerationX(G),accelerometerAccelerationY(G),accelerometerAccelerationZ(G),gyroRotationX(rad/s),gyroRotationY(rad/s),gyroRotationZ(rad/s),magnetometerX(µT),magnetometerY(µT),magnetometerZ(µT)
205136,-3.101165771484375,1.224349975585938,-2.000625610351562,0.3855202496051788,0.6693210601806641,-2.412771463394165,33.31736755371094,94.94271850585938,-33.16828918457031
205137,-2.695205688476562,1.115982055664062,-1.223724365234375,0.907434344291687,1.248729109764099,0.6639819741249084,31.76997375488281,94.27301025390624,-34.28054809570312
205138,-0.117584228515625,0.99822998046875,-1.088821411132812,0.902796983718872,1.045610547065735,1.852006673812866,31.31776428222656,93.94190979003906,-36.12174987792969
205139,0.00140380859375,0.6704254150390625,-0.9981842041015624,0.1490509957075119,0.8667036890983582,1.652683734893799,32.43797302246094,93.96762084960938,-37.06732177734375
205140,0.00140380859375,0.6704254150390625,-0.9981842041015624,0.1490509957075119,0.8667036890983582,1.652683734893799,32.43797302246094,93.96762084960938,-37.06732177734375
205141,-0.15985107421875,0.5239105224609375,-0.607513427734375,-0.3832120895385742,0.8489667177200317,1.442658066749573,34.93467712402344,94.1951904296875,-38.58135986328125
205142,-0.4518585205078125,0.8599395751953125,-0.298126220703125,-0.4013538062572479,0.4761193990707397,1.289929747581482,36.14675903320312,94.48489379882812,-38.768310546875
205143,-0.4518585205078125,0.8599395751953125,-0.298126220703125,-0.4013538062572479,0.4761193990707397,1.289929747581482,36.14675903320312,94.48489379882812,-38.768310546875
205144,-0.6178131103515625,1.295944213867188,-0.0223541259765625,-0.2963514924049377,0.3780514299869537,0.9779364466667176,37.21958923339844,94.71018981933594,-38.94091796875
205145,-0.717803955078125,1.6878662109375,-0.0546112060546875,0.4777290225028992,0.1963910907506943,0.6264076828956604,38.015625,95.06822204589844,-38.91575622558594
205146,-0.88299560546875,2.003936767578125,-0.08856201171875,0.6527724862098694,0.7839738726615906,0.533475399017334,38.84170532226562,95.27447509765624,-39.0926513671875
205147,-0.88299560546875,2.003936767578125,-0.08856201171875,0.6527724862098694,0.7839738726615906,0.533475399017334,38.84170532226562,95.27447509765624,-39.0926513671875
205148,-0.594329833984375,1.347900390625,0.139984130859375,0.7735803723335266,2.492498636245728,0.4513386785984039,38.92527770996094,95.26907348632812,-39.37933349609375
205149,-0.2448883056640625,0.6222381591796875,-0.1103515625,0.8262020349502563,2.163963556289673,0.5524354577064514,39.47108459472656,95.05067443847656,-40.30400085449219
205150,-0.160247802734375,0.5482940673828125,-0.147186279296875,0.648772120475769,1.413887977600098,0.5948383212089539,40.1844482421875,94.83506774902344,-40.57821655273438
205151,-0.160247802734375,0.5482940673828125,-0.147186279296875,0.648772120475769,1.413887977600098,0.5948383212089539,40.1844482421875,94.83506774902344,-40.57821655273438
205152,-0.137176513671875,0.6728057861328125,0.199005126953125,-0.1600879430770874,0.5017025470733643,0.7017184495925903,41.30908203125,94.65383911132812,-41.76466369628906
205153,-0.258544921875,0.8562469482421875,0.471343994140625,-0.4704569876194,0.92044597864151,0.7259947657585144,41.69769287109375,94.5915985107422,-41.9105224609375
205154,-0.4250640869140625,1.120071411132812,0.6320648193359375,-0.7089241743087769,1.626810550689697,0.5917370915412903,42.07850646972656,94.71725463867188,-41.88223266601562
205155,-0.4250640869140625,1.120071411132812,0.6320648193359375,-0.7089241743087769,1.626810550689697,0.5917370915412903,42.07850646972656,94.71725463867188,-41.88223266601562
205156,-0.6945037841796875,1.498062133789062,0.5770111083984375,-0.8848952054977417,2.349256038665771,-0.0792415589094162,43.30369567871094,95.2441864013672,-41.5050048828125
205157,-0.798095703125,1.443099975585938,0.472625732421875,-0.6508278250694275,1.877611875534058,-0.3380440771579742,43.99586486816406,95.48429870605467,-41.40008544921875
205158,-0.822174072265625,1.221267700195312,0.426483154296875,-0.3643422722816467,1.264543175697327,-0.3798189759254456,44.5670166015625,95.7633819580078,-41.21903991699219
205159,-0.822174072265625,1.221267700195312,0.426483154296875,-0.3643422722816467,1.264543175697327,-0.3798189759254456,44.5670166015625,95.7633819580078,-41.21903991699219
205160,-0.7198333740234375,0.938507080078125,0.37152099609375,-0.2291029542684555,0.8171752691268921,-0.3732188642024994,45.06161499023438,96.00555419921876,-41.04405212402344
205161,-0.4906463623046875,0.4515228271484375,0.1456756591796875,-0.1185317039489746,-0.1227693259716034,-0.3458442091941833,45.24050903320312,96.33631896972656,-40.90380859375
205162,-0.45263671875,0.290069580078125,0.16644287109375,0.0144471162930131,-0.5219153761863708,-0.2559830546379089,45.05644226074219,96.5014190673828,-41.00672912597656
205163,-0.45263671875,0.290069580078125,0.16644287109375,0.0144471162930131,-0.5219153761863708,-0.2559830546379089,45.05644226074219,96.5014190673828,-41.00672912597656
205164,-0.4491119384765625,0.2173004150390625,0.274322509765625,0.1428402364253998,-0.5782439112663269,-0.2239468097686768,44.79951477050781,96.59657287597656,-40.82534790039062
205165,-0.4363861083984375,0.1479644775390625,0.360595703125,0.2130457013845444,-0.3211769461631775,-0.2402464300394058,44.48762512207031,96.61677551269533,-40.72088623046875
205166,-0.4107818603515625,0.052825927734375,0.3562469482421875,0.1592559665441513,0.2159245759248734,-0.3267584145069122,44.09622192382812,96.55210876464844,-40.63591003417969
205167,-0.4107818603515625,0.052825927734375,0.3562469482421875,0.1592559665441513,0.2159245759248734,-0.3267584145069122,44.09622192382812,96.55210876464844,-40.63591003417969
205168,-0.391265869140625,0.0809783935546875,0.28729248046875,0.0170479584485292,0.308135986328125,-0.4602394998073578,44.03831481933594,96.443115234375,-40.64382934570312
205169,-0.3616943359375,0.0236663818359375,0.2276611328125,-0.1915079057216644,0.2619597017765045,-0.5518839359283447,43.99754333496094,96.4443359375,-40.77519226074219
205170,-0.2588348388671875,-0.0249481201171875,0.1735992431640625,-0.717592716217041,0.0009861685102805,-0.7750118374824524,43.76200866699219,96.49183654785156,-40.711181640625
205171,-0.2588348388671875,-0.0249481201171875,0.1735992431640625,-0.717592716217041,0.0009861685102805,-0.7750118374824524,43.76200866699219,96.49183654785156,-40.711181640625
205172,-0.226287841796875,-0.0336761474609375,0.175048828125,-1.104027509689331,-0.1281864643096924,-1.016018629074097,43.48832702636719,96.50138854980467,-40.39474487304688
205173,-0.2615966796875,0.0609130859375,0.1807098388671875,-1.187784790992737,-0.1213064566254616,-1.166503190994263,42.89663696289062,96.92271423339844,-39.70703125
205174,-0.3374786376953125,0.19293212890625,0.1370697021484375,-1.171166062355042,-0.1465830504894257,-1.212737560272217,42.41024780273438,97.05389404296876,-39.07661437988281
205175,-0.4047698974609375,0.352783203125,0.02191162109375,-0.8139387369155884,-0.7121529579162598,-1.271866083145142,41.75102233886719,97.31716918945312,-38.52609252929688
205176,-0.4047698974609375,0.352783203125,0.02191162109375,-0.8139387369155884,-0.7121529579162598,-1.271866083145142,41.75102233886719,97.31716918945312,-38.52609252929688
205177,-0.52740478515625,0.6704864501953125,0.0633087158203125,-0.6051282286643982,-0.908202350139618,-1.293882966041565,40.26286315917969,97.87004089355467,-37.66574096679688
205178,-0.5831298828125,0.7673492431640625,0.13568115234375,-0.4729635715484619,-0.8648871183395386,-1.256472706794739,39.36546325683594,98.049072265625,-37.36813354492188
205179,-0.5831298828125,0.7673492431640625,0.13568115234375,-0.4729635715484619,-0.8648871183395386,-1.256472706794739,39.36546325683594,98.049072265625,-37.36813354492188
205180,-0.6025238037109375,0.8099822998046875,0.1468353271484375,-0.4051434993743896,-0.7198529839515686,-1.193648457527161,38.437744140625,98.276123046875,-37.18902587890625
205181,-0.5532073974609375,0.784149169921875,0.0887908935546875,-0.3399791419506073,-0.7834761738777161,-1.014607667922974,37.63694763183594,98.30357360839844,-36.96495056152344
205182,-0.4082183837890625,0.6209869384765625,-0.027496337890625,-0.3447957336902618,-0.9923124313354492,-0.9104498028755188,36.361572265625,98.04574584960938,-36.22395324707031
205183,-0.271820068359375,0.515411376953125,-0.0190277099609375,-0.4932395219802856,-1.142317891120911,-0.730207085609436,35.33157348632812,97.94833374023438,-35.78965759277344
205184,-0.271820068359375,0.515411376953125,-0.0190277099609375,-0.4932395219802856,-1.142317891120911,-0.730207085609436,35.33157348632812,97.94833374023438,-35.78965759277344
205185,-0.2143096923828125,0.4676513671875,-0.04449462890625,-0.5358599424362183,-1.434490919113159,-0.6454756855964661,34.84475708007812,97.9347686767578,-35.54383850097656
205186,-0.16815185546875,0.438720703125,-0.052581787109375,-0.5358599424362183,-1.434490919113159,-0.6454756855964661,34.49838256835938,97.7025146484375,-35.11512756347656
205187,-0.16815185546875,0.438720703125,-0.052581787109375,-0.5358599424362183,-1.434490919113159,-0.6454756855964661,34.49838256835938,97.7025146484375,-35.11512756347656
205188,-0.129364013671875,0.3931427001953125,-0.0445404052734375,-0.5386024713516235,-1.653709888458252,-0.6111627221107483,34.18580627441406,97.59675598144533,-34.60861206054688
205189,-0.0391082763671875,0.27313232421875,-0.03631591796875,-0.6580237150192261,-2.033242225646973,-0.4121880829334259,33.36073303222656,97.3433074951172,-33.74931335449219
205190,0.0022125244140625,0.25634765625,-0.0810394287109375,-0.7802159190177917,-2.144711494445801,-0.1821476966142654,32.79176330566406,97.3687744140625,-33.06350708007812
205191,0.0022125244140625,0.25634765625,-0.0810394287109375,-0.7802159190177917,-2.144711494445801,-0.1821476966142654,32.79176330566406,97.3687744140625,-33.06350708007812
205192,0.057098388671875,0.278900146484375,-0.42584228515625,-0.7211491465568542,-2.580793142318726,0.1255853623151779,32.14588928222656,97.4662628173828,-32.33009338378906
205193,-0.0023040771484375,0.5640869140625,-0.38916015625,0.7608355283737183,-3.725837469100952,0.7335373759269714,31.08064270019531,97.70321655273438,-30.75997924804688
205194,-0.1178741455078125,0.7243194580078125,0.081756591796875,1.094312310218811,-2.147680997848511,0.7946726083755493,30.50213623046875,97.75643920898438,-29.83816528320312
205195,-0.18109130859375,0.855438232421875,0.016632080078125,0.9765864610671996,-0.0095959017053246,0.7866426706314087,30.09333801269531,97.68284606933594,-29.13766479492188
205196,-0.18109130859375,0.855438232421875,0.016632080078125,0.9765864610671996,-0.0095959017053246,0.7866426706314087,30.09333801269531,97.68284606933594,-29.13766479492188
205197,-0.206695556640625,1.06829833984375,-0.5586090087890625,0.7492550611495972,1.244783282279968,0.6430364847183228,30.26345825195312,97.42393493652344,-28.90382385253906
205198,-0.2425079345703125,1.325210571289062,-0.836273193359375,1.056012034416199,0.012181831523776,0.6492205858230591,30.88484191894531,97.0770263671875,-29.21669006347656
205199,-0.2867584228515625,1.640090942382812,-0.900054931640625,1.056012034416199,0.012181831523776,0.6492205858230591,31.56739807128906,96.79627990722656,-29.42901611328125
205200,-0.2867584228515625,1.640090942382812,-0.900054931640625,1.056012034416199,0.012181831523776,0.6492205858230591,31.56739807128906,96.79627990722656,-29.42901611328125
205201,-0.5251007080078125,2.087020874023438,-0.803253173828125,1.037945151329041,1.195661067962646,0.6716241836547852,32.42288208007812,96.49383544921876,-30.194091796875
205202,-0.678619384765625,2.369064331054688,-1.041366577148438,1.04010021686554,1.683671951293945,0.555229127407074,32.76335144042969,96.21351623535156,-30.37420654296875
205203,-0.678619384765625,2.369064331054688,-1.041366577148438,1.04010021686554,1.683671951293945,0.555229127407074,32.76335144042969,96.21351623535156,-30.37420654296875
205204,-0.69720458984375,2.604736328125,-1.048629760742188,1.131524085998535,1.919707179069519,0.4989797174930573,33.178466796875,96.16030883789062,-30.94026184082031
205205,-0.7054901123046875,2.798187255859375,-1.007308959960938,1.047195434570312,1.881215214729309,0.6588804125785828,33.61669921875,96.05809020996094,-32.04887390136719
205206,-1.016189575195312,3.329238891601562,-0.7054901123046875,1.244130849838257,1.855430722236633,0.5345669984817505,34.88653564453125,95.65788269042967,-33.74467468261719
205207,-1.016189575195312,3.329238891601562,-0.7054901123046875,1.244130849838257,1.855430722236633,0.5345669984817505,34.88653564453125,95.65788269042967,-33.74467468261719
205208,-1.138153076171875,3.18353271484375,-0.637481689453125,1.534245252609253,2.187633752822876,0.3770349025726318,35.41973876953125,95.50192260742188,-34.34828186035156
205209,-1.29132080078125,2.9400634765625,-0.7340240478515625,1.657227396965027,2.345366954803467,0.1817165315151215,35.8538818359375,95.46702575683594,-35.44760131835938
205210,-1.566253662109375,2.272537231445312,-0.7995147705078125,1.214947938919067,1.542367100715637,-0.0148071758449077,36.82723999023438,95.33268737792967,-37.6302490234375
205211,-1.566253662109375,2.272537231445312,-0.7995147705078125,1.214947938919067,1.542367100715637,-0.0148071758449077,36.82723999023438,95.33268737792967,-37.6302490234375
205212,-1.573150634765625,1.9951171875,-0.5543365478515625,1.002115249633789,1.087355375289917,-0.2240440249443054,37.28239440917969,95.13253784179688,-38.65179443359375
205213,-1.294967651367188,1.495574951171875,-0.3408203125,0.6404258012771606,0.4788480699062347,-0.2296076267957687,37.91229248046875,95.03025817871094,-40.37794494628906
205214,-1.2479248046875,1.326934814453125,-0.1614532470703125,0.4891944527626038,0.2821073234081268,-0.07646095007658,38.06596374511719,94.77587890625,-40.85739135742188
205215,-1.2479248046875,1.326934814453125,-0.1614532470703125,0.4891944527626038,0.2821073234081268,-0.07646095007658,38.06596374511719,94.77587890625,-40.85739135742188
205216,-1.19903564453125,1.157302856445312,0.57513427734375,0.3503319025039673,2.072589159011841,0.587272047996521,38.57720947265625,94.58348083496094,-41.796142578125
205217,-1.150650024414062,1.085830688476562,0.763702392578125,0.3503319025039673,2.072589159011841,0.587272047996521,38.82388305664062,94.58541870117188,-42.25141906738281
205218,-0.955963134765625,1.018417358398438,0.7623443603515625,0.4469293057918549,2.579797267913818,0.6703586578369141,39.42742919921875,94.31492614746094,-42.50511169433594
205219,-0.955963134765625,1.018417358398438,0.7623443603515625,0.4469293057918549,2.579797267913818,0.6703586578369141,39.42742919921875,94.31492614746094,-42.50511169433594
205220,-0.7433013916015625,0.9008636474609376,0.645294189453125,0.6796176433563232,2.28844141960144,0.3445121049880981,40.34620666503906,94.18711853027344,-42.79627990722656
205221,-0.4323272705078125,0.5868988037109375,0.3984527587890625,0.6078505516052246,1.583117961883545,-0.0518378987908363,42.56755065917969,93.99630737304688,-43.48048400878906
205222,-0.2747802734375,0.431488037109375,0.2542724609375,0.6078505516052246,1.583117961883545,-0.0518378987908363,43.4451904296875,93.68093872070312,-43.76545715332031
205223,-0.2747802734375,0.431488037109375,0.2542724609375,0.6078505516052246,1.583117961883545,-0.0518378987908363,43.4451904296875,93.68093872070312,-43.76545715332031
205224,-0.03741455078125,0.170654296875,0.0148773193359375,0.4360910356044769,0.3182565271854401,-0.0327907018363475,44.709228515625,93.37579345703124,-44.62278747558594
205225,0.010498046875,0.1376953125,0.050506591796875,0.3065495491027832,-0.2671816349029541,0.0076320869848132,44.99400329589844,93.24388122558594,-45.10273742675781
205226,0.03564453125,0.115203857421875,0.11859130859375,0.1750043034553528,-0.6845368146896362,0.0117503991350531,45.15281677246094,93.00944519042967,-45.14437866210938
205227,0.03564453125,0.115203857421875,0.11859130859375,0.1750043034553528,-0.6845368146896362,0.0117503991350531,45.15281677246094,93.00944519042967,-45.14437866210938
205228,0.0420989990234375,0.10101318359375,0.18017578125,0.0326833762228488,-0.9002376794815063,-0.020460532978177,44.90097045898438,93.15054321289062,-45.14198303222656
205229,0.028289794921875,0.09771728515625,0.2032928466796875,-0.0937981307506561,-0.9949036836624146,-0.1126237511634827,44.70330810546875,93.06069946289062,-44.92837524414062
205230,-0.1179046630859375,0.0525054931640625,0.214447021484375,-0.2954263091087341,-0.9426695108413696,-0.4474872350692749,44.25302124023438,92.81793212890624,-44.24917602539062
205231,-0.1179046630859375,0.0525054931640625,0.214447021484375,-0.2954263091087341,-0.9426695108413696,-0.4474872350692749,44.25302124023438,92.81793212890624,-44.24917602539062
205232,-0.23236083984375,-0.004974365234375,0.0213623046875,-0.5110321044921875,-1.222506761550903,-0.696142315864563,43.43925476074219,93.05772399902344,-44.18891906738281
205233,-0.3532562255859375,-0.1121673583984375,-0.0508270263671875,-0.593030571937561,-1.530508041381836,-0.6927542686462402,42.88719177246094,93.11044311523438,-44.04862976074219
205234,-0.48577880859375,-0.1887969970703125,0.001556396484375,-0.6452059149742126,-1.697662353515625,-0.5498013496398926,42.316650390625,93.17234802246094,-43.88519287109375
205235,-0.48577880859375,-0.1887969970703125,0.001556396484375,-0.6452059149742126,-1.697662353515625,-0.5498013496398926,42.316650390625,93.17234802246094,-43.88519287109375
205236,-0.581298828125,-0.1393280029296875,0.15716552734375,-0.7392216324806213,-1.504669785499573,-0.4208396375179291,41.6619873046875,93.25704956054688,-43.55961608886719
205237,-0.627044677734375,0.0480499267578125,0.24853515625,-0.90841943025589,-1.045717597007751,-0.4409614205360413,40.97236633300781,93.45425415039062,-43.31344604492188
205238,-0.5955810546875,0.48980712890625,0.177734375,-1.17277729511261,-0.5218365788459778,-0.7926837801933289,40.07740783691406,93.7143096923828,-42.35636901855469
205239,-0.5955810546875,0.48980712890625,0.177734375,-1.17277729511261,-0.5218365788459778,-0.7926837801933289,40.07740783691406,93.7143096923828,-42.35636901855469
205240,-0.620208740234375,0.595703125,0.188934326171875,-1.136887788772583,-0.3973265886306763,-0.9804531335830688,39.50735473632812,93.9975128173828,-41.72517395019531
205241,-0.6756591796875,0.790618896484375,0.2813873291015625,-0.8567793965339661,0.157427966594696,-1.121738910675049,38.42276000976562,94.57078552246094,-40.70451354980469
205242,-0.69537353515625,0.9125823974609376,0.2770538330078125,-0.6911086440086365,0.5770601034164429,-1.175746440887451,37.87181091308594,94.8480987548828,-40.27799987792969
205243,-0.69537353515625,0.9125823974609376,0.2770538330078125,-0.6911086440086365,0.5770601034164429,-1.175746440887451,37.87181091308594,94.8480987548828,-40.27799987792969
205244,-0.6813812255859375,0.931732177734375,0.13421630859375,-0.5449842214584351,0.7651354670524597,-1.154114127159119,37.29084777832031,94.98757934570312,-39.93930053710938
205245,-0.528472900390625,0.6940155029296875,-0.1758880615234375,-0.4622240960597992,-0.296219140291214,-0.7393633127212524,36.71780395507812,94.92683410644533,-39.42938232421875
205246,-0.37969970703125,0.4752349853515625,-0.134552001953125,-0.6179934740066528,-1.086584687232971,-0.5107956528663635,36.50750732421875,94.8328094482422,-39.15774536132812
205247,-0.37969970703125,0.4752349853515625,-0.134552001953125,-0.6179934740066528,-1.086584687232971,-0.5107956528663635,36.50750732421875,94.8328094482422,-39.15774536132812
205248,-0.2716064453125,0.26739501953125,-0.0456085205078125,-0.7901737093925476,-1.536786198616028,-0.3075266480445862,36.31486511230469,94.88829040527344,-38.94279479980469
205249,-0.22344970703125,0.1432037353515625,-0.016326904296875,-0.8308146595954895,-1.630592584609985,-0.2105337977409363,35.82225036621094,95.0762939453125,-38.57899475097656
205250,-0.0945892333984375,-0.0394134521484375,-0.072021484375,-0.5511310696601868,-1.349424481391907,-0.0896366760134697,34.74922180175781,95.52706909179688,-37.24334716796875
205251,-0.0945892333984375,-0.0394134521484375,-0.072021484375,-0.5511310696601868,-1.349424481391907,-0.0896366760134697,34.74922180175781,95.52706909179688,-37.24334716796875
205252,-0.051513671875,-0.095550537109375,-0.08648681640625,-0.3348086178302765,-1.070656538009644,0.0387801527976989,34.25704956054688,95.68733215332033,-36.76138305664062
205253,0.0196533203125,-0.1233062744140625,-0.1081695556640625,-0.0532517693936824,-0.4793042838573456,0.3596194088459015,33.864990234375,95.79159545898438,-35.91682434082031
205254,0.00146484375,-0.06982421875,-0.1738433837890625,-0.0337891206145286,-0.2447421103715897,0.4943529963493347,33.86521911621094,95.767578125,-35.56179809570312
205255,0.00146484375,-0.06982421875,-0.1738433837890625,-0.0337891206145286,-0.2447421103715897,0.4943529963493347,33.86521911621094,95.767578125,-35.56179809570312
205256,-0.1307830810546875,0.1984710693359375,-0.3556976318359375,0.3491278886795044,-0.0204083360731601,-0.0381354019045829,34.15509033203125,95.873291015625,-35.21711730957031
205257,-0.2090911865234375,0.321533203125,-0.3957672119140625,0.3491278886795044,-0.0204083360731601,-0.0381354019045829,34.09968566894531,95.85792541503906,-35.12451171875
205258,-0.3335418701171875,0.444366455078125,-0.54400634765625,0.2664287686347961,0.4408474266529083,-0.3004322648048401,34.06350708007812,95.76783752441406,-35.01860046386719
205259,-0.3335418701171875,0.444366455078125,-0.54400634765625,0.2664287686347961,0.4408474266529083,-0.3004322648048401,34.06350708007812,95.76783752441406,-35.01860046386719
205260,-0.4937896728515625,0.5413055419921875,-0.7638092041015625,0.111773669719696,0.6901099681854248,-0.4687855839729309,33.98597717285156,95.68576049804688,-35.19003295898438
205261,-0.60101318359375,0.78125,-0.6829833984375,0.2842865884304047,0.3706137537956238,-0.6633609533309937,33.77706909179688,95.47439575195312,-35.4398193359375
205262,-0.646881103515625,0.913909912109375,-0.6258087158203125,0.5729769468307495,0.3109442889690399,-0.6774855256080627,33.62797546386719,95.27871704101562,-35.53366088867188
205263,-0.70184326171875,1.088058471679688,-0.709930419921875,1.024149179458618,0.4076242446899414,-0.6492877006530762,33.36544799804688,95.03753662109376,-35.72480773925781
205264,-0.70184326171875,1.088058471679688,-0.709930419921875,1.024149179458618,0.4076242446899414,-0.6492877006530762,33.36544799804688,95.03753662109376,-35.72480773925781
205265,-0.6798858642578125,1.491867065429688,-1.151626586914062,1.815510988235474,0.976848006248474,-0.4099699556827545,32.72279357910156,94.37947082519533,-36.57368469238281
205266,-0.6782989501953125,1.846038818359375,-1.842117309570312,1.768691539764404,0.7673680186271667,-0.2214841842651367,32.52215576171875,93.70635986328124,-37.1651611328125
205267,-0.6782989501953125,1.846038818359375,-1.842117309570312,1.768691539764404,0.7673680186271667,-0.2214841842651367,32.52215576171875,93.70635986328124,-37.1651611328125
205268,-0.6656494140625,2.287445068359375,-2.27471923828125,0.918653666973114,0.4041376113891602,0.059981845319271,32.41940307617188,93.22639465332033,-38.07276916503906
205269,-0.390411376953125,2.498794555664062,-1.029312133789062,-0.4348017871379852,0.1357857882976532,0.8629416823387146,32.66796875,92.51011657714844,-39.12019348144531
205270,-0.467193603515625,2.694732666015625,-0.7453460693359375,0.271635502576828,0.5313054323196411,1.321523904800415,33.17140197753906,92.57156372070312,-38.99111938476562
205271,-0.467193603515625,2.694732666015625,-0.7453460693359375,0.271635502576828,0.5313054323196411,1.321523904800415,33.17140197753906,92.57156372070312,-38.99111938476562
205272,-0.64044189453125,2.979461669921875,-0.9567718505859376,1.20197331905365,0.8739943504333496,1.769896626472473,33.80543518066406,92.64303588867188,-38.91487121582031
205273,-0.3233184814453125,2.707809448242188,-1.339523315429688,1.020852208137512,0.6640738844871521,2.08767557144165,35.31385803222656,92.91668701171876,-40.1473388671875
205274,-0.1917724609375,2.256866455078125,-1.0469970703125,0.8721844553947449,0.3557533025741577,1.787748098373413,36.25936889648438,92.86740112304688,-40.92010498046875
205275,-0.1917724609375,2.256866455078125,-1.0469970703125,0.8721844553947449,0.3557533025741577,1.787748098373413,36.25936889648438,92.86740112304688,-40.92010498046875
205276,-0.1672821044921875,1.899261474609375,-0.767547607421875,1.072363615036011,0.2512913644313812,1.470111012458801,37.15789794921875,92.91452026367188,-41.60078430175781
205277,-0.1133270263671875,1.516845703125,-0.6872711181640625,1.437651634216309,0.1198885887861252,1.139869213104248,37.90835571289062,93.0722198486328,-42.20611572265625
205278,0.201751708984375,0.97711181640625,-0.910064697265625,1.821331858634949,-0.5371638536453247,0.7462153434753418,39.18455505371094,92.4719696044922,-42.882080078125
205279,0.201751708984375,0.97711181640625,-0.910064697265625,1.821331858634949,-0.5371638536453247,0.7462153434753418,39.18455505371094,92.4719696044922,-42.882080078125
205280,0.4024658203125,0.8944244384765625,-1.203765869140625,1.325229167938232,-1.393253803253174,0.7811850309371948,39.56221008300781,92.09196472167967,-43.43461608886719
205281,-0.5486602783203125,1.955429077148438,-0.2697906494140625,0.4690588414669037,-1.984372138977051,0.6485803723335266,39.67369079589844,91.64909362792967,-44.83906555175781
205282,-1.02734375,2.142532348632812,0.5947113037109375,0.8779554963111877,0.4863193035125732,-0.4004475474357605,39.46385192871094,91.51852416992188,-44.99348449707031
205283,-1.156890869140625,2.041946411132812,0.836151123046875,0.8779554963111877,0.4863193035125732,-0.4004475474357605,39.3973388671875,91.52452087402344,-45.261474609375
205284,-1.156890869140625,2.041946411132812,0.836151123046875,0.8779554963111877,0.4863193035125732,-0.4004475474357605,39.3973388671875,91.52452087402344,-45.261474609375
205285,-1.415420532226562,1.550537109375,0.5980072021484375,1.535122156143188,1.291217088699341,0.0131767885759472,39.36981201171875,91.3937530517578,-45.78465270996094
205286,-1.899154663085938,0.280914306640625,0.6368255615234375,1.267282247543335,1.81329071521759,0.9000381827354431,40.05157470703125,90.73471069335938,-47.1929931640625
205287,-1.899154663085938,0.280914306640625,0.6368255615234375,1.267282247543335,1.81329071521759,0.9000381827354431,40.05157470703125,90.73471069335938,-47.1929931640625
205288,-1.4559326171875,0.265716552734375,0.438201904296875,0.7549382448196411,1.801244378089905,1.057608604431152,40.73554992675781,90.36239624023438,-48.13197326660156
205289,-0.9062042236328124,0.3304901123046875,0.528411865234375,-0.2056604772806168,1.269824504852295,0.8680078387260437,42.62298583984375,90.05426025390625,-49.61276245117188
205290,-0.7623138427734375,0.3579254150390625,0.5144500732421875,-0.5024940371513367,1.276742100715637,0.6807897090911865,43.37216186523438,90.14657592773438,-49.73866271972656
205291,-0.7623138427734375,0.3579254150390625,0.5144500732421875,-0.5024940371513367,1.276742100715637,0.6807897090911865,43.37216186523438,90.14657592773438,-49.73866271972656
205292,-0.5028533935546875,0.37005615234375,0.46795654296875,-0.8079689741134644,1.069308400154114,0.6501979827880859,44.29087829589844,90.7430419921875,-49.53289794921875
205293,-0.45556640625,0.40228271484375,0.518798828125,-0.9011133313179016,1.071714639663696,0.6844545006752014,44.54269409179688,91.22019958496094,-49.48930358886719
205294,-0.4377288818359375,0.4206695556640625,0.5676422119140625,-0.9833413362503052,1.23273491859436,0.6514906883239746,44.69583129882812,91.79792785644533,-49.04852294921875
205295,-0.4377288818359375,0.4206695556640625,0.5676422119140625,-0.9833413362503052,1.23273491859436,0.6514906883239746,44.69583129882812,91.79792785644533,-49.04852294921875
205296,-0.4500732421875,0.3703460693359375,0.56610107421875,-1.066205263137817,1.511933207511902,0.5177320837974548,44.83406066894531,92.38821411132812,-48.59675598144531
205297,-0.4346771240234375,0.2311859130859375,0.375823974609375,-0.8929480314254761,1.049048662185669,-0.0849298015236854,45.68527221679688,93.47297668457033,-48.02877807617188
205298,-0.3805999755859375,0.1542816162109375,0.3115692138671875,-0.7873462438583374,0.4673781096935272,-0.2786302864551544,46.39344787597656,93.83314514160156,-47.58140563964844
205299,-0.318511962890625,0.08251953125,0.2594451904296875,-0.7873462438583374,0.4673781096935272,-0.2786302864551544,47.06730651855469,93.97975158691406,-47.01741027832031
205300,-0.318511962890625,0.08251953125,0.2594451904296875,-0.7873462438583374,0.4673781096935272,-0.2786302864551544,47.06730651855469,93.97975158691406,-47.01741027832031
205301,-0.24713134765625,0.0400390625,0.232269287109375,-0.7447341084480286,-0.1687349528074265,-0.4305620491504669,47.72346496582031,94.12532043457033,-46.51371765136719
205302,-0.0830535888671875,0.0459136962890625,0.255279541015625,-0.9608304500579834,-1.409882307052612,-0.5107860565185547,48.34182739257812,93.8224639892578,-45.45976257324219
205303,-0.0830535888671875,0.0459136962890625,0.255279541015625,-0.9608304500579834,-1.409882307052612,-0.5107860565185547,48.34182739257812,93.8224639892578,-45.45976257324219
205304,-0.0416412353515625,0.2679290771484375,0.4210052490234375,-1.497089028358459,-2.402962684631348,-0.4436275064945221,47.8092041015625,94.03909301757812,-44.86041259765625
205305,-0.079132080078125,0.4407196044921875,0.5564422607421875,-1.816936254501343,-2.638068914413452,-0.447596937417984,47.26118469238281,94.11212158203124,-44.37367248535156
205306,-0.122833251953125,0.59423828125,0.688568115234375,-2.151623249053955,-2.600507020950317,-0.4116887450218201,46.63589477539062,94.25018310546876,-43.62203979492188
205307,-0.122833251953125,0.59423828125,0.688568115234375,-2.151623249053955,-2.600507020950317,-0.4116887450218201,46.63589477539062,94.25018310546876,-43.62203979492188
205308,-0.1636199951171875,0.76605224609375,0.782989501953125,-2.477243661880493,-2.335010051727295,-0.3214981257915497,45.99955749511719,94.54061889648438,-42.83096313476562
205309,-0.188568115234375,1.091567993164062,0.787017822265625,-3.098016023635864,-1.260207295417786,-0.0298620257526636,44.59587097167969,95.36026000976562,-40.89242553710938
205310,-0.207061767578125,1.196563720703125,0.6573638916015625,-3.329097509384155,-0.7483863234519958,0.1111206635832787,43.97354125976562,95.865966796875,-39.65414428710938
205311,-0.207061767578125,1.196563720703125,0.6573638916015625,-3.329097509384155,-0.7483863234519958,0.1111206635832787,43.97354125976562,95.865966796875,-39.65414428710938
205312,-0.3245849609375,1.066497802734375,0.300445556640625,-3.297772884368896,-0.2594981491565704,-0.2208391726016998,42.87348937988281,97.60316467285156,-36.80867004394531
205313,-0.3632965087890625,0.9130401611328124,0.1460723876953125,-3.107106447219849,-0.148402526974678,-0.4470438063144684,42.322509765625,98.5019989013672,-35.16091918945312
205314,-0.3826904296875,0.7977142333984375,0.035125732421875,-2.80467677116394,0.0063516390509903,-0.6793447136878967,41.86505126953125,99.15901184082033,-33.51828002929688
205315,-0.3826904296875,0.7977142333984375,0.035125732421875,-2.80467677116394,0.0063516390509903,-0.6793447136878967,41.86505126953125,99.15901184082033,-33.51828002929688
205316,-0.3901824951171875,0.707000732421875,-0.317138671875,-2.203336477279663,-0.065473549067974,-0.9576117396354676,41.33721923828125,99.91775512695312,-32.00042724609375
205317,-0.398223876953125,0.4368438720703125,-0.742401123046875,0.1543946266174316,-1.694323897361755,-1.409197568893433,39.96806335449219,100.8849639892578,-29.52963256835938
205318,-0.3570404052734375,0.334930419921875,-0.3888092041015625,0.7297287583351135,-1.748161554336548,-1.257813096046448,39.00135803222656,101.0267791748047,-28.89747619628906
205319,-0.3570404052734375,0.334930419921875,-0.3888092041015625,0.7297287583351135,-1.748161554336548,-1.257813096046448,39.00135803222656,101.0267791748047,-28.89747619628906
205320,-0.358795166015625,0.2783203125,-0.3177032470703125,0.2734824120998383,-0.1558939963579178,-0.6897251605987549,38.00715637207031,100.7651977539062,-28.7978515625
205321,-0.0871734619140625,0.4688262939453125,-0.8695831298828125,0.2343768179416656,-0.3601376712322235,-0.5055750012397766,36.58805847167969,100.0608367919922,-29.20280456542969
205322,0.021240234375,0.4992828369140625,-0.69879150390625,0.4556831121444702,-1.246118664741516,0.0265905987471342,36.42454528808594,99.58253479003906,-29.228759765625
205323,0.021240234375,0.4992828369140625,-0.69879150390625,0.4556831121444702,-1.246118664741516,0.0265905987471342,36.42454528808594,99.58253479003906,-29.228759765625
205324,0.07305908203125,0.5770721435546875,-0.425689697265625,0.4556831121444702,-1.246118664741516,0.0265905987471342,36.39529418945312,99.19172668457033,-29.18035888671875
205325,0.0533294677734375,0.667236328125,-0.2863006591796875,0.5727466344833374,-0.1578138619661331,-0.0583610460162162,36.04316711425781,98.90792846679688,-28.90216064453125
205326,0.057830810546875,0.6100006103515625,-0.4134979248046875,0.6647172570228577,0.1262210458517075,-0.4276096522808075,35.99166870117188,98.71408081054688,-28.74433898925781
205327,0.0076141357421875,0.645233154296875,-0.5872955322265625,0.6647172570228577,0.1262210458517075,-0.4276096522808075,35.84280395507812,98.697021484375,-28.734619140625
205328,0.0076141357421875,0.645233154296875,-0.5872955322265625,0.6647172570228577,0.1262210458517075,-0.4276096522808075,35.84280395507812,98.697021484375,-28.734619140625
205329,-0.328643798828125,0.936126708984375,-0.8134765625,0.7183802127838135,-0.5753583908081055,-0.615446925163269,35.50102233886719,98.43408203125,-29.12492370605469
205330,-0.4912567138671875,1.14306640625,-0.97265625,0.9450038075447084,-0.6588923931121826,-0.6562343239784241,35.27937316894531,98.24504089355467,-29.42213439941406
205331,-0.4912567138671875,1.14306640625,-0.97265625,0.9450038075447084,-0.6588923931121826,-0.6562343239784241,35.27937316894531,98.24504089355467,-29.42213439941406
205332,-0.56512451171875,1.631561279296875,-0.7993316650390625,1.342838287353516,0.2927482426166534,-0.5971406102180481,34.47221374511719,97.72193908691406,-29.82963562011719
205333,-0.5063018798828125,1.857528686523438,-0.563232421875,1.297792196273804,0.833398163318634,-1.018348336219788,34.0263671875,97.39881896972656,-30.28207397460938
205334,-0.51666259765625,2.021926879882812,-0.3571014404296875,1.297792196273804,0.833398163318634,-1.018348336219788,33.69795227050781,97.10565185546876,-30.69697570800781
205335,-0.51666259765625,2.021926879882812,-0.3571014404296875,1.297792196273804,0.833398163318634,-1.018348336219788,33.69795227050781,97.10565185546876,-30.69697570800781
205336,-0.5527496337890625,2.089340209960938,-0.2071533203125,1.544391632080078,0.6680023074150085,-1.479929208755493,33.47108459472656,96.92445373535156,-31.33474731445312
205337,-0.6672821044921875,2.174880981445312,-0.159576416015625,1.722080588340759,0.4929351210594177,-1.830095767974854,33.14108276367188,96.6164093017578,-32.2216796875
205338,-1.579696655273438,2.188461303710938,-0.793243408203125,0.972525417804718,-0.1752778142690659,-0.9907928705215454,32.13815307617188,95.83357238769533,-34.32192993164062
205339,-1.579696655273438,2.188461303710938,-0.793243408203125,0.972525417804718,-0.1752778142690659,-0.9907928705215454,32.13815307617188,95.83357238769533,-34.32192993164062
205340,-1.893264770507812,2.370880126953125,-0.78857421875,0.2670319676399231,-0.3434580266475677,0.6565528512001038,31.27560424804688,95.4862060546875,-35.41664123535156
205341,-1.0772705078125,2.822372436523438,0.539154052734375,0.8254611492156982,0.4023964405059814,1.07355272769928,30.61778259277344,95.10498046875,-36.33651733398438
205342,-1.0772705078125,2.822372436523438,0.539154052734375,0.8254611492156982,0.4023964405059814,1.07355272769928,30.61778259277344,95.10498046875,-36.33651733398438
205343,-0.79107666015625,2.667236328125,0.2610015869140625,1.527752757072449,0.3920191824436188,1.246405243873596,31.72225952148438,95.45883178710938,-36.97262573242188
205344,-0.79107666015625,2.667236328125,0.2610015869140625,1.527752757072449,0.3920191824436188,1.246405243873596,31.72225952148438,95.45883178710938,-36.97262573242188
205345,-0.67034912109375,2.511566162109375,0.5142364501953125,1.427160859107971,-0.2041339576244354,1.201225996017456,33.20747375488281,95.2750244140625,-38.50556945800781
205346,-0.6251220703125,2.259674072265625,0.625030517578125,1.362908601760864,-0.0156282279640436,0.9719374179840088,33.99858093261719,95.09713745117188,-39.33927917480469
205347,-0.6251220703125,2.259674072265625,0.625030517578125,1.362908601760864,-0.0156282279640436,0.9719374179840088,33.99858093261719,95.09713745117188,-39.33927917480469
205348,-0.589019775390625,1.376129150390625,0.52423095703125,1.326759934425354,0.4642598032951355,0.7853659391403198,35.4219970703125,94.622802734375,-40.50032043457031
205349,-0.5477142333984375,1.025741577148438,0.3836517333984375,1.377956509590149,0.5902220010757446,0.8439147472381592,36.04913330078125,94.3896484375,-41.142578125
205350,-0.4971923828125,0.742218017578125,0.189697265625,1.5871901512146,0.0016468988033011,0.955860197544098,36.69985961914062,94.19435119628906,-41.87179565429688
205351,-0.4971923828125,0.742218017578125,0.189697265625,1.5871901512146,0.0016468988033011,0.955860197544098,36.69985961914062,94.19435119628906,-41.87179565429688
205352,-0.315673828125,0.334930419921875,-0.1488494873046875,1.601507663726807,-0.5415362119674683,1.033838033676147,38.11260986328125,93.57125854492188,-43.07164001464844
205353,-0.2325439453125,0.2438507080078125,-0.0637054443359375,1.453717947006226,-0.7941617965698242,1.083845019340515,38.53340148925781,93.3690185546875,-43.76567077636719
205354,-0.171844482421875,0.1826629638671875,0.14520263671875,1.115125179290771,-0.4896573126316071,1.11678671836853,38.73033142089844,93.08561706542967,-44.39570617675781
205355,-0.171844482421875,0.1826629638671875,0.14520263671875,1.115125179290771,-0.4896573126316071,1.11678671836853,38.73033142089844,93.08561706542967,-44.39570617675781
205356,-0.1815948486328125,0.1533660888671875,0.32049560546875,-0.2035216987133026,1.206998348236084,1.006961941719055,39.18302917480469,92.44729614257812,-45.37330627441406
205357,-0.1815948486328125,0.1533660888671875,0.32049560546875,-0.2035216987133026,1.206998348236084,1.006961941719055,39.18302917480469,92.44729614257812,-45.37330627441406
205358,-0.36566162109375,0.2174224853515625,0.2037200927734375,-0.4418213367462158,1.158737659454346,0.886594831943512,40.42320251464844,92.16729736328124,-45.77189636230469
205359,-0.412750244140625,0.1981048583984375,0.112701416015625,-0.609247088432312,0.8436359167098999,0.7608680725097656,41.41781616210938,92.26081848144533,-45.67735290527344
205360,-0.412750244140625,0.1981048583984375,0.112701416015625,-0.609247088432312,0.8436359167098999,0.7608680725097656,41.41781616210938,92.26081848144533,-45.67735290527344
205361,-0.3177642822265625,0.1732635498046875,0.0196990966796875,-0.7886418700218201,0.0669372230768203,0.4476512670516968,42.8585205078125,92.737060546875,-45.47016906738281
205362,-0.2279510498046875,0.2010955810546875,0.0616912841796875,-0.7886418700218201,0.0669372230768203,0.4476512670516968,43.27145385742188,92.96827697753906,-45.26219177246094
205363,-0.2279510498046875,0.2010955810546875,0.0616912841796875,-0.7886418700218201,0.0669372230768203,0.4476512670516968,43.27145385742188,92.96827697753906,-45.26219177246094
205364,-0.1738128662109375,0.2472991943359375,0.1667633056640625,-0.8644535541534424,0.2741420865058899,0.3265711963176727,43.41806030273438,93.21163940429688,-44.96315002441406
205365,-0.250457763671875,0.5187225341796875,0.3744354248046875,-1.208090305328369,1.011479735374451,0.0256651490926742,43.63853454589844,93.83384704589844,-44.5576171875
205366,-0.362335205078125,0.6221923828125,0.4389801025390625,-1.478443264961243,1.248416185379028,-0.1399283409118652,43.81195068359375,94.1354522705078,-44.27381896972656
205367,-0.362335205078125,0.6221923828125,0.4389801025390625,-1.478443264961243,1.248416185379028,-0.1399283409118652,43.81195068359375,94.1354522705078,-44.27381896972656
205368,-0.4766082763671875,0.6855926513671875,0.4443817138671875,-1.991333365440369,1.085598945617676,-0.4107151031494141,44.04713439941406,94.46849060058594,-43.75093078613281
205369,-0.569793701171875,0.732757568359375,0.4047698974609375,-1.991333365440369,1.085598945617676,-0.4107151031494141,44.23005676269531,94.91729736328124,-43.09587097167969
205370,-0.5588531494140625,0.726531982421875,0.36859130859375,-2.039760589599609,0.2319778352975845,-0.4745998084545135,44.61520385742188,95.8681640625,-41.66023254394531
205371,-0.5588531494140625,0.726531982421875,0.36859130859375,-2.039760589599609,0.2319778352975845,-0.4745998084545135,44.61520385742188,95.8681640625,-41.66023254394531
205372,-0.47259521484375,0.7222137451171875,0.3692169189453125,-1.692608237266541,-0.3168234825134277,-0.4646110832691193,44.64524841308594,96.36468505859376,-40.84732055664062
205373,-0.3801116943359375,0.7279205322265625,0.3495330810546875,-1.482281088829041,-0.3744886517524719,-0.4670156538486481,44.47297668457031,96.81584167480467,-39.99655151367188
205374,-0.2430572509765625,0.63909912109375,0.179443359375,-1.225871205329895,-0.3758798837661743,-0.4840399026870728,43.96504211425781,97.61781311035156,-38.34431457519531
205375,-0.2430572509765625,0.63909912109375,0.179443359375,-1.225871205329895,-0.3758798837661743,-0.4840399026870728,43.96504211425781,97.61781311035156,-38.34431457519531
205376,-0.202728271484375,0.5310821533203125,0.0836181640625,-0.7032220363616943,-0.3834318220615387,-0.4369943737983704,43.55450439453125,97.92027282714844,-37.6217041015625
205377,-0.147979736328125,0.301788330078125,-0.113250732421875,-0.5055598616600037,-0.3852755129337311,-0.3734098076820374,42.96043395996094,98.33161926269533,-36.4530029296875
205378,-0.14239501953125,0.2093658447265625,-0.1798248291015625,-0.207822173833847,-0.3169353306293488,-0.3712222874164581,42.75852966308594,98.36776733398438,-35.97085571289062
205379,-0.14239501953125,0.2093658447265625,-0.1798248291015625,-0.207822173833847,-0.3169353306293488,-0.3712222874164581,42.75852966308594,98.36776733398438,-35.97085571289062
205380,-0.05023193359375,0.0618438720703125,-0.1894073486328125,-0.1639388650655746,-0.2727710902690887,-0.3100220561027527,42.10525512695312,98.54367065429688,-35.53755187988281
205381,-0.00665283203125,0.012298583984375,-0.20501708984375,-0.1663479655981064,-0.2648332715034485,-0.2133892476558685,41.79765319824219,98.57167053222656,-35.20828247070312
205382,0.03594970703125,-0.02142333984375,-0.2584991455078125,-0.1685655862092972,-0.3597880005836487,-0.1031085401773453,41.55703735351562,98.57247924804688,-35.08149719238281
205383,0.074615478515625,-0.040557861328125,-0.3336181640625,-0.1375759690999985,-0.5966674089431763,0.0171976294368505,41.35653686523438,98.50387573242188,-34.99246215820312
205384,0.074615478515625,-0.040557861328125,-0.3336181640625,-0.1375759690999985,-0.5966674089431763,0.0171976294368505,41.35653686523438,98.50387573242188,-34.99246215820312
205385,0.1209259033203125,0.062103271484375,-0.368682861328125,-0.0436697155237197,-1.186169862747192,0.163764700293541,41.09686279296875,98.45462036132812,-34.50923156738281
205386,0.1297149658203125,0.199462890625,-0.36712646484375,0.0072445971891283,-1.344956278800964,0.1376747786998749,41.00904846191406,98.49276733398438,-34.29360961914062
205387,0.1297149658203125,0.199462890625,-0.36712646484375,0.0072445971891283,-1.344956278800964,0.1376747786998749,41.00904846191406,98.49276733398438,-34.29360961914062
205388,0.137664794921875,0.368255615234375,-0.3915863037109375,0.2275434136390686,-1.182013154029846,-0.1371900737285614,40.73672485351562,98.47085571289062,-33.93901062011719
205389,0.1401519775390625,0.73199462890625,-0.4578704833984375,0.3499588072299957,-0.8291754722595215,-0.3445872068405151,40.12214660644531,98.4515380859375,-33.216064453125
205390,0.0758819580078125,0.85797119140625,-0.513214111328125,0.5006838440895081,-0.5839593410491943,-0.6274660229682922,39.35795593261719,98.26141357421876,-32.81283569335938
205391,0.0758819580078125,0.85797119140625,-0.513214111328125,0.5006838440895081,-0.5839593410491943,-0.6274660229682922,39.35795593261719,98.26141357421876,-32.81283569335938
205392,-0.008392333984375,0.9056549072265624,-0.5839691162109375,0.6867887377738953,-0.6330464482307434,-0.9322760105133056,39.02467346191406,98.07212829589844,-32.8177490234375
205393,-0.2445220947265625,0.9044036865234376,-0.7832183837890625,1.248892307281494,-1.036158204078674,-1.337477087974548,37.97756958007812,97.47344970703124,-33.06039428710938
205394,-0.3123016357421875,1.001068115234375,-0.9263763427734376,1.581067085266113,-1.130976557731628,-1.319246649742126,37.34162902832031,97.01992797851562,-33.34756469726562
205395,-0.3123016357421875,1.001068115234375,-0.9263763427734376,1.581067085266113,-1.130976557731628,-1.319246649742126,37.34162902832031,97.01992797851562,-33.34756469726562
205396,-0.3060455322265625,1.199722290039062,-1.00128173828125,1.710715293884277,-0.9224457740783693,-1.021984338760376,36.63485717773438,96.6211395263672,-33.67117309570312
205397,-0.3060455322265625,1.199722290039062,-1.00128173828125,1.710715293884277,-0.9224457740783693,-1.021984338760376,36.63485717773438,96.6211395263672,-33.67117309570312
205398,-0.4081878662109375,1.844314575195312,-0.629608154296875,0.6774178743362427,-0.4321005344390869,-0.0624199695885181,35.47193908691406,95.28384399414062,-34.79780578613281
205399,-0.839813232421875,2.065948486328125,-0.67706298828125,1.817046523094177,-1.144482254981995,-0.8680991530418396,35.28216552734375,94.9277801513672,-34.79156494140625
205400,-0.839813232421875,2.065948486328125,-0.67706298828125,1.817046523094177,-1.144482254981995,-0.8680991530418396,35.28216552734375,94.9277801513672,-34.79156494140625
205401,-1.20501708984375,2.05902099609375,-0.6759490966796875,2.34166407585144,-0.8364821076393127,-1.355040907859802,34.64509582519531,94.75944519042967,-35.84416198730469
205402,-1.667144775390625,1.822555541992188,-0.854156494140625,2.227962017059326,0.1231914386153221,-1.473373651504517,33.83082580566406,94.45164489746094,-37.18647766113281
205403,-1.667144775390625,1.822555541992188,-0.854156494140625,2.227962017059326,0.1231914386153221,-1.473373651504517,33.83082580566406,94.45164489746094,-37.18647766113281
205404,-2.102783203125,1.624710083007812,-1.092987060546875,1.495314598083496,1.035894870758057,-0.907149076461792,32.93887329101562,94.0858917236328,-38.66560363769531
205405,-2.003036499023438,1.922164916992188,-1.082275390625,0.6890838742256165,1.161736607551575,-0.2432419508695602,32.43498229980469,93.70687866210938,-39.94422912597656
205406,-1.226821899414062,2.397705078125,-0.13037109375,0.0974344089627265,1.3505539894104,-0.0088933603838086,32.57229614257812,93.41635131835938,-41.30726623535156
205407,-1.226821899414062,2.397705078125,-0.13037109375,0.0974344089627265,1.3505539894104,-0.0088933603838086,32.57229614257812,93.41635131835938,-41.30726623535156
205408,-1.230316162109375,2.431991577148438,-0.01983642578125,0.0844373852014541,1.500617980957031,0.2180564254522324,33.03285217285156,93.4312744140625,-41.58366394042969
205409,-1.212173461914062,2.286041259765625,0.022369384765625,0.0361510813236236,1.066263437271118,0.8937374353408813,33.88084411621094,93.50596618652344,-42.23817443847656
205410,-1.070098876953125,2.02685546875,0.02313232421875,0.0151954647153616,0.8957579731941223,1.239492654800415,34.39720153808594,93.4342803955078,-42.48307800292969
205411,-1.070098876953125,2.02685546875,0.02313232421875,0.0151954647153616,0.8957579731941223,1.239492654800415,34.39720153808594,93.4342803955078,-42.48307800292969
205412,-0.756805419921875,1.744247436523438,0.1007537841796875,0.3921453952789307,0.7099856734275818,1.373676538467407,35.75312805175781,93.73820495605467,-43.06507873535156
205413,-0.6217193603515625,1.61773681640625,0.107147216796875,0.6533746123313904,0.649149477481842,1.238853573799133,36.63572692871094,93.8128662109375,-43.34751892089844
205414,-0.48040771484375,1.492691040039062,0.1225128173828125,0.7885502576828003,0.6404204368591309,1.021942257881165,37.47090148925781,93.6794891357422,-43.62741088867188
205415,-0.320556640625,1.341476440429688,0.0926361083984375,0.7635378837585449,0.6629806160926819,0.8216410875320435,38.37051391601562,93.5495147705078,-44.1658935546875
205416,-0.1385498046875,1.175384521484375,-0.0063018798828125,0.6578710675239563,0.50546795129776,0.7455015778541565,39.06390380859375,93.2692413330078,-44.58161926269531
205417,0.03076171875,1.019943237304688,-0.048919677734375,0.5921202898025513,0.1014400720596313,0.7967442870140076,39.76531982421875,93.0329132080078,-44.91178894042969
205418,0.1418914794921875,0.8729705810546875,0.0674285888671875,0.5850157737731934,-0.1312094181776047,0.9013697504997252,40.38850402832031,92.89706420898438,-45.2718505859375
205419,0.1418914794921875,0.8729705810546875,0.0674285888671875,0.5850157737731934,-0.1312094181776047,0.9013697504997252,40.38850402832031,92.89706420898438,-45.2718505859375
205420,0.18853759765625,0.72857666015625,0.2356719970703125,0.6499801278114319,0.0250555519014596,1.014456629753113,40.79156494140625,92.7240753173828,-45.46632385253906
205421,0.09600830078125,0.54010009765625,0.375762939453125,0.7841675281524658,0.8733115196228027,1.004350185394287,41.99964904785156,92.44075012207033,-45.62396240234375
205422,-0.0625152587890625,0.5057525634765625,0.4415435791015625,0.5915879607200623,1.330165386199951,0.8080888390541077,42.75804138183594,92.13827514648438,-45.63636779785156
205423,-0.0625152587890625,0.5057525634765625,0.4415435791015625,0.5915879607200623,1.330165386199951,0.8080888390541077,42.75804138183594,92.13827514648438,-45.63636779785156
205424,-0.2346343994140625,0.47125244140625,0.513580322265625,0.1716375350952148,1.74176299571991,0.5739162564277649,43.67478942871094,92.1213836669922,-45.98063659667969
205425,-0.3531646728515625,0.43914794921875,0.5111541748046875,-0.6749821901321411,2.169752597808838,0.0760931670665741,44.56991577148438,92.01530456542967,-46.25421142578125
205426,-0.4464569091796875,0.1482391357421875,0.3117218017578125,-0.9009649753570556,2.071965217590332,-0.1120125576853752,46.388671875,91.99130249023438,-46.39555358886719
205427,-0.4464569091796875,0.1482391357421875,0.3117218017578125,-0.9009649753570556,2.071965217590332,-0.1120125576853752,46.388671875,91.99130249023438,-46.39555358886719
205428,-0.4588165283203125,-0.051116943359375,0.2808990478515625,-1.059548735618591,1.957549333572388,0.0845050290226936,47.13961791992188,92.3421630859375,-46.28996276855469
205429,-0.2397918701171875,0.1907806396484375,0.230010986328125,-1.293768405914307,0.5158787965774536,0.4828715920448303,48.25273132324219,93.0123291015625,-45.71929931640625
205430,-0.3294219970703125,0.3573455810546875,0.4443511962890625,-1.600661039352417,-0.0369521602988243,0.4515812993049622,48.53936767578125,93.464599609375,-45.23614501953125
205431,-0.3294219970703125,0.3573455810546875,0.4443511962890625,-1.600661039352417,-0.0369521602988243,0.4515812993049622,48.53936767578125,93.464599609375,-45.23614501953125
205432,-0.435150146484375,0.4673309326171875,0.6128692626953125,-2.41442608833313,-0.100970558822155,0.1665192097425461,48.71235656738281,93.93887329101562,-44.73355102539062
205433,-0.5921173095703125,0.6971435546875,0.792724609375,-2.72343921661377,-0.0247444938868284,-0.0497513115406036,48.73432922363281,95.09562683105467,-43.084228515625
205434,-0.6709442138671875,0.779937744140625,0.8544464111328125,-2.917338132858276,0.1120967119932175,-0.2599695324897766,48.71060180664062,95.79885864257812,-41.98820495605469
205435,-0.6709442138671875,0.779937744140625,0.8544464111328125,-2.917338132858276,0.1120967119932175,-0.2599695324897766,48.71060180664062,95.79885864257812,-41.98820495605469
205436,-0.705352783203125,0.817840576171875,0.821136474609375,-3.011792898178101,0.1437704861164093,-0.5324628353118896,48.54049682617188,96.6398468017578,-40.89028930664062
205437,-0.5846099853515625,0.7660675048828125,0.52880859375,-2.964769124984741,-0.0563282519578933,-0.5883471369743347,47.98832702636719,98.28204345703124,-38.13478088378906
205438,-0.4496612548828125,0.6941070556640625,0.339111328125,-2.835771799087524,-0.3135083913803101,-0.6548460125923157,47.55326843261719,99.0560302734375,-36.88088989257812
205439,-0.4496612548828125,0.6941070556640625,0.339111328125,-2.835771799087524,-0.3135083913803101,-0.6548460125923157,47.55326843261719,99.0560302734375,-36.88088989257812
205440,-0.279083251953125,0.6243133544921875,0.09381103515625,-1.965489625930786,-0.6769707798957825,-0.8853819966316223,46.66241455078125,100.1249542236328,-34.24632263183594
205441,-0.225982666015625,0.607421875,-0.0377960205078125,-1.965489625930786,-0.6769707798957825,-0.8853819966316223,46.1331787109375,100.4745635986328,-32.85325622558594
205442,-0.15167236328125,0.6196746826171875,-0.49774169921875,-1.457082271575928,-0.9523104429244996,-0.9164323210716248,45.605224609375,100.787353515625,-31.84283447265625
205443,-0.15167236328125,0.6196746826171875,-0.49774169921875,-1.457082271575928,-0.9523104429244996,-0.9164323210716248,45.605224609375,100.787353515625,-31.84283447265625
205444,-0.0792236328125,0.6247100830078125,-0.96441650390625,-0.3475465178489685,-1.955039858818054,-0.8904327154159546,45.03189086914062,100.9893798828125,-30.9871826171875
205445,-0.0678863525390625,0.261474609375,-0.1316070556640625,0.8363420367240906,-1.203532814979553,-0.7990835905075073,43.53553771972656,100.9425354003906,-30.39242553710938
205446,0.00628662109375,0.0871124267578125,-0.2144012451171875,0.8007987141609192,-0.2807368636131287,-0.5430856347084045,42.7899169921875,100.4137878417969,-30.49551391601562
205447,0.0439910888671875,0.0180511474609375,-0.4159393310546875,0.4748948812484741,0.3500522971153259,-0.2343091666698456,42.20103454589844,100.0898742675781,-30.76278686523438
205448,0.0439910888671875,0.0180511474609375,-0.4159393310546875,0.4748948812484741,0.3500522971153259,-0.2343091666698456,42.20103454589844,100.0898742675781,-30.76278686523438
205449,0.15057373046875,0.066680908203125,-0.7029571533203125,-0.5221119523048401,-0.0937523245811462,-0.0375737398862838,41.72805786132812,99.69430541992188,-30.96287536621094
205450,0.1525115966796875,0.103057861328125,-0.5493927001953125,-0.9360390901565552,-0.5436622500419617,-0.0603677369654178,41.69697570800781,99.61109924316406,-30.84574890136719
205451,0.151458740234375,0.1343841552734375,-0.4182281494140625,-1.077510118484497,-0.7794507741928101,-0.0751671865582466,41.63595581054688,99.7273406982422,-30.43150329589844
205452,0.151458740234375,0.1343841552734375,-0.4182281494140625,-1.077510118484497,-0.7794507741928101,-0.0751671865582466,41.63595581054688,99.7273406982422,-30.43150329589844
205453,0.1494598388671875,0.217742919921875,-0.3145904541015625,-0.70100337266922,-0.6576974391937256,-0.0256254691630601,41.53021240234375,99.94265747070312,-29.21473693847656
205454,0.135650634765625,0.2708587646484375,-0.2660980224609375,-0.4327594041824341,-0.331298828125,-0.0447669401764869,41.40823364257812,99.99827575683594,-28.66513061523438
205455,0.1233978271484375,0.32818603515625,-0.250274658203125,-0.0833404287695884,0.2032372802495956,-0.1938909143209457,41.28688049316406,100.0805206298828,-28.08563232421875
205456,0.1233978271484375,0.32818603515625,-0.250274658203125,-0.0833404287695884,0.2032372802495956,-0.1938909143209457,41.28688049316406,100.0805206298828,-28.08563232421875
205457,0.0649566650390625,0.4837646484375,-0.257537841796875,0.0308021213859319,0.2070101797580719,-0.2628135085105896,41.15306091308594,100.2219390869141,-27.5291748046875
205458,0.004852294921875,0.561370849609375,-0.32208251953125,0.1282437294721603,0.0731684863567352,-0.3080747425556183,41.10331726074219,100.1820068359375,-27.42243957519531
205459,0.004852294921875,0.561370849609375,-0.32208251953125,0.1282437294721603,0.0731684863567352,-0.3080747425556183,41.10331726074219,100.1820068359375,-27.42243957519531
205460,-0.1025543212890625,0.6556243896484375,-0.4261932373046875,0.3313513100147247,-0.1605585217475891,-0.3572201728820801,40.9356689453125,100.1339721679688,-27.3372802734375
205461,-0.3525543212890625,0.94915771484375,-0.46221923828125,1.132136344909668,0.5002018213272095,-0.6299446225166321,40.4508056640625,100.1482696533203,-27.31367492675781
205462,-0.503875732421875,1.1439208984375,-0.4716339111328125,1.132136344909668,0.5002018213272095,-0.6299446225166321,40.09593200683594,100.105712890625,-27.52793884277344
205463,-0.6239013671875,1.394989013671875,-0.5235137939453125,1.096542954444885,1.025746822357178,-0.7563031315803528,39.60064697265625,100.0704345703125,-27.93875122070312
205464,-0.6239013671875,1.394989013671875,-0.5235137939453125,1.096542954444885,1.025746822357178,-0.7563031315803528,39.60064697265625,100.0704345703125,-27.93875122070312
205465,-0.6940155029296875,1.703201293945312,-0.3594970703125,0.7674556374549866,1.257623195648193,-0.9723488688468932,39.17100524902344,99.95729064941406,-28.58450317382812
205466,-0.954376220703125,2.480316162109375,0.15411376953125,0.1594274789094925,1.57907772064209,-2.503316879272461,38.30426025390625,99.67984008789062,-29.88887023925781
205467,-0.954376220703125,2.480316162109375,0.15411376953125,0.1594274789094925,1.57907772064209,-2.503316879272461,38.30426025390625,99.67984008789062,-29.88887023925781
205468,-1.355300903320312,2.722869873046875,0.0025482177734375,0.0908087342977523,1.65972912311554,-3.63156270980835,37.60612487792969,99.63722229003906,-30.4896240234375
205469,-3.446136474609375,2.119827270507812,-0.0440216064453125,0.0565879121422767,1.943374633789062,-0.959514856338501,35.16816711425781,99.56527709960938,-32.10038757324219
205470,-3.1688232421875,2.550979614257812,-0.4117584228515625,0.4447452425956726,0.8691407442092896,-0.1856252551078796,34.13114929199219,99.57286071777344,-32.74734497070312
205471,-3.1688232421875,2.550979614257812,-0.4117584228515625,0.4447452425956726,0.8691407442092896,-0.1856252551078796,34.13114929199219,99.57286071777344,-32.74734497070312
205472,-2.284622192382812,2.175613403320312,-0.2216644287109375,0.6501522064208984,-0.3084371984004974,-0.1297207176685333,33.89724731445312,99.51779174804688,-33.19389343261719
205473,-1.251205444335938,1.6732177734375,-0.3687591552734375,0.2367246598005295,0.1578998863697052,0.7064365148544312,34.28326416015625,99.06027221679688,-33.81832885742188
205474,-1.031784057617188,1.688919067382812,-0.2115325927734375,0.2853119075298309,0.4442578852176666,0.9281659722328186,34.25689697265625,98.96470642089844,-34.07620239257812
205475,-0.8157958984375,1.675125122070312,-0.0408782958984375,0.4548228979110718,0.2419258058071136,1.147254943847656,34.37770080566406,98.87646484375,-34.27268981933594
205476,-0.8157958984375,1.675125122070312,-0.0408782958984375,0.4548228979110718,0.2419258058071136,1.147254943847656,34.37770080566406,98.87646484375,-34.27268981933594
205477,-0.578521728515625,1.568832397460938,0.142822265625,0.4453409910202026,-0.1015149056911469,1.07608437538147,35.37794494628906,98.83583068847656,-34.81436157226562
205478,-0.4491424560546875,1.548934936523438,0.1930084228515625,0.3996368646621704,-0.3643587827682495,0.987539291381836,36.03001403808594,98.67929077148438,-34.8365478515625
205479,-0.4491424560546875,1.548934936523438,0.1930084228515625,0.3996368646621704,-0.3643587827682495,0.987539291381836,36.03001403808594,98.67929077148438,-34.8365478515625
205480,-0.3017120361328125,1.504974365234375,0.215087890625,0.3069168031215668,-0.5540552139282227,0.8873364925384521,36.69869995117188,98.54583740234376,-34.9830322265625
205481,0.0938568115234375,1.287628173828125,0.165252685546875,0.0312937386333942,-0.9513440132141112,1.043109893798828,37.83662414550781,98.34262084960938,-35.35313415527344
205482,0.1707763671875,1.251968383789062,0.1860504150390625,0.0314308926463127,-0.7963128685951233,1.166123986244202,38.16899108886719,98.25308227539062,-35.12489318847656
205483,0.1283111572265625,1.260513305664062,0.166259765625,0.4989450871944427,-0.1018754988908768,0.8347294926643372,38.47358703613281,98.23200988769533,-34.83433532714844
205484,0.1283111572265625,1.260513305664062,0.166259765625,0.4989450871944427,-0.1018754988908768,0.8347294926643372,38.47358703613281,98.23200988769533,-34.83433532714844
205485,0.006317138671875,1.128494262695312,-0.050506591796875,0.6915169358253479,-0.1372153759002686,0.6730915904045105,39.36940002441406,98.34178161621094,-34.73841857910156
205486,-0.1271514892578125,0.9923095703125,0.0140228271484375,0.6910290718078613,-0.1466064900159836,0.6278865337371826,39.69953918457031,98.34185791015624,-34.75640869140625
205487,-0.1271514892578125,0.9923095703125,0.0140228271484375,0.6910290718078613,-0.1466064900159836,0.6278865337371826,39.69953918457031,98.34185791015624,-34.75640869140625
205488,-0.229248046875,0.880950927734375,0.1546478271484375,0.3372054696083069,0.3194288611412048,0.7417377829551697,40.15232849121094,98.25967407226562,-34.94027709960938
205489,-0.3062286376953125,0.6710357666015625,0.29583740234375,0.1342803090810776,0.5729644298553467,0.7834838628768921,40.89295959472656,98.1852569580078,-35.59007263183594
205490,-0.309539794921875,0.519500732421875,0.2282867431640625,-0.0633848309516906,0.6666286587715149,0.7746994495391846,41.40676879882812,98.1627197265625,-35.86479187011719
205491,-0.309539794921875,0.519500732421875,0.2282867431640625,-0.0633848309516906,0.6666286587715149,0.7746994495391846,41.40676879882812,98.1627197265625,-35.86479187011719
205492,-0.3760223388671875,0.2829742431640625,0.1215667724609375,-0.7688833475112915,0.4446104764938354,0.4784515202045441,42.64559936523438,97.96368408203124,-35.85897827148438
205493,-0.4169464111328125,0.2061920166015625,0.09954833984375,-0.7688833475112915,0.4446104764938354,0.4784515202045441,43.17622375488281,98.14894104003906,-35.88735961914062
205494,-0.436431884765625,0.153656005859375,0.1622161865234375,-1.009604573249817,0.3895770609378815,0.3919028043746948,43.69157409667969,98.20982360839844,-35.66276550292969
205495,-0.436431884765625,0.153656005859375,0.1622161865234375,-1.009604573249817,0.3895770609378815,0.3919028043746948,43.69157409667969,98.20982360839844,-35.66276550292969
205496,-0.437255859375,0.1655426025390625,0.313232421875,-1.214241147041321,0.544386088848114,0.3332951366901398,44.03134155273438,98.48660278320312,-35.49076843261719
205497,-0.425506591796875,0.3929443359375,0.541015625,-1.577882409095764,1.650735139846802,0.0767546966671943,44.72430419921875,98.8985595703125,-34.47550964355469
205498,-0.4602508544921875,0.468231201171875,0.52783203125,-1.577882409095764,1.650735139846802,0.0767546966671943,45.13687133789062,99.0548095703125,-33.8397216796875
205499,-0.5258636474609375,0.520477294921875,0.5016021728515625,-1.727694630622864,1.788239479064941,-0.0103413211181759,45.52992248535156,99.29090881347656,-33.08432006835938
205500,-0.5877685546875,0.550048828125,0.4922943115234375,-1.919924259185791,1.743883371353149,-0.0806639567017555,45.89683532714844,99.48036193847656,-32.2864990234375
205501,-0.6450958251953125,0.553436279296875,0.5098876953125,-2.353999137878418,1.488770723342896,-0.15152508020401,46.20689392089844,99.69606018066406,-31.45144653320312
205502,-0.7135162353515625,0.5373382568359375,0.54510498046875,-2.353999137878418,1.488770723342896,-0.15152508020401,46.45533752441406,99.97999572753906,-30.37937927246094
205503,-0.7135162353515625,0.5373382568359375,0.54510498046875,-2.353999137878418,1.488770723342896,-0.15152508020401,46.45533752441406,99.97999572753906,-30.37937927246094
205504,-0.7609710693359375,0.4920654296875,0.5743408203125,-2.725940942764282,1.295066475868225,-0.1886724382638931,46.51954650878906,100.2496337890625,-29.40538024902344
205505,-0.69110107421875,0.360626220703125,0.5972747802734375,-2.794633626937866,1.187380194664001,-0.2750781774520874,46.36506652832031,101.3693237304688,-27.64860534667969
205506,-0.598785400390625,0.343719482421875,0.5807037353515625,-2.764108896255493,1.112387180328369,-0.3818930387496948,46.16957092285156,101.8291778564453,-26.31114196777344
205507,-0.598785400390625,0.343719482421875,0.5807037353515625,-2.764108896255493,1.112387180328369,-0.3818930387496948,46.16957092285156,101.8291778564453,-26.31114196777344
205508,-0.486419677734375,0.3616790771484375,0.4769744873046875,-2.359539985656738,0.596846342086792,-0.5349206924438477,45.92906188964844,102.2339782714844,-24.94422912597656
205509,-0.2955322265625,0.4651947021484375,0.301116943359375,-1.55029821395874,-0.1617116630077362,-0.6523801684379578,45.33256530761719,102.9000091552734,-22.15135192871094
205510,-0.2529296875,0.4981689453125,0.3003692626953125,-1.55029821395874,-0.1617116630077362,-0.6523801684379578,44.99192810058594,102.9940490722656,-20.98414611816406
205511,-0.2529296875,0.4981689453125,0.3003692626953125,-1.55029821395874,-0.1617116630077362,-0.6523801684379578,44.99192810058594,102.9940490722656,-20.98414611816406
205512,-0.2322845458984375,0.4935760498046875,0.3081512451171875,-1.147906303405762,-0.508893609046936,-0.8098997473716736,44.70146179199219,103.0147399902344,-20.02780151367188
205513,-0.1921844482421875,0.40997314453125,0.291107177734375,-0.5059718489646912,-1.097119331359863,-1.193552136421204,43.92990112304688,103.0229644775391,-18.70039367675781
205514,-0.16217041015625,0.3637847900390625,0.2398529052734375,-0.3044685423374176,-1.401177406311035,-1.33282470703125,43.63836669921875,102.9059906005859,-18.25248718261719
205515,-0.16217041015625,0.3637847900390625,0.2398529052734375,-0.3044685423374176,-1.401177406311035,-1.33282470703125,43.63836669921875,102.9059906005859,-18.25248718261719
205516,-0.1334075927734375,0.287872314453125,0.21783447265625,-0.2028913348913193,-1.631413817405701,-1.379112601280212,43.3284912109375,102.6703186035156,-17.77439880371094
205517,-0.156097412109375,0.192901611328125,0.14825439453125,-0.3527756333351135,-1.542192935943604,-1.088124990463257,42.756591796875,102.0137939453125,-17.29594421386719
205518,-0.1911773681640625,0.2054901123046875,0.1219024658203125,-0.5226491093635559,-1.232831358909607,-0.8491518497467041,42.47904968261719,101.5896453857422,-16.96134948730469
205519,-0.162750244140625,0.2561187744140625,0.0400543212890625,-0.8371894359588623,-1.158835649490356,-0.3356182277202606,42.19677734375,101.0468292236328,-16.63612365722656
205520,-0.162750244140625,0.2561187744140625,0.0400543212890625,-0.8371894359588623,-1.158835649490356,-0.3356182277202606,42.19677734375,101.0468292236328,-16.63612365722656
205521,-0.047027587890625,0.3909454345703125,-0.0988616943359375,-0.6864351034164429,-0.6283845901489258,0.3799686431884766,41.38662719726562,100.051513671875,-15.98191833496094
205522,-0.047027587890625,0.3909454345703125,-0.0988616943359375,-0.6864351034164429,-0.6283845901489258,0.3799686431884766,41.38662719726562,100.051513671875,-15.98191833496094
205523,-0.312225341796875,0.6500091552734375,-1.016555786132812,0.9799005389213562,-0.8444644212722778,0.2088927626609802,39.8375244140625,100.5478210449219,-15.35816955566406
205524,-0.312225341796875,0.6500091552734375,-1.016555786132812,0.9799005389213562,-0.8444644212722778,0.2088927626609802,39.8375244140625,100.5478210449219,-15.35816955566406
205525,-0.2577972412109375,0.5113983154296875,-0.15277099609375,0.7271561622619629,2.61901593208313,0.1768876910209656,38.84495544433594,101.1806182861328,-15.06147766113281
205526,-0.2527008056640625,0.4863433837890625,-0.3911895751953125,0.7271561622619629,2.61901593208313,0.1768876910209656,38.41709899902344,101.2701568603516,-15.62713623046875
205527,-0.2527008056640625,0.4863433837890625,-0.3911895751953125,0.7271561622619629,2.61901593208313,0.1768876910209656,38.41709899902344,101.2701568603516,-15.62713623046875
205528,-0.1872100830078125,0.660675048828125,-0.6488800048828125,-0.2733540534973145,1.310064554214478,0.5800817608833313,38.39067077636719,101.1804504394531,-17.4315185546875
205529,-0.194305419921875,0.76617431640625,-0.2521820068359375,-0.2972545921802521,0.5888954997062683,0.6918730139732361,38.67868041992188,100.9664001464844,-17.70233154296875
205530,-0.20721435546875,0.844818115234375,0.0751953125,-0.4109249413013458,0.5317981243133545,0.7157999277114868,39.158447265625,101.0123748779297,-17.676025390625
205531,-0.20721435546875,0.844818115234375,0.0751953125,-0.4109249413013458,0.5317981243133545,0.7157999277114868,39.158447265625,101.0123748779297,-17.676025390625
205532,-0.202789306640625,0.948333740234375,0.2707977294921875,-0.5128057599067688,0.9118034839630128,0.7322209477424622,39.61054992675781,101.1385498046875,-17.55316162109375
205533,-0.1885528564453125,1.264114379882812,0.21600341796875,-0.0071596424095332,1.0389803647995,0.8190503716468811,40.60023498535156,101.2820129394531,-16.98623657226562
205534,-0.2915496826171875,1.520156860351562,0.167144775390625,0.4630299806594849,0.6047282218933105,0.7713949680328369,41.09501647949219,101.322998046875,-16.74166870117188
205535,-0.2915496826171875,1.520156860351562,0.167144775390625,0.4630299806594849,0.6047282218933105,0.7713949680328369,41.09501647949219,101.322998046875,-16.74166870117188
205536,-0.753692626953125,2.131149291992188,0.34375,1.40506374835968,0.0631952136754989,-0.8641182780265808,42.00816345214844,101.3175659179688,-16.55587768554688
205537,-0.753692626953125,2.131149291992188,0.34375,1.40506374835968,0.0631952136754989,-0.8641182780265808,42.00816345214844,101.3175659179688,-16.55587768554688
205538,-1.305923461914062,2.74664306640625,0.4731903076171875,1.532649517059326,0.3257075250148773,-2.083134651184082,41.90914916992188,101.5509948730469,-17.15278625488281
205539,-1.305923461914062,2.74664306640625,0.4731903076171875,1.532649517059326,0.3257075250148773,-2.083134651184082,41.90914916992188,101.5509948730469,-17.15278625488281
205540,-2.29425048828125,1.883163452148438,0.3623199462890625,2.236762285232544,0.4384620487689972,-2.9065260887146,40.38737487792969,101.6822814941406,-18.75978088378906
205541,-2.29425048828125,1.883163452148438,0.3623199462890625,2.236762285232544,0.4384620487689972,-2.9065260887146,40.38737487792969,101.6822814941406,-18.75978088378906
205542,-1.9471435546875,1.639785766601562,-1.153961181640625,2.226142168045044,1.885760903358459,1.197119951248169,37.44464111328125,101.6011199951172,-21.83981323242188
205543,-1.9471435546875,1.639785766601562,-1.153961181640625,2.226142168045044,1.885760903358459,1.197119951248169,37.44464111328125,101.6011199951172,-21.83981323242188
205544,-1.009353637695312,2.161941528320312,-0.92474365234375,1.619188904762268,0.4255398511886597,1.459714770317078,36.84400939941406,101.2090911865234,-23.53178405761719
205545,-0.78662109375,2.31707763671875,0.49468994140625,0.9129363894462584,-0.3405498564243317,1.402013659477234,37.93348693847656,100.7681579589844,-26.14990234375
205546,-0.7458953857421875,2.26739501953125,0.6574859619140625,0.9234465956687928,-0.1360337287187576,1.293822765350342,38.66912841796875,100.7274780273438,-26.69590759277344
205547,-0.7458953857421875,2.26739501953125,0.6574859619140625,0.9234465956687928,-0.1360337287187576,1.293822765350342,38.66912841796875,100.7274780273438,-26.69590759277344
205548,-0.6810455322265625,2.037155151367188,0.52862548828125,1.017246246337891,0.2524466216564178,1.141995429992676,39.48219299316406,100.5704498291016,-27.04063415527344
205549,-0.5873260498046875,1.573867797851562,-0.014404296875,1.557544112205505,0.1851195245981216,1.113659381866455,40.76882934570312,100.6217956542969,-27.78984069824219
205550,-0.5877685546875,1.490020751953125,0.114532470703125,1.864569664001465,0.4374710917472839,1.110178112983704,41.42617797851562,100.5957489013672,-28.25993347167969
205551,-0.584869384765625,1.33282470703125,0.2286224365234375,2.119324207305908,1.513438701629639,1.078587174415588,42.00807189941406,100.4122314453125,-28.83262634277344
205552,-0.584869384765625,1.33282470703125,0.2286224365234375,2.119324207305908,1.513438701629639,1.078587174415588,42.00807189941406,100.4122314453125,-28.83262634277344
205553,-0.591064453125,0.88909912109375,0.061248779296875,2.107826948165894,1.658968567848206,1.04660975933075,43.91409301757812,99.97052001953124,-31.56895446777344
205554,-0.567474365234375,0.70458984375,-0.0279541015625,1.983384966850281,1.606547713279724,0.9839818477630616,44.75901794433594,99.74171447753906,-32.58653259277344
205555,-0.567474365234375,0.70458984375,-0.0279541015625,1.983384966850281,1.606547713279724,0.9839818477630616,44.75901794433594,99.74171447753906,-32.58653259277344
205556,-0.4676055908203125,0.4004364013671875,0.0294952392578125,1.307254910469055,1.702844381332397,0.8622593879699707,46.31100463867188,99.02653503417967,-34.48605346679688
205557,-0.40008544921875,0.285430908203125,0.09503173828125,0.8047183156013489,1.999095439910889,0.8233487606048584,47.12080383300781,98.6806182861328,-35.12457275390625
205558,-0.3243865966796875,0.1964263916015625,0.1251373291015625,-0.129801407456398,2.286750316619873,0.81740403175354,47.95578002929688,98.35343933105467,-35.59461975097656
205559,-0.3243865966796875,0.1964263916015625,0.1251373291015625,-0.129801407456398,2.286750316619873,0.81740403175354,47.95578002929688,98.35343933105467,-35.59461975097656
205560,-0.239471435546875,0.14837646484375,0.128143310546875,-0.129801407456398,2.286750316619873,0.81740403175354,48.83497619628906,98.13551330566406,-35.93902587890625
205561,-0.1094818115234375,0.118988037109375,0.13433837890625,-0.5521941781044006,1.646402716636658,0.748892068862915,50.82608032226562,98.06884765625,-35.76332092285156
205562,-0.0612945556640625,0.1409149169921875,0.1995086669921875,-0.5889612436294556,1.293347358703613,0.6584886908531189,51.82894897460938,98.1578369140625,-35.3394775390625
205563,-0.0612945556640625,0.1409149169921875,0.1995086669921875,-0.5889612436294556,1.293347358703613,0.6584886908531189,51.82894897460938,98.1578369140625,-35.3394775390625
205564,0.0273590087890625,0.28375244140625,0.4226531982421875,-0.654676616191864,1.12954306602478,0.4640038907527924,52.93226623535156,98.27845764160156,-34.5196533203125
205565,0.0102996826171875,0.434967041015625,0.5443267822265625,-0.8386134505271912,1.331951498985291,0.3775728642940521,53.3233642578125,98.36318969726562,-34.1424560546875
205566,-0.08099365234375,0.6465606689453125,0.6765899658203125,-1.1965491771698,1.700147151947021,0.2691449224948883,53.69236755371094,98.49655151367188,-33.78245544433594
205567,-0.08099365234375,0.6465606689453125,0.6765899658203125,-1.1965491771698,1.700147151947021,0.2691449224948883,53.69236755371094,98.49655151367188,-33.78245544433594
205568,-0.2586517333984375,0.851806640625,0.7859649658203125,-1.703833222389221,2.216405630111694,0.0767419189214706,54.11314392089844,98.55307006835938,-33.22288513183594
205569,-0.68988037109375,1.1124267578125,0.62872314453125,-2.721242427825928,2.54871392250061,-0.5856320261955261,54.82272338867188,99.17112731933594,-31.52275085449219
205570,-0.889251708984375,1.0975341796875,0.494781494140625,-2.977972984313965,1.9642174243927,-0.8283594846725464,55.10221862792969,99.61506652832033,-30.21795654296875
205571,-0.889251708984375,1.0975341796875,0.494781494140625,-2.977972984313965,1.9642174243927,-0.8283594846725464,55.10221862792969,99.61506652832033,-30.21795654296875
205572,-0.999267578125,0.7350006103515625,0.281768798828125,-2.959289312362671,0.5912939310073853,-0.653624415397644,54.72978210449219,100.5445709228516,-27.36383056640625
205573,-0.741912841796875,0.6458587646484375,-0.119598388671875,-2.625035285949707,-0.2846865952014923,-0.5584688782691956,54.28359985351562,100.9409332275391,-25.96379089355469
205574,-0.4986572265625,0.553131103515625,-0.3855743408203125,-2.0988450050354,-1.488742709159851,-0.5040042996406555,53.6497802734375,101.4237518310547,-24.56768798828125
205575,-0.4986572265625,0.553131103515625,-0.3855743408203125,-2.0988450050354,-1.488742709159851,-0.5040042996406555,53.6497802734375,101.4237518310547,-24.56768798828125
205576,-0.340118408203125,0.47808837890625,-0.26513671875,-1.573816061019897,-2.168130874633789,-0.44090735912323,52.99385070800781,101.8426818847656,-23.38772583007812
205577,-0.2155609130859375,0.4846649169921875,-0.1247406005859375,-1.099711060523987,-2.205215692520142,-0.4216031730175018,52.33877563476562,102.0489654541016,-22.39936828613281
205578,-0.0589447021484375,0.515838623046875,-0.090057373046875,-0.1760575771331787,-1.301765918731689,-0.453345388174057,51.43698120117188,102.0953369140625,-21.11766052246094
205579,-0.0589447021484375,0.515838623046875,-0.090057373046875,-0.1760575771331787,-1.301765918731689,-0.453345388174057,51.43698120117188,102.0953369140625,-21.11766052246094
205580,0.0207977294921875,0.500732421875,-0.2063751220703125,0.2468662410974503,-0.88016676902771,-0.3643020689487457,51.25128173828125,101.9124450683594,-20.7392578125
205581,0.1129150390625,0.306488037109375,-0.37298583984375,0.8226594924926758,-0.5271047949790955,0.0959643423557281,50.98692321777344,101.5151214599609,-20.89006042480469
205582,0.08331298828125,0.1986846923828125,-0.391937255859375,0.8822098970413208,-0.348930835723877,0.1554260700941086,50.88519287109375,101.2255706787109,-21.24441528320312
205583,0.1273193359375,0.0712890625,-0.4420013427734375,0.779528021812439,-0.2864240407943726,0.2016154080629349,50.87379455566406,101.1488037109375,-21.59637451171875
205584,0.1273193359375,0.0712890625,-0.4420013427734375,0.779528021812439,-0.2864240407943726,0.2016154080629349,50.87379455566406,101.1488037109375,-21.59637451171875
205585,0.248138427734375,-0.0407257080078125,-0.5198516845703125,-0.1228521540760994,-0.1653341054916382,0.1554961204528809,50.83551025390625,101.1572113037109,-21.87557983398438
205586,0.221954345703125,-0.0386199951171875,-0.3621826171875,-0.5122444033622742,-0.3316780626773834,0.1673921942710876,51.08636474609375,101.159912109375,-21.92062377929688
205587,0.221954345703125,-0.0386199951171875,-0.3621826171875,-0.5122444033622742,-0.3316780626773834,0.1673921942710876,51.08636474609375,101.159912109375,-21.92062377929688
205588,0.1826629638671875,-0.01373291015625,-0.2264251708984375,-0.6102069020271301,-0.5176548361778259,0.2295804619789124,51.39620971679688,101.1590881347656,-21.58766174316406
205589,0.1374359130859375,0.0531768798828125,-0.0927276611328125,-0.2895412743091583,-0.6407642960548401,0.342841237783432,51.6412353515625,101.0068664550781,-20.5152587890625
205590,0.110504150390625,0.1246337890625,-0.0196685791015625,-0.0836685299873352,-0.5568882822990417,0.2970484495162964,51.85806274414062,101.0488433837891,-20.06587219238281
205591,0.0839691162109375,0.2152252197265625,0.03228759765625,0.0428848825395107,-0.4037788808345795,0.1323593705892563,52.11994934082031,101.0237274169922,-19.81962585449219
205592,0.0839691162109375,0.2152252197265625,0.03228759765625,0.0428848825395107,-0.4037788808345795,0.1323593705892563,52.11994934082031,101.0237274169922,-19.81962585449219
205593,0.0450286865234375,0.406646728515625,-0.238677978515625,0.4088388979434967,-0.4132280647754669,-0.2895423471927643,52.29838562011719,101.1407165527344,-19.54341125488281
205594,-0.0077056884765625,0.5708770751953125,-0.4561767578125,0.8749248385429382,-0.7114080786705017,-0.504036009311676,52.19728088378906,101.1668701171875,-19.33522033691406
205595,-0.1349945068359375,0.8050689697265625,-0.541717529296875,1.696659922599792,0.4754506945610046,-0.6494565606117249,51.93453979492188,101.0745697021484,-19.59260559082031
205596,-0.1349945068359375,0.8050689697265625,-0.541717529296875,1.696659922599792,0.4754506945610046,-0.6494565606117249,51.93453979492188,101.0745697021484,-19.59260559082031
205597,-0.5044097900390625,1.17938232421875,-0.7020111083984375,1.588391542434692,1.798756718635559,-0.5671651363372803,51.09254455566406,101.1060180664062,-20.71676635742188
205598,-0.6265869140625,1.448211669921875,-0.7493133544921875,0.4507594406604767,1.650066137313843,-1.351088166236877,50.59298706054688,101.0482482910156,-21.5469970703125
205599,-0.7764129638671875,1.729751586914062,-0.527099609375,0.4507594406604767,1.650066137313843,-1.351088166236877,50.28227233886719,101.0033569335938,-22.20709228515625
205600,-0.7764129638671875,1.729751586914062,-0.527099609375,0.4507594406604767,1.650066137313843,-1.351088166236877,50.28227233886719,101.0033569335938,-22.20709228515625
205601,-1.082672119140625,2.649124145507812,-0.2857818603515625,-0.2716685235500336,0.6196640729904175,-3.854902505874634,49.21270751953125,101.1179656982422,-23.13706970214844
205602,-1.656814575195312,2.666656494140625,-0.183837890625,-0.1647506058216095,0.5515047311782837,-4.415675163269043,47.82630920410156,101.2433624267578,-23.29930114746094
205603,-3.457443237304688,1.86077880859375,-0.0245208740234375,-0.3644418716430664,2.301767826080322,-1.543740749359131,45.732177734375,101.3327026367188,-23.99345397949219
205604,-3.457443237304688,1.86077880859375,-0.0245208740234375,-0.3644418716430664,2.301767826080322,-1.543740749359131,45.732177734375,101.3327026367188,-23.99345397949219
205605,-3.237701416015625,2.595108032226562,-0.590301513671875,0.1991205513477325,2.487449169158936,0.7927330136299133,43.8992919921875,101.5944976806641,-24.98251342773438
205606,-1.049209594726562,1.827590942382812,-0.291900634765625,0.8866795301437378,0.3040427267551422,0.6168858408927917,43.73141479492188,101.7077331542969,-25.88999938964844
205607,-0.7563629150390625,1.52362060546875,-0.5922698974609375,0.7449777722358704,0.0445277877151966,0.865903377532959,44.09742736816406,101.6386260986328,-26.11648559570312
205608,-0.6266937255859375,1.527084350585938,-0.59619140625,0.604455292224884,0.0131661361083388,1.008711695671082,44.37722778320312,101.5253448486328,-26.45745849609375
205609,-0.6812591552734375,1.62445068359375,-0.36102294921875,0.4197136461734772,0.3351481556892395,0.9739086627960204,44.66302490234375,101.5532531738281,-26.82113647460938
205610,-0.8375701904296875,1.731781005859375,-0.16558837890625,0.3061599135398865,0.5576262474060059,1.065095543861389,44.99375915527344,101.5592803955078,-27.20597839355469
205611,-0.8375701904296875,1.731781005859375,-0.16558837890625,0.3061599135398865,0.5576262474060059,1.065095543861389,44.99375915527344,101.5592803955078,-27.20597839355469
205612,-0.9552459716796876,1.8731689453125,0.0033416748046875,0.2372186779975891,0.6652685403823853,1.122011065483093,45.61137390136719,101.4646301269531,-27.3218994140625
205613,-0.950592041015625,1.866653442382812,0.2455902099609375,0.3942343890666962,0.9061877131462096,1.054105997085571,47.04823303222656,101.2109222412109,-27.69746398925781
205614,-0.8202667236328125,1.665664672851562,0.2289581298828125,0.5312840938568115,1.04189920425415,0.9065714478492736,47.88714599609375,101.1670074462891,-27.72575378417969
205615,-0.8202667236328125,1.665664672851562,0.2289581298828125,0.5312840938568115,1.04189920425415,0.9065714478492736,47.88714599609375,101.1670074462891,-27.72575378417969
205616,-0.4786376953125,1.151565551757812,0.0415802001953125,0.9168752431869508,0.455926775932312,0.8774266242980957,49.32600402832031,100.7844848632812,-28.23545837402344
205617,-0.313995361328125,1.018234252929688,0.027587890625,0.9168752431869508,0.455926775932312,0.8774266242980957,49.99655151367188,100.5283355712891,-28.61514282226562
205618,-0.15655517578125,0.91937255859375,0.044219970703125,0.992031753063202,0.2437175810337067,0.9107590317726136,50.62492370605469,100.2904510498047,-28.87342834472656
205619,-0.024932861328125,0.8294677734375,0.0711212158203125,0.9972640872001648,0.1330027878284454,0.973341703414917,51.17529296875,100.1011505126953,-29.2945556640625
205620,-0.024932861328125,0.8294677734375,0.0711212158203125,0.9972640872001648,0.1330027878284454,0.973341703414917,51.17529296875,100.1011505126953,-29.2945556640625
205621,0.1153106689453125,0.6622314453125,0.1211700439453125,0.7650987505912781,0.2120536714792252,1.15613842010498,52.28285217285156,99.56405639648438,-29.96159362792969
205622,0.0806427001953125,0.573699951171875,0.153167724609375,0.5165048837661743,0.4115555882453918,1.174695611000061,52.99417114257812,99.36955261230467,-30.30728149414062
205623,0.0806427001953125,0.573699951171875,0.153167724609375,0.5165048837661743,0.4115555882453918,1.174695611000061,52.99417114257812,99.36955261230467,-30.30728149414062
205624,-0.0157928466796875,0.468475341796875,0.1536102294921875,0.2751831114292145,0.639141857624054,1.124844908714294,53.7569580078125,99.21629333496094,-30.57521057128906
205625,-0.2693634033203125,0.3675689697265625,0.193695068359375,-0.1438533067703247,0.9071860909461976,1.051743507385254,55.30924987792969,98.96290588378906,-30.72923278808594
205626,-0.3353424072265625,0.3604278564453125,0.22589111328125,-0.3630114793777466,1.019041538238525,1.001843094825745,56.01866149902344,98.88604736328124,-30.71090698242188
205627,-0.3353424072265625,0.3604278564453125,0.22589111328125,-0.3630114793777466,1.019041538238525,1.001843094825745,56.01866149902344,98.88604736328124,-30.71090698242188
205628,-0.3750457763671875,0.344818115234375,0.250091552734375,-0.5728337168693542,1.157496333122253,0.9226460456848145,56.70053100585938,98.73873901367188,-30.48553466796875
205629,-0.435546875,0.3477783203125,0.3997955322265625,-0.933972179889679,1.69467830657959,0.7083574533462524,58.14479064941406,98.71092224121094,-29.91926574707031
205630,-0.5031585693359375,0.3974609375,0.49163818359375,-1.19300103187561,2.086125373840332,0.5107186436653137,58.79690551757812,98.87252807617188,-29.43162536621094
205631,-0.5031585693359375,0.3974609375,0.49163818359375,-1.19300103187561,2.086125373840332,0.5107186436653137,58.79690551757812,98.87252807617188,-29.43162536621094
205632,-0.6196441650390625,0.4746551513671875,0.55279541015625,-1.586577177047729,2.470073461532593,0.2414291352033615,59.31867980957031,98.83908081054688,-28.86842346191406
205633,-0.976043701171875,0.597930908203125,0.4674835205078125,-2.5164954662323,2.45990252494812,-0.3115682601928711,60.16517639160156,99.2672882080078,-27.38966369628906
205634,-1.12738037109375,0.668731689453125,0.4540863037109375,-2.861464500427246,2.043085098266602,-0.4710791110992432,60.34748840332031,99.5040283203125,-26.14802551269531
205635,-1.12738037109375,0.668731689453125,0.4540863037109375,-2.861464500427246,2.043085098266602,-0.4710791110992432,60.34748840332031,99.5040283203125,-26.14802551269531
205636,-1.143829345703125,0.773529052734375,0.48883056640625,-3.025973796844482,1.595975399017334,-0.5130334496498108,60.26129150390625,99.85101318359376,-24.76609802246094
205637,-0.99951171875,0.8881988525390625,0.4614410400390625,-2.870319604873657,0.7742248773574829,-0.4407219886779785,59.88565063476562,100.2313842773438,-23.18846130371094
205638,-0.5962982177734375,0.9543304443359376,0.3090362548828125,-2.625693082809448,0.5419335961341858,-0.3843940198421478,58.81587219238281,100.9717712402344,-19.90281677246094
205639,-0.4732513427734375,0.981903076171875,0.2953948974609375,-2.302654027938843,0.5105673670768738,-0.3744598925113678,58.19989013671875,101.1915435791016,-18.43592834472656
205640,-0.4732513427734375,0.981903076171875,0.2953948974609375,-2.302654027938843,0.5105673670768738,-0.3744598925113678,58.19989013671875,101.1915435791016,-18.43592834472656
205641,-0.3249969482421875,0.94158935546875,0.2446746826171875,-1.565556287765503,0.699198305606842,-0.6857149600982666,57.30177307128906,101.5019073486328,-15.75730895996094
205642,-0.2733917236328125,0.83966064453125,0.197906494140625,-1.171172499656677,0.7030547857284546,-0.8545631170272827,57.02851867675781,101.5387115478516,-14.77339172363281
205643,-0.2733917236328125,0.83966064453125,0.197906494140625,-1.171172499656677,0.7030547857284546,-0.8545631170272827,57.02851867675781,101.5387115478516,-14.77339172363281
205644,-0.1372833251953125,0.6663055419921875,0.07275390625,-0.6207665801048279,0.2739607095718384,-1.01234233379364,56.68655395507812,101.3046417236328,-13.54779052734375
205645,-0.041961669921875,0.62335205078125,0.0341949462890625,-0.5118321180343628,-0.0770066305994987,-0.9516236186027528,56.45663452148438,101.1614227294922,-13.04373168945312
205646,0.04766845703125,0.548065185546875,0.0160064697265625,-0.512033224105835,-0.3879730403423309,-0.7521840333938599,56.24346923828125,100.9959106445312,-12.78483581542969
205647,0.1131744384765625,0.43023681640625,-0.0492095947265625,-0.4809759557247162,-0.7653037905693054,-0.0959006994962692,55.89567565917969,100.7503967285156,-12.61502075195312
205648,0.1131744384765625,0.43023681640625,-0.0492095947265625,-0.4809759557247162,-0.7653037905693054,-0.0959006994962692,55.89567565917969,100.7503967285156,-12.61502075195312
205649,0.1099853515625,0.199066162109375,-0.4135894775390625,-0.2225894033908844,-1.123840689659119,0.0894417315721511,55.15763854980469,100.63623046875,-12.05213928222656
205650,0.092132568359375,0.0968017578125,-0.3883514404296875,0.0547647103667259,-1.435366630554199,0.1437001824378967,55.03001403808594,100.6651306152344,-11.68826293945312
205651,0.09130859375,0.01434326171875,-0.2865142822265625,0.2217100262641907,-1.466278195381165,0.1523506492376328,54.9208984375,100.6761627197266,-11.34101867675781
205652,0.1072845458984375,-0.0464630126953125,-0.2588653564453125,0.3166501224040985,-1.221515774726868,0.160584881901741,54.89808654785156,100.8551483154297,-11.23068237304688
205653,0.1072845458984375,-0.0464630126953125,-0.2588653564453125,0.3166501224040985,-1.221515774726868,0.160584881901741,54.89808654785156,100.8551483154297,-11.23068237304688
205654,0.11981201171875,-0.0836334228515625,-0.29510498046875,0.3312743306159973,-1.089073061943054,0.1671421229839325,55.02888488769531,100.8978118896484,-11.04425048828125
205655,0.1005859375,0.03302001953125,-0.39044189453125,-0.182181790471077,-0.0064669540151953,-0.2583172917366028,55.29794311523438,100.7455749511719,-11.26934814453125
205656,0.1005859375,0.03302001953125,-0.39044189453125,-0.182181790471077,-0.0064669540151953,-0.2583172917366028,55.29794311523438,100.7455749511719,-11.26934814453125
205657,0.0263671875,0.1648712158203125,-0.405731201171875,-0.182181790471077,-0.0064669540151953,-0.2583172917366028,55.33123779296875,100.7107696533203,-11.24909973144531
205658,-0.0390472412109375,0.22698974609375,-0.3688507080078125,-0.2982655167579651,0.0205723866820335,-0.3514054417610168,55.30879211425781,100.7489471435547,-11.06800842285156
205659,-0.044464111328125,0.3311767578125,-0.31451416015625,-0.2892632484436035,0.0153331495821476,-0.3658765256404877,55.1817626953125,100.8034057617188,-10.9718017578125
205660,-0.06396484375,0.485260009765625,-0.3127288818359375,-0.2101034373044968,0.0532586947083473,-0.3236843347549438,54.92729187011719,100.6926422119141,-10.91557312011719
205661,-0.0931243896484375,0.630035400390625,-0.3318023681640625,-0.1065285727381706,0.0862102508544921,-0.2350244969129562,54.77481079101562,100.6628570556641,-10.87008666992188
205662,-0.1308746337890625,0.74468994140625,-0.27740478515625,-0.0095911081880331,0.1731382310390472,-0.1238662824034691,54.6129150390625,100.7239379882812,-10.65643310546875
205663,-0.1308746337890625,0.74468994140625,-0.27740478515625,-0.0095911081880331,0.1731382310390472,-0.1238662824034691,54.6129150390625,100.7239379882812,-10.65643310546875
205664,-0.213165283203125,0.902374267578125,-0.0718231201171875,-0.0455911867320537,0.7843959927558899,0.0225958563387394,54.17808532714844,100.9163208007812,-10.63639831542969
205665,-0.2688446044921875,0.9860992431640624,-0.0839385986328125,0.0540903992950916,1.086662650108337,-0.213786855340004,54.22396850585938,100.7713165283203,-10.45648193359375
205666,-0.342864990234375,1.090896606445312,-0.1721649169921875,0.0540903992950916,1.086662650108337,-0.213786855340004,54.24026489257812,100.7548980712891,-10.28213500976562
205667,-0.46051025390625,1.327468872070312,-0.209197998046875,0.7820295095443726,0.5002431273460388,-0.8963350653648376,54.27674865722656,100.7223510742188,-10.13652038574219
205668,-0.6021728515625,1.70562744140625,-0.001983642578125,0.9197623729705812,0.7872756719589233,-1.507144093513489,54.15122985839844,100.843505859375,-10.24591064453125
205669,-0.7764892578125,2.166290283203125,0.3190460205078125,0.9197623729705812,0.7872756719589233,-1.507144093513489,53.7999267578125,100.8776092529297,-10.33274841308594
205670,-1.074691772460938,2.709945678710938,0.307098388671875,0.8046501278877258,1.170048356056213,-2.480939626693726,53.22383117675781,101.0725250244141,-10.61013793945312
205671,-1.56134033203125,3.18408203125,-0.0423126220703125,0.8598968982696533,0.7757441997528076,-3.87813401222229,52.3074951171875,101.3099975585938,-11.30740356445312
205672,-3.046798706054688,2.491317749023438,0.05731201171875,0.910946488380432,0.7535797953605652,-3.771569967269897,50.86083984375,101.6137237548828,-12.12004089355469
205673,-4.353561401367188,1.780975341796875,-0.2926483154296875,0.5884672403335571,2.385684967041016,-0.3793811500072479,48.9464111328125,101.9150390625,-12.89688110351562
205674,-3.253875732421875,2.337081909179688,-0.837066650390625,0.8119882345199585,1.719952464103699,0.0849303379654884,47.0897216796875,102.3688812255859,-13.8641357421875
205675,-1.988983154296875,2.11053466796875,-0.1229095458984375,0.575326144695282,1.005283951759338,0.3595504462718964,46.29457092285156,102.4728088378906,-14.45712280273438
205676,-1.988983154296875,2.11053466796875,-0.1229095458984375,0.575326144695282,1.005283951759338,0.3595504462718964,46.29457092285156,102.4728088378906,-14.45712280273438
205677,-1.41748046875,2.006607055664062,-0.0467376708984375,0.1099344864487648,1.77511727809906,0.8513761162757874,46.44975280761719,102.4866638183594,-14.97898864746094
205678,-1.262237548828125,2.155838012695312,0.0365142822265625,0.2056162804365158,1.517520785331726,0.8547706007957458,46.63800048828125,102.2812042236328,-15.13070678710938
205679,-1.13983154296875,2.131591796875,0.2205657958984375,0.3484938144683838,1.339187860488892,0.9669045805931092,47.0225830078125,102.0639038085938,-15.3681640625
205680,-1.13983154296875,2.131591796875,0.2205657958984375,0.3484938144683838,1.339187860488892,0.9669045805931092,47.0225830078125,102.0639038085938,-15.3681640625
205681,-0.686187744140625,1.778167724609375,0.2524261474609375,0.6343279480934143,0.987309992313385,0.985364019870758,48.12338256835938,101.7819976806641,-15.81948852539062
205682,-0.39599609375,1.522476196289062,0.2615509033203125,0.9255054593086244,0.6713429689407349,1.05044686794281,48.74800109863281,101.7025146484375,-15.86785888671875
205683,-0.1142578125,1.385391235351562,0.23992919921875,1.325851321220398,-0.1431832611560822,1.391988277435303,49.38589477539062,101.4349365234375,-16.29446411132812
205684,-0.1142578125,1.385391235351562,0.23992919921875,1.325851321220398,-0.1431832611560822,1.391988277435303,49.38589477539062,101.4349365234375,-16.29446411132812
205685,0.2330780029296875,1.334320068359375,0.131378173828125,1.334318518638611,-0.2432491332292557,1.433364987373352,50.59463500976562,101.1293029785156,-17.02008056640625
205686,0.294464111328125,1.281539916992188,0.1027679443359375,1.328732252120972,0.0110827451571822,1.314619421958923,51.16209411621094,101.0559234619141,-17.52824401855469
205687,0.2653961181640625,1.17724609375,0.0931549072265625,1.296400427818298,0.8298239707946777,0.6828531622886658,51.73678588867188,100.9634704589844,-17.97024536132812
205688,0.2653961181640625,1.17724609375,0.0931549072265625,1.296400427818298,0.8298239707946777,0.6828531622886658,51.73678588867188,100.9634704589844,-17.97024536132812
205689,-0.288909912109375,0.774169921875,0.1818389892578125,1.201107740402222,1.111399173736572,0.4693539142608643,53.17340087890625,100.4853515625,-18.82994079589844
205690,-0.50860595703125,0.6691436767578125,0.1300506591796875,0.9851008653640748,1.188617467880249,0.4773785471916199,53.73452758789062,100.5175323486328,-19.47174072265625
205691,-0.6321258544921875,0.554473876953125,0.1044464111328125,0.3855849802494049,0.934106171131134,0.4541081190109253,54.21073913574219,100.4733276367188,-19.91712951660156
205692,-0.75177001953125,0.3926849365234375,0.102813720703125,0.1096969395875931,0.8283687829971313,0.5057489275932312,54.58766174316406,100.3945770263672,-20.51910400390625
205693,-0.8250274658203125,0.1927337646484375,0.102142333984375,0.1096969395875931,0.8283687829971313,0.5057489275932312,55.09568786621094,100.3400115966797,-20.79452514648438
205694,-0.8013458251953125,0.008575439453125,0.06536865234375,-0.1405371427536011,0.7861470580101013,0.5904821753501892,55.51513671875,100.2901916503906,-21.07228088378906
205695,-0.5093841552734375,-0.07568359375,0.0057373046875,-0.5532245635986328,0.8319616913795471,0.6077312231063843,56.23411560058594,100.171875,-21.01467895507812
205696,-0.5093841552734375,-0.07568359375,0.0057373046875,-0.5532245635986328,0.8319616913795471,0.6077312231063843,56.23411560058594,100.171875,-21.01467895507812
205697,-0.3349456787109375,0.053192138671875,0.07489013671875,-0.8579906225204468,1.545414805412292,0.365666389465332,56.62643432617188,100.0560302734375,-20.90313720703125
205698,-0.259857177734375,0.215423583984375,0.165985107421875,-0.960265040397644,1.909322142601013,0.2380160242319107,56.92996215820312,99.93963623046876,-20.576416015625
205699,-0.2842254638671875,0.3614959716796875,0.27178955078125,-0.960265040397644,1.909322142601013,0.2380160242319107,57.30027770996094,99.90966796875,-20.19955444335938
205700,-0.3267822265625,0.502349853515625,0.401153564453125,-1.373595952987671,2.569690704345703,-0.080273799598217,57.48515319824219,99.98014831542967,-19.74320983886719
205701,-0.35906982421875,0.6121826171875,0.4957122802734375,-1.677822589874268,2.679538488388062,-0.2022838592529297,57.65171813964844,99.84040832519533,-18.94773864746094
205702,-0.4124298095703125,0.7068328857421875,0.5297393798828125,-1.677822589874268,2.679538488388062,-0.2022838592529297,57.8133544921875,99.71389770507812,-18.10667419433594
205703,-0.4864349365234375,0.7866363525390625,0.4983673095703125,-2.077749490737915,2.138518333435059,-0.4049296379089355,57.91571044921875,99.75364685058594,-17.15078735351562
205704,-0.4864349365234375,0.7866363525390625,0.4983673095703125,-2.077749490737915,2.138518333435059,-0.4049296379089355,57.91571044921875,99.75364685058594,-17.15078735351562
205705,-0.5373077392578125,0.8541412353515625,0.43731689453125,-2.063409090042114,1.579211950302124,-0.4494699537754059,57.73809814453125,99.90728759765624,-15.64303588867188
205706,-0.5212860107421875,0.8514404296875,0.4626312255859375,-1.951258420944214,1.058964967727661,-0.4476635158061981,57.50236511230469,99.96003723144533,-14.55766296386719
205707,-0.4996490478515625,0.8353118896484375,0.494873046875,-1.813254475593567,0.7127822637557983,-0.4650198817253113,57.18080139160156,100.0064392089844,-13.41520690917969
205708,-0.4996490478515625,0.8353118896484375,0.494873046875,-1.813254475593567,0.7127822637557983,-0.4650198817253113,57.18080139160156,100.0064392089844,-13.41520690917969
205709,-0.4306793212890625,0.6831207275390625,0.446441650390625,-1.664432048797607,0.5256890654563904,-0.6253975629806519,56.22344970703125,100.0941162109375,-11.40435791015625
205710,-0.36798095703125,0.6051483154296875,0.3399200439453125,-1.593055844306946,0.3519508540630341,-0.7144712805747986,55.73611450195312,100.2392578125,-10.5555419921875
205711,-0.3226165771484375,0.5109405517578125,0.27276611328125,-1.336355090141296,-0.1542638689279556,-0.8828237652778625,55.37063598632812,100.2704162597656,-9.644973754882812
205712,-0.2925872802734375,0.421630859375,0.2436676025390625,-1.336355090141296,-0.1542638689279556,-0.8828237652778625,54.96449279785156,100.3038482666016,-9.01385498046875
205713,-0.268157958984375,0.3580780029296875,0.2122650146484375,-1.207146167755127,-0.332455188035965,-0.9462357759475708,54.59503173828125,100.1498565673828,-8.146499633789062
205714,-0.246612548828125,0.31707763671875,0.143280029296875,-1.094956278800964,-0.4769415259361267,-1.000029444694519,54.32099914550781,100.1580047607422,-7.456222534179688
205715,-0.208038330078125,0.27313232421875,-0.0562896728515625,-0.6840978860855103,-1.383313536643982,-1.006454586982727,53.46633911132812,99.94161987304688,-6.296127319335938
205716,-0.208038330078125,0.27313232421875,-0.0562896728515625,-0.6840978860855103,-1.383313536643982,-1.006454586982727,53.46633911132812,99.94161987304688,-6.296127319335938
205717,-0.1342315673828125,0.20166015625,-0.3962249755859375,-0.3757677674293518,-2.054397821426392,-0.9130879640579224,53.46633911132812,99.94161987304688,-6.296127319335938
205718,-0.0158843994140625,0.1000518798828125,-0.1392059326171875,-0.2534690201282501,-2.126726865768433,-0.7808849215507507,52.54060363769531,99.50106811523438,-5.098098754882812
205719,0.0364990234375,0.0473175048828125,-0.0334320068359375,-0.290837436914444,-1.750505924224854,-0.5736289024353027,52.259521484375,99.41636657714844,-4.900909423828125
205720,0.0364990234375,0.0473175048828125,-0.0334320068359375,-0.290837436914444,-1.750505924224854,-0.5736289024353027,52.259521484375,99.41636657714844,-4.900909423828125
205721,0.0392913818359375,0.01837158203125,-0.1262054443359375,-0.2054077535867691,-0.6851826310157776,-0.151487797498703,51.8582763671875,99.34628295898438,-4.51116943359375
205722,0.039276123046875,0.0467071533203125,-0.12493896484375,-0.1058739647269249,-0.2852828800678253,-0.0911538749933242,51.63822937011719,99.4189910888672,-4.257766723632812
205723,0.0533599853515625,0.0761260986328125,-0.1283721923828125,-0.0837364420294761,-0.0063814665190875,-0.0837987586855888,51.62356567382812,99.31922912597656,-4.0802001953125
205724,0.06396484375,0.1128387451171875,-0.1629791259765625,-0.140432208776474,0.0892617031931877,-0.0756633356213569,51.45426940917969,99.24053955078124,-3.948776245117188
205725,0.0568695068359375,0.1773529052734375,-0.19677734375,-0.237915888428688,0.010121077299118,-0.0705111846327781,51.4571533203125,99.26286315917967,-3.855972290039062
205726,0.04022216796875,0.26812744140625,-0.228118896484375,-0.3467025458812714,-0.1700188666582108,-0.0828722491860389,51.35649108886719,99.17909240722656,-3.591781616210938
205727,-0.0025634765625,0.445526123046875,-0.2609710693359375,-0.4140299260616302,-0.5193837881088257,-0.1819591522216797,51.26383972167969,99.10235595703124,-2.937759399414062
205728,-0.0025634765625,0.445526123046875,-0.2609710693359375,-0.4140299260616302,-0.5193837881088257,-0.1819591522216797,51.26383972167969,99.10235595703124,-2.937759399414062
205729,-0.033477783203125,0.4922637939453125,-0.2684173583984375,-0.3274002373218536,-0.5039739608764648,-0.2179251313209534,51.09518432617188,99.10000610351562,-2.556686401367188
205730,-0.10174560546875,0.51104736328125,-0.26519775390625,-0.1449577212333679,-0.2455959171056747,-0.2308795601129532,50.84735107421875,99.16127014160156,-2.2821044921875
205731,-0.17291259765625,0.5582275390625,-0.26837158203125,0.0944849625229835,0.2195597887039185,-0.181934118270874,50.54020690917969,99.19412231445312,-2.013412475585938
205732,-0.17291259765625,0.5582275390625,-0.26837158203125,0.0944849625229835,0.2195597887039185,-0.181934118270874,50.54020690917969,99.19412231445312,-2.013412475585938
205733,-0.2161712646484375,0.6458740234375,-0.323150634765625,0.3148191869258881,0.6644040942192078,-0.1063299030065536,50.38627624511719,99.19639587402344,-1.820632934570312
205734,-0.3527984619140625,1.008621215820312,-0.501861572265625,0.5669758319854736,0.9903449416160583,0.0168820451945066,50.153564453125,98.95272827148438,-1.4954833984375
205735,-0.4638671875,1.355575561523438,-0.5563812255859375,0.5027390122413635,0.9738311767578124,-0.0123482793569564,50.03152465820312,98.83952331542967,-1.548599243164062
205736,-0.4638671875,1.355575561523438,-0.5563812255859375,0.5027390122413635,0.9738311767578124,-0.0123482793569564,50.03152465820312,98.83952331542967,-1.548599243164062
205737,-0.6814117431640625,2.425155639648438,-0.2204437255859375,0.2352913469076157,1.365693807601929,-1.387574553489685,49.71588134765625,98.86203002929688,-1.767044067382812
205738,-0.838958740234375,2.803298950195312,-0.148406982421875,0.2352913469076157,1.365693807601929,-1.387574553489685,49.29917907714844,98.72592163085938,-1.77655029296875
205739,-0.9977264404296876,2.988967895507812,-0.2067108154296875,0.7719891667366028,1.440038084983826,-2.235109329223633,48.5435791015625,98.95730590820312,-1.995498657226562
205740,-1.521270751953125,2.689544677734375,-0.2074432373046875,1.189725160598755,1.80876624584198,-2.644783735275269,47.36796569824219,99.14656066894533,-2.420242309570312
205741,-2.626144409179688,1.903564453125,-0.4730072021484375,1.263947486877441,2.693353891372681,-1.402035236358643,45.81292724609375,99.55081176757812,-3.22418212890625
205742,-2.675949096679688,1.896011352539062,-0.9795989990234376,1.311017990112305,2.476809740066528,-0.2269322127103806,44.35496520996094,99.80650329589844,-4.160980224609375
205743,-1.828582763671875,2.223968505859375,-0.73052978515625,1.130932688713074,1.277682900428772,-0.211395338177681,43.34309387207031,100.2302093505859,-5.135452270507812
205744,-1.828582763671875,2.223968505859375,-0.73052978515625,1.130932688713074,1.277682900428772,-0.211395338177681,43.34309387207031,100.2302093505859,-5.135452270507812
205745,-1.78314208984375,2.150344848632812,-0.2154693603515625,0.4061592221260071,1.696016073226929,0.3266095519065857,42.526123046875,100.5404510498047,-6.431411743164062
205746,-1.78314208984375,2.150344848632812,-0.2154693603515625,0.4061592221260071,1.696016073226929,0.3266095519065857,42.526123046875,100.5404510498047,-6.431411743164062
205747,-1.8338623046875,2.112884521484375,0.3995361328125,0.3984890580177307,1.80406391620636,0.808371901512146,42.35504150390625,100.8606414794922,-7.3193359375
205748,-1.8338623046875,2.112884521484375,0.3995361328125,0.3984890580177307,1.80406391620636,0.808371901512146,42.35504150390625,100.8606414794922,-7.3193359375
205749,-1.527435302734375,1.7305908203125,0.2449951171875,0.7357763051986694,1.415430188179016,0.8118108510971069,43.13436889648438,101.0388336181641,-8.338699340820312
205750,-1.267044067382812,1.561538696289062,0.1779632568359375,0.7060236930847168,1.139274954795837,0.7746858596801758,43.68974304199219,101.0342254638672,-8.780075073242188
205751,-0.9769744873046876,1.442733764648438,0.155059814453125,0.5335467457771301,1.079678773880005,0.7985086441040039,44.09773254394531,101.0755004882812,-9.36865234375
205752,-0.9769744873046876,1.442733764648438,0.155059814453125,0.5335467457771301,1.079678773880005,0.7985086441040039,44.09773254394531,101.0755004882812,-9.36865234375
205753,-0.56304931640625,1.193191528320312,0.060546875,0.5952010750770569,0.7730445265769958,0.5827733874320984,44.72421264648438,101.1273803710938,-10.12661743164062
205754,-0.4173583984375,1.093276977539062,0.1721038818359375,0.7735636234283447,0.7176329493522644,0.540428638458252,45.12705993652344,101.0852661132812,-10.44938659667969
205755,-0.2891387939453125,0.9994964599609376,0.1651763916015625,0.9559459090232848,0.516452431678772,0.4851219654083252,45.51600646972656,100.9416809082031,-10.73365783691406
205756,-0.2891387939453125,0.9994964599609376,0.1651763916015625,0.9559459090232848,0.516452431678772,0.4851219654083252,45.51600646972656,100.9416809082031,-10.73365783691406
205757,-0.084686279296875,0.8212127685546875,0.1635284423828125,0.9364947080612184,0.3619736433029175,0.5234416723251343,46.27879333496094,100.8071746826172,-11.41499328613281
205758,-0.0315399169921875,0.76678466796875,0.2062835693359375,0.8516666889190674,0.3180751800537109,0.5790966749191284,46.58358764648438,100.6476287841797,-11.72537231445312
205759,-0.1416778564453125,0.6897430419921875,0.260833740234375,0.2497762739658356,0.6627486944198608,0.6983700394630432,47.25578308105469,100.7507781982422,-12.516357421875
205760,-0.1416778564453125,0.6897430419921875,0.260833740234375,0.2497762739658356,0.6627486944198608,0.6983700394630432,47.25578308105469,100.7507781982422,-12.516357421875
205761,-0.412109375,0.6718902587890625,0.262420654296875,0.2497762739658356,0.6627486944198608,0.6983700394630432,47.682861328125,100.6432647705078,-12.72064208984375
205762,-0.5450897216796875,0.6884918212890625,0.26507568359375,0.0644157379865646,0.7677320837974548,0.718406617641449,48.07502746582031,100.6283111572266,-13.02769470214844
205763,-0.539703369140625,0.583404541015625,0.2999114990234375,0.0035973980557173,0.8913149833679199,0.6719187498092651,48.42007446289062,100.6124572753906,-13.05323791503906
205764,-0.539703369140625,0.583404541015625,0.2999114990234375,0.0035973980557173,0.8913149833679199,0.6719187498092651,48.42007446289062,100.6124572753906,-13.05323791503906
205765,-0.3968658447265625,0.33038330078125,0.1570892333984375,-0.0445371083915233,0.8474079966545105,0.5599544048309326,49.23606872558594,100.5697326660156,-13.06106567382812
205766,-0.3186492919921875,0.23779296875,0.1451416015625,-0.1649865508079529,0.7908645868301392,0.5034183859825134,49.53678894042969,100.4961242675781,-13.06010437011719
205767,-0.2433013916015625,0.1685333251953125,0.1297760009765625,-0.33380326628685,0.7678724527359009,0.4572490453720093,49.88948059082031,100.3981323242188,-12.96469116210938
205768,-0.2433013916015625,0.1685333251953125,0.1297760009765625,-0.33380326628685,0.7678724527359009,0.4572490453720093,49.88948059082031,100.3981323242188,-12.96469116210938
205769,-0.109710693359375,0.1026458740234375,0.1597137451171875,-0.7200226187705994,0.7762792110443115,0.3911179602146149,50.37954711914062,100.3453369140625,-12.54275512695312
205770,-0.094268798828125,0.1407318115234375,0.2721099853515625,-0.9334206581115724,0.921855092048645,0.3148386478424072,50.64430236816406,100.3069152832031,-12.22840881347656
205771,-0.1306610107421875,0.213043212890625,0.4048919677734375,-1.210883736610413,1.178348898887634,0.1951612383127213,50.80567932128906,100.1371459960938,-11.75267028808594
205772,-0.2246246337890625,0.31610107421875,0.4940185546875,-1.579448699951172,1.49332070350647,0.0523087456822395,50.95207214355469,100.0273742675781,-11.20541381835938
205773,-0.326873779296875,0.4238739013671875,0.4996337890625,-1.991341710090637,1.758837342262268,-0.0642839148640632,51.00885009765625,99.94056701660156,-10.58203125
205774,-0.4415740966796875,0.5026397705078125,0.4597930908203125,-2.356398820877075,1.836052536964417,-0.2052791118621826,50.9598388671875,99.84402465820312,-9.713333129882812
205775,-0.56787109375,0.566253662109375,0.427398681640625,-2.610087633132935,1.678287029266357,-0.334474116563797,50.83293151855469,99.80897521972656,-8.916778564453125
205776,-0.56787109375,0.566253662109375,0.427398681640625,-2.610087633132935,1.678287029266357,-0.334474116563797,50.83293151855469,99.80897521972656,-8.916778564453125
205777,-0.781494140625,0.6717987060546875,0.4639739990234375,-2.712063789367676,0.9964097142219543,-0.4845499098300934,50.29248046875,99.636962890625,-6.475128173828125
205778,-0.83929443359375,0.7096710205078125,0.4939422607421875,-2.597285985946655,0.6774682402610779,-0.5356977581977844,49.878173828125,99.52084350585938,-5.22100830078125
205779,-0.8468017578125,0.70440673828125,0.498809814453125,-2.43870735168457,0.4689432382583618,-0.5817787051200867,49.35777282714844,99.44081115722656,-4.142913818359375
205780,-0.8468017578125,0.70440673828125,0.498809814453125,-2.43870735168457,0.4689432382583618,-0.5817787051200867,49.35777282714844,99.44081115722656,-4.142913818359375
205781,-0.64361572265625,0.547821044921875,0.332244873046875,-2.096366405487061,0.1316826641559601,-0.7833533883094788,48.29867553710938,99.01374816894533,-1.780502319335938
205782,-0.48468017578125,0.4362945556640625,0.211669921875,-1.922987341880798,-0.127522274851799,-0.8668333888053894,47.77029418945312,98.7476043701172,-0.903167724609375
205783,-0.3623504638671875,0.374267578125,0.1544647216796875,-1.755503296852112,-0.4052684009075165,-0.9112967252731324,47.28570556640625,98.46150207519533,-0.0716400146484375
205784,-0.3623504638671875,0.374267578125,0.1544647216796875,-1.755503296852112,-0.4052684009075165,-0.9112967252731324,47.28570556640625,98.46150207519533,-0.0716400146484375
205785,-0.179473876953125,0.383544921875,0.125030517578125,-1.30001437664032,-0.935398280620575,-0.9336121082305908,46.6761474609375,97.70013427734376,1.786758422851562
205786,-0.1037445068359375,0.411529541015625,0.1075439453125,-1.30001437664032,-0.935398280620575,-0.9336121082305908,46.43202209472656,97.27427673339844,2.52496337890625
205787,-0.0385894775390625,0.418304443359375,0.081207275390625,-1.084583520889282,-0.953912317752838,-0.9094146490097046,46.32778930664062,96.9451904296875,3.2039794921875
205788,-0.0385894775390625,0.418304443359375,0.081207275390625,-1.084583520889282,-0.953912317752838,-0.9094146490097046,46.32778930664062,96.9451904296875,3.2039794921875
205789,0.0520477294921875,0.3431854248046875,0.0056610107421875,-0.6182946562767029,-0.6788496375083923,-0.6961806416511536,45.9229736328125,96.22850036621094,4.391830444335938
205790,0.0670318603515625,0.2843017578125,-0.029205322265625,-0.3916841447353363,-0.4488813877105713,-0.5243620276451111,45.70478820800781,95.96339416503906,4.852508544921875
205791,0.0522918701171875,0.225433349609375,-0.0847015380859375,0.0570307970046997,-0.0922425761818885,-0.2896872162818909,45.58860778808594,95.7808074951172,5.1495361328125
205792,0.0522918701171875,0.225433349609375,-0.0847015380859375,0.0570307970046997,-0.0922425761818885,-0.2896872162818909,45.58860778808594,95.7808074951172,5.1495361328125
205793,-0.0130767822265625,0.1894378662109375,-0.2341461181640625,0.2585681676864624,-0.0629944130778312,-0.2600694000720978,45.26104736328125,95.52894592285156,5.537643432617188
205794,-0.056427001953125,0.244873046875,-0.2840423583984375,0.3703775405883789,-0.1891901642084122,-0.2759194672107697,45.17800903320312,95.56877136230467,5.564682006835938
205795,-0.110076904296875,0.279571533203125,-0.2624359130859375,0.3145843148231506,-0.2511789798736572,-0.3664871752262115,44.5087890625,95.55801391601562,5.44488525390625
205796,-0.110076904296875,0.279571533203125,-0.2624359130859375,0.3145843148231506,-0.2511789798736572,-0.3664871752262115,44.5087890625,95.55801391601562,5.44488525390625
205797,-0.1239471435546875,0.2669830322265625,-0.3191375732421875,0.184348538517952,-0.0075252940878272,-0.2584531307220459,44.19157409667969,95.60292053222656,5.320144653320312
205798,-0.152862548828125,0.28338623046875,-0.40130615234375,0.0810293406248092,0.090244673192501,-0.1596578359603882,43.89537048339844,95.63493347167967,5.205902099609375
205799,-0.2099761962890625,0.3332672119140625,-0.463897705078125,-0.0454297997057437,0.1998433470726013,-0.0552488751709461,43.53369140625,95.89727783203124,5.29925537109375
205800,-0.2099761962890625,0.3332672119140625,-0.463897705078125,-0.0454297997057437,0.1998433470726013,-0.0552488751709461,43.53369140625,95.89727783203124,5.29925537109375
205801,-0.3619232177734375,0.501190185546875,-0.5079803466796875,-0.0783874839544296,0.2491839975118637,0.0294052921235561,42.8275146484375,95.9401397705078,5.718826293945312
205802,-0.4099884033203125,0.620635986328125,-0.4015350341796875,0.0113493269309401,0.3520922660827637,0.0216586906462907,42.72511291503906,95.76873779296876,6.084991455078125
205803,-0.44866943359375,0.7598876953125,-0.3396759033203125,0.3510629534721375,0.77862548828125,-0.1720018535852432,42.66810607910156,95.62077331542967,6.281723022460938
205804,-0.44866943359375,0.7598876953125,-0.3396759033203125,0.3510629534721375,0.77862548828125,-0.1720018535852432,42.66810607910156,95.62077331542967,6.281723022460938
205805,-0.5759124755859375,1.177780151367188,-0.531890869140625,0.6718026399612427,0.9881744384765624,-0.303911954164505,42.35163879394531,95.60690307617188,5.996185302734375
205806,-0.626312255859375,1.5460205078125,-0.381378173828125,0.6718026399612427,0.9881744384765624,-0.303911954164505,42.051025390625,95.514404296875,5.798355102539062
205807,-0.637908935546875,1.9603271484375,-0.0003204345703125,0.5806071758270264,1.640196204185486,-0.4094069600105286,41.59370422363281,95.5015869140625,5.643829345703125
205808,-0.71136474609375,2.327499389648438,0.0659942626953125,0.7484257817268372,2.202679634094238,-1.501123189926147,41.03964233398438,95.63427734375,5.23260498046875
205809,-0.9276885986328124,2.68792724609375,-0.125701904296875,0.7484257817268372,2.202679634094238,-1.501123189926147,40.32664489746094,95.79525756835938,4.8699951171875
205810,-1.495086669921875,2.820159912109375,-0.217193603515625,1.049541115760803,1.732297897338867,-1.940733075141907,39.38339233398438,95.90589904785156,4.433624267578125
205811,-2.424667358398438,2.48944091796875,-0.169586181640625,1.078179121017456,1.739556312561035,-1.290476560592651,38.13423156738281,96.17068481445312,3.841217041015625
205812,-2.903945922851562,2.297393798828125,-0.6906890869140625,0.9019399285316468,1.670461177825928,-0.1073070168495178,36.88360595703125,96.60227966308594,2.930816650390625
205813,-2.270919799804688,2.190628051757812,-0.9105987548828124,0.7507858276367188,0.3327015340328217,0.2363432943820953,35.86155700683594,96.7884521484375,1.926620483398438
205814,-1.668319702148438,2.09637451171875,-0.257843017578125,0.3258728981018066,0.0842261984944343,0.5331714749336243,35.37681579589844,96.8204345703125,1.291397094726562
205815,-1.50714111328125,2.052047729492188,0.1253204345703125,0.1445979326963425,0.7157660722732544,0.7675741314888,35.50843811035156,97.04551696777344,0.843353271484375
205816,-1.466781616210938,2.045852661132812,0.32965087890625,0.3499864935874939,1.157915830612183,0.9362201690673828,35.64762878417969,97.13772583007812,0.5089263916015625
205817,-1.494354248046875,1.965576171875,0.4233551025390625,0.6112644672393799,1.081961631774902,1.088159322738647,36.04261779785156,97.3117218017578,0.2273712158203125
205818,-1.4666748046875,1.92132568359375,0.458160400390625,0.7999102473258972,0.8457339406013489,1.146763324737549,36.4576416015625,97.395263671875,-0.0567626953125
205819,-1.336395263671875,1.910263061523438,0.4185028076171875,0.9760168194770812,1.322596073150635,0.9658496975898744,37.11225891113281,97.56925964355467,-0.6060028076171875
205820,-1.060943603515625,1.81756591796875,0.305419921875,1.055887937545776,1.421411871910095,0.947715938091278,37.68026733398438,97.72642517089844,-1.105712890625
205821,-0.803619384765625,1.701126098632812,0.305755615234375,1.055887937545776,1.421411871910095,0.947715938091278,38.26544189453125,97.78257751464844,-1.616867065429688
205822,-0.7085723876953125,1.494033813476562,0.329254150390625,1.209360122680664,1.473794460296631,0.832281768321991,38.77397155761719,97.95965576171876,-2.242568969726562
205823,-0.33428955078125,0.96771240234375,0.1365814208984375,1.57871687412262,0.91411030292511,0.8653545379638672,39.57644653320312,98.24163818359376,-3.475677490234375
205824,-0.33428955078125,0.96771240234375,0.1365814208984375,1.57871687412262,0.91411030292511,0.8653545379638672,39.57644653320312,98.24163818359376,-3.475677490234375
205825,-0.2075653076171875,0.794921875,0.078277587890625,1.764064788818359,0.1101467460393906,0.9360411763191224,40.08383178710938,98.43540954589844,-4.177322387695312
205826,-0.0759124755859375,0.6288299560546875,0.0478363037109375,1.764064788818359,0.1101467460393906,0.9360411763191224,40.58108520507812,98.41471862792967,-4.80169677734375
205827,0.01580810546875,0.4961700439453125,0.10662841796875,1.736130952835083,0.0183622296899557,0.9730828404426576,41.07876586914062,98.51383972167967,-5.490203857421875
