time_idx,accelerometerAccelerationX(G),accelerometerAccelerationY(G),accelerometerAccelerationZ(G),gyroRotationX(rad/s),gyroRotationY(rad/s),gyroRotationZ(rad/s),magnetometerX(µT),magnetometerY(µT),magnetometerZ(µT)
182486,0.0557098388671875,-0.242095947265625,-0.33709716796875,-0.3294540643692017,0.3945446610450745,0.2139847278594971,39.44078063964844,97.44500732421876,-6.602203369140625
182487,0.0557098388671875,-0.242095947265625,-0.33709716796875,-0.3294540643692017,0.3945446610450745,0.2139847278594971,39.44078063964844,97.44500732421876,-6.602203369140625
182488,0.0348663330078125,-0.1949462890625,-0.008087158203125,-0.641151487827301,-0.053373210132122,0.096932403743267,39.76991271972656,96.93682861328124,-6.162063598632812
182489,0.025054931640625,-0.184600830078125,0.073211669921875,-0.7583993077278137,0.2011101990938187,0.0399279743432998,39.83389282226562,96.86570739746094,-5.851028442382812
182490,0.0183258056640625,-0.1836090087890625,0.0871124267578125,-0.9422418475151062,0.7510902285575867,-0.0429820865392684,39.84188842773438,96.6882781982422,-5.530487060546875
182491,0.0183258056640625,-0.1836090087890625,0.0871124267578125,-0.9422418475151062,0.7510902285575867,-0.0429820865392684,39.84188842773438,96.6882781982422,-5.530487060546875
182492,0.0024566650390625,-0.172760009765625,0.0250244140625,-1.052891373634338,0.8598958253860474,-0.0853732228279113,39.85008239746094,96.23812866210938,-4.719833374023438
182493,-0.0130157470703125,-0.15283203125,-0.054901123046875,-1.338208913803101,0.377249538898468,-0.2365235835313797,39.81805419921875,96.1538543701172,-4.328460693359375
182494,-0.03704833984375,-0.074249267578125,-0.1975250244140625,-1.338208913803101,0.377249538898468,-0.2365235835313797,39.69078063964844,96.00830078125,-3.882644653320312
182495,-0.03704833984375,-0.074249267578125,-0.1975250244140625,-1.338208913803101,0.377249538898468,-0.2365235835313797,39.69078063964844,96.00830078125,-3.882644653320312
182496,0.0006866455078125,0.12176513671875,-0.26239013671875,-1.469696640968323,-1.022913813591003,-0.4253116250038147,39.54669189453125,95.74128723144533,-2.81683349609375
182497,0.0006866455078125,0.12176513671875,-0.26239013671875,-1.469696640968323,-1.022913813591003,-0.4253116250038147,39.54669189453125,95.74128723144533,-2.81683349609375
182498,0.0305938720703125,0.1973419189453125,0.60284423828125,-1.783499836921692,-0.0612103603780269,-0.7495485544204712,39.02369689941406,95.98724365234376,-0.6593475341796875
182499,0.0305938720703125,0.1973419189453125,0.60284423828125,-1.783499836921692,-0.0612103603780269,-0.7495485544204712,39.02369689941406,95.98724365234376,-0.6593475341796875
182500,0.02728271484375,0.336517333984375,0.75030517578125,-1.981170535087585,0.7766051888465881,-0.9454898238182068,38.498291015625,96.25924682617188,-0.1369171142578125
182501,0.0104827880859375,1.132171630859375,1.1817626953125,-2.575487852096558,1.613387942314148,-1.387631297111511,37.61042785644531,96.60887145996094,0.1713409423828125
182502,-0.01251220703125,3.856796264648438,1.21722412109375,-3.496234893798828,1.930215954780579,-1.867336869239807,36.44786071777344,96.95541381835938,0.15985107421875
182503,-0.01251220703125,3.856796264648438,1.21722412109375,-3.496234893798828,1.930215954780579,-1.867336869239807,36.44786071777344,96.95541381835938,0.15985107421875
182504,-2.555191040039062,8.062103271484375,1.175048828125,-2.754895210266113,-1.952872633934021,-1.230700254440308,33.83660888671875,96.90412902832033,-0.702728271484375
182505,-2.555191040039062,8.062103271484375,1.175048828125,-2.754895210266113,-1.952872633934021,-1.230700254440308,33.83660888671875,96.90412902832033,-0.702728271484375
182506,-1.872039794921875,6.568450927734375,1.687484741210938,-0.7747266292572021,-2.096594333648682,-1.726586937904358,33.29837036132812,96.60548400878906,-0.694732666015625
182507,-0.6154632568359375,3.096466064453125,1.02191162109375,0.3943481147289276,-0.5911469459533691,-0.8462045192718506,33.17401123046875,95.9738311767578,0.235137939453125
182508,-0.0918426513671875,0.8578948974609375,-0.0398406982421875,-0.394806981086731,3.70860743522644,0.4046026170253754,32.80714416503906,94.68338012695312,2.047195434570312
182509,-0.022674560546875,0.943756103515625,-1.47808837890625,-0.3717645108699799,3.005310773849487,0.7207869291305542,32.53173828125,94.31706237792967,2.25439453125
182510,-0.0687408447265625,1.568634033203125,-1.71875,0.1416575312614441,-0.183317095041275,0.647571325302124,32.124755859375,94.173828125,1.958526611328125
182511,-0.1083984375,2.043487548828125,-0.1385345458984375,0.3226845860481262,-0.3602210283279419,0.7482870221138,32.04978942871094,94.1571044921875,1.593658447265625
182512,-0.0492095947265625,2.234710693359375,0.190093994140625,0.402910977602005,0.1388992965221405,0.9154109954833984,32.173095703125,94.12399291992188,1.382858276367188
182513,0.00091552734375,2.210906982421875,0.2015228271484375,0.4908464252948761,0.2817294299602509,0.9296871423721312,32.62358093261719,94.03474426269533,1.285964965820312
182514,0.0634765625,1.941909790039062,0.2271575927734375,0.5146936774253845,0.1539458930492401,0.8159099817276001,33.2305908203125,94.03390502929688,0.9532318115234376
182515,0.13287353515625,1.58258056640625,0.2657318115234375,0.4806667566299438,-0.0991947576403617,0.7671957015991211,33.7315673828125,94.05642700195312,0.76953125
182516,0.169403076171875,1.287948608398438,0.3174896240234375,0.4870647192001343,-0.2197672426700592,0.811055064201355,34.17623901367188,94.04598999023438,0.604644775390625
182517,0.194000244140625,1.073104858398438,0.3443603515625,0.5538701415061951,-0.1840483993291855,0.919264316558838,34.51777648925781,94.15509033203124,0.523162841796875
182518,0.2052154541015625,0.9222564697265624,0.323333740234375,0.6547682285308838,-0.0266214907169342,1.051139831542969,34.9150390625,94.33317565917967,0.326202392578125
182519,0.199737548828125,0.81207275390625,0.2446441650390625,0.7971264719963074,0.1392239332199097,1.146007180213928,35.34176635742188,94.38908386230467,0.1934814453125
182520,0.187408447265625,0.7159576416015625,0.061248779296875,1.127627968788147,-0.4604152739048004,1.131563067436218,35.89964294433594,94.74021911621094,-0.0274658203125
182521,0.187408447265625,0.7159576416015625,0.061248779296875,1.127627968788147,-0.4604152739048004,1.131563067436218,35.89964294433594,94.74021911621094,-0.0274658203125
182522,0.1846923828125,0.61712646484375,-0.2744140625,1.127627968788147,-0.4604152739048004,1.131563067436218,36.34678649902344,95.01634216308594,-0.161376953125
182523,0.1846923828125,0.61712646484375,-0.2744140625,1.127627968788147,-0.4604152739048004,1.131563067436218,36.34678649902344,95.01634216308594,-0.161376953125
182524,0.0409088134765625,0.4222259521484375,0.1992645263671875,1.519171237945557,-1.083171844482422,0.4729081690311432,38.04457092285156,95.60267639160156,-0.34375
182525,-0.0039520263671875,0.3257598876953125,0.22857666015625,1.54072892665863,-0.7037720084190369,0.3441288769245148,38.59159851074219,95.98675537109376,-0.8939056396484375
182526,-0.0395050048828125,0.2442779541015625,0.2101287841796875,1.501500010490417,-0.3811734616756439,0.2317930161952972,38.98292541503906,96.25161743164062,-1.48199462890625
182527,-0.0395050048828125,0.2442779541015625,0.2101287841796875,1.501500010490417,-0.3811734616756439,0.2317930161952972,38.98292541503906,96.25161743164062,-1.48199462890625
182528,-0.090087890625,0.069427490234375,0.1718597412109375,1.363564610481262,0.06290253251791,-0.0254963058978319,39.42451477050781,96.77804565429688,-3.040908813476562
182529,-0.102508544921875,-0.0161895751953125,0.15069580078125,1.310938954353333,0.174609363079071,-0.1545855849981308,39.58995056152344,96.884521484375,-3.610549926757812
182530,-0.103515625,-0.081207275390625,0.11163330078125,1.258150577545166,0.0300694853067398,-0.3054565787315369,39.71932983398438,97.05412292480467,-4.213851928710938
182531,-0.103515625,-0.081207275390625,0.11163330078125,1.258150577545166,0.0300694853067398,-0.3054565787315369,39.71932983398438,97.05412292480467,-4.213851928710938
182532,-0.1334381103515625,-0.10565185546875,0.0693359375,1.203974962234497,-0.1583313196897507,-0.3687974810600281,39.76611328125,97.29794311523438,-5.491836547851562
182533,-0.171905517578125,-0.0966033935546875,0.0740966796875,1.116743326187134,-0.3287544548511505,-0.4395893514156342,39.70953369140625,97.43000793457033,-6.005691528320312
182534,-0.2288970947265625,-0.1002349853515625,0.0994415283203125,1.028472304344177,-0.3782772719860077,-0.4953908324241638,39.68682861328125,97.40931701660156,-6.461685180664062
182535,-0.2288970947265625,-0.1002349853515625,0.0994415283203125,1.028472304344177,-0.3782772719860077,-0.4953908324241638,39.68682861328125,97.40931701660156,-6.461685180664062
182536,-0.379852294921875,-0.1401519775390625,0.156402587890625,0.8638095855712891,0.221965953707695,-0.3623251914978027,39.29261779785156,97.72418212890624,-7.314971923828125
182537,-0.26019287109375,-0.0788421630859375,-0.0136566162109375,0.750022828578949,0.5986099243164062,-0.0500756837427616,39.09706115722656,97.74110412597656,-7.60308837890625
182538,-0.0559539794921875,0.0163116455078125,-0.1563568115234375,0.4476976096630096,0.2115750908851624,0.1072747930884361,38.93804931640625,97.78150939941406,-8.017120361328125
182539,-0.0559539794921875,0.0163116455078125,-0.1563568115234375,0.4476976096630096,0.2115750908851624,0.1072747930884361,38.93804931640625,97.78150939941406,-8.017120361328125
182540,0.015838623046875,-0.0091400146484375,0.0656280517578125,0.3005819320678711,0.2109609693288803,0.0925927832722663,38.70719909667969,97.80685424804688,-8.794448852539062
182541,0.024322509765625,-0.0143280029296875,0.105377197265625,0.1888474076986313,0.3723503947257996,0.0695780143141746,38.69844055175781,97.88226318359376,-9.036270141601562
182542,0.0308380126953125,-0.0253448486328125,0.097808837890625,0.1125672906637192,0.5457938313484192,0.0367119424045085,38.65681457519531,97.91116333007812,-9.1885986328125
182543,0.0308380126953125,-0.0253448486328125,0.097808837890625,0.1125672906637192,0.5457938313484192,0.0367119424045085,38.65681457519531,97.91116333007812,-9.1885986328125
182544,0.035400390625,-0.044921875,0.08856201171875,-0.1033010855317116,0.6964238286018372,-0.0297230072319507,38.53024291992188,97.89096069335938,-9.444473266601562
182545,0.03289794921875,-0.0535125732421875,0.0714569091796875,-0.2973571121692657,0.5596502423286438,-0.0829257741570472,38.46946716308594,97.91468811035156,-9.4700927734375
182546,0.029541015625,-0.05853271484375,0.065948486328125,-0.5055819749832153,0.3634698092937469,-0.1459036767482758,38.33616638183594,97.8295440673828,-9.3880615234375
182547,0.029541015625,-0.05853271484375,0.065948486328125,-0.5055819749832153,0.3634698092937469,-0.1459036767482758,38.33616638183594,97.8295440673828,-9.3880615234375
182548,0.0410308837890625,-0.06103515625,0.051239013671875,-0.8273605108261108,-0.0322809740900993,-0.296931266784668,38.14498901367188,98.0449676513672,-8.919357299804688
182549,0.0557708740234375,-0.045623779296875,0.0398712158203125,-0.9232396483421326,-0.2214351892471313,-0.3902803957462311,37.999267578125,98.07107543945312,-8.505645751953125
182550,0.073272705078125,-0.005828857421875,-0.014862060546875,-0.9806691408157348,-0.4398247897624969,-0.4989099502563477,37.85250854492188,97.86068725585938,-7.977554321289062
182551,0.073272705078125,-0.005828857421875,-0.014862060546875,-0.9806691408157348,-0.4398247897624969,-0.4989099502563477,37.85250854492188,97.86068725585938,-7.977554321289062
182552,0.1500396728515625,0.2110137939453125,-0.822052001953125,-0.6340783834457397,-2.180487871170044,-0.6849149465560913,37.36576843261719,97.9051513671875,-6.849990844726562
182553,0.2024993896484375,0.4123992919921875,-0.74078369140625,-0.0605533570051193,-4.04607629776001,-0.8330585956573486,37.13594055175781,97.79429626464844,-6.352127075195312
182554,0.1575927734375,0.6272125244140625,0.2917938232421875,-0.3369759023189545,-0.2561945021152496,-1.420658230781555,36.81561279296875,97.87336730957033,-5.807785034179688
182555,0.1575927734375,0.6272125244140625,0.2917938232421875,-0.3369759023189545,-0.2561945021152496,-1.420658230781555,36.81561279296875,97.87336730957033,-5.807785034179688
182556,0.176605224609375,2.936874389648438,0.093048095703125,-0.9487735033035278,1.798487305641174,-2.123278617858887,35.83258056640625,98.26536560058594,-4.930801391601562
182557,0.346343994140625,3.88043212890625,-0.7368316650390625,-1.253348350524902,0.0557428896427154,-2.557902574539185,35.05340576171875,98.384765625,-4.99017333984375
182558,0.2428436279296875,5.005889892578125,-0.3138580322265625,-1.261803030967712,-2.728258371353149,-2.695556879043579,34.00349426269531,98.2421417236328,-5.0462646484375
182559,0.2428436279296875,5.005889892578125,-0.3138580322265625,-1.261803030967712,-2.728258371353149,-2.695556879043579,34.00349426269531,98.2421417236328,-5.0462646484375
182560,-1.527847290039062,5.617813110351562,1.47088623046875,-1.946776866912842,-0.1395405828952789,-1.640962839126587,31.80552673339844,97.53181457519533,-4.171707153320312
182561,-1.258697509765625,3.587554931640625,0.3182373046875,-1.060293316841125,1.871523380279541,-0.2011674642562866,30.94053649902344,97.16880798339844,-3.294219970703125
182562,-0.6079254150390625,2.0953369140625,-0.272247314453125,0.4681757390499115,0.9200183153152466,0.2022881209850311,30.40943908691406,96.6466827392578,-2.5394287109375
182563,-0.6079254150390625,2.0953369140625,-0.272247314453125,0.4681757390499115,0.9200183153152466,0.2022881209850311,30.40943908691406,96.6466827392578,-2.5394287109375
182564,-0.209228515625,1.468658447265625,-0.0066680908203125,1.122678995132446,0.4975045919418335,0.4062718749046326,30.44801330566406,95.7350616455078,-1.91192626953125
182565,-0.02978515625,1.696426391601562,-0.421295166015625,0.7590717673301697,0.0604345798492431,0.4993277788162231,30.52861022949219,95.69627380371094,-2.260040283203125
182566,0.10662841796875,1.807876586914062,-0.7548370361328125,0.6246353983879089,-1.046876668930054,0.6695804595947266,30.69761657714844,95.77383422851562,-2.868240356445312
182567,0.10662841796875,1.807876586914062,-0.7548370361328125,0.6246353983879089,-1.046876668930054,0.6695804595947266,30.69761657714844,95.77383422851562,-2.868240356445312
182568,0.1780853271484375,1.821853637695312,-0.2104339599609375,0.5605850219726562,-0.4297979772090912,0.6495702862739563,31.05555725097656,95.87826538085938,-3.59051513671875
182569,0.1241607666015625,1.78277587890625,-0.1641845703125,0.5605850219726562,-0.4297979772090912,0.6495702862739563,31.93991088867188,96.24380493164062,-3.600540161132812
182570,-0.069580078125,1.751449584960938,-0.12188720703125,0.3445483148097992,-0.0056312540546059,0.4760845303535461,32.39260864257812,96.3031768798828,-3.708206176757812
182571,-0.257904052734375,1.650802612304688,-0.0798492431640625,0.161654144525528,0.1453039348125458,0.4689049124717712,32.83390808105469,96.27638244628906,-3.856613159179688
182572,-0.30047607421875,1.528518676757812,-0.0749053955078125,0.1860212683677673,0.0895346775650978,0.4876399636268616,33.23530578613281,96.25955200195312,-4.027679443359375
182573,-0.2782440185546875,1.385482788085938,0.024627685546875,0.334839254617691,0.1110130697488785,0.5442750453948975,33.55177307128906,96.20079040527344,-4.141708374023438
182574,-0.2161102294921875,1.202285766601562,0.087615966796875,0.5515073537826538,0.1684193760156631,0.6118801832199097,33.935546875,96.1428680419922,-4.298873901367188
182575,-0.15740966796875,1.0167236328125,0.11285400390625,0.8083258271217346,0.1672614216804504,0.6811851859092712,34.26315307617188,96.17884826660156,-4.573760986328125
182576,-0.1210479736328125,0.847747802734375,0.154327392578125,1.026415824890137,0.1363810151815414,0.7424701452255249,34.61796569824219,96.21833801269533,-4.771926879882812
182577,-0.101104736328125,0.689239501953125,0.2155609130859375,1.130886554718018,0.1887483447790146,0.7874325513839722,34.99459838867188,96.38758850097656,-5.331466674804688
182578,-0.09210205078125,0.5214385986328125,0.2326507568359375,1.113128066062927,0.3251956701278687,0.8141469955444336,35.32368469238281,96.46955871582033,-5.834197998046875
182579,-0.09210205078125,0.5214385986328125,0.2326507568359375,1.113128066062927,0.3251956701278687,0.8141469955444336,35.32368469238281,96.46955871582033,-5.834197998046875
182580,-0.087890625,0.194183349609375,0.0495758056640625,0.9387214183807372,0.39031583070755,0.846615731716156,36.08616638183594,96.76307678222656,-6.670120239257812
182581,-0.086883544921875,0.062469482421875,-0.08966064453125,0.8797129392623901,0.1492856293916702,0.8583011031150818,36.48295593261719,97.1260223388672,-7.156829833984375
182582,-0.0724334716796875,-0.043914794921875,-0.2152557373046875,0.8684688210487366,-0.2963701486587524,0.8773747086524963,36.80690002441406,97.38664245605467,-7.627975463867188
182583,-0.0724334716796875,-0.043914794921875,-0.2152557373046875,0.8684688210487366,-0.2963701486587524,0.8773747086524963,36.80690002441406,97.38664245605467,-7.627975463867188
182584,-0.050384521484375,-0.202667236328125,-0.285491943359375,0.9483034610748292,-1.069138526916504,1.088440299034119,37.72018432617188,97.54544067382812,-8.227859497070312
182585,-0.013671875,-0.2456817626953125,-0.3038177490234375,1.0395827293396,-0.9004120826721191,1.359567642211914,38.14161682128906,97.81820678710938,-8.554168701171875
182586,0.075469970703125,-0.2906646728515625,-0.4325408935546875,1.077392220497131,-0.3914202153682709,1.60397481918335,38.63270568847656,98.03302001953124,-8.814620971679688
182587,0.075469970703125,-0.2906646728515625,-0.4325408935546875,1.077392220497131,-0.3914202153682709,1.60397481918335,38.63270568847656,98.03302001953124,-8.814620971679688
182588,0.216583251953125,-0.19183349609375,-0.62646484375,0.3599930703639984,-0.4745593369007111,1.62956166267395,39.81204223632812,98.62718200683594,-9.17352294921875
182589,0.1356048583984375,-0.0483551025390625,0.019622802734375,0.2764054834842682,-0.7720376253128052,1.485007882118225,40.596435546875,98.86241149902344,-9.220230102539062
182590,0.1048126220703125,0.0219268798828125,0.3523101806640625,0.2307583838701248,0.1661101430654526,0.8857234120368958,41.25212097167969,99.16038513183594,-9.240264892578123
182591,0.1048126220703125,0.0219268798828125,0.3523101806640625,0.2307583838701248,0.1661101430654526,0.8857234120368958,41.25212097167969,99.16038513183594,-9.240264892578123
182592,0.102691650390625,-0.0141143798828125,0.2066192626953125,0.1774413585662842,0.4932714998722076,0.5948492288589478,42.46311950683594,99.31619262695312,-9.246429443359377
182593,0.09136962890625,-0.068817138671875,0.0380706787109375,0.089202843606472,0.448902428150177,0.3950040340423584,42.83120727539062,99.2566375732422,-9.116836547851562
182594,0.0668792724609375,-0.0987091064453125,-0.024658203125,-0.016833309084177,0.1786826550960541,0.2715715765953064,43.16249084472656,99.29801940917967,-9.062179565429688
182595,0.0668792724609375,-0.0987091064453125,-0.024658203125,-0.016833309084177,0.1786826550960541,0.2715715765953064,43.16249084472656,99.29801940917967,-9.062179565429688
182596,0.0176849365234375,-0.0980987548828125,0.0930328369140625,-0.2417473793029785,-0.0772668272256851,0.1034784540534019,43.53657531738281,99.41555786132812,-8.717437744140625
182597,0.0021820068359375,-0.085113525390625,0.1236419677734375,-0.3906425833702087,0.0095247952267527,0.0288457628339529,43.79563903808594,99.37811279296876,-8.540634155273438
182598,-0.0118560791015625,-0.0767822265625,0.122283935546875,-0.5906675457954407,0.1638999879360199,-0.0427711643278598,43.89231872558594,99.3359832763672,-8.28955078125
182599,-0.0118560791015625,-0.0767822265625,0.122283935546875,-0.5906675457954407,0.1638999879360199,-0.0427711643278598,43.89231872558594,99.3359832763672,-8.28955078125
182600,-0.034393310546875,-0.0761566162109375,0.06988525390625,-1.100981116294861,0.5321366190910339,-0.1928701251745224,44.1624755859375,99.3072509765625,-7.504684448242188
182601,-0.043060302734375,-0.07904052734375,0.0311431884765625,-1.360803961753845,0.7011410593986511,-0.2696295976638794,44.3055419921875,99.2167510986328,-7.002975463867188
182602,-0.0517578125,-0.080780029296875,-0.019927978515625,-1.618416547775269,0.8322282433509827,-0.3576161861419678,44.38099670410156,98.97023010253906,-6.280349731445312
182603,-0.0517578125,-0.080780029296875,-0.019927978515625,-1.618416547775269,0.8322282433509827,-0.3576161861419678,44.38099670410156,98.97023010253906,-6.280349731445312
182604,-0.064727783203125,-0.1668243408203125,-0.659149169921875,-1.941338658332825,0.0511044636368751,-0.5136817097663879,44.33320617675781,98.62391662597656,-4.49066162109375
182605,-0.064727783203125,-0.1668243408203125,-0.659149169921875,-1.941338658332825,0.0511044636368751,-0.5136817097663879,44.33320617675781,98.62391662597656,-4.49066162109375
182606,0.0144805908203125,-0.0766143798828125,-0.7713165283203125,-1.871417641639709,-1.371771574020386,-0.5367372035980225,44.20213317871094,98.33357238769533,-3.544143676757812
182607,0.1048431396484375,0.1337432861328125,-0.2398681640625,-1.701789736747742,-1.973448395729065,-0.5190804600715637,44.02496337890625,98.1200714111328,-2.615875244140625
182608,0.0900726318359375,0.1845703125,0.794189453125,-1.432646155357361,-0.0534736104309558,-0.6907832622528076,43.28672790527344,97.96305847167967,-0.739715576171875
182609,0.146270751953125,0.4296875,1.0877685546875,-1.543666124343872,1.589378476142883,-0.9507642388343812,42.66773986816406,98.08663940429688,-0.2344512939453125
182610,0.285064697265625,1.07232666015625,1.4326171875,-2.166302919387817,3.672339677810669,-1.367279171943665,41.730224609375,98.23825073242188,-0.0473785400390625
182611,0.5960845947265625,3.856048583984375,1.43585205078125,-2.6721351146698,5.280675411224365,-1.606992125511169,40.29924011230469,98.34635925292967,-0.2716217041015625
182612,0.472625732421875,7.119354248046875,0.9170989990234376,-3.232336044311523,3.97902250289917,-0.2308638393878937,38.71821594238281,98.26382446289062,-0.625701904296875
182613,-0.9896392822265624,8.0986328125,0.8800048828125,-2.793174743652344,0.9610908627510072,-0.0765530988574028,37.46224975585938,97.93658447265624,-0.998687744140625
182614,-1.588424682617188,7.1697998046875,1.055252075195312,-1.021363496780396,-0.9360262751579284,-1.824258923530579,37.07002258300781,97.56842041015624,-0.911712646484375
182615,-1.588424682617188,7.1697998046875,1.055252075195312,-1.021363496780396,-0.9360262751579284,-1.824258923530579,37.07002258300781,97.56842041015624,-0.911712646484375
182616,-0.2505035400390625,1.868148803710938,0.30841064453125,-0.0530453734099865,-2.180429458618164,-2.246157884597778,36.77607727050781,96.13706970214844,0.59539794921875
182617,-0.30340576171875,1.079299926757812,0.3209381103515625,-0.302120715379715,-1.4222731590271,-1.872869372367859,36.13809204101562,95.5994110107422,1.071624755859375
182618,-0.7701873779296875,0.4041290283203125,-0.322723388671875,-0.811057448387146,2.006741762161255,-1.12590754032135,35.34207153320312,95.24024963378906,1.418441772460938
182619,-0.7701873779296875,0.4041290283203125,-0.322723388671875,-0.811057448387146,2.006741762161255,-1.12590754032135,35.34207153320312,95.24024963378906,1.418441772460938
182620,0.0766754150390625,1.76019287109375,-1.056793212890625,1.169724464416504,0.9213733077049256,1.169121861457825,33.68115234375,95.09870910644533,1.860946655273438
182621,0.0948028564453125,2.040115356445312,0.3437347412109375,1.908478975296021,1.657391428947449,1.533400416374207,33.66677856445312,94.75904846191406,2.264297485351562
182622,0.214508056640625,2.1505126953125,0.402923583984375,1.908478975296021,1.657391428947449,1.533400416374207,33.96038818359375,94.65705871582033,2.089828491210938
182623,0.214508056640625,2.1505126953125,0.402923583984375,1.908478975296021,1.657391428947449,1.533400416374207,33.96038818359375,94.65705871582033,2.089828491210938
182624,0.3203277587890625,1.997329711914062,0.174468994140625,1.138482928276062,1.902535915374756,1.902594447135925,34.86038208007812,94.96194458007812,0.7330474853515625
182625,0.3203277587890625,1.997329711914062,0.174468994140625,1.138482928276062,1.902535915374756,1.902594447135925,34.86038208007812,94.96194458007812,0.7330474853515625
182626,0.3730010986328125,1.471054077148438,0.027587890625,0.2448598146438599,0.4570362567901611,1.488642573356628,36.27236938476562,95.59671020507812,-0.7532501220703125
182627,0.386383056640625,1.213058471679688,0.0904998779296875,0.3330192267894745,-0.0470910780131816,1.265667319297791,36.82989501953125,95.81105041503906,-1.126602172851562
182628,0.3699493408203125,1.001617431640625,0.1159515380859375,0.6509825587272644,-0.4416373372077942,1.10509729385376,37.41026306152344,96.11715698242188,-1.28570556640625
182629,0.3699493408203125,1.001617431640625,0.1159515380859375,0.6509825587272644,-0.4416373372077942,1.10509729385376,37.41026306152344,96.11715698242188,-1.28570556640625
182630,0.2296600341796875,0.720062255859375,0.276824951171875,1.363577127456665,-0.5990312099456787,0.8939480781555176,38.61393737792969,96.57861328125,-1.391357421875
182631,0.154571533203125,0.6107635498046875,0.3123016357421875,1.57694399356842,-0.3896835744380951,0.8810999393463135,39.25543212890625,96.7430419921875,-1.54034423828125
182632,0.0998992919921875,0.5167083740234375,0.2890777587890625,1.659084677696228,-0.2172633409500122,0.855444073677063,39.78062438964844,97.05172729492188,-2.171340942382812
182633,0.0998992919921875,0.5167083740234375,0.2890777587890625,1.659084677696228,-0.2172633409500122,0.855444073677063,39.78062438964844,97.05172729492188,-2.171340942382812
182634,0.0219879150390625,0.28521728515625,0.12945556640625,1.499179124832153,-0.2553233802318573,0.6555104851722717,40.88505554199219,97.32341003417967,-3.554885864257812
182635,0.0080413818359375,0.1478424072265625,0.0123138427734375,1.325384974479675,-0.5398861169815063,0.5401148796081543,41.3656005859375,97.54493713378906,-4.212203979492188
182636,0.002655029296875,0.0221710205078125,-0.1300048828125,1.164814233779907,-0.9828012585639954,0.4452621638774872,41.69462585449219,97.7060089111328,-4.825332641601562
182637,0.0126953125,-0.0966796875,-0.3145904541015625,1.057380676269531,-1.690386414527893,0.3876880705356598,42.03509521484375,97.85801696777344,-5.343841552734375
182638,0.027984619140625,-0.166259765625,-0.3470916748046875,0.9848119020462036,-2.861990451812744,0.3888579905033112,42.3912353515625,98.04866027832033,-5.779388427734375
182639,0.027984619140625,-0.166259765625,-0.3470916748046875,0.9848119020462036,-2.861990451812744,0.3888579905033112,42.3912353515625,98.04866027832033,-5.779388427734375
182640,0.0391082763671875,-0.1982269287109375,-0.0756378173828125,0.985300600528717,-2.758424043655396,0.3765573799610138,43.12060546875,98.438232421875,-6.191497802734375
182641,0.0391082763671875,-0.1982269287109375,-0.0756378173828125,0.985300600528717,-2.758424043655396,0.3765573799610138,43.12060546875,98.438232421875,-6.191497802734375
182642,-0.008148193359375,-0.2064208984375,0.1519775390625,0.9175556898117064,-1.301809310913086,0.2368508875370026,43.76730346679688,98.8092041015625,-6.480911254882812
182643,-0.008148193359375,-0.2064208984375,0.1519775390625,0.9175556898117064,-1.301809310913086,0.2368508875370026,43.76730346679688,98.8092041015625,-6.480911254882812
182644,-0.11932373046875,-0.10772705078125,0.2140960693359375,0.6908716559410095,0.5402448773384094,-0.0212946366518735,44.30043029785156,99.15519714355467,-6.815032958984375
182645,-0.1454925537109375,-0.0699310302734375,0.165313720703125,0.5530096292495728,0.922908902168274,-0.1421715170145035,44.44053649902344,99.21710205078124,-7.02978515625
182646,-0.1496429443359375,-0.0584716796875,0.1236114501953125,0.3700912296772003,1.000588536262512,-0.2596198618412018,44.49887084960938,99.17561340332033,-7.385284423828125
182647,-0.1496429443359375,-0.0584716796875,0.1236114501953125,0.3700912296772003,1.000588536262512,-0.2596198618412018,44.49887084960938,99.17561340332033,-7.385284423828125
182648,-0.1601715087890625,-0.048004150390625,0.059417724609375,-0.1174286231398582,0.7648417353630066,-0.5261753797531128,44.40869140625,99.16346740722656,-7.75628662109375
182649,-0.160491943359375,-0.052276611328125,0.057647705078125,-0.3410185873508453,0.6658981442451477,-0.6753637790679932,44.29203796386719,99.142822265625,-7.862503051757812
182650,-0.159576416015625,-0.05328369140625,0.0800628662109375,-0.5379324555397034,0.6847402453422546,-0.8309813737869263,44.06648254394531,99.21359252929688,-7.884384155273438
182651,-0.159576416015625,-0.05328369140625,0.0800628662109375,-0.5379324555397034,0.6847402453422546,-0.8309813737869263,44.06648254394531,99.21359252929688,-7.884384155273438
182652,-0.14337158203125,-0.0646209716796875,0.0942230224609375,-0.8512656092643738,1.02250075340271,-1.131420016288757,43.398681640625,99.31362915039062,-7.429244995117188
182653,-0.119842529296875,-0.0763397216796875,0.071258544921875,-0.9465303421020508,1.238490581512451,-1.24290657043457,43.01321411132812,99.26921081542967,-7.049606323242188
182654,-0.0882720947265625,-0.0896759033203125,0.0329742431640625,-0.9928671717643738,1.588501572608948,-1.329882264137268,42.46681213378906,99.17909240722656,-6.61407470703125
182655,-0.0882720947265625,-0.0896759033203125,0.0329742431640625,-0.9928671717643738,1.588501572608948,-1.329882264137268,42.46681213378906,99.17909240722656,-6.61407470703125
182656,-0.0018768310546875,-0.1368560791015625,-0.28179931640625,-0.94808429479599,1.411992073059082,-1.293044328689575,41.03047180175781,98.84832763671876,-5.602706909179688
182657,0.07598876953125,-0.1360015869140625,-0.63641357421875,-0.838549792766571,0.5714728236198425,-1.170365571975708,40.41468811035156,98.62762451171876,-5.195419311523438
182658,0.1312713623046875,0.076690673828125,-0.8868865966796875,-0.7049161195755005,-0.8144348859786987,-1.083107113838196,39.6126708984375,98.53823852539062,-5.00408935546875
182659,0.1312713623046875,0.076690673828125,-0.8868865966796875,-0.7049161195755005,-0.8144348859786987,-1.083107113838196,39.6126708984375,98.53823852539062,-5.00408935546875
182660,0.0634002685546875,0.1699371337890625,-0.1722869873046875,-0.600734293460846,-2.465459108352661,-1.156717419624329,38.16862487792969,98.39178466796876,-4.40570068359375
182661,0.034423828125,0.2159881591796875,0.391021728515625,-0.7259894013404846,-1.296316862106323,-1.115310072898865,37.4573974609375,98.50418090820312,-4.098281860351562
182662,0.071624755859375,0.7818603515625,0.6743621826171875,-1.156183362007141,0.1671527773141861,-1.188639044761658,36.66703796386719,98.52684020996094,-3.851547241210938
182663,0.071624755859375,0.7818603515625,0.6743621826171875,-1.156183362007141,0.1671527773141861,-1.188639044761658,36.66703796386719,98.52684020996094,-3.851547241210938
182664,0.3267364501953125,5.19854736328125,0.7001495361328125,-1.868696928024292,2.303412437438965,-0.2894792258739471,34.69041442871094,98.69505310058594,-3.574417114257812
182665,-0.21380615234375,7.15863037109375,0.4391021728515625,-1.81763756275177,0.3504387140274048,-0.0398896262049675,33.872802734375,98.70571899414062,-3.75732421875
182666,-0.9446868896484376,7.555038452148438,1.05047607421875,-0.9675772786140442,-1.521979451179504,-0.8653973937034607,33.4073486328125,98.66958618164062,-3.757614135742188
182667,-0.9446868896484376,7.555038452148438,1.05047607421875,-0.9675772786140442,-1.521979451179504,-0.8653973937034607,33.4073486328125,98.66958618164062,-3.757614135742188
182668,-0.477691650390625,2.507766723632812,0.9005279541015625,-0.1516321301460266,-1.531614542007446,-1.788331031799316,33.70506286621094,97.71047973632812,-2.935958862304688
182669,-0.36785888671875,1.45794677734375,0.7179412841796875,-0.1212175041437149,-1.197515726089478,-1.523356676101685,33.63232421875,97.10382080078124,-2.297195434570312
182670,-0.40826416015625,1.12359619140625,0.57269287109375,0.4718474149703979,0.154680922627449,-0.8326945900917053,33.28627014160156,96.6090087890625,-1.730026245117188
182671,-0.40826416015625,1.12359619140625,0.57269287109375,0.4718474149703979,0.154680922627449,-0.8326945900917053,33.28627014160156,96.6090087890625,-1.730026245117188
182672,-0.4332122802734375,1.596954345703125,-0.095733642578125,0.6522694230079651,0.338735967874527,-0.2794966101646423,32.35343933105469,96.10447692871094,-1.384841918945312
182673,-0.3936767578125,1.973037719726562,-0.4764404296875,0.6541453003883362,0.6375929713249207,0.2944409549236298,32.02005004882812,96.1803741455078,-1.686447143554688
182674,-0.103607177734375,2.097869873046875,-1.311294555664062,0.2916214764118195,-1.615061283111572,0.6100907921791077,31.77561950683594,96.26075744628906,-1.941329956054688
182675,-0.103607177734375,2.097869873046875,-1.311294555664062,0.2916214764118195,-1.615061283111572,0.6100907921791077,31.77561950683594,96.26075744628906,-1.941329956054688
182676,0.0042266845703125,1.88897705078125,0.188507080078125,0.1563603132963181,-0.8911357522010803,0.7062612771987915,32.18768310546875,96.18833923339844,-2.516067504882812
182677,0.0153656005859375,1.77117919921875,0.304718017578125,0.1471702754497528,-0.0542792156338691,0.7018625140190125,32.6090087890625,96.15899658203124,-2.425506591796875
182678,0.0028839111328125,1.593307495117188,0.3210296630859375,0.8919448256492615,0.3433461785316467,0.4046518802642822,33.12002563476562,96.1237335205078,-2.252349853515625
182679,0.0028839111328125,1.593307495117188,0.3210296630859375,0.8919448256492615,0.3433461785316467,0.4046518802642822,33.12002563476562,96.1237335205078,-2.252349853515625
182680,-0.0918731689453125,1.126754760742188,0.2375030517578125,1.346471309661865,0.225121796131134,0.4517048597335815,34.02349853515625,95.88088989257812,-2.215957641601562
182681,-0.0450592041015625,0.974212646484375,0.17047119140625,1.589574575424194,0.0249471608549356,0.5724462270736694,34.35545349121094,95.95233154296876,-2.54510498046875
182682,0.0229644775390625,0.84063720703125,0.115020751953125,1.589791536331177,-0.2350780218839645,0.6824827194213867,34.66828918457031,96.01168823242188,-3.0050048828125
182683,0.0814666748046875,0.675933837890625,0.084381103515625,1.423755526542664,-0.4705568552017212,0.83818519115448,34.93675231933594,96.17572021484376,-3.619461059570312
182684,0.1298980712890625,0.4963836669921875,0.0488739013671875,1.222980499267578,-0.6427968144416809,1.04936695098877,35.33033752441406,96.43595886230467,-4.29302978515625
182685,0.1851654052734375,0.3150482177734375,-0.088531494140625,1.053593873977661,-0.8790868520736694,1.289172887802124,35.74044799804688,96.65492248535156,-4.854354858398438
182686,0.2537078857421875,0.1340484619140625,-0.34716796875,0.9829626083374025,-1.517708539962769,1.553254842758179,36.1844482421875,96.79705810546876,-5.007949829101562
182687,0.2537078857421875,0.1340484619140625,-0.34716796875,0.9829626083374025,-1.517708539962769,1.553254842758179,36.1844482421875,96.79705810546876,-5.007949829101562
182688,0.2837677001953125,-0.0742034912109375,-0.23162841796875,1.202002286911011,-2.736395120620728,1.889747619628906,37.37370300292969,97.33677673339844,-5.431350708007812
182689,0.256683349609375,-0.0863800048828125,-0.052734375,1.362793803215027,-2.49791693687439,1.89661431312561,38.112060546875,97.67184448242188,-5.4111328125
182690,0.285430908203125,-0.1271514892578125,-0.116241455078125,1.392072081565857,-2.042914867401123,1.801883101463318,38.98384094238281,98.141357421875,-5.348617553710938
182691,0.285430908203125,-0.1271514892578125,-0.116241455078125,1.392072081565857,-2.042914867401123,1.801883101463318,38.98384094238281,98.141357421875,-5.348617553710938
182692,0.1863555908203125,-0.1196441650390625,-0.0569610595703125,0.831522524356842,-0.0129461586475372,1.163508653640747,40.76873779296875,98.78997802734376,-5.394058227539062
182693,-0.04052734375,0.1451263427734375,0.06256103515625,0.6852481365203857,0.7940049767494202,0.6625497341156006,41.59088134765625,99.08827209472656,-5.675445556640625
182694,-0.1038360595703125,0.2545013427734375,0.052001953125,0.7930017709732056,0.8060973286628723,0.1449824869632721,42.26655578613281,99.07522583007812,-5.886734008789062
182695,-0.1038360595703125,0.2545013427734375,0.052001953125,0.7930017709732056,0.8060973286628723,0.1449824869632721,42.26655578613281,99.07522583007812,-5.886734008789062
182696,-0.0898284912109375,0.2064056396484375,0.033203125,0.8026407957077026,0.321951150894165,0.0370568223297596,42.90907287597656,99.05821228027344,-6.6387939453125
182697,-0.0969696044921875,0.1536102294921875,0.1295623779296875,0.7254788875579834,0.0717695280909538,-0.025193503126502,42.96194458007812,99.16482543945312,-7.160491943359375
182698,-0.0971221923828125,0.081573486328125,0.169281005859375,0.5490610003471375,0.0452495031058788,-0.040976196527481,43.06387329101562,99.2295379638672,-7.591583251953125
182699,-0.0971221923828125,0.081573486328125,0.169281005859375,0.5490610003471375,0.0452495031058788,-0.040976196527481,43.06387329101562,99.2295379638672,-7.591583251953125
182700,-0.076812744140625,-0.0533294677734375,0.161285400390625,0.0564294531941413,0.3888835608959198,-0.0645787268877029,43.03617858886719,99.25382995605467,-8.497802734375
182701,-0.050384521484375,-0.0959930419921875,0.1141510009765625,-0.1724766939878464,0.5201888680458069,-0.0521875694394111,43.06169128417969,99.25204467773438,-8.828720092773438
182702,-0.04119873046875,-0.09930419921875,0.082855224609375,-0.5069864988327026,0.6230201721191406,-0.0387511253356933,43.07463073730469,99.32708740234376,-8.999221801757812
182703,-0.04119873046875,-0.09930419921875,0.082855224609375,-0.5069864988327026,0.6230201721191406,-0.0387511253356933,43.07463073730469,99.32708740234376,-8.999221801757812
182704,-0.0501708984375,-0.08905029296875,0.01593017578125,-0.6221679449081421,0.5749085545539856,-0.0641930997371673,43.14659118652344,99.41746520996094,-8.775604248046875
182705,-0.064422607421875,-0.098541259765625,-0.0568084716796875,-0.721250057220459,0.4276394844055176,-0.1139918193221092,43.269287109375,99.37059020996094,-8.502182006835938
182706,-0.078369140625,-0.113250732421875,-0.15765380859375,-0.8050104975700378,-0.2128675282001495,-0.2622494697570801,43.350830078125,99.15525817871094,-8.024429321289062
182707,-0.078369140625,-0.113250732421875,-0.15765380859375,-0.8050104975700378,-0.2128675282001495,-0.2622494697570801,43.350830078125,99.15525817871094,-8.024429321289062
182708,-0.12017822265625,-0.13543701171875,-0.1949005126953125,-0.7823978662490845,-0.3651012778282166,-0.3855173289775848,43.64059448242188,99.17266845703124,-7.310104370117188
182709,-0.1873626708984375,-0.1830596923828125,-0.1591796875,-0.7554482221603394,-0.0979745015501976,-0.5807616710662842,43.7054443359375,99.07969665527344,-6.7979736328125
182710,-0.2764892578125,-0.2749176025390625,-0.1727447509765625,-0.7750027775764465,1.007984638214111,-0.8986115455627441,43.71258544921875,98.99147033691406,-6.180038452148438
182711,-0.202423095703125,-0.30731201171875,-0.3255462646484375,-0.8662405610084534,1.702985525131226,-1.166084289550781,43.78172302246094,98.78211975097656,-5.656326293945312
182712,-0.069427490234375,-0.2787628173828125,-0.302642822265625,-1.100513815879822,1.510031223297119,-1.229251265525818,43.59248352050781,98.7040557861328,-5.045623779296875
182713,-0.011016845703125,-0.237335205078125,-0.1840972900390625,-1.43775486946106,1.006148099899292,-1.175464987754822,43.13005065917969,98.41307067871094,-4.388229370117188
182714,0.0213623046875,-0.1638946533203125,-0.126708984375,-1.724039077758789,0.4841642677783966,-1.016438603401184,42.49638366699219,98.15643310546876,-3.874176025390625
182715,0.0213623046875,-0.1638946533203125,-0.126708984375,-1.724039077758789,0.4841642677783966,-1.016438603401184,42.49638366699219,98.15643310546876,-3.874176025390625
182716,0.0651702880859375,0.1006011962890625,-0.1956329345703125,-1.753108382225037,-0.7237435579299927,-0.7561366558074951,41.19857788085938,97.67410278320312,-2.541213989257812
182717,0.0548095703125,0.1353912353515625,0.0106353759765625,-1.693840980529785,-1.1455899477005,-0.7478065490722656,40.46554565429688,97.494873046875,-1.832305908203125
182718,0.0397796630859375,0.18817138671875,0.4486236572265625,-1.717381477355957,-0.7101958394050598,-0.7933444976806641,39.777587890625,97.36032104492188,-1.112548828125
182719,0.0397796630859375,0.18817138671875,0.4486236572265625,-1.717381477355957,-0.7101958394050598,-0.7933444976806641,39.777587890625,97.36032104492188,-1.112548828125
182720,0.2572479248046875,3.503753662109375,1.400482177734375,-2.482730865478516,1.878904819488525,-1.597206354141235,38.268310546875,97.36700439453124,0.3211212158203125
182721,0.2572479248046875,3.503753662109375,1.400482177734375,-2.482730865478516,1.878904819488525,-1.597206354141235,38.268310546875,97.36700439453124,0.3211212158203125
182722,0.19091796875,7.902908325195312,0.8052978515625,-1.546178340911865,-1.340653657913208,-1.252105474472046,37.10575866699219,97.43336486816406,0.3354339599609375
182723,-1.299484252929688,8.07098388671875,0.8091583251953125,-1.546178340911865,-1.340653657913208,-1.252105474472046,35.70912170410156,97.62747192382812,-0.1789093017578125
182724,-1.224746704101562,2.800949096679688,0.939361572265625,-0.2688828706741333,1.709444522857666,-1.41151237487793,34.13351440429688,97.17391967773438,-1.163497924804688
182725,-0.6462249755859375,0.7056121826171875,-0.0009613037109375,-0.183696061372757,3.079821348190308,0.0290846489369869,33.95606994628906,96.43858337402344,-0.5466461181640625
182726,-0.3155670166015625,0.536468505859375,-0.49005126953125,0.1660507619380951,1.735450029373169,1.065420508384705,33.65493774414062,95.72903442382812,-0.2023162841796875
182727,-0.3155670166015625,0.536468505859375,-0.49005126953125,0.1660507619380951,1.735450029373169,1.065420508384705,33.65493774414062,95.72903442382812,-0.2023162841796875
182728,-0.0101318359375,1.294647216796875,-0.914886474609375,0.3097013831138611,0.3948647677898407,1.13376784324646,33.24528503417969,95.19180297851562,-0.5057830810546875
182729,0.0015411376953125,1.9617919921875,-0.4307861328125,0.1965748369693756,-0.1997003257274628,1.165493249893188,33.19126892089844,95.1076202392578,-0.6654052734375
182730,0.0587615966796875,2.1680908203125,-0.0878753662109375,0.0806208103895187,-0.2991195917129517,1.292855262756348,33.48812866210938,95.25144958496094,-0.93914794921875
182731,0.0587615966796875,2.1680908203125,-0.0878753662109375,0.0806208103895187,-0.2991195917129517,1.292855262756348,33.48812866210938,95.25144958496094,-0.93914794921875
182732,0.1999053955078125,1.834060668945312,0.119384765625,0.1273339837789536,-0.1252340823411942,1.449378848075867,34.66835021972656,95.29196166992188,-1.142837524414062
182733,0.2962493896484375,1.492446899414062,0.141937255859375,0.186920091509819,-0.1000522971153259,1.493062138557434,35.24224853515625,95.40077209472656,-1.069595336914062
182734,0.3409423828125,1.204544067382812,0.158172607421875,0.2884616255760193,-0.0807627588510513,1.593248844146729,36.49734497070312,95.6293487548828,-0.9275054931640624
182735,0.3409423828125,1.204544067382812,0.158172607421875,0.2884616255760193,-0.0807627588510513,1.593248844146729,36.49734497070312,95.6293487548828,-0.9275054931640624
182736,0.337432861328125,0.8278656005859375,0.155517578125,0.5974817872047424,0.1128154993057251,1.746642708778381,37.89103698730469,95.99581909179688,-0.785369873046875
182737,0.300811767578125,0.7033843994140625,0.1361541748046875,0.7113265991210938,0.2210711240768433,1.731588125228882,38.59303283691406,96.25877380371094,-0.818511962890625
182738,0.2467498779296875,0.6162872314453125,0.078826904296875,0.7828068733215332,0.2680919170379639,1.606544494628906,39.45982360839844,96.39877319335938,-0.99078369140625
182739,0.1792449951171875,0.542999267578125,-0.0716705322265625,0.7608917355537415,0.0475328974425792,1.335743308067322,40.20500183105469,96.552001953125,-1.175125122070312
182740,0.09417724609375,0.48211669921875,-0.1243896484375,0.6897091865539551,-0.4248112142086029,0.9393299221992492,40.85197448730469,96.75157165527344,-1.414871215820312
182741,-0.00958251953125,0.415313720703125,-0.0117034912109375,0.6290357112884521,-0.7325860857963562,0.536388099193573,41.47767639160156,97.02850341796876,-1.593963623046875
182742,-0.0636138916015625,0.3331451416015625,0.054412841796875,0.6062214970588684,-0.7677627205848694,0.2158249765634537,41.89901733398438,97.23544311523438,-1.892288208007812
182743,-0.0636138916015625,0.3331451416015625,0.054412841796875,0.6062214970588684,-0.7677627205848694,0.2158249765634537,41.89901733398438,97.23544311523438,-1.892288208007812
182744,-0.111083984375,0.1363983154296875,-0.0297698974609375,0.6722849011421204,-0.8638200163841248,-0.2749601900577545,42.30714416503906,97.4674835205078,-2.28399658203125
182745,-0.116363525390625,0.0220184326171875,-0.1162109375,0.7868556976318359,-1.052064418792725,-0.4418266713619232,42.44151306152344,97.66741943359376,-2.520233154296875
182746,-0.10931396484375,-0.0760040283203125,-0.2131195068359375,0.9277355670928956,-1.379515528678894,-0.508743405342102,42.42227172851562,97.75750732421876,-2.886001586914062
182747,-0.10931396484375,-0.0760040283203125,-0.2131195068359375,0.9277355670928956,-1.379515528678894,-0.508743405342102,42.42227172851562,97.75750732421876,-2.886001586914062
182748,-0.0900726318359375,-0.147979736328125,-0.2277374267578125,1.18797779083252,-1.998350024223328,-0.4808401167392731,42.37211608886719,97.79849243164062,-3.50555419921875
182749,-0.066162109375,-0.16131591796875,-0.0910491943359375,1.257485747337341,-1.858420610427856,-0.4430676996707916,42.42010498046875,97.93624877929688,-3.891586303710938
182750,-0.0367584228515625,-0.181610107421875,0.0462188720703125,1.251879572868347,-1.281291484832764,-0.3717663586139679,42.33184814453125,98.10118103027344,-4.463760375976562
182751,-0.02508544921875,-0.1943206787109375,0.130401611328125,1.102033376693726,-0.3822453618049622,-0.2961994409561157,42.18614196777344,98.28898620605467,-4.938491821289062
182752,-0.0192108154296875,-0.1801910400390625,0.1206817626953125,0.860748827457428,0.4442456364631653,-0.2189467251300812,42.0408935546875,98.57289123535156,-5.390121459960938
182753,-0.0236663818359375,-0.13970947265625,0.0766143798828125,0.6448639631271362,0.8418001532554626,-0.1191516891121864,41.85215759277344,98.62716674804688,-5.764450073242188
182754,-0.0572662353515625,-0.03741455078125,0.1092987060546875,0.4971503913402557,1.035628795623779,-0.0383820086717605,41.77314758300781,98.67308044433594,-6.01611328125
182755,-0.088165283203125,0.040069580078125,0.161346435546875,0.4099406599998474,1.257103681564331,-0.0684688091278076,41.76910400390625,98.7825927734375,-6.200790405273438
182756,-0.0949249267578125,0.03240966796875,0.1781768798828125,0.3054549992084503,1.456071376800537,-0.1263289153575897,41.74502563476562,98.6804656982422,-6.554519653320312
182757,-0.100067138671875,0.016143798828125,0.1829986572265625,0.1827056258916855,1.637265920639038,-0.1847456097602844,41.63980102539062,98.73184204101562,-6.851791381835938
182758,-0.0984344482421875,-0.0067901611328125,0.1592864990234375,0.0654125586152076,1.779520273208618,-0.244626522064209,41.52578735351562,98.69735717773438,-7.252090454101562
182759,-0.091400146484375,-0.03118896484375,0.112213134765625,-0.0359705165028572,1.830007314682007,-0.2966332733631134,41.44038391113281,98.59934997558594,-7.490005493164062
182760,-0.0881195068359375,-0.0448455810546875,0.0765838623046875,-0.1500124037265778,1.752341866493225,-0.3446889519691467,41.24601745605469,98.56195068359376,-7.462020874023438
182761,-0.0881195068359375,-0.0448455810546875,0.0765838623046875,-0.1500124037265778,1.752341866493225,-0.3446889519691467,41.24601745605469,98.56195068359376,-7.462020874023438
182762,-0.079986572265625,-0.0829010009765625,0.0387420654296875,-0.3043489754199982,1.243404865264893,-0.4184113740921021,40.84735107421875,98.53839111328124,-7.860321044921875
182763,-0.0523834228515625,-0.0915069580078125,0.03692626953125,-0.3088462650775909,0.9032438397407532,-0.4431153833866119,40.63957214355469,98.53787231445312,-7.770401000976562
182764,-0.0376129150390625,-0.0979766845703125,0.064483642578125,-0.3078030943870544,0.5521124601364136,-0.4575582444667816,40.32942199707031,98.58970642089844,-7.590835571289062
182765,0.0053253173828125,-0.077423095703125,0.107635498046875,-0.3152264058589935,0.2560301721096039,-0.4952289164066315,40.00570678710938,98.52801513671876,-7.539154052734375
182766,0.043609619140625,-0.04803466796875,0.122344970703125,-0.4911633431911469,-0.1965764462947845,-0.5927674770355225,39.7762451171875,98.4824676513672,-7.437530517578125
182767,0.043609619140625,-0.04803466796875,0.122344970703125,-0.4911633431911469,-0.1965764462947845,-0.5927674770355225,39.7762451171875,98.4824676513672,-7.437530517578125
182768,0.0688629150390625,0.0371551513671875,0.115203857421875,-0.7486132383346558,-0.4840178191661835,-0.6316378712654114,39.18753051757812,98.47164916992188,-7.039199829101562
182769,0.037994384765625,0.1459808349609375,0.168914794921875,-1.166790843009949,-0.8110766410827637,-0.6963436603546143,38.92440795898438,98.37809753417967,-6.6475830078125
182770,-0.0049285888671875,0.26593017578125,0.2810821533203125,-1.752372026443481,-1.048246502876282,-0.8442284464836121,38.53640747070312,98.2474365234375,-6.232406616210938
182771,-0.0049285888671875,0.26593017578125,0.2810821533203125,-1.752372026443481,-1.048246502876282,-0.8442284464836121,38.53640747070312,98.2474365234375,-6.232406616210938
182772,-0.165252685546875,2.237838745117188,0.3360137939453125,-2.333674669265747,-1.369165778160095,-2.123937368392944,37.51118469238281,98.27375793457033,-4.874420166015625
182773,-0.0438079833984375,3.71826171875,-0.03863525390625,-1.885515689849854,-2.200400590896606,-3.266475200653076,36.56109619140625,98.21717834472656,-3.794342041015625
182774,0.1078643798828125,5.360305786132812,0.103546142578125,-1.152879476547241,-3.765727519989014,-4.210826873779297,35.3533935546875,97.95806884765624,-2.788162231445312
182775,0.1078643798828125,5.360305786132812,0.103546142578125,-1.152879476547241,-3.765727519989014,-4.210826873779297,35.3533935546875,97.95806884765624,-2.788162231445312
182776,-1.265823364257812,6.387908935546875,1.839736938476562,-1.296863317489624,-0.1780759990215302,-3.090338468551636,32.15509033203125,97.27769470214844,-0.6869964599609375
182777,-1.753265380859375,3.848220825195312,1.042465209960938,-0.6612189412117004,1.399592638015747,-0.8062453866004944,30.87860107421875,96.46833801269533,-0.2129364013671875
182778,-1.295181274414062,2.292465209960938,0.3779144287109375,0.337573766708374,1.652508497238159,-0.1269574165344238,30.2734375,95.65345764160156,0.0777587890625
182779,-0.7975616455078125,1.727081298828125,0.0519866943359375,0.8632473945617676,1.175014138221741,0.1989639699459076,30.2520751953125,95.05821228027344,0.130767822265625
182780,-0.5480194091796875,1.793441772460938,-0.1504669189453125,0.8598127365112305,0.8486186861991882,0.2795248627662659,30.24403381347656,94.81356811523438,0.0509185791015625
182781,-0.3731231689453125,2.120040893554688,-0.490814208984375,0.4811820685863495,0.4546804130077362,0.2316614538431168,30.35057067871094,94.79885864257812,-0.443115234375
182782,-0.128692626953125,2.190765380859375,-0.8231658935546875,0.2075148373842239,-0.2006718516349792,0.3260745108127594,30.30180358886719,94.92889404296876,-0.881591796875
182783,-0.128692626953125,2.190765380859375,-0.8231658935546875,0.2075148373842239,-0.2006718516349792,0.3260745108127594,30.30180358886719,94.92889404296876,-0.881591796875
182784,0.1432647705078125,2.040359497070312,-0.3690338134765625,0.124891072511673,-1.534995436668396,0.922748565673828,30.64573669433594,94.90489196777344,-1.137710571289062
182785,0.150482177734375,1.905838012695312,-0.031707763671875,0.2836921811103821,-1.517142176628113,1.162810444831848,31.07789611816406,94.75479125976562,-0.934173583984375
182786,0.140777587890625,1.7550048828125,0.177978515625,0.456938773393631,-1.14475953578949,1.244983553886414,31.74493408203125,94.76756286621094,-0.6683197021484375
182787,0.140777587890625,1.7550048828125,0.177978515625,0.456938773393631,-1.14475953578949,1.244983553886414,31.74493408203125,94.76756286621094,-0.6683197021484375
182788,0.0743408203125,1.38665771484375,0.3433074951171875,0.4254261255264282,0.0409154742956161,1.024867415428162,33.17768859863281,94.82235717773438,-0.44024658203125
182789,0.0743408203125,1.38665771484375,0.3433074951171875,0.4254261255264282,0.0409154742956161,1.024867415428162,33.17768859863281,94.82235717773438,-0.44024658203125
182790,-0.1212310791015625,1.0689697265625,0.303466796875,0.4423539936542511,0.7111532092094421,0.5023603439331055,34.53919982910156,94.9626007080078,-0.6491851806640625
182791,-0.1634521484375,0.8902130126953125,0.200347900390625,0.5938298106193542,0.7281860113143921,0.3457073271274567,34.86915588378906,94.93717956542967,-0.79815673828125
182792,-0.17694091796875,0.7143096923828125,0.0883026123046875,0.8060238361358643,0.4944989383220673,0.2652031779289246,35.08076477050781,95.04409790039062,-1.067214965820312
182793,-0.1702880859375,0.5555419921875,0.02398681640625,1.039820313453674,0.1391538977622986,0.2438254505395889,35.3660888671875,95.091796875,-1.41851806640625
182794,-0.1434326171875,0.4208221435546875,0.0197601318359375,1.281831860542297,-0.3214856088161469,0.3189127445220947,35.41603088378906,95.08212280273438,-1.92120361328125
182795,-0.1434326171875,0.4208221435546875,0.0197601318359375,1.281831860542297,-0.3214856088161469,0.3189127445220947,35.41603088378906,95.08212280273438,-1.92120361328125
182796,-0.0807647705078125,0.2150421142578125,0.0765228271484375,1.217300295829773,-0.350574791431427,0.3802221715450287,35.74351501464844,95.38412475585938,-2.901138305664062
182797,-0.055206298828125,0.122589111328125,0.07574462890625,1.082133173942566,-0.2927868664264679,0.442558765411377,35.90704345703125,95.82838439941406,-3.415969848632812
182798,-0.0367279052734375,0.034881591796875,0.0597991943359375,0.9247446060180664,-0.2015253901481628,0.486370712518692,36.07354736328125,96.03550720214844,-3.944869995117188
182799,-0.0367279052734375,0.034881591796875,0.0597991943359375,0.9247446060180664,-0.2015253901481628,0.486370712518692,36.07354736328125,96.03550720214844,-3.944869995117188
182800,-0.0007781982421875,-0.0935211181640625,-0.01776123046875,0.6531583666801453,0.0029843382071703,0.5329182147979736,36.505615234375,96.18370056152344,-4.621368408203125
182801,0.0117645263671875,-0.1215972900390625,-0.0721893310546875,0.6087908744812012,0.0785821601748466,0.5825499892234802,36.69697570800781,96.42198181152344,-4.862548828125
182802,0.0250396728515625,-0.1361846923828125,-0.1082000732421875,0.6568282246589661,0.1611348241567612,0.6701543927192688,36.88963317871094,96.4663543701172,-5.0068359375
182803,0.0250396728515625,-0.1361846923828125,-0.1082000732421875,0.6568282246589661,0.1611348241567612,0.6701543927192688,36.88963317871094,96.4663543701172,-5.0068359375
182804,0.04339599609375,-0.124176025390625,-0.1272125244140625,0.7756304740905762,-0.0219353921711444,0.8019092082977295,37.27801513671875,96.79122924804688,-5.147933959960938
182805,0.04339599609375,-0.124176025390625,-0.1272125244140625,0.7756304740905762,-0.0219353921711444,0.8019092082977295,37.27801513671875,96.79122924804688,-5.147933959960938
182806,0.0570526123046875,-0.1025848388671875,0.006927490234375,0.7087723612785339,-0.4676023423671722,0.8065434098243713,37.74305725097656,97.3051300048828,-5.282135009765625
182807,0.058837890625,-0.07806396484375,0.12255859375,0.6376606225967407,-0.2812716066837311,0.6255965232849121,38.14561462402344,97.57069396972656,-5.426177978515625
182808,0.0621185302734375,-0.0495452880859375,0.19720458984375,0.6376606225967407,-0.2812716066837311,0.6255965232849121,38.54342651367188,97.67366027832033,-5.463241577148438
182809,0.0610198974609375,-0.001708984375,0.2080078125,0.5333198308944702,-0.1082766726613045,0.4569068253040314,38.90821838378906,97.726318359375,-5.581741333007812
182810,0.05853271484375,0.0477752685546875,0.1702423095703125,0.3690957427024841,-0.0166215877979993,0.2455602288246155,39.15182495117188,97.92225646972656,-5.892669677734375
182811,0.060089111328125,0.0479888916015625,0.1212158203125,0.1597835421562195,-0.0414281338453292,0.0710757747292518,39.35865783691406,98.09732055664062,-6.079605102539062
182812,0.0542144775390625,0.022247314453125,0.0942535400390625,-0.0651635602116584,-0.1563680320978165,-0.0341941900551319,39.53921508789062,98.02156066894533,-6.33197021484375
182813,0.0302276611328125,-0.0114898681640625,0.102935791015625,-0.2475192546844482,-0.2427279502153397,-0.1188126727938652,39.54251098632812,98.05812072753906,-6.154098510742188
182814,0.0012054443359375,-0.0519866943359375,0.1139373779296875,-0.3715682327747345,-0.2430110573768616,-0.1662939041852951,39.55450439453125,98.02394104003906,-6.126953125
182815,0.0012054443359375,-0.0519866943359375,0.1139373779296875,-0.3715682327747345,-0.2430110573768616,-0.1662939041852951,39.55450439453125,98.02394104003906,-6.126953125
182816,-0.0234832763671875,-0.061981201171875,0.0913543701171875,-0.515478789806366,-0.1306536197662354,-0.1799817532300949,39.63697814941406,97.94039916992188,-5.871658325195312
182817,-0.0339508056640625,-0.064208984375,0.0797271728515625,-0.6010677218437195,-0.1027327701449394,-0.1926821023225784,39.58998107910156,97.86590576171876,-5.434783935546875
182818,-0.0475616455078125,-0.066070556640625,0.07940673828125,-0.7201584577560425,-0.1034385040402412,-0.2165506780147552,39.60366821289062,97.83621215820312,-5.137969970703125
182819,-0.0475616455078125,-0.066070556640625,0.07940673828125,-0.7201584577560425,-0.1034385040402412,-0.2165506780147552,39.60366821289062,97.83621215820312,-5.137969970703125
182820,-0.087005615234375,-0.07781982421875,0.094879150390625,-1.123372793197632,0.0017667410429567,-0.3089618384838104,39.68461608886719,97.73513793945312,-4.262786865234375
182821,-0.087005615234375,-0.07781982421875,0.094879150390625,-1.123372793197632,0.0017667410429567,-0.3089618384838104,39.68461608886719,97.73513793945312,-4.262786865234375
182822,-0.18292236328125,-0.0986785888671875,0.0526123046875,-1.422194004058838,0.2394946068525314,-0.3048922717571259,39.49386596679688,97.49441528320312,-3.379684448242188
182823,-0.18292236328125,-0.0986785888671875,0.0526123046875,-1.422194004058838,0.2394946068525314,-0.3048922717571259,39.49386596679688,97.49441528320312,-3.379684448242188
182824,-0.2644500732421875,0.097198486328125,-0.2532958984375,-1.361614346504211,0.5278305411338806,-0.2850767374038696,39.21583557128906,97.27853393554688,-2.065292358398438
182825,-0.2644500732421875,0.097198486328125,-0.2532958984375,-1.361614346504211,0.5278305411338806,-0.2850767374038696,39.21583557128906,97.27853393554688,-2.065292358398438
182826,0.0766143798828125,0.37451171875,-1.315048217773438,0.1802390068769455,-2.45438814163208,-0.1122029721736908,38.75959777832031,97.05670166015624,-1.06890869140625
182827,0.05548095703125,0.30450439453125,-0.1822052001953125,0.5765450596809387,-2.497715711593628,0.09841338545084,38.63735961914062,96.90255737304688,-0.860198974609375
182828,-0.0045013427734375,0.418731689453125,0.6010284423828125,0.2574943900108337,-0.4808891117572784,0.3145201206207275,38.58027648925781,96.90318298339844,-0.629150390625
182829,0.064727783203125,0.9076690673828124,0.71466064453125,-0.8840892910957336,1.755744576454163,0.3653348386287689,38.55033874511719,97.07502746582033,-0.7570953369140625
182830,0.2650146484375,2.902587890625,-0.10223388671875,-2.478049993515015,-0.9992907643318176,-0.2245055437088013,38.31340026855469,97.3251495361328,-1.005081176757812
182831,0.6109619140625,6.230697631835938,-1.199005126953125,-2.478049993515015,-0.9992907643318176,-0.2245055437088013,37.92428588867188,97.52857971191406,-1.261306762695312
182832,0.36163330078125,7.933700561523438,0.05718994140625,-1.986403107643127,-3.5415358543396,-0.275178849697113,37.29231262207031,97.6076202392578,-1.102554321289062
182833,-0.247161865234375,7.763458251953125,1.816635131835938,-1.455269932746887,-0.9340169429779052,-0.7218676805496216,36.85066223144531,97.697265625,-0.566802978515625
182834,-0.399993896484375,4.969589233398438,1.102996826171875,-0.8535798788070679,2.046213865280151,-0.7888826131820679,36.77644348144531,97.70372009277344,0.23077392578125
182835,-0.5942840576171875,2.213302612304688,0.10687255859375,-0.2313770353794098,3.017961025238037,-0.3613411486148834,36.76795959472656,97.39830017089844,1.09967041015625
182836,-0.674072265625,1.289688110351562,-0.2643890380859375,0.0677891671657562,2.931915044784546,0.0112470621243119,36.78059387207031,97.0580596923828,1.499801635742188
182837,-0.497283935546875,0.9828643798828124,-0.4984283447265625,0.2024156898260117,2.028029918670654,0.2406933009624481,36.58657836914062,96.61524963378906,1.354385375976562
182838,-0.234893798828125,1.1229248046875,-0.52520751953125,0.2501722872257233,0.1597686260938644,0.7947767376899719,36.36672973632812,96.35641479492188,0.9969329833984376
182839,-0.0233154296875,1.632537841796875,-0.3610992431640625,0.2501722872257233,0.1597686260938644,0.7947767376899719,36.37187194824219,96.11181640625,0.551177978515625
182840,0.12347412109375,1.920989990234375,-0.237457275390625,0.1786986440420151,-0.082919918000698,1.008774518966675,36.42083740234375,96.13336181640624,0.16943359375
182841,0.2444305419921875,1.946929931640625,-0.1237030029296875,0.1799537837505341,-0.0072419340722262,1.200533628463745,36.72320556640625,96.14500427246094,-0.1615447998046875
182842,0.29388427734375,1.885589599609375,-0.045013427734375,0.2933346629142761,0.2594329118728638,1.398316740989685,37.07096862792969,96.45370483398438,-0.3048095703125
182843,0.29388427734375,1.885589599609375,-0.045013427734375,0.2933346629142761,0.2594329118728638,1.398316740989685,37.07096862792969,96.45370483398438,-0.3048095703125
182844,0.268646240234375,1.671966552734375,-0.0254669189453125,0.5323768258094788,0.6224576830863953,1.3471599817276,38.07969665527344,96.71273803710938,-0.5694732666015625
182845,0.2064056396484375,1.507339477539062,-0.00982666015625,0.4398540854454041,0.6059647798538208,1.103099703788757,38.69039916992188,96.89344787597656,-0.7047119140625
182846,0.061920166015625,1.32867431640625,0.0627288818359375,0.2557172477245331,0.7432616353034973,0.5940633416175842,39.19096374511719,97.07752990722656,-0.7736053466796875
182847,-0.087646484375,1.152847290039062,0.145660400390625,0.2557172477245331,0.7432616353034973,0.5940633416175842,39.77691650390625,97.3680419921875,-1.274063110351562
182848,-0.1636962890625,1.007232666015625,0.1583709716796875,0.2853505313396454,0.8148146271705627,0.4922200739383698,40.31303405761719,97.37582397460938,-1.459091186523438
182849,-0.2122955322265625,0.8806610107421875,0.159088134765625,0.4254468977451324,0.7377914786338806,0.4126032888889313,40.69798278808594,97.38677978515624,-1.71759033203125
182850,-0.2384033203125,0.7660980224609375,0.1823272705078125,0.6673607230186462,0.5840517282485962,0.3607251644134521,40.96063232421875,97.2409210205078,-1.894058227539062
182851,-0.2384033203125,0.7660980224609375,0.1823272705078125,0.6673607230186462,0.5840517282485962,0.3607251644134521,40.96063232421875,97.2409210205078,-1.894058227539062
182852,-0.219268798828125,0.556488037109375,0.1878814697265625,1.142131567001343,0.3215263783931732,0.2806771993637085,41.57487487792969,97.3015594482422,-2.488983154296875
182853,-0.219268798828125,0.556488037109375,0.1878814697265625,1.142131567001343,0.3215263783931732,0.2806771993637085,41.57487487792969,97.3015594482422,-2.488983154296875
182854,-0.1857757568359375,0.3704376220703125,0.107879638671875,0.9532806277275084,-0.012720588594675,0.0131155354902148,41.89878845214844,97.50360107421876,-3.41046142578125
182855,-0.1807708740234375,0.2740478515625,0.0472564697265625,0.9532806277275084,-0.012720588594675,0.0131155354902148,42.01133728027344,97.58839416503906,-3.888046264648438
182856,-0.178863525390625,0.1720733642578125,-0.0370025634765625,0.7298840284347534,-0.2043219804763794,-0.1058491989970207,42.02423095703125,97.75469970703124,-4.37158203125
182857,-0.172698974609375,0.065582275390625,-0.155426025390625,0.5166503190994263,-0.5174580812454224,-0.2097353786230087,42.06582641601562,97.88479614257812,-4.937973022460938
182858,-0.158599853515625,-0.03814697265625,-0.29461669921875,0.3709969818592072,-0.9688811898231506,-0.2826167941093445,41.97920227050781,97.97053527832033,-5.478042602539062
182859,-0.1118621826171875,-0.133056640625,-0.414947509765625,0.2991946935653687,-1.501637697219849,-0.2780625224113464,41.93246459960938,98.02629089355467,-5.772201538085938
182860,-0.0077362060546875,-0.15399169921875,-0.40057373046875,0.3380406200885773,-1.827521800994873,-0.2045086622238159,41.757080078125,98.01760864257812,-5.733932495117188
182861,0.1249542236328125,-0.0853271484375,-0.2653045654296875,0.6466221809387207,-1.040525794029236,-0.0797654017806053,41.74836730957031,97.98104858398438,-5.703521728515625
182862,0.270599365234375,-0.0124969482421875,-0.11456298828125,0.6466221809387207,-1.040525794029236,-0.0797654017806053,41.50749206542969,98.01921081542967,-5.717880249023438
182863,0.270599365234375,-0.0124969482421875,-0.11456298828125,0.6466221809387207,-1.040525794029236,-0.0797654017806053,41.50749206542969,98.01921081542967,-5.717880249023438
182864,0.3453826904296875,-0.0353546142578125,0.1274261474609375,0.9151492118835448,0.7259923815727234,-0.0030431940685957,41.35716247558594,98.31314086914062,-5.8720703125
182865,0.3453826904296875,-0.0353546142578125,0.1274261474609375,0.9151492118835448,0.7259923815727234,-0.0030431940685957,41.35716247558594,98.31314086914062,-5.8720703125
182866,0.2759552001953125,-0.0584716796875,0.1320343017578125,0.6429877281188965,1.483810782432556,0.2105082422494888,41.22087097167969,98.44613647460938,-6.41522216796875
182867,0.2134857177734375,-0.065673828125,0.1748809814453125,0.6429877281188965,1.483810782432556,0.2105082422494888,41.15017700195312,98.54576110839844,-6.977493286132812
182868,0.148895263671875,-0.0713043212890625,0.1804656982421875,0.4594568014144897,1.484644174575806,0.2106291353702545,41.07177734375,98.60140991210938,-7.425704956054688
182869,0.09576416015625,-0.0696258544921875,0.1640472412109375,0.303987592458725,1.46177077293396,0.1727262288331985,41.18687438964844,98.52011108398438,-7.74072265625
182870,0.0596923828125,-0.06182861328125,0.1732330322265625,0.0450601540505886,1.540189385414124,0.0345388017594814,41.24462890625,98.51925659179688,-8.022796630859375
182871,0.0596923828125,-0.06182861328125,0.1732330322265625,0.0450601540505886,1.540189385414124,0.0345388017594814,41.24462890625,98.51925659179688,-8.022796630859375
182872,0.0245361328125,-0.06683349609375,0.172027587890625,-0.0766127556562423,1.54479455947876,-0.0507207028567791,41.35627746582031,98.49380493164062,-8.418655395507812
182873,0.0152740478515625,-0.0765533447265625,0.1473846435546875,-0.1751310676336288,1.441683650016785,-0.1354907155036926,41.36796569824219,98.5196533203125,-8.514755249023438
182874,0.01043701171875,-0.0827789306640625,0.125091552734375,-0.2393393516540527,1.223510026931763,-0.2184766829013824,41.29006958007812,98.5565948486328,-8.636123657226562
182875,0.0132904052734375,-0.082244873046875,0.1016387939453125,-0.294009268283844,0.9084668159484864,-0.3145661950111389,41.26176452636719,98.39987182617188,-8.65386962890625
182876,0.0223846435546875,-0.0776214599609375,0.079071044921875,-0.3534829616546631,0.5459885001182556,-0.4135196805000305,41.17552185058594,98.4134521484375,-8.531173706054688
182877,0.038360595703125,-0.0660858154296875,0.0559844970703125,-0.4381613731384277,0.1701123416423798,-0.5139197707176208,40.99192810058594,98.37106323242188,-8.213043212890625
182878,0.0580291748046875,-0.042877197265625,0.0270233154296875,-0.5630518794059753,-0.2019685357809067,-0.6162301898002625,40.76112365722656,98.4530029296875,-8.046585083007812
182879,0.0580291748046875,-0.042877197265625,0.0270233154296875,-0.5630518794059753,-0.2019685357809067,-0.6162301898002625,40.76112365722656,98.4530029296875,-8.046585083007812
182880,0.0879974365234375,0.1002960205078125,-0.07586669921875,-1.018157362937927,-1.055795550346375,-0.7973362803459167,40.16352844238281,98.46392822265624,-7.611984252929688
182881,0.095367431640625,0.27154541015625,-0.2246856689453125,-1.441189050674438,-1.867219209671021,-0.945104718208313,39.79450988769531,98.43045043945312,-7.184738159179688
182882,0.09332275390625,0.5667572021484375,-0.0241546630859375,-1.899967551231384,-2.574581623077393,-1.235285639762878,39.34808349609375,98.5379638671875,-6.649276733398438
182883,0.059234619140625,1.647857666015625,0.6117095947265625,-2.184957265853882,-2.073998212814331,-2.076346158981323,38.77703857421875,98.66270446777344,-6.069732666015625
182884,0.1269073486328125,3.279678344726562,0.8077392578125,-2.147908687591553,-0.578091025352478,-3.151644945144653,38.00918579101562,98.83740234375,-5.311477661132812
182885,0.1339263916015625,5.165817260742188,0.3395538330078125,-1.661145329475403,-0.2841949760913849,-3.804382801055908,37.02987670898438,98.9723663330078,-4.43878173828125
182886,-0.2297515869140625,6.758010864257812,0.4766845703125,-1.502877950668335,-1.574958086013794,-4.23331356048584,35.638671875,98.84217834472656,-3.518966674804688
182887,-0.2297515869140625,6.758010864257812,0.4766845703125,-1.502877950668335,-1.574958086013794,-4.23331356048584,35.638671875,98.84217834472656,-3.518966674804688
182888,-1.520721435546875,3.923202514648438,1.540283203125,-0.7994324564933777,-0.8041947484016418,-2.614299297332764,32.30715942382812,98.2118682861328,-2.4439697265625
182889,-1.6611328125,2.014877319335938,1.011764526367188,-0.1660217344760895,0.9896061420440674,-0.9245256781578064,31.12185668945312,97.39128112792967,-1.94451904296875
182890,-1.0340576171875,1.511306762695312,0.1842498779296875,0.4611146152019501,1.321985960006714,-0.1081240698695183,30.49118041992188,96.46063232421876,-1.510635375976562
182891,-0.7238922119140625,1.590194702148438,-0.373321533203125,0.8106092214584351,0.4661764800548553,0.2566823959350586,30.34776306152344,95.6658172607422,-1.066268920898438
182892,-0.5033721923828125,1.891845703125,-0.677032470703125,0.9842862486839294,-0.0644868463277816,0.3762857615947723,30.26742553710938,95.265380859375,-1.200103759765625
182893,-0.2163238525390625,2.052459716796875,-0.8834381103515625,0.910875141620636,-0.0407136082649231,0.636817455291748,30.15956115722656,95.29190063476562,-1.515472412109375
182894,0.026153564453125,1.98748779296875,-1.085342407226562,0.7214543223381042,-0.4680737257003784,0.93338280916214,30.193115234375,95.4296875,-1.996047973632812
182895,0.026153564453125,1.98748779296875,-1.085342407226562,0.7214543223381042,-0.4680737257003784,0.93338280916214,30.193115234375,95.4296875,-1.996047973632812
182896,0.1341400146484375,1.84564208984375,-0.07861328125,0.3066736459732056,-1.047220468521118,1.48568058013916,30.489013671875,95.7388153076172,-2.721054077148438
182897,0.1341400146484375,1.84564208984375,-0.07861328125,0.3066736459732056,-1.047220468521118,1.48568058013916,30.489013671875,95.7388153076172,-2.721054077148438
182898,0.14306640625,1.576004028320312,0.2751617431640625,0.243426501750946,0.4554639160633087,1.30327832698822,32.59426879882812,95.93771362304688,-2.369842529296875
182899,0.14306640625,1.576004028320312,0.2751617431640625,0.243426501750946,0.4554639160633087,1.30327832698822,32.59426879882812,95.93771362304688,-2.369842529296875
182900,0.064544677734375,1.316696166992188,0.24517822265625,0.4300914704799652,0.4574359953403473,0.9139660000801086,33.32084655761719,96.11032104492188,-2.17962646484375
182901,0.064544677734375,1.316696166992188,0.24517822265625,0.4300914704799652,0.4574359953403473,0.9139660000801086,33.32084655761719,96.11032104492188,-2.17962646484375
182902,-0.1447906494140625,0.8405914306640625,0.25701904296875,0.9521679878234864,0.2842884361743927,0.3073066771030426,35.05348205566406,96.24842834472656,-2.322372436523438
182903,-0.166778564453125,0.691070556640625,0.204345703125,1.18480920791626,0.1773833036422729,0.1914890110492706,35.35232543945312,96.25291442871094,-2.783218383789062
182904,-0.158477783203125,0.568634033203125,0.14990234375,1.299139738082886,0.0307608414441347,0.1268884390592575,35.58564758300781,96.32145690917967,-3.376220703125
182905,-0.146759033203125,0.4728546142578125,0.1183624267578125,1.264901876449585,-0.0824258998036384,0.0597434900701046,35.73265075683594,96.40440368652344,-3.92584228515625
182906,-0.1326904296875,0.3764801025390625,0.1013946533203125,1.140753269195557,-0.1379381567239761,0.01468360517174,35.79072570800781,96.49600219726562,-4.520523071289062
182907,-0.1143646240234375,0.276153564453125,0.09014892578125,0.970798671245575,-0.1357687562704086,-0.0306588429957628,35.79354858398438,96.78219604492188,-5.128982543945312
182908,-0.0933837890625,0.175689697265625,0.0687408447265625,0.7928387522697449,-0.0991345718502998,-0.0611565634608268,35.79519653320312,96.85269165039062,-5.594757080078125
182909,-0.0801849365234375,0.0809478759765625,0.029052734375,0.645854651927948,-0.0582854114472866,-0.0746737048029899,35.81661987304688,96.88525390625,-5.92755126953125
182910,-0.0713653564453125,0.0132598876953125,-0.040618896484375,0.5242994427680969,-0.0548017285764217,-0.0846158191561698,35.82070922851562,96.8606414794922,-6.253433227539062
182911,-0.0428619384765625,-0.0789031982421875,-0.2776947021484375,0.4092106819152832,-0.3154700696468353,-0.070024624466896,35.73281860351562,96.86593627929688,-6.507415771484375
182912,0.008331298828125,-0.1885833740234375,-0.6077880859375,0.3326349556446075,-1.154530167579651,0.0404281169176101,35.68295288085938,96.86247253417967,-6.690872192382812
182913,0.0309295654296875,-0.2222747802734375,-0.52203369140625,0.2759189307689667,-1.917050123214722,0.2244677245616913,35.58677673339844,96.88751220703124,-6.748397827148438
182914,0.0191802978515625,-0.201263427734375,-0.1322174072265625,0.2188047766685486,-1.606710076332092,0.4248306453227997,35.59747314453125,97.11264038085938,-6.6865234375
182915,0.056182861328125,-0.139373779296875,0.1002197265625,0.2615163028240204,-0.5280470252037048,0.5234885215759277,35.51858520507812,97.31576538085938,-6.429046630859375
182916,0.123199462890625,-0.05023193359375,0.10797119140625,0.4285068809986115,0.4906232357025146,0.494737833738327,35.66152954101562,97.40078735351562,-6.140274047851562
182917,0.1571502685546875,0.0626373291015625,0.02093505859375,0.6317073702812195,0.9176150560379028,0.402204155921936,35.8095703125,97.68928527832033,-6.223068237304688
182918,0.14569091796875,0.1747589111328125,-0.001007080078125,0.7392069697380066,0.8124111294746399,0.2613988518714905,35.96481323242188,97.86149597167967,-6.451461791992188
182919,0.1100311279296875,0.2482757568359375,0.0689849853515625,0.6909885406494141,0.4519957005977631,0.1091680303215981,36.09408569335938,97.75059509277344,-6.755538940429688
182920,0.080322265625,0.2831573486328125,0.1753082275390625,0.5081718564033508,0.0634695217013359,-0.0260712821036577,36.19651794433594,97.74510192871094,-7.240737915039062
182921,0.080322265625,0.2831573486328125,0.1753082275390625,0.5081718564033508,0.0634695217013359,-0.0260712821036577,36.19651794433594,97.74510192871094,-7.240737915039062
182922,0.0621185302734375,0.3016357421875,0.2937469482421875,0.2561396360397339,-0.1096210330724716,-0.100648045539856,36.18467712402344,97.74143981933594,-7.548049926757812
182923,0.0461883544921875,0.3329010009765625,0.2983551025390625,0.0074560521170496,-0.0113677028566598,-0.0665292292833328,36.19873046875,97.6608428955078,-7.6038818359375
182924,0.0043792724609375,0.1210784912109375,-0.004852294921875,-0.2267881333827972,-0.0623768232762813,-0.1470339149236679,36.21719360351562,97.56813049316406,-7.7027587890625
182925,0.0043792724609375,0.1210784912109375,-0.004852294921875,-0.2267881333827972,-0.0623768232762813,-0.1470339149236679,36.21719360351562,97.56813049316406,-7.7027587890625
182926,-0.0234527587890625,-0.044403076171875,0.015472412109375,-0.200205534696579,-0.4325495660305023,-0.1361844688653946,36.23406982421875,97.56455993652344,-7.661514282226562
182927,-0.0234527587890625,-0.044403076171875,0.015472412109375,-0.200205534696579,-0.4325495660305023,-0.1361844688653946,36.23406982421875,97.56455993652344,-7.661514282226562
182928,-0.0314483642578125,-0.0431671142578125,0.024810791015625,-0.3017846047878265,-0.4629037380218506,-0.1536630690097809,36.28033447265625,97.49725341796876,-7.505218505859375
182929,-0.049407958984375,-0.0505523681640625,0.027923583984375,-0.4388782978057861,-0.4489021599292755,-0.1786099523305893,36.31787109375,97.52766418457033,-7.277557373046875
182930,-0.087799072265625,-0.0833587646484375,0.0228118896484375,-0.602448582649231,-0.360924631357193,-0.1747113615274429,36.41876220703125,97.51956176757812,-6.99212646484375
182931,-0.1462554931640625,-0.12640380859375,0.0295562744140625,-0.8017374277114868,-0.1932480186223984,-0.1238737404346466,36.39276123046875,97.5162353515625,-6.609588623046875
182932,-0.2493896484375,-0.1947174072265625,0.06573486328125,-1.083621382713318,0.2668689787387848,0.0122449481859803,36.47723388671875,97.4625244140625,-6.11383056640625
182933,-0.337371826171875,-0.20037841796875,-0.0608062744140625,-1.380980253219604,0.8940708637237549,0.1534502804279327,36.52415466308594,97.33746337890624,-5.566970825195312
182934,-0.3359832763671875,-0.1045989990234375,-0.49127197265625,-1.14057731628418,-0.1461763828992844,-0.1585662066936493,36.67021179199219,97.28581237792967,-5.07196044921875
182935,-0.2008056640625,0.05517578125,-0.8535003662109375,-1.14057731628418,-0.1461763828992844,-0.1585662066936493,36.67747497558594,97.20915222167967,-4.592849731445312
182936,0.0067291259765625,0.1493377685546875,-0.7599029541015625,-0.8711133003234863,-1.149308681488037,-0.2950758635997772,36.5924072265625,97.09359741210938,-3.881271362304688
182937,0.0689697265625,0.16766357421875,-0.419921875,-0.7168207168579102,-1.617928981781006,-0.25616654753685,36.43928527832031,96.94865417480467,-3.240310668945312
182938,0.0763702392578125,0.2423553466796875,0.045501708984375,-0.6998656988143921,-1.213869094848633,-0.2105769515037537,36.3427734375,96.93780517578124,-2.875411987304688
182939,0.0789947509765625,0.3848114013671875,0.4660491943359375,-0.9019021391868592,-0.1789479106664658,-0.2386908680200577,36.12091064453125,96.91299438476562,-2.379486083984375
182940,0.1755828857421875,1.44232177734375,0.649078369140625,-1.122745037078857,0.95264732837677,-0.2103692144155502,35.70823669433594,97.04579162597656,-2.098739624023438
182941,0.1755828857421875,1.44232177734375,0.649078369140625,-1.122745037078857,0.95264732837677,-0.2103692144155502,35.70823669433594,97.04579162597656,-2.098739624023438
182942,0.0754852294921875,5.340835571289062,0.52069091796875,-2.163725137710571,1.522372007369995,0.265509694814682,34.71607971191406,97.40365600585938,-2.119827270507812
182943,-0.412139892578125,7.316696166992188,0.71331787109375,-2.29900074005127,-0.276646763086319,-0.0660322830080986,34.23971557617188,97.40660095214844,-1.795211791992188
182944,-0.94085693359375,7.17041015625,1.462692260742188,-1.644779205322266,-0.4951823055744171,-0.7804121971130371,34.10942077636719,97.55157470703124,-1.306991577148438
182945,-0.94085693359375,7.17041015625,1.462692260742188,-1.644779205322266,-0.4951823055744171,-0.7804121971130371,34.10942077636719,97.55157470703124,-1.306991577148438
182946,-0.506103515625,2.124221801757812,0.6204071044921875,0.1384055465459824,0.3022599816322327,-0.9050419926643372,34.21383666992188,96.66107177734376,0.0635833740234375
182947,-0.451904296875,1.233261108398438,0.4588775634765625,0.4615803956985474,0.5443160533905029,-0.7949069738388062,34.09288024902344,96.119873046875,0.3934173583984375
182948,-0.57568359375,0.832061767578125,0.3083343505859375,0.2384171038866043,1.281141877174377,-0.5897895097732544,33.80024719238281,95.84414672851562,0.5162353515625
182949,-0.57568359375,0.832061767578125,0.3083343505859375,0.2384171038866043,1.281141877174377,-0.5897895097732544,33.80024719238281,95.84414672851562,0.5162353515625
182950,-0.440216064453125,1.706329345703125,-1.13232421875,-0.4591875672340393,1.686718106269836,0.3830174207687378,33.11912536621094,95.52188110351562,0.0536346435546875
182951,-0.178863525390625,2.136703491210938,-1.473464965820312,-0.3968490958213806,-0.4022185504436493,0.4964273273944855,32.74420166015625,95.44944763183594,-0.24603271484375
182952,-0.0152587890625,2.099456787109375,-0.3930816650390625,-0.1494456827640533,-0.7504979372024536,0.7684575319290161,32.67106628417969,95.4127960205078,-0.44744873046875
182953,-0.0152587890625,2.099456787109375,-0.3930816650390625,-0.1494456827640533,-0.7504979372024536,0.7684575319290161,32.67106628417969,95.4127960205078,-0.44744873046875
182954,0.228607177734375,1.880050659179688,0.23406982421875,0.5125163197517395,0.0795331746339798,1.261026501655579,33.24101257324219,95.23593139648438,-0.283355712890625
182955,0.2399139404296875,1.709274291992188,0.29736328125,0.5663451552391052,0.5639336705207825,1.355835556983948,33.80268859863281,95.21310424804688,-0.280731201171875
182956,0.2043914794921875,1.562957763671875,0.2471923828125,0.4800148010253906,0.8328554034233093,1.303708910942078,34.38232421875,95.3441162109375,-0.323883056640625
182957,0.140960693359375,1.450363159179688,0.16778564453125,0.3693934977054596,0.816961944103241,1.066872954368591,34.88365173339844,95.6318817138672,-0.6367034912109375
182958,0.071807861328125,1.339614868164062,0.095001220703125,0.2896560430526733,0.582499086856842,0.708914577960968,35.385498046875,95.90806579589844,-0.7675628662109375
182959,0.071807861328125,1.339614868164062,0.095001220703125,0.2896560430526733,0.582499086856842,0.708914577960968,35.385498046875,95.90806579589844,-0.7675628662109375
182960,-0.1045989990234375,1.04071044921875,-0.04046630859375,0.2794268429279327,-0.111594170331955,0.1630075573921204,36.16291809082031,95.8776397705078,-0.8818817138671875
182961,-0.1045989990234375,1.04071044921875,-0.04046630859375,0.2794268429279327,-0.111594170331955,0.1630075573921204,36.16291809082031,95.8776397705078,-0.8818817138671875
182962,-0.1783294677734375,0.7449188232421875,-0.031097412109375,0.4825876951217651,-0.8845910429954529,-0.1593044400215149,36.68463134765625,95.84011840820312,-0.9933319091796876
182963,-0.192047119140625,0.6172943115234375,0.06787109375,0.4825876951217651,-0.8845910429954529,-0.1593044400215149,36.77220153808594,95.93882751464844,-1.2978515625
182964,-0.2000274658203125,0.4972076416015625,0.1265716552734375,0.589449942111969,-0.6865245699882507,-0.2003211081027985,36.911376953125,96.00343322753906,-1.328475952148438
182965,-0.2120513916015625,0.3928985595703125,0.16851806640625,0.6726774573326111,-0.3590281903743744,-0.231941893696785,36.99305725097656,96.0214385986328,-1.58282470703125
182966,-0.2340545654296875,0.2773895263671875,0.1547393798828125,0.7117452621459961,-0.0065356637351214,-0.2581354081630707,36.99118041992188,96.13160705566406,-1.81439208984375
182967,-0.270172119140625,0.134796142578125,0.09844970703125,0.7092525362968445,0.2989720404148102,-0.2231350839138031,37.06489562988281,96.0429229736328,-2.07086181640625
182968,-0.2727813720703125,0.0043487548828125,0.011871337890625,0.7202974557876587,0.4501541256904602,-0.0068453890271484,37.07148742675781,96.12953186035156,-2.315521240234375
182969,-0.2727813720703125,0.0043487548828125,0.011871337890625,0.7202974557876587,0.4501541256904602,-0.0068453890271484,37.07148742675781,96.12953186035156,-2.315521240234375
182970,-0.2469329833984375,-0.0738067626953125,-0.1011810302734375,0.7202974557876587,0.4501541256904602,-0.0068453890271484,37.0418701171875,96.102783203125,-2.617752075195312
182971,-0.1021575927734375,-0.1217803955078125,-0.2066650390625,0.8342466354370117,-0.0201745107769966,0.1441795527935028,36.92713928222656,96.15397644042967,-3.12481689453125
182972,-0.009246826171875,-0.0770416259765625,-0.175506591796875,0.8354490995407104,-0.1722178310155869,0.1983181536197662,36.99803161621094,96.13223266601562,-3.473098754882812
182973,0.06475830078125,-0.0146636962890625,-0.1245269775390625,0.7840149402618408,-0.2095164805650711,0.2565441727638245,36.997802734375,96.21803283691406,-3.711441040039062
182974,0.12213134765625,0.0274200439453125,-0.075347900390625,0.7091044783592224,-0.1751981824636459,0.3438338041305542,37.00546264648438,96.3138427734375,-4.101333618164062
182975,0.160430908203125,0.0652313232421875,-0.03302001953125,0.6587725877761841,-0.0771312713623046,0.4664523899555206,37.1024169921875,96.39659118652344,-4.282882690429688
182976,0.181610107421875,0.1232147216796875,0.005035400390625,0.6201080083847046,0.0692967846989631,0.5811030864715576,37.17581176757812,96.59190368652344,-4.639739990234375
182977,0.1896209716796875,0.1804656982421875,0.020050048828125,0.5720547437667847,0.1904109567403793,0.6460189819335938,37.24076843261719,96.76602172851562,-4.944412231445312
182978,0.1876220703125,0.2052001953125,0.0272979736328125,0.3547684848308563,0.1934951692819595,0.5465789437294006,37.40641784667969,96.97195434570312,-5.207107543945312
182979,0.1876220703125,0.2052001953125,0.0272979736328125,0.3547684848308563,0.1934951692819595,0.5465789437294006,37.40641784667969,96.97195434570312,-5.207107543945312
182980,0.1377410888671875,0.1229095458984375,0.06915283203125,0.2169024795293808,0.1482877433300018,0.4111925959587097,37.87190246582031,97.09619140625,-5.519088745117188
182981,0.09368896484375,0.05877685546875,0.0745391845703125,0.0893988534808158,0.0796090736985206,0.2533803284168243,38.00437927246094,97.10423278808594,-5.612152099609375
182982,0.0696258544921875,0.0059814453125,0.085968017578125,-0.1598421335220337,-0.0666485354304313,-0.017624532803893,38.18994140625,97.14723205566406,-5.649444580078125
182983,0.0696258544921875,0.0059814453125,0.085968017578125,-0.1598421335220337,-0.0666485354304313,-0.017624532803893,38.18994140625,97.14723205566406,-5.649444580078125
182984,0.0444183349609375,-0.0552215576171875,0.1648712158203125,-0.293896347284317,-0.0431586541235446,-0.1228316500782967,38.36343383789062,97.21163940429688,-5.59906005859375
182985,0.0368499755859375,-0.0684814453125,0.1989288330078125,-0.4349647760391235,0.042451586574316,-0.2129167914390564,38.42877197265625,97.12229919433594,-5.424102783203125
182986,0.0262908935546875,-0.0834197998046875,0.2323150634765625,-0.5522152185440063,0.1690502762794495,-0.2866549491882324,38.36003112792969,97.00775146484376,-5.194915771484375
182987,0.0057525634765625,-0.091400146484375,0.2664642333984375,-0.6551259160041809,0.3107147216796875,-0.3501564264297485,38.26983642578125,96.98062133789062,-4.95330810546875
182988,-0.0372772216796875,-0.0771636962890625,0.3030853271484375,-0.7593923807144165,0.4401922821998596,-0.4190712869167328,38.09407043457031,96.9993133544922,-4.58123779296875
182989,-0.0984954833984375,-0.0071258544921875,0.3397979736328125,-0.876433789730072,0.561578094959259,-0.5144888758659363,37.95526123046875,96.87525939941406,-4.202133178710938
182990,-0.1400909423828125,0.0797576904296875,0.3404998779296875,-1.027222752571106,0.5809859037399292,-0.643920361995697,37.86663818359375,96.87269592285156,-3.984466552734375
182991,-0.1400909423828125,0.0797576904296875,0.3404998779296875,-1.027222752571106,0.5809859037399292,-0.643920361995697,37.86663818359375,96.87269592285156,-3.984466552734375
182992,-0.233245849609375,0.2737274169921875,0.169708251953125,-1.382192850112915,-0.2261005043983459,-1.0329270362854,37.34211730957031,96.74423217773438,-3.256942749023438
182993,-0.3872222900390625,0.7152862548828125,0.0819244384765625,-1.466451048851013,-1.021844506263733,-1.573395609855652,36.96763610839844,96.7248077392578,-2.901168823242188
182994,-0.840606689453125,1.543304443359375,0.1627960205078125,-1.28206992149353,-1.317946791648865,-2.699722528457642,36.46324157714844,96.7055206298828,-2.525711059570312
182995,-0.840606689453125,1.543304443359375,0.1627960205078125,-1.28206992149353,-1.317946791648865,-2.699722528457642,36.46324157714844,96.7055206298828,-2.525711059570312
182996,-0.98870849609375,2.5341796875,-0.13677978515625,-1.406432390213013,0.0270790215581655,-2.52733302116394,34.67561340332031,96.40664672851562,-1.538116455078125
182997,-0.577850341796875,3.308761596679688,-0.436920166015625,-1.358435273170471,-1.892114996910095,-1.637951374053955,33.23908996582031,95.86962890625,-0.9940948486328124
182998,-0.296112060546875,3.731781005859375,0.3907318115234375,-1.126843094825745,-3.37784481048584,-0.7724022269248962,31.856201171875,95.38661193847656,-0.2395172119140625
182999,-0.296112060546875,3.731781005859375,0.3907318115234375,-1.126843094825745,-3.37784481048584,-0.7724022269248962,31.856201171875,95.38661193847656,-0.2395172119140625
183000,0.328521728515625,3.936370849609375,1.690689086914062,-0.5464242100715637,-0.7716077566146851,0.3012298941612244,30.56996154785156,94.89646911621094,1.9630126953125
183001,-0.0334930419921875,3.39459228515625,0.880645751953125,-0.4293710589408875,1.180910110473633,0.139982134103775,30.51072692871094,94.4494171142578,2.883316040039062
183002,-0.2961273193359375,2.626663208007812,-0.309539794921875,-0.2497123628854752,1.496542811393738,0.0586630478501319,30.72409057617188,94.24958801269533,3.330276489257812
183003,-0.1502838134765625,2.292587280273438,-0.848724365234375,0.0090089412406086,0.6838499903678894,0.2063563615083694,30.87762451171875,94.05088806152344,3.406295776367188
183004,0.194244384765625,2.119155883789062,-0.756500244140625,0.2965254187583923,0.1168941259384155,0.4741020500659943,30.79733276367188,93.67080688476562,3.353042602539062
183005,0.194244384765625,2.119155883789062,-0.756500244140625,0.2965254187583923,0.1168941259384155,0.4741020500659943,30.79733276367188,93.67080688476562,3.353042602539062
183006,0.59906005859375,1.830291748046875,-0.432342529296875,0.5921764969825745,0.1751111000776291,0.6920974850654602,31.11297607421875,93.357666015625,2.897857666015625
183007,0.6108551025390625,1.667572021484375,-0.332061767578125,0.5744651556015015,-0.0848757401108741,0.7380964159965515,31.41923522949219,93.38777160644533,2.844894409179688
183008,0.5569000244140625,1.53033447265625,-0.2189483642578125,0.5661856532096863,-0.4010382294654846,0.734026312828064,31.69241333007812,93.53176879882812,2.6357421875
183009,0.5569000244140625,1.53033447265625,-0.2189483642578125,0.5661856532096863,-0.4010382294654846,0.734026312828064,31.69241333007812,93.53176879882812,2.6357421875
183010,0.2954559326171875,1.432144165039062,-0.1157684326171875,0.6478091478347778,-0.6873579025268555,0.5436822175979614,32.58929443359375,93.9081573486328,2.108261108398438
183011,0.090118408203125,1.406143188476562,-0.06707763671875,0.7174015045166016,-0.6777893900871277,0.5542046427726746,33.08795166015625,93.8892059326172,1.947677612304688
183012,-0.0464019775390625,1.386474609375,-0.019378662109375,0.7598587274551392,-0.5938830375671387,0.550593912601471,33.55125427246094,94.12493896484376,1.693328857421875
183013,-0.0464019775390625,1.386474609375,-0.019378662109375,0.7598587274551392,-0.5938830375671387,0.550593912601471,33.55125427246094,94.12493896484376,1.693328857421875
183014,-0.266754150390625,1.245513916015625,0.153045654296875,0.5378629565238953,0.4244285225868225,0.6735579371452332,34.34909057617188,94.50822448730467,0.9812774658203124
183015,-0.2952117919921875,1.170166015625,0.154083251953125,0.5378629565238953,0.4244285225868225,0.6735579371452332,34.66989135742188,94.74446105957033,0.5596466064453125
183016,-0.2908172607421875,1.114700317382812,0.1322174072265625,0.5072698593139648,0.6046406030654907,0.6664398312568665,35.1361083984375,94.74143981933594,0.3742523193359375
183017,-0.2701568603515625,1.020462036132812,0.121368408203125,0.5830006003379822,0.628064751625061,0.6048928499221802,35.42314147949219,94.92686462402344,0.0538330078125
183018,-0.2483367919921875,0.9022064208984376,0.143310546875,0.8176349401473999,0.5059465169906616,0.4721273183822632,35.76852416992188,95.1560516357422,-0.2994384765625
183019,-0.2148895263671875,0.7726898193359375,0.1698760986328125,0.9091169238090516,0.3994107842445374,0.4728423953056335,36.06001281738281,95.20974731445312,-0.68487548828125
183020,-0.18719482421875,0.6704864501953125,0.1824798583984375,0.9658252000808716,0.2377949804067612,0.4751801192760468,36.30805969238281,95.32278442382812,-1.063674926757812
183021,-0.18719482421875,0.6704864501953125,0.1824798583984375,0.9658252000808716,0.2377949804067612,0.4751801192760468,36.30805969238281,95.32278442382812,-1.063674926757812
183022,-0.168243408203125,0.5979766845703125,0.189483642578125,0.9658252000808716,0.2377949804067612,0.4751801192760468,36.62139892578125,95.56776428222656,-1.528244018554688
183023,-0.1585845947265625,0.5349884033203125,0.1915283203125,0.9685432314872742,0.0333734042942524,0.4644933640956879,36.81495666503906,95.73226928710938,-1.887954711914062
183024,-0.1321563720703125,0.4190521240234375,0.180877685546875,0.7548820376396179,-0.3263376355171204,0.4131606817245483,37.26974487304688,96.10865783691406,-2.544403076171875
183025,-0.1321563720703125,0.4190521240234375,0.180877685546875,0.7548820376396179,-0.3263376355171204,0.4131606817245483,37.26974487304688,96.10865783691406,-2.544403076171875
183026,-0.100860595703125,0.366546630859375,0.12188720703125,0.602739691734314,-0.4787594079971313,0.3902705311775208,37.570068359375,96.05604553222656,-2.6378173828125
183027,0.0087890625,0.2572021484375,-0.0955963134765625,0.4623295664787292,-1.03016209602356,0.4418719410896301,38.03102111816406,96.27262878417967,-3.632888793945312
183028,0.0762786865234375,0.2121734619140625,-0.1581573486328125,0.5591669082641602,-1.353885293006897,0.5661174654960632,38.24044799804688,96.53565979003906,-3.797607421875
183029,0.1238250732421875,0.1954345703125,-0.12762451171875,0.716318666934967,-1.422044157981873,0.7384231686592102,38.47117614746094,96.52325439453124,-3.833633422851562
183030,0.1238250732421875,0.1954345703125,-0.12762451171875,0.716318666934967,-1.422044157981873,0.7384231686592102,38.47117614746094,96.52325439453124,-3.833633422851562
183031,0.1222991943359375,0.247955322265625,0.0284423828125,0.9018864035606384,-0.6768503785133362,0.7790217399597168,39.114501953125,96.90509033203124,-3.995208740234375
183032,0.077880859375,0.2437744140625,0.0114593505859375,0.8883301019668579,-0.2043262422084808,0.6057908535003662,39.52445983886719,97.0869598388672,-4.071701049804688
183033,0.077880859375,0.2437744140625,0.0114593505859375,0.8883301019668579,-0.2043262422084808,0.6057908535003662,39.52445983886719,97.0869598388672,-4.071701049804688
183034,-0.0506744384765625,0.096923828125,-0.109344482421875,0.6081429719924927,-0.1801495254039764,0.0296106226742267,40.14823913574219,97.55209350585938,-4.75543212890625
183035,-0.099212646484375,0.0387420654296875,-0.13128662109375,0.6081429719924927,-0.1801495254039764,0.0296106226742267,40.3299560546875,97.75300598144533,-5.14422607421875
183036,-0.133636474609375,-0.0165863037109375,-0.08514404296875,0.4811770021915436,-0.3292372822761536,-0.0926268696784973,40.45317077636719,97.82878112792967,-5.516510009765625
183037,-0.1692962646484375,-0.0832366943359375,-0.0071258544921875,0.299578458070755,-0.270216315984726,-0.1588990986347198,40.56340026855469,97.87286376953124,-5.70062255859375
183038,-0.2017059326171875,-0.14593505859375,0.0294189453125,-0.1141420155763626,0.3545897901058197,-0.1236476376652718,40.52806091308594,97.93154907226562,-6.11492919921875
183039,-0.2017059326171875,-0.14593505859375,0.0294189453125,-0.1141420155763626,0.3545897901058197,-0.1236476376652718,40.52806091308594,97.93154907226562,-6.11492919921875
183040,-0.2182769775390625,-0.1756439208984375,-0.0441131591796875,-0.2553074061870575,0.6373479962348938,-0.102368451654911,40.5587158203125,98.0057373046875,-6.367752075195312
183041,-0.1830291748046875,-0.1620941162109375,-0.0982818603515625,-0.3437848091125488,0.728867769241333,-0.1034965664148331,40.53558349609375,97.87026977539062,-6.292510986328125
183042,-0.143402099609375,-0.142822265625,-0.1252593994140625,-0.4136238098144531,0.6618210673332214,-0.1350971013307571,40.45413208007812,97.9484405517578,-6.289321899414062
183043,-0.143402099609375,-0.142822265625,-0.1252593994140625,-0.4136238098144531,0.6618210673332214,-0.1350971013307571,40.45413208007812,97.9484405517578,-6.289321899414062
183044,-0.1228790283203125,-0.122406005859375,-0.129913330078125,-0.5256539583206177,0.3569346964359283,-0.3197146058082581,40.36161804199219,97.92732238769533,-6.07525634765625
183045,-0.1075897216796875,-0.125335693359375,-0.1364288330078125,-0.5343177318572998,0.2462563812732697,-0.4347075223922729,40.31362915039062,97.93572998046876,-5.761688232421875
183046,-0.0693511962890625,-0.13568115234375,-0.16357421875,-0.5081660151481628,0.1757422685623169,-0.523845374584198,40.21284484863281,97.84562683105467,-5.360092163085938
183047,-0.0693511962890625,-0.13568115234375,-0.16357421875,-0.5081660151481628,0.1757422685623169,-0.523845374584198,40.21284484863281,97.84562683105467,-5.360092163085938
183048,0.0521087646484375,-0.1477203369140625,-0.3647003173828125,-0.2375409156084061,-0.1142104640603065,-0.4900679886341095,39.86264038085938,97.64083862304688,-4.539138793945312
183049,0.1376800537109375,-0.0264892578125,-0.54083251953125,-0.0226331409066915,-0.434481143951416,-0.2935197651386261,39.63706970214844,97.6100616455078,-4.1087646484375
183050,0.1253662109375,0.175933837890625,-0.673675537109375,0.1187346428632736,-1.030575394630432,-0.0975292176008224,39.28871154785156,97.64773559570312,-3.975143432617188
183051,0.1253662109375,0.175933837890625,-0.673675537109375,0.1187346428632736,-1.030575394630432,-0.0975292176008224,39.28871154785156,97.64773559570312,-3.975143432617188
183052,-0.0001373291015625,0.4987640380859375,0.331787109375,-0.8891186714172363,-0.490860253572464,0.0749972760677337,38.89717102050781,97.78880310058594,-3.742080688476562
183053,-0.0001373291015625,0.4987640380859375,0.331787109375,-0.8891186714172363,-0.490860253572464,0.0749972760677337,38.89717102050781,97.78880310058594,-3.742080688476562
183054,0.1435089111328125,2.741607666015625,0.8182373046875,-2.925699234008789,1.81564998626709,-1.155255079269409,38.53507995605469,97.80845642089844,-3.116165161132812
183055,0.5170440673828125,6.05078125,0.2647552490234375,-2.925699234008789,1.81564998626709,-1.155255079269409,38.10992431640625,97.9114227294922,-2.642593383789062
183056,0.213348388671875,8.047500610351562,0.6355743408203125,-2.891326665878296,-0.2887793481349945,-0.9703016877174376,37.36528015136719,97.9993896484375,-2.061996459960938
183057,0.213348388671875,8.047500610351562,0.6355743408203125,-2.891326665878296,-0.2887793481349945,-0.9703016877174376,37.36528015136719,97.9993896484375,-2.061996459960938
183058,-0.394561767578125,3.964187622070312,1.22027587890625,-1.065903902053833,0.0772612318396568,-1.304054617881775,35.68345642089844,97.77963256835938,-0.83489990234375
183059,-0.3334808349609375,1.676223754882812,0.4493560791015625,-0.1932988911867142,-0.0540222227573394,-0.9137622714042664,35.31036376953125,97.37667846679688,-0.118072509765625
183060,-0.6097412109375,0.839813232421875,0.253814697265625,0.1645769625902176,0.4557150602340698,-0.7969477772712708,35.16969299316406,96.4850616455078,0.9300689697265624
183061,-0.6087646484375,0.5381927490234375,-0.0729522705078125,-0.0427440032362937,1.949701309204102,-0.3087493181228638,35.17500305175781,95.84353637695312,1.505416870117188
183062,-0.2767333984375,1.118988037109375,-1.185821533203125,0.0607371181249618,-0.1001068949699402,0.9916189908981324,35.01301574707031,95.28863525390624,1.640594482421875
183063,-0.0709075927734375,1.855194091796875,-1.610076904296875,0.0607371181249618,-0.1001068949699402,0.9916189908981324,34.78350830078125,95.15599060058594,1.267410278320312
183064,0.095916748046875,2.022933959960938,-0.4475860595703125,0.0619475245475769,-0.7523499131202698,1.196044564247131,34.75395202636719,94.90211486816406,1.027694702148438
183065,0.2668304443359375,2.022735595703125,0.063079833984375,0.0754444226622581,-0.3624285161495209,1.294255256652832,34.85978698730469,94.90524291992188,0.885833740234375
183066,0.3703155517578125,1.960678100585938,0.103515625,0.1849301755428314,0.1411435455083847,1.404898166656494,35.28773498535156,95.09344482421876,0.695526123046875
183067,0.41546630859375,1.824508666992188,0.0451812744140625,0.3763909339904785,0.4482675194740295,1.55019199848175,35.79069519042969,95.34054565429688,0.59234619140625
183068,0.4098052978515625,1.685287475585938,-0.01251220703125,0.5401817560195923,0.4654782116413116,1.634785413742065,37.0926513671875,95.56881713867188,0.6247100830078125
183069,0.4098052978515625,1.685287475585938,-0.01251220703125,0.5401817560195923,0.4654782116413116,1.634785413742065,37.0926513671875,95.56881713867188,0.6247100830078125
183070,0.296417236328125,1.37640380859375,-0.0624542236328125,0.5870885252952576,0.1211914047598839,1.302300691604614,38.41006469726562,96.0307159423828,0.1701812744140625
183071,0.1686248779296875,1.213180541992188,-0.0899200439453125,0.4190475940704346,-0.073811374604702,0.916557252407074,39.02055358886719,96.36932373046876,0.03594970703125
183072,-0.0120391845703125,1.061676025390625,-0.0512542724609375,0.215893417596817,-0.1675226837396622,0.5907914042472839,39.54519653320312,96.46334838867188,-0.0885772705078125
183073,-0.0120391845703125,1.061676025390625,-0.0512542724609375,0.215893417596817,-0.1675226837396622,0.5907914042472839,39.54519653320312,96.46334838867188,-0.0885772705078125
183074,-0.1827392578125,0.828277587890625,0.118988037109375,0.0908135250210762,-0.0288159362971782,0.2506556510925293,40.36436462402344,96.646728515625,-0.4344635009765625
183075,-0.23126220703125,0.6977081298828125,0.173431396484375,0.2689835429191589,0.0881253331899642,0.1813215911388397,40.6336669921875,96.62498474121094,-0.5372467041015625
183076,-0.2640533447265625,0.5693511962890625,0.1816253662109375,0.5658466219902039,0.1647918820381165,0.1625122129917145,40.87380981445312,96.67236328125,-0.6814117431640625
183077,-0.2640533447265625,0.5693511962890625,0.1816253662109375,0.5658466219902039,0.1647918820381165,0.1625122129917145,40.87380981445312,96.67236328125,-0.6814117431640625
183078,-0.240478515625,0.310272216796875,0.143218994140625,1.082723021507263,0.15554378926754,0.182552769780159,41.17123413085938,96.82627868652344,-1.200302124023438
183079,-0.1999664306640625,0.19775390625,0.102508544921875,1.141465663909912,0.0890257433056831,0.1836907416582108,41.33685302734375,96.9849090576172,-1.695159912109375
183080,-0.16156005859375,0.095062255859375,0.053253173828125,1.07073187828064,-0.019065037369728,0.167850524187088,41.50489807128906,97.03125,-2.241867065429688
183081,-0.1330108642578125,0.003570556640625,-0.02191162109375,0.9382824897766112,-0.1954363435506821,0.1310219317674637,41.60647583007812,97.11502075195312,-2.709243774414062
183082,-0.10052490234375,-0.08612060546875,-0.1349029541015625,0.7754877209663391,-0.529608964920044,0.0848240777850151,41.62388610839844,97.21002197265624,-3.141021728515625
183083,-0.10052490234375,-0.08612060546875,-0.1349029541015625,0.7754877209663391,-0.529608964920044,0.0848240777850151,41.62388610839844,97.21002197265624,-3.141021728515625
183084,0.00164794921875,-0.2040557861328125,-0.2704620361328125,0.5435503721237183,-1.573954820632935,0.069289855659008,41.81375122070312,97.42787170410156,-3.700393676757812
183085,0.00164794921875,-0.2040557861328125,-0.2704620361328125,0.5435503721237183,-1.573954820632935,0.069289855659008,41.81375122070312,97.42787170410156,-3.700393676757812
183086,0.1230316162109375,-0.173828125,0.0811767578125,0.8257293105125427,-1.420206785202026,0.1079847887158394,42.25567626953125,97.96893310546876,-3.939117431640625
183087,0.1230316162109375,-0.173828125,0.0811767578125,0.8257293105125427,-1.420206785202026,0.1079847887158394,42.25567626953125,97.96893310546876,-3.939117431640625
183088,0.142974853515625,-0.167236328125,0.17041015625,0.9769510626792908,-0.8370533585548401,0.0679082125425338,42.3411865234375,98.09649658203124,-3.944351196289062
183089,0.158447265625,-0.1708831787109375,0.19586181640625,1.014153003692627,-0.2148372083902359,0.0201939512044191,42.41200256347656,98.10783386230467,-4.120361328125
183090,0.171630859375,-0.18145751953125,0.1656646728515625,0.8987830281257629,0.2708078026771545,-0.015484151430428,42.42796325683594,98.07225036621094,-4.1060791015625
183091,0.171630859375,-0.18145751953125,0.1656646728515625,0.8987830281257629,0.2708078026771545,-0.015484151430428,42.42796325683594,98.07225036621094,-4.1060791015625
183092,0.1789093017578125,-0.1782684326171875,0.1275482177734375,0.3542278409004211,0.7031757235527039,-0.0380096994340419,42.38327026367188,98.11466979980467,-4.262939453125
183093,0.17022705078125,-0.165374755859375,0.1421051025390625,0.0367971621453762,0.8036386966705322,-0.0556243807077407,42.31961059570312,97.96311950683594,-4.252700805664062
183094,0.156829833984375,-0.157684326171875,0.1538848876953125,-0.2441096007823944,0.9009239673614502,-0.1087184920907021,42.28761291503906,97.78034973144533,-4.130691528320312
183095,0.1489715576171875,-0.1628570556640625,0.1493988037109375,-0.4913601279258728,1.017736911773682,-0.2047725915908813,42.2242431640625,97.6367645263672,-4.044342041015625
183096,0.1458892822265625,-0.160247802734375,0.147125244140625,-0.7365834712982178,1.129110217094421,-0.331115335226059,42.10055541992188,97.57672119140624,-3.778030395507812
183097,0.1458892822265625,-0.160247802734375,0.147125244140625,-0.7365834712982178,1.129110217094421,-0.331115335226059,42.10055541992188,97.57672119140624,-3.778030395507812
183098,0.1201019287109375,-0.1050567626953125,0.1715545654296875,-1.257392048835754,1.105276584625244,-0.6544784903526306,41.77665710449219,97.201904296875,-3.119277954101562
183099,0.0572509765625,0.0252838134765625,0.212249755859375,-1.463682651519775,0.9220337867736816,-0.9216052889823914,41.43183898925781,97.0684814453125,-2.607620239257812
183100,-0.026336669921875,0.1192779541015625,0.2905426025390625,-1.571943283081055,0.8719362616539001,-1.120890974998474,41.18605041503906,96.8519287109375,-2.181930541992188
183101,-0.0516510009765625,0.1543426513671875,0.295989990234375,-1.729322791099548,0.8134609460830688,-1.260961532592773,40.63555908203125,96.7288055419922,-1.598831176757812
183102,-0.0701446533203125,0.20538330078125,0.297576904296875,-1.953377485275269,0.5970061421394348,-1.409144878387451,40.03199768066406,96.69645690917967,-0.980804443359375
183103,-0.106689453125,0.2788543701171875,0.3643035888671875,-2.19242262840271,0.1644738912582397,-1.555489301681519,39.3819580078125,96.43942260742188,-0.2708282470703125
183104,-0.17034912109375,0.5853118896484375,0.638336181640625,-2.368189811706543,-0.3720137774944305,-1.771662831306458,38.61187744140625,96.26148986816406,0.5625762939453125
183105,-0.584320068359375,3.755874633789062,1.52569580078125,-1.942091345787048,0.5724536776542664,-3.120229721069336,36.83689880371094,96.14920043945312,1.450393676757812
183106,-0.584320068359375,3.755874633789062,1.52569580078125,-1.942091345787048,0.5724536776542664,-3.120229721069336,36.83689880371094,96.14920043945312,1.450393676757812
183107,-0.9170684814453124,5.8585205078125,1.47528076171875,-0.8731815218925476,1.199032068252563,-2.793650388717651,35.58323669433594,96.21734619140624,1.381317138671875
183108,-2.320785522460938,7.560195922851562,1.512374877929688,0.0446329824626445,1.356451511383057,-1.498616337776184,34.2108154296875,96.47398376464844,0.494659423828125
183109,-1.835235595703125,5.290939331054688,0.6487579345703125,0.7689952254295349,0.8457882404327393,-1.138446450233459,33.05857849121094,96.89251708984376,-0.8634185791015625
183110,-0.5483551025390625,1.94659423828125,0.161468505859375,0.5827478170394897,-0.791549801826477,-0.904822051525116,32.324462890625,96.96710205078124,-1.865753173828125
183111,-0.5483551025390625,1.94659423828125,0.161468505859375,0.5827478170394897,-0.791549801826477,-0.904822051525116,32.324462890625,96.96710205078124,-1.865753173828125
183112,-0.428070068359375,0.4272918701171875,0.0570068359375,-0.375711053609848,-3.416341543197632,-1.713934302330017,32.0206298828125,95.64427185058594,-1.016799926757812
183113,-0.4257354736328125,0.435577392578125,0.3488922119140625,-1.067594408988953,-3.823511362075806,-1.759871125221252,32.06689453125,94.798095703125,0.1923828125
183114,-0.440216064453125,1.191360473632812,0.6154937744140625,-1.968680024147034,-1.150518894195557,-0.9074313640594482,31.86294555664062,93.90023803710938,1.361526489257812
183115,-0.15582275390625,2.488815307617188,-1.729629516601562,-2.70875358581543,0.8287938237190247,0.0844736024737358,31.50863647460938,93.24269104003906,2.618682861328125
183116,0.2940673828125,3.156341552734375,-2.45074462890625,-1.792679667472839,-2.120644330978394,0.823307454586029,31.00132751464844,92.85749816894533,3.600479125976562
183117,0.2940673828125,3.156341552734375,-2.45074462890625,-1.792679667472839,-2.120644330978394,0.823307454586029,31.00132751464844,92.85749816894533,3.600479125976562
183118,0.3980865478515625,2.9398193359375,0.0521697998046875,0.3870031237602234,-1.522588610649109,1.370078444480896,30.86631774902344,92.5518035888672,4.54815673828125
183119,0.426666259765625,2.463241577148438,0.6276397705078125,1.907686710357666,0.5586715340614319,1.589288473129272,31.28382873535156,92.65191650390624,5.322616577148438
183120,0.3195343017578125,1.947128295898438,-0.031402587890625,1.933424592018127,1.482625126838684,1.816684126853943,32.7083740234375,93.2919921875,4.940185546875
183121,0.3195343017578125,1.947128295898438,-0.031402587890625,1.933424592018127,1.482625126838684,1.816684126853943,32.7083740234375,93.2919921875,4.940185546875
183122,0.1566009521484375,1.798812866210938,0.1873016357421875,1.117262363433838,-0.0177899152040481,0.9632275700569152,34.07479858398438,94.09036254882812,3.248977661132812
183123,0.0817413330078125,1.531356811523438,0.340545654296875,0.9666771292686462,0.171290785074234,0.5217606425285339,34.7974853515625,94.4049835205078,2.789352416992188
183124,0.003997802734375,1.26470947265625,0.391876220703125,0.9666771292686462,0.171290785074234,0.5217606425285339,35.4451904296875,94.54855346679688,2.62530517578125
183125,0.003997802734375,1.26470947265625,0.391876220703125,0.9666771292686462,0.171290785074234,0.5217606425285339,35.4451904296875,94.54855346679688,2.62530517578125
183126,-0.1461639404296875,0.898712158203125,0.3141632080078125,1.479990482330322,0.5013680458068848,0.7030066251754761,36.33712768554688,94.97761535644533,1.425888061523438
183127,-0.199554443359375,0.7121734619140625,0.2443695068359375,1.479990482330322,0.5013680458068848,0.7030066251754761,36.63478088378906,95.07705688476562,0.9285125732421876
183128,-0.2229461669921875,0.5395050048828125,0.1793212890625,1.696651458740234,0.2255961149930954,0.8060102462768555,37.00897216796875,95.297607421875,0.3282623291015625
183129,-0.22198486328125,0.40118408203125,0.16461181640625,1.801501393318176,-0.0634026750922203,0.8616066575050354,37.42649841308594,95.40267944335938,-0.406829833984375
183130,-0.22198486328125,0.40118408203125,0.16461181640625,1.801501393318176,-0.0634026750922203,0.8616066575050354,37.42649841308594,95.40267944335938,-0.406829833984375
183131,-0.1329498291015625,0.1554718017578125,0.168121337890625,1.562793254852295,-0.2586216926574707,0.8545103669166565,38.30209350585938,96.1499481201172,-1.8201904296875
183132,-0.07904052734375,0.038726806640625,0.1486968994140625,1.376941919326782,-0.2150475978851318,0.872465968132019,38.66366577148438,96.64349365234376,-2.54925537109375
183133,-0.0544891357421875,-0.037261962890625,0.1331634521484375,1.200711727142334,-0.1026336997747421,0.8725000619888306,38.98812866210938,97.02449035644533,-3.122772216796875
183134,-0.035980224609375,-0.0865325927734375,0.1171875,1.005673050880432,0.0066336677409708,0.8474447727203369,39.35975646972656,97.3245849609375,-3.756256103515625
183135,-0.02630615234375,-0.1007232666015625,0.078948974609375,0.849014163017273,0.0276081915944814,0.8249655365943909,39.76231384277344,97.46965026855467,-4.186386108398438
183136,-0.03662109375,-0.1051025390625,0.0412445068359375,0.7398729920387268,-0.0644532889127731,0.7930909395217896,40.07215881347656,97.6962890625,-4.416244506835938
183137,-0.05084228515625,-0.116241455078125,0.0175628662109375,0.6582447290420532,-0.2843805849552155,0.7495101690292358,40.49935913085938,97.72940063476562,-4.4814453125
183138,-0.06658935546875,-0.12493896484375,0.017730712890625,0.5456369519233704,-0.786617636680603,0.5920169949531555,40.97209167480469,97.8504638671875,-4.450210571289062
183139,-0.06658935546875,-0.12493896484375,0.017730712890625,0.5456369519233704,-0.786617636680603,0.5920169949531555,40.97209167480469,97.8504638671875,-4.450210571289062
183140,-0.112152099609375,-0.165924072265625,0.12933349609375,0.5118315815925598,-0.7753729820251465,0.4841911792755127,41.68148803710938,97.92523193359376,-4.111328125
183141,-0.112152099609375,-0.165924072265625,0.12933349609375,0.5118315815925598,-0.7753729820251465,0.4841911792755127,41.68148803710938,97.92523193359376,-4.111328125
183142,-0.145172119140625,-0.200653076171875,0.1793060302734375,0.4747675955295563,-0.534371018409729,0.3819431066513062,42.14080810546875,97.84422302246094,-3.893844604492188
183143,-0.1643524169921875,-0.23114013671875,0.1855316162109375,0.4320600628852844,-0.1864463090896606,0.2938776910305023,42.45968627929688,97.79283142089844,-3.635360717773438
183144,-0.151031494140625,-0.2341461181640625,0.13226318359375,0.2848437130451202,0.4435446858406067,0.09521946310997,43.0166015625,97.56497192382812,-3.473907470703125
183145,-0.151031494140625,-0.2341461181640625,0.13226318359375,0.2848437130451202,0.4435446858406067,0.09521946310997,43.0166015625,97.56497192382812,-3.473907470703125
183146,-0.124755859375,-0.2152557373046875,0.0991363525390625,0.1947609633207321,0.6502802968025208,-0.0401564724743366,43.13969421386719,97.415771484375,-3.389877319335938
183147,-0.090667724609375,-0.1985015869140625,0.0533905029296875,0.078740082681179,0.729316771030426,-0.1824406534433365,43.14862060546875,97.31520080566406,-3.435440063476562
183148,-0.0800628662109375,-0.1976470947265625,-0.0270233154296875,-0.2650798559188843,0.5401833653450012,-0.3478762209415436,42.88638305664062,97.037353515625,-3.498397827148438
183149,-0.0800628662109375,-0.1976470947265625,-0.0270233154296875,-0.2650798559188843,0.5401833653450012,-0.3478762209415436,42.88638305664062,97.037353515625,-3.498397827148438
183150,-0.1285858154296875,-0.2071533203125,-0.0123138427734375,-0.4889640808105469,0.3843865394592285,-0.3556475937366486,42.66259765625,97.014892578125,-3.553253173828125
183151,-0.1920318603515625,-0.1930694580078125,0.0263824462890625,-0.6959462761878967,0.328267365694046,-0.3495619893074036,42.40376281738281,96.80352783203124,-3.380966186523438
183152,-0.267608642578125,-0.149627685546875,0.0600128173828125,-1.025709509849548,0.3258875608444214,-0.3979236781597137,42.07353210449219,96.62899780273438,-2.864547729492188
183153,-0.267608642578125,-0.149627685546875,0.0600128173828125,-1.025709509849548,0.3258875608444214,-0.3979236781597137,42.07353210449219,96.62899780273438,-2.864547729492188
183154,-0.2477264404296875,-0.049468994140625,0.073028564453125,-1.396216034889221,0.5085151791572571,-0.5762649178504944,41.70930480957031,96.38975524902344,-1.944244384765625
183155,-0.1678619384765625,0.038177490234375,0.024505615234375,-1.611290693283081,0.5796481966972351,-0.6979809403419495,41.44282531738281,96.24313354492188,-1.39776611328125
183156,-0.08477783203125,0.0780487060546875,-0.041473388671875,-1.8378586769104,0.515099823474884,-0.7629141807556152,41.16143798828125,96.20979309082033,-0.6399383544921875
183157,-0.041748046875,0.0960845947265625,-0.0921173095703125,-2.100792646408081,0.2970404624938965,-0.7750089168548584,40.86492919921875,96.32508850097656,-0.0334320068359375
183158,-0.0263519287109375,0.12554931640625,-0.09686279296875,-2.48089075088501,-0.411916196346283,-0.7755548357963562,40.36618041992188,96.4591827392578,0.5742034912109375
183159,-0.0263519287109375,0.12554931640625,-0.09686279296875,-2.48089075088501,-0.411916196346283,-0.7755548357963562,40.36618041992188,96.4591827392578,0.5742034912109375
183160,-0.02813720703125,0.25830078125,0.335601806640625,-2.573803424835205,-0.5847265720367432,-0.8407836556434631,39.0333251953125,96.75253295898438,1.619842529296875
183161,-0.02813720703125,0.25830078125,0.335601806640625,-2.573803424835205,-0.5847265720367432,-0.8407836556434631,39.0333251953125,96.75253295898438,1.619842529296875
183162,-0.083160400390625,1.015228271484375,0.6806640625,-2.582485198974609,-0.6693812608718872,-1.056997418403625,38.18426513671875,96.88406372070312,1.861740112304688
183163,-0.302886962890625,8.080291748046875,1.523178100585938,-1.607772946357727,-2.209417819976807,1.098243474960327,36.29702758789062,96.71638488769533,1.846099853515625
183164,-1.066497802734375,8.005416870117188,1.765106201171875,-0.7509294152259827,-2.046453237533569,1.535842061042786,35.88400268554688,96.75729370117188,1.491592407226562
183165,-1.066497802734375,8.005416870117188,1.765106201171875,-0.7509294152259827,-2.046453237533569,1.535842061042786,35.88400268554688,96.75729370117188,1.491592407226562
183166,0.1519622802734375,2.300704956054688,0.236785888671875,0.3605706989765167,0.9090372920036316,0.0746334940195083,36.95570373535156,96.84190368652344,1.724365234375
183167,0.16131591796875,0.906524658203125,-0.2067718505859375,0.3605706989765167,0.9090372920036316,0.0746334940195083,37.22874450683594,96.5772705078125,2.673004150390625
183168,0.116119384765625,0.4602813720703125,-0.29248046875,0.4556221067905426,0.9522547721862792,0.343744307756424,37.167724609375,96.5668487548828,3.243927001953125
183169,0.116119384765625,0.4602813720703125,-0.29248046875,0.4556221067905426,0.9522547721862792,0.343744307756424,37.167724609375,96.5668487548828,3.243927001953125
183170,-0.0506744384765625,1.224197387695312,-1.524032592773438,0.6650635004043579,0.161259189248085,0.1888450235128403,36.94166564941406,96.32566833496094,3.62939453125
183171,-0.087005615234375,1.832321166992188,-0.7111053466796875,0.2611607611179352,-0.2010532170534134,0.2239686548709869,36.95687866210938,96.43862915039062,3.440338134765625
183172,-0.0054931640625,2.045120239257812,-0.02703857421875,0.0088440915569663,0.625160276889801,0.4148973226547241,36.92393493652344,96.50619506835938,3.111114501953125
183173,-0.0054931640625,2.045120239257812,-0.02703857421875,0.0088440915569663,0.625160276889801,0.4148973226547241,36.92393493652344,96.50619506835938,3.111114501953125
183174,0.1202545166015625,2.087265014648438,-0.0067596435546875,0.0505467988550663,1.163691401481628,0.7729582786560059,37.0640869140625,96.39752197265624,2.748367309570312
183175,0.1770172119140625,2.004638671875,-0.027740478515625,0.3115954399108887,1.358191847801208,1.145942807197571,37.17657470703125,96.42733764648438,2.524154663085938
183176,0.2446136474609375,1.632919311523438,0.0854034423828125,0.9133324027061462,0.8287459015846252,1.183897376060486,37.88882446289062,96.3040008544922,2.095550537109375
183177,0.2446136474609375,1.632919311523438,0.0854034423828125,0.9133324027061462,0.8287459015846252,1.183897376060486,37.88882446289062,96.3040008544922,2.095550537109375
