time_idx,accelerometerAccelerationX(G),accelerometerAccelerationY(G),accelerometerAccelerationZ(G),gyroRotationX(rad/s),gyroRotationY(rad/s),gyroRotationZ(rad/s),magnetometerX(µT),magnetometerY(µT),magnetometerZ(µT)
215552,-0.02850341796875,-0.145904541015625,0.1401519775390625,0.4542465806007385,0.666259765625,0.4989126026630402,37.43496704101562,98.41641235351562,-10.94259643554688
215553,-0.0322265625,-0.13385009765625,0.090362548828125,0.3510922491550446,0.5887314081192017,0.4473394155502319,37.77479553222656,98.47056579589844,-11.25772094726562
215554,-0.0322265625,-0.13385009765625,0.090362548828125,0.3510922491550446,0.5887314081192017,0.4473394155502319,37.77479553222656,98.47056579589844,-11.25772094726562
215555,-0.047943115234375,-0.159149169921875,-0.0222625732421875,0.097318559885025,0.1467060893774033,0.3081216216087341,38.32511901855469,98.7344970703125,-11.38737487792969
215556,-0.05572509765625,-0.1653900146484375,-0.005706787109375,-0.0236211735755205,-0.0953550115227699,0.2259543091058731,38.63314819335938,98.7719268798828,-11.335693359375
215557,-0.07012939453125,-0.1651458740234375,0.0469970703125,-0.1437619626522064,-0.1181580647826195,0.1383786499500275,38.92451477050781,98.9258270263672,-11.17689514160156
215558,-0.07012939453125,-0.1651458740234375,0.0469970703125,-0.1437619626522064,-0.1181580647826195,0.1383786499500275,38.92451477050781,98.9258270263672,-11.17689514160156
215559,-0.1189727783203125,-0.173828125,0.0420989990234375,-0.4170531630516052,0.3471491634845734,-0.079025313258171,39.78213500976562,98.93222045898438,-10.44255065917969
215560,-0.1690216064453125,-0.19866943359375,0.00927734375,-0.5864142179489136,0.7106799483299255,-0.2104299366474152,40.25074768066406,98.94017028808594,-9.703964233398438
215561,-0.2778167724609375,-0.24639892578125,-0.057769775390625,-0.8011001348495483,1.08458936214447,-0.3911288678646088,40.63833618164062,98.76365661621094,-8.908737182617188
215562,-0.2778167724609375,-0.24639892578125,-0.057769775390625,-0.8011001348495483,1.08458936214447,-0.3911288678646088,40.63833618164062,98.76365661621094,-8.908737182617188
215563,-0.4290008544921875,-0.346954345703125,-0.319549560546875,-1.263882994651794,1.342538952827454,-0.8353473544120789,41.03083801269531,97.92478942871094,-7.3221435546875
215564,-0.2976531982421875,-0.2002716064453125,-0.3621978759765625,-1.382023215293884,0.625231146812439,-0.6956546902656555,40.83836364746094,97.63021850585938,-6.622726440429688
215565,-0.138671875,0.1574554443359375,-0.2588958740234375,-1.355913519859314,-0.0167550109326839,-0.5464886426925659,40.38687133789062,97.32316589355467,-6.067535400390625
215566,-0.138671875,0.1574554443359375,-0.2588958740234375,-1.355913519859314,-0.0167550109326839,-0.5464886426925659,40.38687133789062,97.32316589355467,-6.067535400390625
215567,-0.0104522705078125,0.2296142578125,-0.05731201171875,-1.232788920402527,-0.6500698924064636,-0.5136494636535645,39.46772766113281,96.94647216796876,-5.067825317382812
215568,0.0058746337890625,0.193328857421875,0.2368621826171875,-1.257549166679382,-0.4997768104076385,-0.4864181280136108,39.0068359375,97.18913269042967,-4.81634521484375
215569,0.014251708984375,0.184112548828125,0.5444183349609375,-1.305347084999084,0.0662727653980255,-0.4956073462963104,38.38279724121094,97.3511199951172,-4.62835693359375
215570,0.014251708984375,0.184112548828125,0.5444183349609375,-1.305347084999084,0.0662727653980255,-0.4956073462963104,38.38279724121094,97.3511199951172,-4.62835693359375
215571,-0.010467529296875,0.9430694580078124,1.167587280273438,-1.512250661849976,0.9286309480667114,-0.7626321315765381,36.8387451171875,97.37037658691406,-4.869293212890625
215572,-0.0127105712890625,3.759552001953125,1.598388671875,-1.688846826553345,1.739575982093811,-0.5245364904403687,36.0032958984375,97.44703674316406,-5.550582885742188
215573,-0.2776947021484375,7.7236328125,1.952117919921875,-1.907960534095764,1.952295184135437,1.816360592842102,35.46453857421875,97.59455871582033,-6.720016479492188
215574,-0.2776947021484375,7.7236328125,1.952117919921875,-1.907960534095764,1.952295184135437,1.816360592842102,35.46453857421875,97.59455871582033,-6.720016479492188
215575,-1.285385131835938,7.394577026367188,1.041290283203125,-1.402813911437988,2.024863958358765,-1.142086505889893,36.41766357421875,97.89344787597656,-8.044677734375
215576,-0.312347412109375,4.160263061523438,-0.2185211181640625,-1.333148598670959,0.6203775405883789,-1.691672682762146,36.75703430175781,97.70945739746094,-7.271209716796875
215577,0.1659393310546875,1.645111083984375,-2.068939208984375,-2.039794921875,-1.942554712295532,-0.8732784986495972,36.09280395507812,97.48187255859376,-6.5703125
215578,0.611297607421875,0.98968505859375,-1.852706909179688,-2.11976170539856,-4.089306831359863,0.2491634786128998,35.04568481445312,97.09597778320312,-5.4525146484375
215579,0.9016876220703124,1.159408569335938,-0.375396728515625,2.090059041976929,-0.3353178203105927,1.428662657737732,34.59577941894531,96.7951202392578,-3.802658081054688
215580,0.695526123046875,1.341064453125,-0.30291748046875,2.090059041976929,-0.3353178203105927,1.428662657737732,34.81901550292969,96.54251098632812,-2.51495361328125
215581,0.41876220703125,1.462600708007812,-0.1787261962890625,2.45562219619751,-0.9312350153923036,1.249217510223389,35.54891967773438,96.52897644042967,-2.054962158203125
215582,0.41876220703125,1.462600708007812,-0.1787261962890625,2.45562219619751,-0.9312350153923036,1.249217510223389,35.54891967773438,96.52897644042967,-2.054962158203125
215583,0.155029296875,1.09771728515625,0.146270751953125,1.713952898979187,-0.9901427626609802,1.026539087295532,37.34054565429688,96.63494873046876,-3.686111450195312
215584,0.117279052734375,0.8227081298828125,0.271636962890625,1.050122261047363,-0.5522496104240417,0.9196534156799316,38.04989624023438,96.90084838867188,-4.54461669921875
215585,0.1644439697265625,0.5345001220703125,0.0114898681640625,0.6088084578514099,-0.1637532413005829,0.930682361125946,38.68995666503906,97.12336730957033,-5.142837524414062
215586,0.1644439697265625,0.5345001220703125,0.0114898681640625,0.6088084578514099,-0.1637532413005829,0.930682361125946,38.68995666503906,97.12336730957033,-5.142837524414062
215587,0.0755462646484375,0.05389404296875,-0.7315826416015625,0.4716508984565735,-1.155291557312012,0.9619241952896118,39.49777221679688,97.66619873046876,-5.551773071289062
215588,-0.1078033447265625,-0.00067138671875,-0.4425811767578125,0.8655532002449036,-1.383120656013489,0.7842620611190796,39.79122924804688,97.84584045410156,-5.43701171875
215589,-0.229705810546875,-0.0132598876953125,-0.0818939208984375,1.195021867752075,-0.6682068109512329,0.5003501772880554,40.2044677734375,98.25904846191406,-5.6119384765625
215590,-0.229705810546875,-0.0132598876953125,-0.0818939208984375,1.195021867752075,-0.6682068109512329,0.5003501772880554,40.2044677734375,98.25904846191406,-5.6119384765625
215591,-0.162109375,-0.0953521728515625,-0.0855560302734375,1.143015384674072,0.3474794030189514,0.1255909502506256,40.6541748046875,98.61390686035156,-6.302993774414062
215592,-0.0922698974609375,-0.1544036865234375,-0.07568359375,0.6291813850402832,0.0698081105947494,0.0163462162017822,40.91390991210938,98.64778137207033,-6.897918701171875
215593,-0.0457916259765625,-0.1818695068359375,-0.03076171875,0.6291813850402832,0.0698081105947494,0.0163462162017822,41.11187744140625,98.68472290039062,-7.4798583984375
215594,-0.0457916259765625,-0.1818695068359375,-0.03076171875,0.6291813850402832,0.0698081105947494,0.0163462162017822,41.11187744140625,98.68472290039062,-7.4798583984375
215595,0.0270843505859375,-0.201171875,-0.067230224609375,0.3730007410049438,0.0782106518745422,-0.0674956887960434,41.36634826660156,98.75424194335938,-8.007766723632812
215596,0.06280517578125,-0.235015869140625,-0.18414306640625,0.432655543088913,-0.0369955673813819,-0.0592369586229324,41.36146545410156,98.75680541992188,-8.28570556640625
215597,0.097503662109375,-0.247467041015625,-0.2513580322265625,0.5894595384597778,-0.2697981894016266,-0.0267309471964836,41.23323059082031,98.89874267578124,-8.734039306640625
215598,0.11895751953125,-0.234954833984375,-0.2075653076171875,0.7642049789428711,-0.4855989217758179,0.0001778991572791,41.07746887207031,99.27784729003906,-9.285400390625
215599,0.11993408203125,-0.2003326416015625,-0.0963287353515625,0.8618828058242798,-0.517047107219696,-0.0243410263210535,40.89747619628906,99.55618286132812,-9.510238647460938
215600,0.11993408203125,-0.2003326416015625,-0.0963287353515625,0.8618828058242798,-0.517047107219696,-0.0243410263210535,40.89747619628906,99.55618286132812,-9.510238647460938
215601,0.10906982421875,-0.1605224609375,-0.0123443603515625,0.6758812665939331,-0.1885752379894257,-0.1832233518362045,40.80059814453125,99.6060791015625,-9.67724609375
215602,0.09393310546875,-0.11541748046875,0.073883056640625,0.4616563022136688,0.0344333425164222,-0.2691009640693665,40.78057861328125,99.742431640625,-9.924942016601562
215603,0.09185791015625,-0.1129608154296875,0.0924224853515625,0.1993415951728821,0.2527725994586945,-0.3403482437133789,40.78054809570312,99.611083984375,-9.875213623046877
215604,0.1036224365234375,-0.117706298828125,0.056732177734375,-0.4282437562942505,0.3078350424766541,-0.4175271987915039,40.67543029785156,99.6382293701172,-9.994216918945312
215605,0.131439208984375,-0.12615966796875,-0.0265655517578125,-0.7534447312355042,0.0541676320135593,-0.4249467551708221,40.51026916503906,99.63345336914062,-9.926712036132812
215606,0.131439208984375,-0.12615966796875,-0.0265655517578125,-0.7534447312355042,0.0541676320135593,-0.4249467551708221,40.51026916503906,99.63345336914062,-9.926712036132812
215607,0.23846435546875,-0.01861572265625,-0.1303558349609375,-1.002837300300598,-0.2802915871143341,-0.4312872290611267,40.16629028320312,99.29811096191406,-9.33477783203125
215608,0.251495361328125,0.14947509765625,-0.1066436767578125,-1.101800918579102,-0.5468494892120361,-0.4972483813762665,40.00688171386719,99.03230285644533,-8.923919677734375
215609,0.2060089111328125,0.279632568359375,0.019317626953125,-0.8409631252288818,-0.0417735464870929,-0.8589093685150146,39.81114196777344,98.91322326660156,-8.455078125
215610,0.15960693359375,0.3599395751953125,0.252716064453125,-0.8409631252288818,-0.0417735464870929,-0.8589093685150146,39.4805908203125,98.83088684082033,-7.790679931640625
215611,0.1626739501953125,0.579376220703125,0.634307861328125,-0.8716132044792175,0.8763637542724609,-1.116175055503845,39.04463195800781,98.69345092773438,-7.163986206054688
215612,0.134521484375,0.877105712890625,0.8647613525390625,-1.21083390712738,2.088661909103394,-1.417348980903625,38.43687438964844,98.6665496826172,-6.880157470703125
215613,0.191650390625,2.963531494140625,0.8858642578125,-1.331013560295105,2.611038684844971,-2.803349256515503,37.69668579101562,98.6085205078125,-6.718399047851562
215614,0.191650390625,2.963531494140625,0.8858642578125,-1.331013560295105,2.611038684844971,-2.803349256515503,37.69668579101562,98.6085205078125,-6.718399047851562
215615,-0.2957916259765625,7.04583740234375,0.467376708984375,-0.766368567943573,0.2313511967658997,-3.138013362884521,35.59611511230469,98.24461364746094,-6.949142456054688
215616,-0.5243988037109375,7.73681640625,0.8068389892578125,-0.0308151710778474,-2.626628875732422,-2.613120794296265,34.19822692871094,97.90133666992188,-7.293670654296875
215617,-0.54986572265625,5.802886962890625,1.280914306640625,0.2043773680925369,-2.947352647781372,-1.513429403305054,33.0086669921875,97.65521240234376,-7.684310913085938
215618,-0.54986572265625,5.802886962890625,1.280914306640625,0.2043773680925369,-2.947352647781372,-1.513429403305054,33.0086669921875,97.65521240234376,-7.684310913085938
215619,-0.2583160400390625,1.963943481445312,-0.3325042724609375,0.3032594919204712,-2.231144189834595,-0.5073748230934143,31.66845703125,96.97637939453124,-7.307571411132812
215620,-0.2152252197265625,1.293075561523438,-1.472122192382812,0.8701311349868774,-3.664967775344849,-0.2205470204353333,31.45710754394531,96.7497100830078,-6.849777221679688
215621,-0.4159698486328125,1.100723266601562,-1.013458251953125,0.5308279395103455,-3.282650470733643,0.1950043737888336,31.39425659179688,96.64901733398438,-6.325271606445312
215622,-0.4159698486328125,1.100723266601562,-1.013458251953125,0.5308279395103455,-3.282650470733643,0.1950043737888336,31.39425659179688,96.64901733398438,-6.325271606445312
215623,0.0825347900390625,1.233795166015625,-0.4482269287109375,1.716857433319092,-0.7015733122825623,0.4776152968406677,31.89443969726562,96.72531127929688,-5.551315307617188
215624,0.0657501220703125,0.9852294921875,-0.20721435546875,2.036151170730591,-0.4796155989170074,0.5052059292793274,32.40589904785156,96.47598266601562,-5.552810668945312
215625,0.097869873046875,0.7881011962890625,-0.1238861083984375,1.03705883026123,0.5209707617759705,0.5976985692977905,32.99479675292969,96.44029235839844,-6.04571533203125
215626,0.1466827392578125,0.5892181396484375,-0.194244384765625,1.03705883026123,0.5209707617759705,0.5976985692977905,33.37744140625,96.4308624267578,-6.837020874023438
215627,0.1489105224609375,0.4167633056640625,-0.3182220458984375,0.6020368337631226,0.5790311098098755,0.5926412343978882,33.72799682617188,96.5570068359375,-7.391876220703125
215628,0.13861083984375,0.2294464111328125,-0.354217529296875,0.5368804931640625,0.1733890920877457,0.613572359085083,33.9659423828125,96.76150512695312,-7.743209838867188
215629,0.1200408935546875,0.0892486572265625,-0.167083740234375,0.832500159740448,-0.0049100699834525,0.6322320699691772,34.18362426757812,96.94227600097656,-8.046920776367188
215630,0.1200408935546875,0.0892486572265625,-0.167083740234375,0.832500159740448,-0.0049100699834525,0.6322320699691772,34.18362426757812,96.94227600097656,-8.046920776367188
215631,0.0926055908203125,-0.1011199951171875,0.1085968017578125,0.8359835743904114,0.5297629237174988,0.6391202807426453,34.67588806152344,97.281005859375,-8.270599365234375
215632,0.0710601806640625,-0.1856842041015625,0.0556640625,0.8359835743904114,0.5297629237174988,0.6391202807426453,34.95184326171875,97.52239990234376,-8.5008544921875
215633,0.0525360107421875,-0.212127685546875,-0.0039825439453125,0.6595425009727478,0.5756920576095581,0.7593817114830017,35.32366943359375,97.5894775390625,-8.801742553710938
215634,0.0525360107421875,-0.212127685546875,-0.0039825439453125,0.6595425009727478,0.5756920576095581,0.7593817114830017,35.32366943359375,97.5894775390625,-8.801742553710938
215635,0.0276031494140625,-0.155487060546875,0.0174407958984375,0.6010863780975342,0.6192483305931091,0.8052490949630737,35.954833984375,97.77064514160156,-9.560623168945312
215636,0.0146942138671875,-0.145599365234375,0.0351104736328125,0.5308250188827515,0.7198508381843567,0.818074107170105,36.27806091308594,98.00010681152344,-9.717300415039062
215637,0.0078887939453125,-0.166046142578125,-0.0043182373046875,0.4013389050960541,0.823754608631134,0.8090307712554932,36.68232727050781,98.06787109375,-10.02534484863281
215638,0.0078887939453125,-0.166046142578125,-0.0043182373046875,0.4013389050960541,0.823754608631134,0.8090307712554932,36.68232727050781,98.06787109375,-10.02534484863281
215639,0.0044097900390625,-0.27593994140625,-0.372467041015625,0.2721207439899445,0.1810187846422195,0.8557791113853455,37.53932189941406,98.4312744140625,-10.11500549316406
215640,-0.0191802978515625,-0.372894287109375,-0.2930908203125,0.1933697313070297,0.2380357384681702,0.838777482509613,38.06280517578125,98.61300659179688,-9.953079223632812
215641,-0.018768310546875,-0.423736572265625,-0.34197998046875,0.0376320630311965,0.7804782390594482,0.769298791885376,38.84268188476562,98.69328308105467,-9.764877319335938
215642,-0.018768310546875,-0.423736572265625,-0.34197998046875,0.0376320630311965,0.7804782390594482,0.769298791885376,38.84268188476562,98.69328308105467,-9.764877319335938
215643,0.0101318359375,-0.336334228515625,0.0377655029296875,-0.0164825692772865,0.3746013045310974,0.7050535082817078,40.37123107910156,98.45846557617188,-9.12530517578125
215644,0.0142669677734375,-0.291534423828125,0.17095947265625,-0.1267576813697815,0.5519979000091553,0.5945712327957153,41.0802001953125,98.12875366210938,-8.743499755859375
215645,0.0183258056640625,-0.2406158447265625,0.1788482666015625,-0.3723450601100922,0.7581566572189331,0.3054648339748383,41.65165710449219,97.58042907714844,-8.446807861328125
215646,0.0183258056640625,-0.2406158447265625,0.1788482666015625,-0.3723450601100922,0.7581566572189331,0.3054648339748383,41.65165710449219,97.58042907714844,-8.446807861328125
215647,-0.0202484130859375,-0.156158447265625,0.0963897705078125,-0.6143864393234253,0.640247642993927,0.1385413706302643,42.19064331054688,96.85769653320312,-7.981765747070312
215648,-0.0706634521484375,0.0098876953125,0.0131988525390625,-0.8972852826118469,0.3152141273021698,-0.1010248810052872,42.31602478027344,96.49826049804688,-7.757293701171875
215649,-0.0811767578125,0.1693115234375,-0.095428466796875,-1.092840075492859,-0.2508151829242706,-0.2484052777290344,42.32322692871094,96.22752380371094,-7.549972534179688
215650,-0.0811767578125,0.1693115234375,-0.095428466796875,-1.092840075492859,-0.2508151829242706,-0.2484052777290344,42.32322692871094,96.22752380371094,-7.549972534179688
215651,-0.0514068603515625,0.254913330078125,0.1947174072265625,-1.352308750152588,-1.116841912269592,-0.4544892013072968,42.283447265625,96.37197875976562,-6.727127075195312
215652,-0.0379180908203125,0.2608184814453125,0.5832977294921875,-1.528067231178284,-0.4197293519973755,-0.5289706587791443,42.24362182617188,96.58773803710938,-6.044052124023438
215653,-0.0092315673828125,0.3114471435546875,0.865447998046875,-1.768983960151672,0.685977578163147,-0.6345934867858887,42.08451843261719,97.0598602294922,-5.457733154296875
215654,-0.0092315673828125,0.3114471435546875,0.865447998046875,-1.768983960151672,0.685977578163147,-0.6345934867858887,42.08451843261719,97.0598602294922,-5.457733154296875
215655,-0.0902862548828125,1.183822631835938,1.32855224609375,-2.550576210021973,2.240935802459717,-1.135034680366516,40.60745239257812,98.00205993652344,-4.796600341796875
215656,-0.188873291015625,4.154891967773438,1.6158447265625,-2.754382610321045,2.372437953948975,-1.109500050544739,39.63154602050781,98.02349853515624,-4.939193725585938
215657,-0.6295166015625,8.0428466796875,2.034957885742188,-2.29852819442749,1.446776628494263,1.828803300857544,38.69529724121094,98.02635192871094,-5.6163330078125
215658,-0.6295166015625,8.0428466796875,2.034957885742188,-2.29852819442749,1.446776628494263,1.828803300857544,38.69529724121094,98.02635192871094,-5.6163330078125
215659,-1.345382690429688,7.273712158203125,1.2584228515625,-0.8689934611320496,1.905804395675659,-0.7007077932357788,39.27496337890625,97.81658935546876,-7.469985961914062
215660,-0.116851806640625,3.846710205078125,-0.1824798583984375,-1.102580070495605,0.4311521947383881,-1.140374898910522,40.13525390625,97.74911499023438,-7.011016845703125
215661,0.4435577392578125,1.485687255859375,-1.753128051757812,-2.112463474273682,-1.042315125465393,-0.2836101353168488,39.86824035644531,97.68397521972656,-6.057281494140625
215662,0.4435577392578125,1.485687255859375,-1.753128051757812,-2.112463474273682,-1.042315125465393,-0.2836101353168488,39.86824035644531,97.68397521972656,-6.057281494140625
215663,1.223434448242188,0.5473785400390625,-0.5258026123046875,1.371755599975586,-2.176730871200562,1.91625964641571,38.53950500488281,97.3415069580078,-3.766387939453125
215664,0.8717193603515625,0.8440704345703125,0.05975341796875,3.06437873840332,-0.3162359893321991,2.413739204406738,38.62088012695312,97.24627685546876,-2.339996337890625
215665,0.7300567626953125,0.9620361328125,-0.1921234130859375,2.338725566864014,-0.7470489144325256,1.911231160163879,39.33370971679688,97.30409240722656,-1.768890380859375
215666,0.7300567626953125,0.9620361328125,-0.1921234130859375,2.338725566864014,-0.7470489144325256,1.911231160163879,39.33370971679688,97.30409240722656,-1.768890380859375
215667,0.4695587158203125,0.92572021484375,-0.2387847900390625,1.353854656219482,-1.271158456802368,1.123228907585144,41.64234924316406,97.82975769042967,-3.111053466796875
215668,0.37969970703125,0.6595458984375,0.0373382568359375,0.7346705198287964,-1.117390990257263,0.5412707328796387,42.656982421875,98.21542358398438,-4.09564208984375
215669,0.317138671875,0.39813232421875,-0.1029510498046875,0.9495226740837096,-1.048985838890076,0.4344270825386047,43.38566589355469,98.43132019042967,-4.630279541015625
215670,0.317138671875,0.39813232421875,-0.1029510498046875,0.9495226740837096,-1.048985838890076,0.4344270825386047,43.38566589355469,98.43132019042967,-4.630279541015625
215671,0.094482421875,0.2624359130859375,-0.5274658203125,1.521818161010742,-1.528027772903442,0.3892817199230194,44.05839538574219,98.78369140625,-5.169143676757812
215672,-0.020416259765625,0.2908172607421875,-0.21734619140625,1.85974657535553,-1.446149945259094,0.1652139872312546,44.20848083496094,98.90794372558594,-5.429031372070312
215673,-0.097259521484375,0.17486572265625,0.0021209716796875,1.660359978675842,-0.5163568258285522,-0.0757365748286247,44.55390930175781,99.04949951171876,-6.07904052734375
215674,-0.10845947265625,0.019287109375,-0.117156982421875,1.032536029815674,0.5914971232414246,-0.1728796362876892,44.63442993164062,99.2804718017578,-6.868545532226562
215675,-0.0668792724609375,-0.0494232177734375,-0.374755859375,0.6159178018569946,0.5783592462539673,-0.1869376599788666,44.66001892089844,99.4835205078125,-7.541412353515625
215676,-0.0668792724609375,-0.0494232177734375,-0.374755859375,0.6159178018569946,0.5783592462539673,-0.1869376599788666,44.66001892089844,99.4835205078125,-7.541412353515625
215677,-0.0419769287109375,-0.105224609375,-0.3230133056640625,0.3998219668865204,0.1298645287752151,-0.1964576691389084,44.59819030761719,99.56072998046876,-8.13104248046875
215678,-0.017425537109375,-0.162506103515625,-0.1941680908203125,0.248097687959671,-0.1425741910934448,-0.1951340734958649,44.53315734863281,99.53057861328124,-8.5596923828125
215679,0.0424041748046875,-0.231475830078125,-0.1311798095703125,0.2736914753913879,-0.3626959025859833,-0.1359676867723465,44.48739624023438,99.67245483398438,-8.832473754882812
215680,0.0671844482421875,-0.222137451171875,-0.091705322265625,0.437022864818573,-0.3071871101856232,-0.1064159199595451,44.48464965820312,99.70994567871094,-8.907180786132812
215681,0.0810394287109375,-0.195953369140625,-0.0444488525390625,0.7638864517211914,0.0543766878545284,-0.1311859786510468,44.47308349609375,99.80125427246094,-8.998626708984375
215682,0.0810394287109375,-0.195953369140625,-0.0444488525390625,0.7638864517211914,0.0543766878545284,-0.1311859786510468,44.47308349609375,99.80125427246094,-8.998626708984375
215683,0.091766357421875,-0.170379638671875,0.0704803466796875,0.8225732445716858,0.3244816660881042,-0.1739406436681747,44.51470947265625,99.59632873535156,-9.090164184570312
215684,0.098541259765625,-0.1718902587890625,0.0800933837890625,0.7992689609527588,0.5664162635803223,-0.2131474316120148,44.54924011230469,99.71873474121094,-9.274566650390623
215685,0.10638427734375,-0.1750030517578125,0.0923614501953125,0.6536156535148621,0.8585381507873535,-0.2472374886274338,44.4127197265625,99.8405303955078,-9.384033203125
215686,0.10638427734375,-0.1750030517578125,0.0923614501953125,0.6536156535148621,0.8585381507873535,-0.2472374886274338,44.4127197265625,99.8405303955078,-9.384033203125
215687,0.1312713623046875,-0.1903076171875,-0.0950164794921875,0.2313924729824066,0.8900939226150513,-0.2994463741779327,44.37127685546875,99.625732421875,-9.677490234375
215688,0.1312713623046875,-0.1903076171875,-0.0950164794921875,0.2313924729824066,0.8900939226150513,-0.2994463741779327,44.37127685546875,99.625732421875,-9.677490234375
215689,0.23822021484375,-0.0599365234375,-0.119873046875,-0.7404205799102783,-0.6301183104515076,-0.606929361820221,44.06427001953125,99.13063049316406,-9.71929931640625
215690,0.23822021484375,-0.0599365234375,-0.119873046875,-0.7404205799102783,-0.6301183104515076,-0.606929361820221,44.06427001953125,99.13063049316406,-9.71929931640625
215691,0.1667938232421875,0.26458740234375,0.00079345703125,-0.7404205799102783,-0.6301183104515076,-0.606929361820221,43.89633178710938,98.98782348632812,-9.572219848632812
215692,0.0588836669921875,0.3587188720703125,0.295928955078125,-0.8703343272209167,-0.3197676241397858,-0.8503395915031433,43.84619140625,98.86752319335938,-9.384674072265623
215693,0.026458740234375,0.34912109375,0.642913818359375,-1.046314716339111,0.5194106698036194,-1.101412296295166,43.52867126464844,98.80117797851562,-8.992568969726562
215694,0.026458740234375,0.34912109375,0.642913818359375,-1.046314716339111,0.5194106698036194,-1.101412296295166,43.52867126464844,98.80117797851562,-8.992568969726562
215695,0.0159759521484375,0.82135009765625,1.100723266601562,-1.997923374176025,2.918268442153931,-1.801749587059021,42.70751953125,98.73069763183594,-7.995086669921875
215696,-0.0874481201171875,1.548751831054688,1.196670532226562,-2.710912942886353,3.626347541809082,-2.390314817428589,42.08575439453125,98.77432250976562,-7.4892578125
215697,-0.0987091064453125,5.040115356445312,1.281448364257812,-2.485116004943848,4.312748908996582,-3.741490125656128,41.07574462890625,98.83978271484376,-7.1661376953125
215698,-0.287933349609375,7.7286376953125,0.8602447509765625,-1.490758419036865,2.742100715637207,-2.632709264755249,39.859619140625,98.84431457519533,-7.34039306640625
215699,-1.478530883789062,8.012832641601562,0.9394378662109376,-0.1814121305942535,-0.2161448150873184,-1.15216338634491,38.28266906738281,98.98104858398438,-8.068618774414062
215700,-1.478530883789062,8.012832641601562,0.9394378662109376,-0.1814121305942535,-0.2161448150873184,-1.15216338634491,38.28266906738281,98.98104858398438,-8.068618774414062
215701,-0.5439910888671875,3.079025268554688,0.054473876953125,1.084756851196289,-3.009023666381836,-1.804626703262329,36.33438110351562,98.97055053710938,-9.082183837890623
215702,-0.183135986328125,1.492996215820312,-0.1566619873046875,0.3429965078830719,-4.350629806518555,-1.541896462440491,35.93704223632812,98.72492980957033,-9.223159790039062
215703,-0.273193359375,0.715850830078125,-0.2496795654296875,-0.8617568612098694,-4.2659592628479,-1.146528959274292,35.3597412109375,98.33489990234376,-9.032623291015623
215704,0.005126953125,0.8578338623046875,-0.490509033203125,-1.671986103057861,-3.203662872314453,-0.5868560671806335,34.79118347167969,97.7261199951172,-8.349472045898438
215705,0.578277587890625,1.286163330078125,-0.8729400634765625,0.9126352071762084,-2.445387363433838,0.3095232248306274,34.25709533691406,97.18836975097656,-7.418426513671875
215706,0.578277587890625,1.286163330078125,-0.8729400634765625,0.9126352071762084,-2.445387363433838,0.3095232248306274,34.25709533691406,97.18836975097656,-7.418426513671875
215707,0.597320556640625,1.426498413085938,-0.273773193359375,2.554454326629639,-1.032446026802063,0.5887306332588196,33.89859008789062,96.47921752929688,-4.956039428710938
215708,0.4530487060546875,1.332427978515625,-0.2111968994140625,2.826379537582397,-0.0500503852963447,0.6279504895210266,34.11387634277344,96.33157348632812,-4.277923583984375
215709,0.3976287841796875,1.144760131835938,-0.31414794921875,2.214162826538086,-0.0653521120548248,0.6492339372634888,34.88298034667969,96.70726013183594,-5.490692138671875
215710,0.3074798583984375,0.8811492919921875,-0.1976776123046875,1.474898338317871,-0.2891663014888763,0.6324037909507751,35.30662536621094,96.9041748046875,-6.503189086914062
215711,0.232635498046875,0.6016845703125,-0.1588592529296875,1.102059483528137,-0.3468492925167084,0.6314325332641602,35.7520751953125,97.14108276367188,-7.136322021484375
215712,0.1938629150390625,0.3599395751953125,-0.273193359375,1.078797221183777,-0.504268229007721,0.6579845547676086,36.08116149902344,97.3012237548828,-7.635452270507812
215713,0.1538848876953125,0.159515380859375,-0.32403564453125,1.243576407432556,-0.7947538495063782,0.7029767632484436,36.46424865722656,97.41877746582033,-8.059539794921875
215714,0.1538848876953125,0.159515380859375,-0.32403564453125,1.243576407432556,-0.7947538495063782,0.7029767632484436,36.46424865722656,97.41877746582033,-8.059539794921875
215715,0.05584716796875,-0.1103668212890625,-0.0670166015625,1.40333092212677,-0.5680426955223083,0.5920090079307556,36.98869323730469,97.7869873046875,-8.772796630859375
215716,0.0157623291015625,-0.222076416015625,-0.0380096435546875,1.254083633422852,-0.1118572950363159,0.5144808888435364,37.40304565429688,97.9685516357422,-9.209442138671877
215717,-0.0147552490234375,-0.2660675048828125,-0.0705718994140625,1.026881337165833,0.3299456834793091,0.4523986279964447,37.69265747070312,97.9600830078125,-9.606842041015623
215718,-0.0147552490234375,-0.2660675048828125,-0.0705718994140625,1.026881337165833,0.3299456834793091,0.4523986279964447,37.69265747070312,97.9600830078125,-9.606842041015623
215719,-0.04254150390625,-0.2827606201171875,-0.2192230224609375,0.6017534732818604,0.9337016344070436,0.3452572524547577,38.06527709960938,98.17706298828124,-10.44744873046875
215720,-0.0645294189453125,-0.334503173828125,-0.345611572265625,0.3349857032299042,0.9127899408340454,0.2086645215749741,38.27226257324219,98.47610473632812,-10.76811218261719
215721,-0.09173583984375,-0.3984222412109375,-0.4829864501953125,0.2897678911685944,0.7033663988113403,0.1474653482437134,38.48933410644531,98.57858276367188,-11.02409362792969
215722,-0.1168670654296875,-0.4449005126953125,-0.53851318359375,0.2897678911685944,0.7033663988113403,0.1474653482437134,38.63630676269531,98.78733825683594,-11.12046813964844
215723,-0.127838134765625,-0.45074462890625,-0.4901580810546875,0.2790486812591553,0.5159608125686646,0.0827468112111091,38.83584594726562,98.92221069335938,-11.16755676269531
215724,-0.1168212890625,-0.424560546875,-0.384063720703125,0.2515291571617126,0.3204163610935211,0.0025355955585837,39.08160400390625,99.11595153808594,-11.08808898925781
215725,-0.08740234375,-0.3818817138671875,-0.2439727783203125,0.1998966038227081,0.1446685045957565,-0.0693180859088897,39.46099853515625,99.19227600097656,-11.04574584960938
215726,-0.058441162109375,-0.3454742431640625,-0.0966339111328125,0.1219911500811577,0.0797310471534729,-0.1239911839365959,39.71635437011719,99.14578247070312,-10.81748962402344
215727,-0.0367584228515625,-0.31475830078125,0.01788330078125,0.0126723852008581,0.1781692057847977,-0.1637817472219467,40.04594421386719,99.05044555664062,-10.40829467773438
215728,-0.0367584228515625,-0.31475830078125,0.01788330078125,0.0126723852008581,0.1781692057847977,-0.1637817472219467,40.04594421386719,99.05044555664062,-10.40829467773438
215729,0.015167236328125,-0.2779388427734375,0.0912933349609375,-0.327081173658371,0.5533007383346558,-0.2303043156862259,40.62052917480469,98.50021362304688,-9.6541748046875
215730,0.0373687744140625,-0.2630462646484375,0.04296875,-0.5348881483078003,0.6304242610931396,-0.2702511847019196,40.76643371582031,98.04364013671876,-9.2569580078125
215731,0.0612945556640625,-0.206817626953125,-0.0301971435546875,-0.7235987186431885,0.5538935661315918,-0.2917096018791199,40.75152587890625,97.67547607421876,-8.923126220703125
215732,0.017547607421875,-0.0133514404296875,-0.095672607421875,-0.8948399424552917,0.3284798860549927,-0.2838032245635986,40.58064270019531,97.4084014892578,-8.607696533203125
215733,-0.060394287109375,0.1261749267578125,-0.1172637939453125,-1.022008538246155,0.1210867464542389,-0.2805584371089935,40.343994140625,97.2751007080078,-8.271453857421875
215734,-0.089141845703125,0.2212982177734375,-0.159454345703125,-1.106402277946472,-0.0481353029608726,-0.3051503300666809,40.19636535644531,97.56280517578124,-8.032928466796875
215735,-0.1139068603515625,0.306549072265625,-0.16168212890625,-1.164326071739197,-0.0916953012347221,-0.3461486101150513,39.94306945800781,97.69534301757812,-7.579483032226562
215736,-0.1303558349609375,0.3430938720703125,0.055450439453125,-1.267031908035278,0.2899652421474457,-0.3946125507354736,39.60211181640625,97.99993896484376,-7.203811645507812
215737,-0.1298065185546875,0.3125152587890625,0.4456024169921875,-1.786940574645996,1.890060305595398,-0.4938770830631256,39.18121337890625,98.36383056640624,-6.97076416015625
215738,-0.117645263671875,0.355316162109375,0.70355224609375,-1.786940574645996,1.890060305595398,-0.4938770830631256,38.49171447753906,98.56890869140624,-6.822647094726562
215739,-0.255218505859375,0.922821044921875,0.98760986328125,-2.067809581756592,2.136590003967285,-0.6813583374023438,37.69923400878906,98.6707000732422,-6.809310913085938
215740,-0.255218505859375,0.922821044921875,0.98760986328125,-2.067809581756592,2.136590003967285,-0.6813583374023438,37.69923400878906,98.6707000732422,-6.809310913085938
215741,-0.981048583984375,7.966232299804688,1.741348266601562,-1.048795461654663,2.874681949615479,1.876193761825562,36.71614074707031,98.60295104980467,-8.651153564453125
215742,-1.525970458984375,8.060577392578125,1.860000610351562,-0.3871580958366394,2.537726879119873,2.448937177658081,37.00335693359375,98.9955596923828,-10.21107482910156
215743,-1.342605590820312,7.085784912109375,1.131881713867188,0.1397714763879776,1.836774468421936,-0.3909879922866821,37.87362670898438,99.34881591796876,-10.91921997070312
215744,-0.4769287109375,3.714950561523438,0.246826171875,-0.3946075141429901,-0.1894295811653137,-1.15830409526825,38.42408752441406,99.38661193847656,-10.892822265625
215745,-0.23193359375,1.771469116210938,0.423828125,-1.089243292808533,-0.3951864838600159,-1.139373779296875,38.12065124511719,99.24288940429688,-10.55859375
215746,0.11767578125,1.083877563476562,-0.5009918212890625,-2.027344226837158,0.8201830387115479,-0.8106297254562378,37.34089660644531,98.96998596191406,-9.864242553710938
215747,0.542083740234375,0.9926300048828124,-1.665740966796875,-2.557398080825806,-1.444911360740662,-0.2632473409175873,36.65092468261719,98.50677490234376,-8.98663330078125
215748,0.688018798828125,1.1492919921875,-0.9113006591796876,-1.557879686355591,-2.902972936630249,0.3358195424079895,36.20794677734375,98.01383972167967,-7.784561157226562
215749,0.816680908203125,1.304458618164062,-0.217926025390625,1.439241170883179,-1.114046335220337,1.834545373916626,36.12844848632812,97.57012939453124,-5.346145629882812
215750,0.816680908203125,1.304458618164062,-0.217926025390625,1.439241170883179,-1.114046335220337,1.834545373916626,36.12844848632812,97.57012939453124,-5.346145629882812
215751,0.50518798828125,1.41473388671875,-0.35076904296875,1.792057275772095,-0.3583222031593323,1.764605164527893,36.72128295898438,97.7581787109375,-5.069732666015625
215752,0.4247283935546875,1.2159423828125,-0.3927154541015625,1.48563826084137,-0.0813127011060714,1.397106766700745,37.53617858886719,97.9634246826172,-5.24810791015625
215753,0.362091064453125,0.913818359375,-0.3423309326171875,0.93710458278656,-0.0352669097483158,1.147550225257874,38.44050598144531,98.11585998535156,-5.874603271484375
215754,0.24017333984375,0.6746978759765625,-0.244476318359375,0.4937639236450195,-0.0887080281972885,1.000373601913452,39.18812561035156,98.19342041015624,-6.352813720703125
215755,0.151336669921875,0.491302490234375,-0.1862335205078125,0.2511347532272339,-0.1265912353992462,0.8924993276596069,39.9412841796875,98.208740234375,-6.53143310546875
215756,0.151336669921875,0.491302490234375,-0.1862335205078125,0.2511347532272339,-0.1265912353992462,0.8924993276596069,39.9412841796875,98.208740234375,-6.53143310546875
215757,0.080078125,0.3336029052734375,-0.2266998291015625,0.1746194809675217,-0.1484544575214386,0.7971190214157104,40.43205261230469,98.3845672607422,-6.76727294921875
215758,-0.0847930908203125,0.0785369873046875,-0.3545684814453125,0.1878537833690643,-0.4425281584262848,0.4825144410133362,41.20291137695312,98.6189422607422,-6.67840576171875
215759,-0.136810302734375,-0.028900146484375,-0.32379150390625,0.2523110806941986,-0.5533550977706909,0.2623056471347809,41.52865600585938,98.693359375,-6.543182373046875
215760,-0.17608642578125,-0.1198272705078125,-0.2760467529296875,0.3358435332775116,-0.4248008131980896,0.0574278719723224,41.75888061523438,98.87916564941406,-6.593414306640625
215761,-0.213348388671875,-0.2006072998046875,-0.3021392822265625,0.4183871448040009,-0.0596404261887073,-0.1292368173599243,41.79820251464844,98.98094177246094,-6.69036865234375
215762,-0.213348388671875,-0.2006072998046875,-0.3021392822265625,0.4183871448040009,-0.0596404261887073,-0.1292368173599243,41.79820251464844,98.98094177246094,-6.69036865234375
215763,-0.2787933349609375,-0.305633544921875,-0.524627685546875,0.6744908094406128,0.2080290913581848,-0.4632251858711243,41.88529968261719,99.08926391601562,-7.103851318359375
215764,-0.1918792724609375,-0.3261871337890625,-0.5294342041015625,0.8521282076835632,-0.065009094774723,-0.5415516495704651,41.77824401855469,99.0262451171875,-7.467300415039062
215765,-0.0468292236328125,-0.3007354736328125,-0.4290771484375,0.9364417195320128,-0.4887188076972961,-0.546116054058075,41.69300842285156,98.94754028320312,-7.814682006835938
215766,0.035400390625,-0.271636962890625,-0.287078857421875,0.931129515171051,-0.760395884513855,-0.5275338292121887,41.56953430175781,99.04588317871094,-8.19635009765625
215767,0.073089599609375,-0.2466583251953125,-0.1652679443359375,0.8697159886360168,-0.7252048850059509,-0.5290082097053528,41.29690551757812,99.1161651611328,-8.648086547851562
215768,0.09796142578125,-0.22802734375,-0.117828369140625,0.7608302235603333,-0.5176090598106384,-0.5469791889190674,41.02169799804688,99.35311889648438,-9.1585693359375
215769,0.115142822265625,-0.2075958251953125,-0.1302642822265625,0.4839533567428589,-0.3387575447559357,-0.5898643732070923,40.66984558105469,99.6319580078125,-9.524185180664062
215770,0.115142822265625,-0.2075958251953125,-0.1302642822265625,0.4839533567428589,-0.3387575447559357,-0.5898643732070923,40.66984558105469,99.6319580078125,-9.524185180664062
215771,0.128082275390625,-0.1588592529296875,-0.1266632080078125,0.3565315008163452,-0.4147609770298004,-0.6063703298568726,40.16973876953125,100.011474609375,-9.95147705078125
215772,0.1251678466796875,-0.12786865234375,-0.0569915771484375,0.2471908777952194,-0.4716831147670746,-0.6229690313339233,39.81221008300781,99.97784423828124,-9.916015625
215773,0.1245269775390625,-0.0971527099609375,0.0299530029296875,0.1404484510421753,-0.4214902520179749,-0.6397243142127991,39.59881591796875,99.85488891601562,-9.770416259765623
215774,0.1285400390625,-0.045196533203125,0.07568359375,0.007040066178888,-0.2927855253219604,-0.6528962850570679,39.33372497558594,99.77244567871094,-9.60528564453125
215775,0.12799072265625,0.01898193359375,0.046844482421875,-0.1467074155807495,-0.2117016017436981,-0.6728364825248718,39.17599487304688,99.53250122070312,-9.55194091796875
215776,0.12799072265625,0.01898193359375,0.046844482421875,-0.1467074155807495,-0.2117016017436981,-0.6728364825248718,39.17599487304688,99.53250122070312,-9.55194091796875
215777,0.113739013671875,0.1309661865234375,-0.0837554931640625,-0.3870521187782288,-0.529066264629364,-0.741722583770752,38.55560302734375,99.38493347167967,-9.198501586914062
215778,0.113739013671875,0.1309661865234375,-0.0837554931640625,-0.3870521187782288,-0.529066264629364,-0.741722583770752,38.55560302734375,99.38493347167967,-9.198501586914062
215779,0.0658111572265625,0.1750030517578125,0.350860595703125,-1.005844235420227,0.3603794872760773,-1.02692711353302,37.69467163085938,99.0557861328125,-8.835556030273438
215780,0.077545166015625,0.3587799072265625,0.59991455078125,-1.005844235420227,0.3603794872760773,-1.02692711353302,37.18698120117188,98.91072082519533,-8.671051025390625
215781,0.07110595703125,0.935577392578125,0.7821807861328125,-1.465566277503967,1.10301148891449,-1.215716004371643,36.63111877441406,98.85556030273438,-8.694961547851562
215782,0.0300140380859375,3.22021484375,1.153533935546875,-1.90846061706543,2.054555177688599,-1.600918292999268,35.93614196777344,98.65330505371094,-8.6138916015625
215783,-0.371490478515625,4.915435791015625,1.497634887695312,-1.778976202011108,2.930098056793213,-1.776239514350891,35.35313415527344,98.32635498046876,-8.206939697265625
215784,-0.9902191162109376,5.994354248046875,1.372344970703125,-0.9705626964569092,2.878768920898438,-2.246789932250977,34.67550659179688,97.85733032226562,-8.011764526367188
215785,-1.268600463867188,6.396942138671875,1.159759521484375,0.3575099408626556,1.520801067352295,-1.940182328224182,33.9703369140625,97.55160522460938,-8.215347290039062
215786,-1.268600463867188,6.396942138671875,1.159759521484375,0.3575099408626556,1.520801067352295,-1.940182328224182,33.9703369140625,97.55160522460938,-8.215347290039062
215787,-0.6709442138671875,2.968643188476562,0.6342620849609375,1.197193741798401,-1.101393461227417,-0.3755904138088226,32.5535888671875,97.25157165527344,-9.3819580078125
215788,-0.5447540283203125,2.12628173828125,0.5669097900390625,0.7097774147987366,-1.95401132106781,-0.1865006387233734,31.94644165039062,97.3389129638672,-9.913909912109377
215789,-0.5232391357421875,1.669143676757812,0.488067626953125,-0.4572202861309052,-2.942635536193848,-0.7103566527366638,31.64385986328125,97.31210327148438,-10.058349609375
215790,-0.5232391357421875,1.669143676757812,0.488067626953125,-0.4572202861309052,-2.942635536193848,-0.7103566527366638,31.64385986328125,97.31210327148438,-10.058349609375
215791,-0.31719970703125,1.825241088867188,0.203704833984375,-1.616266012191772,-4.214622497558594,-0.7384492754936218,31.70469665527344,96.65293884277344,-9.336349487304688
215792,-0.31719970703125,1.825241088867188,0.203704833984375,-1.616266012191772,-4.214622497558594,-0.7384492754936218,31.70469665527344,96.65293884277344,-9.336349487304688
215793,-0.0581207275390625,2.298416137695312,-0.712554931640625,-1.616266012191772,-4.214622497558594,-0.7384492754936218,31.73985290527344,95.9759521484375,-8.413543701171875
215794,0.4886016845703125,2.16912841796875,-1.944793701171875,-1.79506242275238,-6.913961410522461,-0.5463823676109314,31.6031494140625,95.59742736816406,-7.258438110351562
215795,0.3291778564453125,1.135101318359375,0.0735321044921875,1.425684928894043,-0.5708379149436951,0.4755931496620178,31.08004760742188,95.53598022460938,-3.715255737304688
215796,0.2512359619140625,0.8577423095703125,-0.386505126953125,2.563226699829102,1.323882699012756,0.6120128035545349,31.328369140625,95.8933563232422,-2.396881103515625
215797,0.1965484619140625,0.5027008056640625,-0.4034423828125,2.107630252838135,0.4618405997753143,0.914680242538452,32.14604187011719,96.0480499267578,-3.564300537109375
215798,0.1965484619140625,0.5027008056640625,-0.4034423828125,2.107630252838135,0.4618405997753143,0.914680242538452,32.14604187011719,96.0480499267578,-3.564300537109375
215799,0.177734375,0.345947265625,-0.2413177490234375,1.41037392616272,-0.1660978943109512,0.9732021689414978,32.76272583007812,96.3552703857422,-4.82000732421875
215800,0.1336822509765625,0.221466064453125,-0.1070098876953125,0.8729157447814941,-0.4511842131614685,0.9311894774436952,33.2659912109375,96.50091552734376,-5.597122192382812
215801,0.10589599609375,0.0944976806640625,-0.099395751953125,0.5923216342926025,-0.5578387379646301,0.8010264039039612,33.81024169921875,96.61286926269533,-6.074234008789062
215802,0.10589599609375,0.0944976806640625,-0.099395751953125,0.5923216342926025,-0.5578387379646301,0.8010264039039612,33.81024169921875,96.61286926269533,-6.074234008789062
215803,0.10076904296875,-0.1776123046875,-0.1942291259765625,0.7029134035110474,-0.843403160572052,0.6508515477180481,34.65336608886719,96.93841552734376,-6.291915893554688
215804,0.0767822265625,-0.23675537109375,-0.115447998046875,0.8420747518539429,-0.6556742787361145,0.639726459980011,35.05892944335938,97.02847290039062,-6.290695190429688
215805,0.0489501953125,-0.2817230224609375,-0.066253662109375,0.7972473502159119,0.2101705521345139,0.6071493029594421,35.34523010253906,97.36488342285156,-6.406524658203125
215806,0.0489501953125,-0.2817230224609375,-0.066253662109375,0.7972473502159119,0.2101705521345139,0.6071493029594421,35.34523010253906,97.36488342285156,-6.406524658203125
215807,0.03619384765625,-0.3242034912109375,-0.4464874267578125,0.4777199625968933,1.370050430297852,0.559934675693512,35.932373046875,97.65260314941406,-6.52008056640625
215808,0.0290679931640625,-0.3144683837890625,-0.486328125,0.3768271803855896,0.9924312233924866,0.5943318009376526,36.24461364746094,97.65362548828124,-6.77105712890625
