time_idx,accelerometerAccelerationX(G),accelerometerAccelerationY(G),accelerometerAccelerationZ(G),gyroRotationX(rad/s),gyroRotationY(rad/s),gyroRotationZ(rad/s),magnetometerX(µT),magnetometerY(µT),magnetometerZ(µT)
192149,0.38653564453125,1.02777099609375,-0.091400146484375,0.0577642284333705,-0.4139646887779236,0.541100800037384,59.16192626953125,99.64794921875,-27.5992431640625
192150,0.38653564453125,1.02777099609375,-0.091400146484375,0.0577642284333705,-0.4139646887779236,0.541100800037384,59.16192626953125,99.64794921875,-27.5992431640625
192151,0.448516845703125,1.280914306640625,-0.0250244140625,0.0902598574757576,0.4958752691745758,1.009329199790955,59.25152587890625,99.6076202392578,-27.33345031738281
192152,0.5155181884765625,1.655410766601562,0.17315673828125,0.0902598574757576,0.4958752691745758,1.009329199790955,59.44287109375,99.58604431152344,-27.10017395019531
192153,0.5508575439453125,2.260650634765625,0.367645263671875,-0.0749509409070015,1.252221584320068,1.256599187850952,59.70376586914062,99.52587890625,-27.09367370605469
192154,0.548858642578125,3.182479858398438,0.4953460693359375,-0.1755182892084122,2.726941823959351,1.146394491195679,60.045654296875,99.4228057861328,-26.86988830566406
192155,0.3343963623046875,4.398193359375,0.7882537841796875,-0.1755182892084122,2.726941823959351,1.146394491195679,60.4769287109375,99.40650939941406,-26.68035888671875
192156,-0.6168975830078125,7.34930419921875,0.99273681640625,0.5591647624969482,4.5419020652771,-0.6620194911956787,61.6138916015625,99.79541015625,-26.19416809082031
192157,-1.024093627929688,7.48419189453125,0.4150238037109375,0.7755606770515442,3.588316679000854,-1.720093131065369,62.12905883789062,99.95877075195312,-25.80075073242188
192158,-1.024093627929688,7.48419189453125,0.4150238037109375,0.7755606770515442,3.588316679000854,-1.720093131065369,62.12905883789062,99.95877075195312,-25.80075073242188
192159,-1.093307495117188,5.503219604492188,-0.4654541015625,1.331362724304199,1.616373658180237,-1.686327695846558,62.63600158691406,100.0434417724609,-25.58573913574219
192160,-0.8704986572265625,3.110397338867188,-0.335540771484375,1.691770672798157,1.053165197372437,-0.2362399697303772,62.74034118652344,100.1923980712891,-26.07980346679688
192161,-0.2071685791015625,2.048599243164062,-0.01959228515625,2.060121059417725,1.304275631904602,1.094396710395813,62.59762573242188,100.2047424316406,-26.95298767089844
192162,-0.14361572265625,1.420150756835938,0.0276031494140625,2.44047999382019,1.269056439399719,1.618595004081726,62.42561340332031,100.1595458984375,-27.91015625
192163,-0.4320220947265625,0.7553558349609375,0.463134765625,2.349085092544556,0.6929031014442444,1.31084406375885,64.46206665039062,98.32659912109376,-30.2943115234375
192164,-0.5143890380859375,0.6093597412109375,0.772369384765625,2.108571290969849,1.199063539505005,0.9820933938026428,65.28935241699219,97.55905151367188,-31.24760437011719
192165,-0.5379791259765625,0.4358978271484375,0.6165618896484375,1.811395049095154,1.63153338432312,0.7956516146659851,66.03570556640625,96.80616760253906,-32.09494018554688
192166,-0.5379791259765625,0.4358978271484375,0.6165618896484375,1.811395049095154,1.63153338432312,0.7956516146659851,66.03570556640625,96.80616760253906,-32.09494018554688
192167,-0.4950714111328125,0.25531005859375,0.083251953125,1.487375140190125,1.271726012229919,0.6842033863067627,66.69581604003906,96.14210510253906,-32.82991027832031
192168,-0.3696441650390625,0.01983642578125,-0.0266571044921875,1.116407752037048,-0.5022125244140625,0.4358156621456146,67.73609924316406,95.1774444580078,-33.957275390625
192169,-0.2875213623046875,-0.06768798828125,0.2652435302734375,1.170015335083008,-0.310793548822403,0.3597294092178345,67.81153869628906,94.84782409667967,-34.64105224609375
192170,-0.2875213623046875,-0.06768798828125,0.2652435302734375,1.170015335083008,-0.310793548822403,0.3597294092178345,67.81153869628906,94.84782409667967,-34.64105224609375
192171,-0.1868438720703125,-0.1262359619140625,0.3639678955078125,1.172630071640015,0.3314213454723358,0.2843081653118134,67.71275329589844,94.68057250976562,-35.36619567871094
192172,-0.005218505859375,-0.182891845703125,0.2987060546875,0.9065197706222534,1.625401735305786,0.1139271035790443,67.92649841308594,94.2129364013672,-36.14300537109375
192173,0.037109375,-0.1671905517578125,0.25262451171875,0.7568775415420532,1.998171091079712,0.0211204644292593,68.18708801269531,93.94973754882812,-36.1563720703125
192174,0.037109375,-0.1671905517578125,0.25262451171875,0.7568775415420532,1.998171091079712,0.0211204644292593,68.18708801269531,93.94973754882812,-36.1563720703125
192175,0.0918121337890625,-0.10015869140625,0.123077392578125,0.474042683839798,2.405828952789307,-0.2008329778909683,68.92314147949219,93.77450561523438,-36.14076232910156
192176,0.12347412109375,-0.06817626953125,-0.09881591796875,0.4006422162055969,2.132277250289917,-0.2920880615711212,69.42013549804688,93.7167510986328,-35.97019958496094
192177,0.141937255859375,-0.02801513671875,-0.2637176513671875,0.3724782168865204,1.43571412563324,-0.3739104866981506,69.75300598144531,93.90495300292967,-35.66046142578125
192178,0.133026123046875,0.00640869140625,-0.241668701171875,0.3300000131130219,0.6545802354812622,-0.4424695670604706,69.9254150390625,93.96994018554688,-35.3062744140625
192179,0.1163482666015625,0.032989501953125,-0.09796142578125,0.2067611664533615,0.0794178619980812,-0.4933708310127258,70.07679748535156,93.9046630859375,-35.14973449707031
192180,0.0931854248046875,0.0585784912109375,0.060760498046875,-0.011763715185225,-0.2171309888362885,-0.523911714553833,70.00888061523438,93.91392517089844,-35.04713439941406
192181,0.069366455078125,0.0845184326171875,0.154632568359375,-0.316132128238678,-0.3596979975700378,-0.5521068572998047,69.79002380371094,93.97938537597656,-35.03640747070312
192182,0.0588531494140625,0.141571044921875,0.1922149658203125,-0.6564944982528687,-0.4521269798278809,-0.5932369828224182,69.45571899414062,94.04257202148438,-35.04312133789062
192183,0.0672454833984375,0.3171844482421875,0.233612060546875,-0.9622778296470642,-0.4277534782886505,-0.6612216234207153,69.18394470214844,94.1417999267578,-35.06259155273438
192184,0.060516357421875,0.524566650390625,0.25927734375,-1.208573341369629,-0.2785924673080444,-0.7798404097557068,68.79670715332031,94.3464813232422,-34.92092895507812
192185,0.0513153076171875,0.6844635009765625,0.26080322265625,-1.364839434623718,-0.1145580038428307,-0.9209048748016356,68.43412780761719,94.77706909179688,-34.58427429199219
192186,0.0513153076171875,0.6844635009765625,0.26080322265625,-1.364839434623718,-0.1145580038428307,-0.9209048748016356,68.43412780761719,94.77706909179688,-34.58427429199219
192187,-0.05908203125,0.8385162353515625,0.19024658203125,-1.252585887908936,-0.3731834292411804,-1.150645613670349,67.57769775390625,95.58726501464844,-33.37995910644531
192188,-0.05908203125,0.8385162353515625,0.19024658203125,-1.252585887908936,-0.3731834292411804,-1.150645613670349,67.57769775390625,95.58726501464844,-33.37995910644531
192189,-0.199554443359375,0.72393798828125,0.1562957763671875,-0.8961049914360046,-1.406495809555054,-1.480489611625671,66.68206787109375,96.323974609375,-32.28923034667969
192190,-0.2176055908203125,0.6506195068359375,0.1991119384765625,-0.9199005961418152,-1.917013168334961,-1.670048594474792,66.04942321777344,96.75067138671876,-32.07356262207031
192191,-0.2234039306640625,0.5319671630859375,0.3104248046875,-1.335797667503357,-2.119959354400635,-1.991451978683472,63.98869323730469,97.58642578125,-31.65447998046875
192192,-0.2199554443359375,0.441650390625,0.297821044921875,-1.514158844947815,-1.907548189163208,-1.989805340766907,62.8585205078125,97.9923095703125,-31.45587158203125
192193,-0.494842529296875,0.22271728515625,0.32562255859375,-1.630464673042297,-0.5980415940284729,-1.253560781478882,60.49720764160156,99.05120849609376,-31.037109375
192194,-0.494842529296875,0.22271728515625,0.32562255859375,-1.630464673042297,-0.5980415940284729,-1.253560781478882,60.49720764160156,99.05120849609376,-31.037109375
192195,-0.491973876953125,0.17529296875,0.104248046875,-1.671780228614807,0.3224771022796631,-0.4133646786212921,59.60957336425781,99.46279907226562,-30.47775268554688
192196,-0.17376708984375,0.44720458984375,-0.392333984375,-1.189541339874268,-0.2075087130069733,0.168132022023201,59.11952209472656,100.0720825195312,-28.874267578125
192197,-0.08697509765625,0.4827423095703125,-0.2563934326171875,-0.8100481033325195,-0.603573203086853,0.2609253227710724,59.13983154296875,100.3294830322266,-28.15325927734375
192198,-0.0173492431640625,0.480804443359375,-0.1171417236328125,-0.5634939670562744,-0.5634732246398926,0.338360458612442,59.21469116210938,100.3351593017578,-27.62495422363281
192199,0.0387420654296875,0.46502685546875,-0.09033203125,-0.4674777090549469,-0.441584050655365,0.3688813745975494,59.27963256835938,100.3512268066406,-27.24620056152344
192200,0.0788421630859375,0.4046630859375,-0.1031646728515625,-0.4646499752998352,-0.4169804453849792,0.3555370569229126,59.34388732910156,100.4571075439453,-26.90826416015625
192201,0.11029052734375,0.31243896484375,-0.12530517578125,-0.5198935270309448,-0.4752477407455444,0.3421773016452789,59.42353820800781,100.3710327148438,-26.68080139160156
192202,0.1434783935546875,0.24530029296875,-0.1734619140625,-0.5850951671600342,-0.5899189114570618,0.3723370730876923,59.53146362304688,100.4098968505859,-26.45220947265625
192203,0.1703033447265625,0.2385406494140625,-0.2533111572265625,-0.5990402698516846,-0.6972962617874146,0.4336827397346497,59.52470397949219,100.4485473632812,-26.25404357910156
192204,0.1703033447265625,0.2385406494140625,-0.2533111572265625,-0.5990402698516846,-0.6972962617874146,0.4336827397346497,59.52470397949219,100.4485473632812,-26.25404357910156
192205,0.1324920654296875,0.5372314453125,-0.3495025634765625,-0.5427929759025574,-0.7968388199806213,0.3565738201141357,59.59298706054688,100.5455017089844,-25.58622741699219
192206,0.1324920654296875,0.5372314453125,-0.3495025634765625,-0.5427929759025574,-0.7968388199806213,0.3565738201141357,59.59298706054688,100.5455017089844,-25.58622741699219
192207,-0.0169677734375,0.8440399169921875,-0.4760284423828125,-0.2737894654273987,-0.5194104313850403,0.3365721702575684,59.66044616699219,100.7446594238281,-24.99163818359375
192208,-0.0169677734375,0.8440399169921875,-0.4760284423828125,-0.2737894654273987,-0.5194104313850403,0.3365721702575684,59.66044616699219,100.7446594238281,-24.99163818359375
192209,0.034515380859375,1.418075561523438,-0.9613494873046876,0.993828058242798,0.2848983108997345,0.6987157464027405,59.66456604003906,100.5668640136719,-24.38932800292969
192210,0.301300048828125,1.95391845703125,-0.504791259765625,0.9903159141540528,1.108040928840637,0.9848297834396362,59.75588989257812,100.3003540039062,-24.46017456054688
192211,0.301300048828125,1.95391845703125,-0.504791259765625,0.9903159141540528,1.108040928840637,0.9848297834396362,59.75588989257812,100.3003540039062,-24.46017456054688
192212,0.301300048828125,1.95391845703125,-0.504791259765625,0.9903159141540528,1.108040928840637,0.9848297834396362,59.75588989257812,100.3003540039062,-24.46017456054688
192213,0.3740997314453125,2.190505981445312,-0.187042236328125,-0.1178826913237572,1.252865433692932,1.324431777000427,59.98966979980469,99.9683074951172,-24.74725341796875
192214,0.4936065673828125,2.688400268554688,-0.12445068359375,-0.1178826913237572,1.252865433692932,1.324431777000427,60.41500854492188,99.64064025878906,-24.91114807128906
192215,0.689971923828125,3.465194702148438,-0.41693115234375,-0.0722342506051063,0.5308769345283508,1.499198079109192,61.0635986328125,99.44386291503906,-24.96875
192216,0.8968048095703125,4.63433837890625,-0.5092315673828125,0.8872321248054504,-0.4602152705192566,1.677128314971924,61.53990173339844,99.38189697265624,-25.20614624023438
192217,1.055923461914062,5.6678466796875,0.1142730712890625,2.238648891448975,1.285573840141296,1.592230200767517,62.3885498046875,98.97157287597656,-25.80093383789062
192218,1.055923461914062,5.6678466796875,0.1142730712890625,2.238648891448975,1.285573840141296,1.592230200767517,62.3885498046875,98.97157287597656,-25.80093383789062
192219,0.2644195556640625,4.188949584960938,-0.51092529296875,2.01034140586853,0.9744392037391664,0.0437677204608917,63.76268005371094,98.26605224609376,-27.57466125488281
192220,-0.6970672607421875,1.2637939453125,0.6697845458984375,1.553234577178955,0.0666141808032989,-1.42715048789978,64.44189453125,97.46492004394533,-31.9432373046875
192221,-0.6970672607421875,1.2637939453125,0.6697845458984375,1.553234577178955,0.0666141808032989,-1.42715048789978,64.44189453125,97.46492004394533,-31.9432373046875
192222,-0.7203521728515625,0.6280517578125,0.6361236572265625,1.287200808525085,2.046777486801147,-0.5881114602088928,63.85321044921875,96.86758422851562,-33.74861145019531
192223,-0.7203521728515625,0.6280517578125,0.6361236572265625,1.287200808525085,2.046777486801147,-0.5881114602088928,63.85321044921875,96.86758422851562,-33.74861145019531
192224,-0.74664306640625,0.414093017578125,0.4816436767578125,1.703342914581299,1.860154390335083,0.2161376178264618,63.96502685546875,96.57749938964844,-34.22723388671875
192225,-0.3997344970703125,0.2830657958984375,0.2418060302734375,1.6825031042099,1.420372247695923,0.2505424618721008,64.83135986328125,95.78616333007812,-34.86801147460938
192226,-0.3997344970703125,0.2830657958984375,0.2418060302734375,1.6825031042099,1.420372247695923,0.2505424618721008,64.83135986328125,95.78616333007812,-34.86801147460938
192227,-0.30181884765625,0.1668853759765625,0.2105560302734375,1.484048843383789,1.140406012535095,0.2751168012619019,65.31674194335938,95.40663146972656,-35.40597534179688
192228,-0.2309112548828125,0.0591888427734375,0.18487548828125,0.9958257079124452,1.067492127418518,0.2547718286514282,65.62440490722656,95.28524780273438,-36.00540161132812
192229,-0.1821746826171875,-0.0265045166015625,0.149200439453125,0.9958257079124452,1.067492127418518,0.2547718286514282,65.8990478515625,95.05422973632812,-36.4483642578125
192230,-0.14166259765625,-0.1539459228515625,0.1098175048828125,0.5685092806816101,0.8194559812545776,0.1201165542006493,66.46040344238281,94.67803955078124,-37.06492614746094
192231,-0.12213134765625,-0.1780853271484375,0.1125640869140625,0.3474730253219604,0.5135903358459473,0.0445701293647289,66.80072021484375,94.41575622558594,-37.04966735839844
192232,-0.12213134765625,-0.1780853271484375,0.1125640869140625,0.3474730253219604,0.5135903358459473,0.0445701293647289,66.80072021484375,94.41575622558594,-37.04966735839844
192233,-0.0973358154296875,-0.193878173828125,0.1267547607421875,0.1814760565757751,0.2790015339851379,0.0141389882192015,67.03300476074219,94.27854919433594,-36.99203491210938
192234,-0.12030029296875,-0.169464111328125,0.236083984375,-0.2679411768913269,0.2582174241542816,-0.106717124581337,67.18736267089844,94.36505126953124,-36.61886596679688
192235,-0.1957244873046875,-0.1811370849609375,0.2725372314453125,-0.8991976976394653,0.5483648180961609,-0.307086169719696,67.13737487792969,94.45231628417967,-36.37760925292969
192236,-0.1957244873046875,-0.1811370849609375,0.2725372314453125,-0.8991976976394653,0.5483648180961609,-0.307086169719696,67.13737487792969,94.45231628417967,-36.37760925292969
192237,-0.4128265380859375,-0.2353515625,0.3340606689453125,-1.21314811706543,0.7228567600250244,-0.3625531494617462,67.33982849121094,94.59822082519533,-35.63766479492188
192238,-0.5286102294921875,-0.2155609130859375,0.34674072265625,-1.482946038246155,0.8566566109657288,-0.362563282251358,67.41390991210938,94.74357604980467,-35.00131225585938
192239,-0.620635986328125,-0.125762939453125,0.3436737060546875,-1.695284962654114,0.8724632859230042,-0.3515702784061432,67.53077697753906,94.95314025878906,-34.19712829589844
192240,-0.620635986328125,-0.125762939453125,0.3436737060546875,-1.695284962654114,0.8724632859230042,-0.3515702784061432,67.53077697753906,94.95314025878906,-34.19712829589844
192241,-0.6520538330078125,0.251068115234375,0.38665771484375,-2.097824335098267,0.7792814373970032,-0.2591988146305084,67.6080322265625,95.54518127441406,-32.29638671875
192242,-0.635589599609375,0.4324493408203125,0.4229278564453125,-2.338821649551392,0.8517425656318665,-0.375536322593689,67.5633544921875,96.1119384765625,-31.82374572753906
192243,-0.6567840576171875,0.6284942626953125,0.435302734375,-2.514369964599609,1.10815167427063,-0.6397179365158081,67.46316528320312,96.52967834472656,-30.8140869140625
192244,-0.6567840576171875,0.6284942626953125,0.435302734375,-2.514369964599609,1.10815167427063,-0.6397179365158081,67.46316528320312,96.52967834472656,-30.8140869140625
192245,-0.55706787109375,1.132217407226562,0.1412506103515625,-2.602977275848389,1.128435730934143,-1.142116546630859,67.35733032226562,97.47941589355467,-28.72740173339844
192246,-0.5115814208984375,1.367401123046875,-0.052276611328125,-2.611067056655884,0.4275244474411011,-1.125382661819458,67.10101318359375,98.00967407226562,-27.57437133789062
192247,-0.43621826171875,1.545196533203125,-0.3022918701171875,-2.447513818740845,-0.690839946269989,-1.049114465713501,66.75807189941406,98.31631469726562,-26.41021728515625
192248,-0.43621826171875,1.545196533203125,-0.3022918701171875,-2.447513818740845,-0.690839946269989,-1.049114465713501,66.75807189941406,98.31631469726562,-26.41021728515625
192249,0.0775299072265625,1.076950073242188,-0.445404052734375,-1.095775485038757,-2.049147367477417,-0.4872570037841797,65.75643920898438,98.95001220703124,-24.1798095703125
192250,0.1489105224609375,0.66448974609375,-0.265228271484375,-1.095775485038757,-2.049147367477417,-0.4872570037841797,65.16529846191406,99.19517517089844,-23.34259033203125
192251,0.173187255859375,0.395538330078125,0.0185546875,-0.7402094006538391,-1.434628129005432,-0.1824036240577698,64.61825561523438,99.33059692382812,-22.93231201171875
192252,0.173187255859375,0.395538330078125,0.0185546875,-0.7402094006538391,-1.434628129005432,-0.1824036240577698,64.61825561523438,99.33059692382812,-22.93231201171875
192253,0.175628662109375,0.24267578125,0.2299346923828125,-0.8265027403831482,0.368021160364151,0.3733834326267242,63.87216186523438,99.5330047607422,-22.44320678710938
192254,0.1028289794921875,0.2830657958984375,0.076019287109375,-0.9510955214500428,0.94038188457489,0.3671505749225616,63.75697326660156,99.61949157714844,-22.03083801269531
192255,0.06573486328125,0.2697296142578125,-0.1450958251953125,-0.9581180214881896,0.9023516774177552,0.241596907377243,63.91867065429688,99.6621551513672,-21.61996459960938
192256,0.06573486328125,0.2697296142578125,-0.1450958251953125,-0.9581180214881896,0.9023516774177552,0.241596907377243,63.91867065429688,99.6621551513672,-21.61996459960938
192257,0.02716064453125,0.2626190185546875,-0.2948150634765625,-0.8229095935821533,-0.2168742567300797,0.0407703332602977,64.3822021484375,99.71607971191406,-20.41679382324219
192258,0.0008087158203125,0.322998046875,-0.1987152099609375,-0.8359761238098145,-0.4140192866325378,0.0294167436659336,64.45011901855469,99.83848571777344,-19.86982727050781
192259,0.0008087158203125,0.322998046875,-0.1987152099609375,-0.8359761238098145,-0.4140192866325378,0.0294167436659336,64.45011901855469,99.83848571777344,-19.86982727050781
192260,-0.0441741943359375,0.415802001953125,-0.238616943359375,-0.8637552857398987,-0.0365388356149196,-0.0694765448570251,64.5982666015625,99.82101440429688,-19.14863586425781
192261,-0.0441741943359375,0.415802001953125,-0.238616943359375,-0.8637552857398987,-0.0365388356149196,-0.0694765448570251,64.5982666015625,99.82101440429688,-19.14863586425781
192262,-0.1239166259765625,0.46026611328125,-0.27337646484375,-0.907978653907776,0.2779543995857239,-0.2743407487869263,64.58027648925781,99.8809051513672,-18.32374572753906
192263,-0.17572021484375,0.52374267578125,-0.293701171875,-0.9259107708930968,0.4641564786434174,-0.3359771966934204,64.56980895996094,99.94068908691406,-18.01193237304688
192264,-0.231475830078125,0.6331939697265625,-0.3711700439453125,-0.851616621017456,0.5640735030174255,-0.3709562420845032,64.3958740234375,100.0394744873047,-17.65885925292969
192265,-0.2322540283203125,0.76092529296875,-0.49359130859375,-0.6356997489929199,0.4921508431434631,-0.3745688199996948,64.30558776855469,100.1356506347656,-17.14939880371094
192266,-0.2322540283203125,0.76092529296875,-0.49359130859375,-0.6356997489929199,0.4921508431434631,-0.3745688199996948,64.30558776855469,100.1356506347656,-17.14939880371094
192267,-0.1624298095703125,0.88848876953125,-0.55078125,-0.0024988439399749,0.0883106887340545,-0.0204863660037517,64.08380126953125,100.2121734619141,-16.61759948730469
192268,-0.03314208984375,1.174545288085938,-0.321197509765625,0.1801101118326187,-0.0014410364674404,0.1669671535491943,63.70477294921875,100.2589721679688,-15.98127746582031
192269,-0.00732421875,1.273590087890625,-0.1893310546875,0.2233318835496902,-0.0115037905052304,0.2933445274829865,63.60050964355469,100.2509918212891,-15.90576171875
192270,0.0180206298828125,1.311065673828125,-0.1489105224609375,0.1837085783481598,0.0036458675749599,0.413154274225235,63.5345458984375,100.3388519287109,-16.00128173828125
192271,-0.015228271484375,1.351333618164062,-0.193756103515625,0.4289524257183075,0.0675372332334518,0.5715753436088562,63.59414672851562,100.3912200927734,-16.16567993164062
192272,-0.1401214599609375,1.467056274414062,-0.2949981689453125,0.4289524257183075,0.0675372332334518,0.5715753436088562,63.78424072265625,100.3578948974609,-16.35211181640625
192273,-0.2490692138671875,1.6134033203125,-0.482574462890625,0.9424202442169188,0.1091861426830292,0.5590448975563049,63.92318725585938,100.2580871582031,-16.32655334472656
192274,-0.2630767822265625,1.785919189453125,-0.606719970703125,1.532312035560608,0.051975317299366,0.6030174493789673,64.17532348632812,100.2284545898438,-16.48677062988281
192275,-0.2630767822265625,1.785919189453125,-0.606719970703125,1.532312035560608,0.051975317299366,0.6030174493789673,64.17532348632812,100.2284545898438,-16.48677062988281
192276,-0.1746978759765625,2.0147705078125,-0.6089324951171875,1.869679927825928,-0.0312090516090393,0.6256992816925049,64.36541748046875,100.0831909179688,-16.84516906738281
192277,0.4032745361328125,2.479660034179688,-0.5637054443359375,1.753759980201721,-0.912752091884613,0.734987735748291,64.52107238769531,100.1222381591797,-18.27003479003906
192278,0.4032745361328125,2.479660034179688,-0.5637054443359375,1.753759980201721,-0.912752091884613,0.734987735748291,64.52107238769531,100.1222381591797,-18.27003479003906
192279,0.777557373046875,2.70489501953125,-0.416778564453125,1.951622247695923,-1.62280011177063,1.128655672073364,64.662841796875,100.0442810058594,-19.14408874511719
192280,1.110092163085938,2.88116455078125,-0.188812255859375,2.253596305847168,-2.092852354049683,1.751636981964111,64.7943115234375,99.94296264648438,-20.01963806152344
192281,1.465469360351562,3.11004638671875,0.22637939453125,2.45643424987793,-2.06326150894165,3.642015933990479,65.27145385742188,99.55482482910156,-22.08709716796875
192282,1.465469360351562,3.11004638671875,0.22637939453125,2.45643424987793,-2.06326150894165,3.642015933990479,65.27145385742188,99.55482482910156,-22.08709716796875
192283,1.636611938476562,3.371261596679688,0.279144287109375,2.288739681243896,-1.736707210540771,4.231044769287109,65.982421875,99.05599975585938,-23.70071411132812
192284,1.710739135742188,3.800460815429688,0.04583740234375,1.830288887023926,-2.039081811904907,4.096159934997559,67.15400695800781,98.32015991210938,-25.12260437011719
192285,0.8471221923828125,3.198745727539062,0.3127593994140625,1.392657160758972,-2.40941047668457,1.060488343238831,70.25508117675781,96.27444458007812,-27.57177734375
192286,0.8471221923828125,3.198745727539062,0.3127593994140625,1.392657160758972,-2.40941047668457,1.060488343238831,70.25508117675781,96.27444458007812,-27.57177734375
192287,0.14752197265625,2.38287353515625,0.5289154052734375,1.621802449226379,-1.448953986167908,0.3290934860706329,71.29948425292969,95.40966796875,-28.61665344238281
192288,-0.135833740234375,1.8970947265625,0.4475860595703125,2.221105337142944,-0.2681060135364532,-0.9245853424072266,71.81562805175781,94.78700256347656,-29.90243530273438
192289,-0.4723358154296875,1.175994873046875,0.6373138427734375,2.46583890914917,0.3362621665000916,-1.657703995704651,71.96690368652344,94.04640197753906,-32.11802673339844
192290,-0.4723358154296875,1.175994873046875,0.6373138427734375,2.46583890914917,0.3362621665000916,-1.657703995704651,71.96690368652344,94.04640197753906,-32.11802673339844
192291,-0.717864990234375,0.6208953857421875,0.5179290771484375,1.835977435112,1.729657053947449,-2.380322456359863,71.40852355957031,93.72317504882812,-34.55615234375
192292,-1.040084838867188,0.10040283203125,0.352691650390625,1.835977435112,1.729657053947449,-2.380322456359863,70.93211364746094,93.5833740234375,-35.64854431152344
192293,-1.2724609375,-0.449005126953125,0.2336578369140625,1.107732772827148,2.286277055740356,0.573231041431427,70.41886901855469,93.65206909179688,-36.5556640625
192294,-0.8536224365234375,-0.49420166015625,0.2024993896484375,1.107732772827148,2.286277055740356,0.573231041431427,70.01264953613281,93.8803253173828,-37.390625
192295,-0.8536224365234375,-0.49420166015625,0.2024993896484375,1.107732772827148,2.286277055740356,0.573231041431427,70.01264953613281,93.8803253173828,-37.390625
192296,-0.427093505859375,-0.218963623046875,0.2039794921875,0.6953076720237732,2.645038366317749,1.169240355491638,70.02766418457031,94.09962463378906,-37.9014892578125
192297,-0.1683502197265625,0.1717681884765625,0.16790771484375,0.3983921110630035,2.472199440002441,0.9709826707839966,71.33412170410156,93.88262939453124,-37.74629211425781
192298,-0.1683502197265625,0.1717681884765625,0.16790771484375,0.3983921110630035,2.472199440002441,0.9709826707839966,71.33412170410156,93.88262939453124,-37.74629211425781
192299,-0.1244659423828125,0.2776336669921875,0.158966064453125,0.0140788005664944,1.856009960174561,0.7862167954444885,72.44541931152344,93.37196350097656,-37.30216979980469
192300,-0.1085968017578125,0.365264892578125,0.24639892578125,-0.3383093476295471,1.056556940078735,0.5627376437187195,73.40826416015625,93.00340270996094,-36.95046997070312
192301,-0.061859130859375,0.401092529296875,0.4957275390625,-0.7181746363639832,-0.1782549619674683,-0.0454162172973156,74.82228088378906,92.32159423828124,-35.82063293457031
192302,-0.05279541015625,0.366241455078125,0.5496368408203125,-0.795741081237793,-0.6726194024085999,-0.3638921976089478,75.21969604492188,92.22523498535156,-35.34812927246094
192303,-0.05279541015625,0.366241455078125,0.5496368408203125,-0.795741081237793,-0.6726194024085999,-0.3638921976089478,75.21969604492188,92.22523498535156,-35.34812927246094
192304,-0.0110321044921875,0.394622802734375,0.7290496826171875,-1.624899983406067,-1.87565290927887,-0.8532930612564087,75.239501953125,92.40794372558594,-34.91587829589844
192305,-0.0110321044921875,0.394622802734375,0.7290496826171875,-1.624899983406067,-1.87565290927887,-0.8532930612564087,75.239501953125,92.40794372558594,-34.91587829589844
192306,0.0092010498046875,0.4752960205078125,0.905426025390625,-2.036816596984863,-1.548019647598267,-0.7845936417579651,74.91940307617188,92.5445556640625,-34.67568969726562
192307,0.022430419921875,0.579864501953125,1.080734252929688,-2.360506296157837,-0.8212807774543762,-0.650649905204773,74.41307067871094,92.79548645019533,-34.63432312011719
192308,0.0920562744140625,0.70263671875,0.942901611328125,-2.542700529098511,-0.1230654716491699,-0.495226263999939,73.25994873046875,93.57286071777344,-34.02090454101562
192309,0.085357666015625,0.732421875,0.7298431396484375,-2.608850002288818,0.3286679089069366,-0.3507809340953827,72.83268737792969,93.9703369140625,-33.23590087890625
192310,0.085357666015625,0.732421875,0.7298431396484375,-2.608850002288818,0.3286679089069366,-0.3507809340953827,72.83268737792969,93.9703369140625,-33.23590087890625
192311,0.051513671875,0.738555908203125,0.5419158935546875,-2.607927322387695,0.6229602694511414,-0.2377190887928009,72.53851318359375,94.44783020019533,-32.0611572265625
192312,0.021148681640625,0.7070159912109375,0.3846588134765625,-2.580275774002075,0.8278617262840271,-0.2024476528167725,72.3778076171875,94.93247985839844,-30.81864929199219
192313,-0.0530548095703125,0.6622161865234375,0.17919921875,-2.366652488708496,1.134027004241943,-0.3696624636650085,72.18531799316406,95.74528503417967,-28.54612731933594
192314,-0.0530548095703125,0.6622161865234375,0.17919921875,-2.366652488708496,1.134027004241943,-0.3696624636650085,72.18531799316406,95.74528503417967,-28.54612731933594
192315,-0.184417724609375,0.592376708984375,-0.002044677734375,-2.142913579940796,1.448638439178467,-0.7808704972267151,72.21438598632812,96.32527160644533,-26.129638671875
192316,-0.184417724609375,0.592376708984375,-0.002044677734375,-2.142913579940796,1.448638439178467,-0.7808704972267151,72.21438598632812,96.32527160644533,-26.129638671875
192317,-0.2469635009765625,0.534271240234375,-0.358673095703125,-2.058042764663696,1.332715272903442,-1.021680951118469,72.06507873535156,96.6522216796875,-24.85556030273438
192318,-0.351287841796875,0.2257080078125,-1.281906127929688,-1.521388053894043,-2.064803123474121,-1.275531649589539,71.59397888183594,97.63639831542967,-22.31806945800781
192319,-0.351287841796875,0.2257080078125,-1.281906127929688,-1.521388053894043,-2.064803123474121,-1.275531649589539,71.59397888183594,97.63639831542967,-22.31806945800781
192320,-0.1679840087890625,0.182342529296875,-0.4960479736328125,-1.290154218673706,-1.082160830497742,-0.961169183254242,71.11515808105469,98.16642761230467,-21.23158264160156
192321,0.088226318359375,0.283966064453125,-0.476226806640625,-0.9629428386688232,-0.6482672095298767,-0.5428577065467834,69.70741271972656,99.03103637695312,-20.31074523925781
192322,0.134185791015625,0.273468017578125,-0.2595977783203125,-0.7408725023269653,-0.9415405988693236,-0.4353115260601044,69.36231994628906,99.07762145996094,-19.84809875488281
192323,0.2062530517578125,0.23095703125,-0.1136474609375,-0.4745004773139954,-0.9698777198791504,-0.2854461371898651,68.72421264648438,99.12434387207033,-19.20852661132812
192324,0.2062530517578125,0.23095703125,-0.1136474609375,-0.4745004773139954,-0.9698777198791504,-0.2854461371898651,68.72421264648438,99.12434387207033,-19.20852661132812
192325,0.271087646484375,0.2154388427734375,-0.084564208984375,0.004744155332446,-0.6951835751533508,-0.0176080223172903,68.33383178710938,99.32411193847656,-18.71772766113281
192326,0.3075714111328125,0.260528564453125,-0.19024658203125,0.1458743810653687,-0.7604195475578308,0.107402890920639,68.15505981445312,99.3459930419922,-18.72465515136719
192327,0.3075714111328125,0.260528564453125,-0.19024658203125,0.1458743810653687,-0.7604195475578308,0.107402890920639,68.15505981445312,99.3459930419922,-18.72465515136719
192328,0.3712310791015625,0.4931488037109375,-0.396881103515625,0.3911238312721252,-1.416908502578735,0.250304102897644,67.94602966308594,99.48707580566406,-19.16134643554688
192329,0.373809814453125,0.6445465087890625,-0.378875732421875,0.521141767501831,-1.634156346321106,0.1865355223417282,67.81805419921875,99.66049194335938,-19.35087585449219
192330,0.3773956298828125,0.790924072265625,-0.379425048828125,0.6375969648361206,-1.509053111076355,0.0396920181810855,67.77163696289062,99.68035888671876,-19.65689086914062
192331,0.3746337890625,0.923309326171875,-0.455535888671875,0.7147660851478577,-1.287215232849121,-0.1560399383306503,67.7010498046875,99.80335998535156,-20.13375854492188
192332,0.3746337890625,0.923309326171875,-0.455535888671875,0.7147660851478577,-1.287215232849121,-0.1560399383306503,67.7010498046875,99.80335998535156,-20.13375854492188
192333,0.261688232421875,1.111236572265625,-0.4951324462890625,0.682243824005127,-0.8957494497299194,-0.4964161515235901,67.31541442871094,99.66004943847656,-21.00404357910156
192334,0.17974853515625,1.258743286132812,-0.4683380126953125,0.6212151050567627,-0.6852670311927795,-0.5745599269866943,66.98959350585938,99.80081176757812,-21.53170776367188
192335,0.0547637939453125,1.520416259765625,-0.331512451171875,0.599981963634491,-0.3735813200473785,-0.6817833781242371,66.58419799804688,99.90573120117188,-21.98300170898438
192336,-0.14105224609375,1.884307861328125,-0.117279052734375,0.6122570037841797,-0.0025928535033017,-1.036818146705627,66.22552490234375,100.0780029296875,-22.35340881347656
192337,-0.3048095703125,2.297576904296875,-0.009918212890625,0.7266365885734558,0.3145326375961304,-1.745966792106628,65.90780639648438,100.2993927001953,-22.6982421875
192338,-0.3048095703125,2.297576904296875,-0.009918212890625,0.7266365885734558,0.3145326375961304,-1.745966792106628,65.90780639648438,100.2993927001953,-22.6982421875
192339,-0.966644287109375,2.782791137695312,0.118316650390625,0.9379871487617492,1.050395488739014,-2.072604656219482,64.50752258300781,101.1223297119141,-23.64753723144531
192340,-1.144180297851562,3.263717651367188,-0.1332550048828125,0.3081157505512238,1.115913987159729,-0.895788311958313,63.56465148925781,101.6167907714844,-24.0706787109375
192341,-1.144180297851562,3.263717651367188,-0.1332550048828125,0.3081157505512238,1.115913987159729,-0.895788311958313,63.56465148925781,101.6167907714844,-24.0706787109375
192342,-1.00885009765625,4.46258544921875,-0.2108306884765625,-1.625654816627502,-1.374405741691589,-0.0929696187376976,62.8406982421875,102.0298156738281,-24.53199768066406
192343,0.0992889404296875,3.26141357421875,0.86444091796875,-1.841468334197998,-1.064452409744263,0.1529858261346817,62.49380493164062,102.149658203125,-23.78970336914062
192344,0.81024169921875,2.774948120117188,0.709228515625,-0.333725243806839,0.1740357130765915,0.8952980041503906,62.23680114746094,102.305419921875,-22.73985290527344
192345,0.3331451416015625,2.924819946289062,1.39202880859375,0.9966936111450196,0.2351105213165283,0.5636428594589233,62.51261901855469,102.3925628662109,-21.90924072265625
192346,0.3331451416015625,2.924819946289062,1.39202880859375,0.9966936111450196,0.2351105213165283,0.5636428594589233,62.51261901855469,102.3925628662109,-21.90924072265625
192347,0.0886077880859375,2.801223754882812,1.065567016601562,1.565093994140625,0.8832789063453674,0.3810067474842072,62.86170959472656,102.2981414794922,-22.3277587890625
192348,0.092376708984375,2.123184204101562,0.2837677001953125,2.223707437515259,0.1824329197406769,0.5027925372123718,63.54156494140625,101.5288543701172,-24.03660583496094
192349,0.092376708984375,2.123184204101562,0.2837677001953125,2.223707437515259,0.1824329197406769,0.5027925372123718,63.54156494140625,101.5288543701172,-24.03660583496094
192350,0.1225128173828125,1.928573608398438,0.1744232177734375,1.782088875770569,-0.9783758521080016,0.9027000069618224,64.05889892578125,100.8135986328125,-25.17658996582031
192351,0.0077972412109375,1.633407592773438,0.28955078125,1.191523551940918,-1.34415328502655,0.7727603912353516,64.45967102050781,100.1036987304688,-26.20718383789062
192352,0.067474365234375,1.156051635742188,0.16168212890625,0.8870371580123901,-1.311811923980713,0.7959751486778259,64.66297912597656,99.54483032226562,-27.22813415527344
192353,0.11004638671875,0.725006103515625,-0.2153778076171875,0.9519213438034058,-1.450047254562378,0.924767792224884,65.18525695800781,98.78425598144533,-28.60305786132812
192354,0.11004638671875,0.725006103515625,-0.2153778076171875,0.9519213438034058,-1.450047254562378,0.924767792224884,65.18525695800781,98.78425598144533,-28.60305786132812
192355,0.2083587646484375,0.5435028076171875,-0.2645111083984375,1.349920153617859,-0.7530404925346375,1.091859579086304,65.55419921875,98.03204345703124,-29.8568115234375
192356,0.2083587646484375,0.5435028076171875,-0.2645111083984375,1.349920153617859,-0.7530404925346375,1.091859579086304,65.55419921875,98.03204345703124,-29.8568115234375
192357,0.2180938720703125,0.468231201171875,-0.12872314453125,1.349920153617859,-0.7530404925346375,1.091859579086304,65.63905334472656,97.60552978515624,-30.77183532714844
192358,0.2586669921875,0.4437713623046875,-0.165283203125,0.4811836779117584,0.4829283058643341,0.8939685821533203,66.39814758300781,96.77452087402344,-32.17207336425781
192359,0.1852264404296875,0.559478759765625,0.084869384765625,0.1008336693048477,0.5101524591445923,0.7223776578903198,66.89138793945312,96.44091796875,-32.45933532714844
192360,0.09698486328125,0.5993804931640625,0.2816162109375,-0.1899398416280746,0.6504416465759277,0.5772526860237122,67.26606750488281,96.14801025390624,-32.45635986328125
192361,0.0031585693359375,0.579986572265625,0.3534088134765625,-0.3958376049995422,0.8896039128303528,0.4523895680904388,67.82766723632812,95.9281768798828,-32.37132263183594
192362,0.0031585693359375,0.579986572265625,0.3534088134765625,-0.3958376049995422,0.8896039128303528,0.4523895680904388,67.82766723632812,95.9281768798828,-32.37132263183594
192363,-0.077911376953125,0.546478271484375,0.3311614990234375,-0.5017321109771729,1.07129168510437,0.2960098087787628,68.27243041992188,95.7863311767578,-32.11618041992188
192364,-0.135040283203125,0.5064544677734375,0.2697906494140625,-0.5211247205734253,1.089474678039551,0.120909109711647,68.73985290527344,95.63279724121094,-31.80461120605469
192365,-0.1790008544921875,0.451202392578125,0.2305908203125,-0.4878876507282257,0.973565638065338,-0.0245839059352874,69.11874389648438,95.5861358642578,-31.40280151367188
192366,-0.2057952880859375,0.3723602294921875,0.235931396484375,-0.4298416674137115,0.8606840968132019,-0.0934236869215965,69.402099609375,95.62330627441406,-30.99525451660156
192367,-0.21514892578125,0.28839111328125,0.282196044921875,-0.3804432153701782,0.87733393907547,-0.0567253306508064,69.53782653808594,95.51718139648438,-30.61862182617188
192368,-0.2142486572265625,0.2198486328125,0.3427886962890625,-0.4822822213172913,1.371438980102539,0.115616612136364,69.62138366699219,95.61395263671876,-30.29124450683594
192369,-0.19012451171875,0.1909637451171875,0.385162353515625,-0.4822822213172913,1.371438980102539,0.115616612136364,69.82032775878906,95.56402587890624,-29.86845397949219
192370,-0.1561431884765625,0.2294464111328125,0.4043121337890625,-0.6759635210037231,1.617561101913452,0.1209663674235344,70.05592346191406,95.6246337890625,-29.51182556152344
192371,-0.1254119873046875,0.3433685302734375,0.484100341796875,-1.224780559539795,1.796956539154053,-0.1341061443090439,70.52284240722656,95.89744567871094,-28.44674682617188
192372,-0.1254119873046875,0.3433685302734375,0.484100341796875,-1.224780559539795,1.796956539154053,-0.1341061443090439,70.52284240722656,95.89744567871094,-28.44674682617188
192373,-0.0997772216796875,0.3853302001953125,0.5360107421875,-1.224780559539795,1.796956539154053,-0.1341061443090439,70.81413269042969,95.98202514648438,-27.70948791503906
192374,-0.0755462646484375,0.4474639892578125,0.5909881591796875,-1.246078372001648,1.610573768615723,-0.158178985118866,71.07838439941406,96.1708526611328,-26.62460327148438
192375,-0.0499725341796875,0.52227783203125,0.655487060546875,-1.22080659866333,1.310574293136597,-0.1713041067123413,71.35919189453125,96.3080596923828,-25.75643920898438
192376,-0.0252227783203125,0.5951690673828125,0.7301483154296875,-1.24623715877533,1.021302342414856,-0.1959442049264908,71.48493957519531,96.50798034667967,-24.78007507324219
192377,-0.0325164794921875,0.685546875,0.7833404541015625,-1.357738375663757,0.7729305624961853,-0.2928175032138824,71.54635620117188,96.66047668457033,-23.82984924316406
192378,-0.055938720703125,0.7248077392578125,0.79345703125,-1.559605717658997,0.5089969038963318,-0.496011346578598,71.49253845214844,96.98028564453124,-23.09992980957031
192379,-0.0902557373046875,0.6525115966796875,0.7519378662109375,-1.832399129867554,0.1823631525039673,-0.7943298816680908,71.43669128417969,97.0805206298828,-22.29345703125
192380,-0.1837921142578125,0.4493865966796875,0.6968841552734375,-2.163175106048584,-0.0209897048771381,-1.109256863594055,71.24977111816406,97.3491668701172,-21.52847290039062
192381,-0.2212066650390625,0.12371826171875,0.364532470703125,-2.892342329025269,-0.1781894415616989,-1.322238683700562,70.62570190429688,97.86305236816406,-19.59703063964844
192382,-0.2212066650390625,0.12371826171875,0.364532470703125,-2.892342329025269,-0.1781894415616989,-1.322238683700562,70.62570190429688,97.86305236816406,-19.59703063964844
192383,-0.108856201171875,0.15533447265625,-0.1391143798828125,-2.837576866149902,-1.681498289108276,-1.305562734603882,69.41615295410156,98.54644775390624,-17.08799743652344
192384,-0.108856201171875,0.15533447265625,-0.1391143798828125,-2.837576866149902,-1.681498289108276,-1.305562734603882,69.41615295410156,98.54644775390624,-17.08799743652344
192385,-0.07159423828125,0.267547607421875,-0.5660400390625,-2.837576866149902,-1.681498289108276,-1.305562734603882,68.77964782714844,98.87246704101562,-15.78694152832031
192386,-0.0193328857421875,0.3827056884765625,-0.8948822021484375,-2.091598510742188,-2.083882331848145,-1.022429823875427,68.06210327148438,99.1865234375,-14.52084350585938
192387,0.0931549072265625,0.743316650390625,-0.5264739990234375,0.0758817121386528,-0.3343050181865692,-0.2284302413463593,66.74595642089844,99.7610321044922,-12.97291564941406
192388,0.0931549072265625,0.743316650390625,-0.5264739990234375,0.0758817121386528,-0.3343050181865692,-0.2284302413463593,66.74595642089844,99.7610321044922,-12.97291564941406
192389,0.13232421875,0.542724609375,-0.2147979736328125,-0.3773126602172852,-0.2224732786417007,-0.6037804484367371,66.1265869140625,100.1663360595703,-12.73112487792969
192390,0.13232421875,0.542724609375,-0.2147979736328125,-0.3773126602172852,-0.2224732786417007,-0.6037804484367371,66.1265869140625,100.1663360595703,-12.73112487792969
192391,0.0868072509765625,0.3423614501953125,-0.1829833984375,-1.166914343833923,-0.5979454517364502,-0.7610473036766052,65.71311950683594,100.3929138183594,-12.73323059082031
192392,0.0719451904296875,0.3415679931640625,-0.2269439697265625,-0.981791079044342,-0.5856869220733643,-0.6558223366737366,65.3897705078125,100.3987579345703,-12.26666259765625
192393,0.073089599609375,0.422454833984375,-0.25750732421875,-0.5433357357978821,-0.4999645352363586,-0.5321602821350098,65.06321716308594,100.5097961425781,-11.78341674804688
192394,0.0836029052734375,0.5138702392578125,-0.2462921142578125,-0.1359506398439407,-0.5058839321136475,-0.42155921459198,64.81703186035156,100.6504058837891,-11.37272644042969
192395,0.0836029052734375,0.5138702392578125,-0.2462921142578125,-0.1359506398439407,-0.5058839321136475,-0.42155921459198,64.81703186035156,100.6504058837891,-11.37272644042969
192396,0.0684356689453125,0.6653594970703125,-0.1453094482421875,0.1379418969154358,-0.613283097743988,-0.3381364941596985,64.49658203125,100.7259826660156,-11.10581970214844
192397,0.0410308837890625,0.7516937255859375,-0.1389007568359375,0.158529981970787,-0.6606663465499878,-0.3565421402454376,64.4166259765625,100.8498229980469,-11.09054565429688
192398,0.0410308837890625,0.7516937255859375,-0.1389007568359375,0.158529981970787,-0.6606663465499878,-0.3565421402454376,64.4166259765625,100.8498229980469,-11.09054565429688
192399,0.0335540771484375,0.83203125,-0.1422576904296875,0.232483834028244,-0.7751615047454834,-0.3576686680316925,64.3204345703125,100.8854522705078,-11.19229125976562
192400,0.022125244140625,0.9322357177734376,-0.10516357421875,0.3637441396713257,-0.8817108273506165,-0.34014692902565,64.21577453613281,100.8612365722656,-11.35472106933594
192401,-0.0264892578125,1.218032836914062,0.0360260009765625,0.6992467641830444,-0.7767024040222168,-0.2476939558982849,63.87548828125,100.8685302734375,-11.6646728515625
192402,-0.0264892578125,1.218032836914062,0.0360260009765625,0.6992467641830444,-0.7767024040222168,-0.2476939558982849,63.87548828125,100.8685302734375,-11.6646728515625
192403,-0.0601348876953125,1.465179443359375,0.1052398681640625,0.9113169312477112,-0.482408195734024,-0.1534769088029861,63.67672729492188,100.9029998779297,-11.98861694335938
192404,-0.149627685546875,1.779953002929688,0.1298370361328125,1.11407482624054,-0.0671334937214851,-0.1172896102070808,63.38923645019531,100.9989929199219,-12.34321594238281
192405,-0.5053253173828125,2.273773193359375,0.2288055419921875,1.296324253082275,0.3472554385662079,-0.3901070356369019,63.11021423339844,101.4777221679688,-13.28823852539062
192406,-0.5053253173828125,2.273773193359375,0.2288055419921875,1.296324253082275,0.3472554385662079,-0.3901070356369019,63.11021423339844,101.4777221679688,-13.28823852539062
192407,-0.8315887451171875,2.87750244140625,0.1559906005859375,0.9726775288581848,-0.0990376323461532,-0.7392146587371826,63.02812194824219,101.8358154296875,-13.82400512695312
192408,-1.417831420898438,4.274307250976562,0.404327392578125,-2.207317352294922,-3.973523855209351,-1.197290658950806,62.85206604003906,101.995361328125,-14.1541748046875
192409,0.031982421875,2.777206420898438,0.05029296875,-0.967809796333313,-0.9558953046798706,0.7077869772911072,61.88619995117188,102.5767364501953,-13.51937866210938
192410,0.031982421875,2.777206420898438,0.05029296875,-0.967809796333313,-0.9558953046798706,0.7077869772911072,61.88619995117188,102.5767364501953,-13.51937866210938
192411,0.3629302978515625,2.300613403320312,1.571395874023438,0.0445658713579177,0.2083902209997177,0.8032234907150269,61.85505676269531,102.5844268798828,-12.2335205078125
192412,0.530609130859375,2.330291748046875,1.722442626953125,0.5961371660232544,0.4590016603469849,1.051729202270508,62.15170288085938,102.6888427734375,-12.32698059082031
192413,0.3734130859375,2.544952392578125,1.9324951171875,1.063334226608276,0.4149450063705444,1.012657165527344,62.41871643066406,102.5413513183594,-12.50703430175781
192414,0.157135009765625,2.673812866210938,1.747207641601562,1.765614748001099,1.427846074104309,0.791412889957428,62.84959411621094,102.2718505859375,-12.82545471191406
192415,0.21051025390625,2.53106689453125,0.941650390625,2.514397621154785,1.76303231716156,0.727601945400238,63.34597778320312,102.0267639160156,-13.38154602050781
192416,0.077880859375,2.351593017578125,0.3504638671875,3.198670625686646,1.480531692504883,0.5676777958869934,63.77056884765625,101.8586730957031,-14.17572021484375
192417,0.005340576171875,2.054275512695312,-0.0574951171875,3.592571496963501,0.6685282588005066,0.2235531955957413,64.25260925292969,101.5162658691406,-15.37345886230469
192418,0.005340576171875,2.054275512695312,-0.0574951171875,3.592571496963501,0.6685282588005066,0.2235531955957413,64.25260925292969,101.5162658691406,-15.37345886230469
192419,0.1965484619140625,1.590164184570312,0.1239166259765625,2.195422410964966,-2.323589324951172,0.604162871837616,65.19529724121094,100.5194091796875,-18.581298828125
192420,0.1253509521484375,1.27154541015625,0.6701507568359375,1.372317314147949,-2.29651951789856,0.348929226398468,65.5975341796875,99.74844360351562,-20.29859924316406
192421,0.2209625244140625,0.8617401123046875,0.7385406494140625,1.363691091537476,-0.5131951570510864,0.4369469583034515,65.798095703125,99.00985717773438,-21.74359130859375
192422,0.2209625244140625,0.8617401123046875,0.7385406494140625,1.363691091537476,-0.5131951570510864,0.4369469583034515,65.798095703125,99.00985717773438,-21.74359130859375
192423,0.250579833984375,0.608001708984375,0.4998321533203125,1.805038094520569,-0.2739425897598267,0.5805706977844238,65.85075378417969,98.6404266357422,-22.97407531738281
192424,0.312713623046875,0.12078857421875,-0.5312042236328125,2.167469501495361,-1.283161640167236,0.9171167612075806,66.00469970703125,98.18191528320312,-24.44453430175781
192425,0.198638916015625,0.2278594970703125,0.083160400390625,2.216805934906006,-1.557770848274231,1.109076619148254,66.27616882324219,97.923583984375,-25.39277648925781
192426,0.198638916015625,0.2278594970703125,0.083160400390625,2.216805934906006,-1.557770848274231,1.109076619148254,66.27616882324219,97.923583984375,-25.39277648925781
192427,0.1744384765625,0.401641845703125,0.61212158203125,1.506298542022705,-0.2164939492940903,1.176396012306213,66.72689819335938,97.23117065429688,-27.73866271972656
192428,0.1484527587890625,0.3988037109375,0.5821380615234375,1.006922245025635,0.4486148059368134,1.152198314666748,67.05561828613281,96.67005920410156,-28.88922119140625
192429,0.1211395263671875,0.3673248291015625,0.491302490234375,0.5704783797264099,0.8809334635734558,1.108741641044617,67.56015014648438,96.1584930419922,-29.74522399902344
192430,0.1211395263671875,0.3673248291015625,0.491302490234375,0.5704783797264099,0.8809334635734558,1.108741641044617,67.56015014648438,96.1584930419922,-29.74522399902344
192431,0.024444580078125,0.36468505859375,0.402984619140625,0.140612781047821,1.121227502822876,0.9419472813606262,68.94593811035156,95.4729461669922,-30.23204040527344
192432,0.024444580078125,0.36468505859375,0.402984619140625,0.140612781047821,1.121227502822876,0.9419472813606262,68.94593811035156,95.4729461669922,-30.23204040527344
192433,-0.05194091796875,0.31268310546875,0.3306121826171875,0.2932294905185699,0.8064712285995483,0.753892719745636,70.41384887695312,94.82218933105467,-30.01953125
192434,-0.05194091796875,0.31268310546875,0.3306121826171875,0.2932294905185699,0.8064712285995483,0.753892719745636,70.41384887695312,94.82218933105467,-30.01953125
192435,-0.0715789794921875,0.2794952392578125,0.34320068359375,0.3684848248958588,0.5655770897865295,0.6561922430992126,71.06198120117188,94.6398468017578,-29.91876220703125
192436,-0.052215576171875,0.2713623046875,0.4667510986328125,0.0231564510613679,0.6587837338447571,0.4146991968154907,71.97978210449219,94.33897399902344,-29.74618530273438
192437,-0.068695068359375,0.3155364990234375,0.5399932861328125,-0.3335494697093964,0.9909291863441468,0.2538692951202393,72.29649353027344,94.0635986328125,-29.7900390625
192438,-0.068695068359375,0.3155364990234375,0.5399932861328125,-0.3335494697093964,0.9909291863441468,0.2538692951202393,72.29649353027344,94.0635986328125,-29.7900390625
192439,-0.10125732421875,0.364349365234375,0.5977325439453125,-0.74687260389328,1.376932621002197,0.0825643837451934,72.55154418945312,94.09628295898438,-29.75666809082031
192440,-0.12860107421875,0.4102630615234375,0.6393280029296875,-1.146810412406921,1.706798672676086,-0.0552667193114757,72.79452514648438,94.07972717285156,-29.46173095703125
192441,-0.180206298828125,0.47357177734375,0.730255126953125,-1.470816493034363,1.987919569015503,-0.1916415989398956,73.34794616699219,94.3683624267578,-27.98612976074219
192442,-0.180206298828125,0.47357177734375,0.730255126953125,-1.470816493034363,1.987919569015503,-0.1916415989398956,73.34794616699219,94.3683624267578,-27.98612976074219
192443,-0.2415924072265625,0.5357208251953125,0.738372802734375,-1.341257929801941,1.749274969100952,-0.4057733416557312,73.82571411132812,94.80442810058594,-26.05612182617188
192444,-0.243560791015625,0.57196044921875,0.668212890625,-1.341257929801941,1.749274969100952,-0.4057733416557312,73.93449401855469,95.0364990234375,-24.81855773925781
192445,-0.221466064453125,0.605712890625,0.59478759765625,-1.411725759506226,1.412636995315552,-0.5192461013793945,74.10633850097656,95.1552276611328,-23.82916259765625
192446,-0.221466064453125,0.605712890625,0.59478759765625,-1.411725759506226,1.412636995315552,-0.5192461013793945,74.10633850097656,95.1552276611328,-23.82916259765625
192447,-0.1711883544921875,0.6111907958984375,0.4669952392578125,-1.512066960334778,0.9848002195358276,-0.6486017107963562,74.07469177246094,95.41165161132812,-22.82266235351562
192448,-0.0404510498046875,0.55963134765625,0.1754913330078125,-1.562015891075134,0.0743482634425163,-0.8139802813529968,73.74858093261719,95.81427001953124,-20.93281555175781
192449,0.0322418212890625,0.5545501708984375,0.0772857666015625,-1.514611601829529,-0.3387940227985382,-0.8565775156021118,73.45429992675781,96.07546997070312,-20.066650390625
192450,0.0322418212890625,0.5545501708984375,0.0772857666015625,-1.514611601829529,-0.3387940227985382,-0.8565775156021118,73.45429992675781,96.07546997070312,-20.066650390625
192451,0.0895233154296875,0.5618743896484375,0.025390625,-1.463733196258545,-0.5814452767372131,-0.8611578941345215,72.98274230957031,96.3570556640625,-19.31620788574219
192452,0.1416015625,0.546905517578125,-0.0779571533203125,-1.387430787086487,-0.6226273775100708,-0.8312588334083557,72.50326538085938,96.65777587890624,-18.71745300292969
192453,0.250518798828125,0.3216400146484375,-0.5565948486328125,-0.3989511132240295,-1.311116576194763,-0.4823962152004242,71.41328430175781,97.42010498046876,-17.78691101074219
192454,0.250518798828125,0.3216400146484375,-0.5565948486328125,-0.3989511132240295,-1.311116576194763,-0.4823962152004242,71.41328430175781,97.42010498046876,-17.78691101074219
192455,0.2328033447265625,0.2168731689453125,-0.461456298828125,0.3293006718158722,-1.658340573310852,-0.291770875453949,70.91862487792969,97.64198303222656,-17.49748229980469
192456,0.109832763671875,0.1072845458984375,-0.0591583251953125,0.8751376271247864,-0.913340151309967,-0.2127309143543243,70.10162353515625,97.97784423828124,-17.55015563964844
192457,0.08673095703125,0.081298828125,-0.0059814453125,0.6701322793960571,-0.3351183533668518,-0.2455264031887054,69.78337097167969,98.08674621582033,-18.0948486328125
192458,0.08673095703125,0.081298828125,-0.0059814453125,0.6701322793960571,-0.3351183533668518,-0.2455264031887054,69.78337097167969,98.08674621582033,-18.0948486328125
192459,0.0715484619140625,0.0972900390625,-0.0370330810546875,0.3766322135925293,0.2185632288455963,-0.3122162222862244,69.55670166015625,98.24978637695312,-18.72940063476562
192460,0.070068359375,0.1277923583984375,-0.19488525390625,0.133685365319252,0.5281897783279419,-0.4160438179969788,69.296142578125,98.30343627929688,-19.23240661621094
192461,0.071990966796875,0.264007568359375,-0.532867431640625,-0.013464942574501,-0.2682671248912811,-0.6323204636573792,68.86642456054688,98.57437133789062,-19.4559326171875
192462,0.082122802734375,0.363922119140625,-0.5094146728515625,0.1419787108898163,-1.217415928840637,-0.8900896906852722,68.63427734375,98.77012634277344,-19.34989929199219
192463,0.082122802734375,0.363922119140625,-0.5094146728515625,0.1419787108898163,-1.217415928840637,-0.8900896906852722,68.63427734375,98.77012634277344,-19.34989929199219
192464,0.120208740234375,0.5856170654296875,-0.408294677734375,0.3234377205371857,-1.292545199394226,-0.9712212681770324,67.90365600585938,99.16691589355467,-19.158935546875
192465,0.1644287109375,0.8012847900390625,-0.5677337646484375,0.6674403548240662,-1.318146467208862,-1.025207877159119,67.42091369628906,99.25396728515624,-19.20652770996094
192466,0.1644287109375,0.8012847900390625,-0.5677337646484375,0.6674403548240662,-1.318146467208862,-1.025207877159119,67.42091369628906,99.25396728515624,-19.20652770996094
192467,0.30389404296875,1.505584716796875,-1.073287963867188,2.732846975326538,-0.0074501931667327,-0.2490367144346237,66.26805114746094,99.53309631347656,-19.94761657714844
192468,0.1768951416015625,1.7823486328125,-1.1326904296875,2.732846975326538,-0.0074501931667327,-0.2490367144346237,65.58255004882812,99.71458435058594,-20.51246643066406
192469,-0.0448150634765625,2.140060424804688,-0.5825042724609375,1.613407969474792,0.3299925625324249,-0.3709490299224854,64.87017822265625,99.84906005859376,-21.35867309570312
192470,-0.0448150634765625,2.140060424804688,-0.5825042724609375,1.613407969474792,0.3299925625324249,-0.3709490299224854,64.87017822265625,99.84906005859376,-21.35867309570312
192471,0.056549072265625,3.162551879882812,-0.420013427734375,-0.0700219646096229,-0.883912205696106,-1.9744873046875,63.95449829101562,100.0137176513672,-23.60635375976562
192472,0.056549072265625,3.162551879882812,-0.420013427734375,-0.0700219646096229,-0.883912205696106,-1.9744873046875,63.95449829101562,100.0137176513672,-23.60635375976562
192473,0.1621246337890625,3.822418212890625,-0.529052734375,-0.1245547086000443,-2.3601393699646,-2.255805015563965,63.59025573730469,100.2142944335938,-23.95835876464844
192474,-0.244781494140625,4.130630493164062,-0.0718994140625,0.2620164453983307,-2.063090085983276,-1.753265738487244,62.81166076660156,100.4714050292969,-24.25627136230469
192475,-0.846282958984375,3.95281982421875,0.1335906982421875,0.7803935408592224,-0.1156906485557556,-0.3691492676734924,61.74568176269531,100.9167022705078,-24.49345397949219
192476,-0.280792236328125,3.033477783203125,-0.255401611328125,0.7336023449897766,0.0720379725098609,0.4201677143573761,60.15988159179688,101.6679840087891,-25.44181823730469
192477,-0.1761016845703125,2.6156005859375,-0.0467681884765625,0.5660138726234436,-0.1972464919090271,0.3203239440917969,60.27621459960938,101.6141510009766,-25.89859008789062
192478,-0.1761016845703125,2.6156005859375,-0.0467681884765625,0.5660138726234436,-0.1972464919090271,0.3203239440917969,60.27621459960938,101.6141510009766,-25.89859008789062
192479,-0.13189697265625,2.414398193359375,0.1261138916015625,0.6788749098777771,-0.119856096804142,0.5331600308418274,60.71391296386719,101.4230499267578,-26.25175476074219
192480,-0.0796356201171875,2.327911376953125,0.2507171630859375,1.077501177787781,0.0250598136335611,0.8084914684295654,61.08843994140625,101.21826171875,-26.72647094726562
192481,0.11962890625,2.2313232421875,0.319366455078125,1.817951798439026,-0.1061237752437592,1.014594554901123,61.78828430175781,100.7307891845703,-27.72482299804688
192482,0.1730499267578125,2.104522705078125,0.4272003173828125,1.833068132400513,-0.1361037790775299,0.9403523206710817,62.36094665527344,100.2298278808594,-28.41798400878906
192483,0.1730499267578125,2.104522705078125,0.4272003173828125,1.833068132400513,-0.1361037790775299,0.9403523206710817,62.36094665527344,100.2298278808594,-28.41798400878906
192484,0.2184295654296875,1.563156127929688,0.534088134765625,1.668921828269958,0.2476444244384766,0.930589199066162,63.47119140625,99.04248046875,-30.32215881347656
192485,0.1889801025390625,1.199859619140625,0.42034912109375,1.681984305381775,0.238145187497139,0.9782517552375792,64.04820251464844,98.39132690429688,-31.05978393554688
192486,0.1889801025390625,1.199859619140625,0.42034912109375,1.681984305381775,0.238145187497139,0.9782517552375792,64.04820251464844,98.39132690429688,-31.05978393554688
192487,0.151458740234375,0.8909912109375,0.343719482421875,1.745630741119385,0.001594168250449,1.061014533042908,64.69508361816406,97.80055236816406,-31.94163513183594
192488,0.143890380859375,0.518341064453125,0.3574676513671875,1.749524235725403,-0.4052055478096008,1.165868043899536,66.461181640625,95.95472717285156,-34.44880676269531
192489,0.1575927734375,0.3539581298828125,0.324615478515625,1.571928143501282,-0.4896085858345032,1.142094016075134,66.79438781738281,95.31765747070312,-35.0826416015625
192490,0.1400146484375,0.200225830078125,0.223785400390625,1.328421473503113,-0.6417182087898254,1.093488097190857,67.18150329589844,94.7196044921875,-35.98919677734375
192491,0.1046142578125,0.0789947509765625,0.147674560546875,1.091004371643066,-0.8362440466880798,1.017419695854187,67.54071044921875,94.277099609375,-36.69216918945312
192492,0.0393524169921875,-0.0074920654296875,0.1451416015625,0.9194590449333192,-0.8727045655250549,0.9414364695549012,67.78761291503906,93.8092803955078,-37.29145812988281
192493,-0.0546722412109375,-0.0355682373046875,0.1812896728515625,0.8070230484008789,-0.6199074387550354,0.8564944267272949,67.99629211425781,93.39645385742188,-37.80537414550781
192494,-0.0546722412109375,-0.0355682373046875,0.1812896728515625,0.8070230484008789,-0.6199074387550354,0.8564944267272949,67.99629211425781,93.39645385742188,-37.80537414550781
192495,-0.15118408203125,-0.0223388671875,0.2052459716796875,0.6714252233505249,-0.1480168998241425,0.7425247430801392,68.22328186035156,93.1264190673828,-38.36871337890625
192496,-0.23443603515625,0.0256500244140625,0.2438507080078125,0.4455162286758423,0.3951191008090973,0.62657630443573,68.38107299804688,92.81748962402344,-38.60971069335938
192497,-0.283203125,0.1372528076171875,0.288482666015625,-0.1640864014625549,1.523436546325684,0.4985197782516479,69.09007263183594,92.47575378417967,-38.93815612792969
192498,-0.283203125,0.1372528076171875,0.288482666015625,-0.1640864014625549,1.523436546325684,0.4985197782516479,69.09007263183594,92.47575378417967,-38.93815612792969
192499,-0.2616424560546875,0.1638946533203125,0.2569427490234375,-0.3668845295906067,1.916072249412537,0.4833032786846161,69.66928100585938,92.29434204101562,-38.76036071777344
192500,-0.20037841796875,0.1790924072265625,0.219482421875,-0.4425398707389832,2.157731771469116,0.4870370328426361,70.32687377929688,92.30502319335938,-38.36714172363281
192501,-0.0157012939453125,0.265228271484375,0.2049102783203125,-0.4356401562690735,2.336827516555786,0.4692830741405487,71.75709533691406,92.31710815429688,-37.126708984375
192502,-0.0157012939453125,0.265228271484375,0.2049102783203125,-0.4356401562690735,2.336827516555786,0.4692830741405487,71.75709533691406,92.31710815429688,-37.126708984375
192503,0.0449066162109375,0.339111328125,0.2390899658203125,-0.5198402404785156,2.359233856201172,0.4562053382396698,72.43301391601562,92.2307586669922,-36.3004150390625
192504,0.074859619140625,0.4611663818359375,0.2905426025390625,-0.7121910452842712,2.37142014503479,0.4195376038551331,73.11543273925781,92.17510986328124,-35.53233337402344
192505,0.0885467529296875,0.7668609619140625,0.359619140625,-1.485528588294983,1.999236822128296,0.1168547123670578,74.34716796875,92.1360321044922,-33.94084167480469
192506,0.0885467529296875,0.7668609619140625,0.359619140625,-1.485528588294983,1.999236822128296,0.1168547123670578,74.34716796875,92.1360321044922,-33.94084167480469
192507,0.0867156982421875,0.9835052490234376,0.37896728515625,-1.694028496742249,1.157137036323547,-0.1199261397123337,75.45806884765625,92.28350830078124,-31.95390319824219
192508,0.0664215087890625,1.007003784179688,0.3968963623046875,-1.694028496742249,1.157137036323547,-0.1199261397123337,75.83634948730469,92.5313720703125,-30.7315673828125
192509,0.01312255859375,0.968475341796875,0.4586029052734375,-1.610442042350769,0.6867072582244873,-0.3083181381225586,76.13186645507812,92.67774963378906,-29.45451354980469
192510,0.01312255859375,0.968475341796875,0.4586029052734375,-1.610442042350769,0.6867072582244873,-0.3083181381225586,76.13186645507812,92.67774963378906,-29.45451354980469
192511,-0.178192138671875,0.7022857666015625,0.61065673828125,-1.569229364395142,0.8365558981895447,-0.5633472204208374,76.11563110351562,93.3308563232422,-27.95701599121094
192512,-0.222381591796875,0.58770751953125,0.532562255859375,-1.580339431762695,1.185356259346008,-0.6811063885688782,76.06196594238281,93.61891174316406,-27.10923767089844
192513,-0.2196502685546875,0.4947967529296875,0.3516693115234375,-1.556083917617798,1.326793193817139,-0.788792610168457,75.93977355957031,93.95451354980467,-26.13688659667969
192514,-0.2196502685546875,0.4947967529296875,0.3516693115234375,-1.556083917617798,1.326793193817139,-0.788792610168457,75.93977355957031,93.95451354980467,-26.13688659667969
192515,-0.170166015625,0.4195404052734375,0.163909912109375,-1.382946729660034,1.051482081413269,-0.832120418548584,75.76683044433594,94.32891845703124,-25.27952575683594
192516,-0.102813720703125,0.3784637451171875,0.0238189697265625,-1.382946729660034,1.051482081413269,-0.832120418548584,75.50482177734375,94.6278076171875,-24.398681640625
192517,-0.0400238037109375,0.3607177734375,-0.069732666015625,-1.247503995895386,0.8126489520072937,-0.8394659161567688,75.19927978515625,94.94441223144533,-23.41181945800781
192518,0.0106048583984375,0.3291168212890625,-0.19244384765625,-1.125249147415161,0.5234230160713196,-0.8485193252563477,74.99163818359375,95.40133666992188,-22.55575561523438
192519,0.072174072265625,0.2653350830078125,-0.4680328369140625,-0.9932677149772644,-0.1107954904437065,-0.8363487124443054,74.700439453125,95.78092956542967,-21.85737609863281
192520,0.1237640380859375,0.19476318359375,-0.5762939453125,-0.7798854112625122,-0.9913305640220642,-0.7808247208595276,74.28546142578125,96.12782287597656,-21.26368713378906
192521,0.104644775390625,0.1309051513671875,-0.2317047119140625,-0.3358922600746155,-1.634031176567078,-0.6618099212646484,73.22090148925781,96.86070251464844,-20.85160827636719
192522,0.104644775390625,0.1309051513671875,-0.2317047119140625,-0.3358922600746155,-1.634031176567078,-0.6618099212646484,73.22090148925781,96.86070251464844,-20.85160827636719
192523,0.070831298828125,0.134368896484375,-0.1248779296875,-0.2100222110748291,-1.318888425827026,-0.652807891368866,72.62945556640625,97.07080078125,-21.06001281738281
192524,-0.01568603515625,0.22216796875,-0.2603302001953125,-0.0806365236639976,-0.5835675597190857,-0.8272106051445007,71.57786560058594,97.68431091308594,-21.6116943359375
192525,-0.000152587890625,0.24371337890625,-0.3800048828125,-0.0624407418072223,-0.5235167741775513,-0.8117967247962952,71.15245056152344,97.90530395507812,-21.78382873535156
192526,-0.000152587890625,0.24371337890625,-0.3800048828125,-0.0624407418072223,-0.5235167741775513,-0.8117967247962952,71.15245056152344,97.90530395507812,-21.78382873535156
192527,0.05682373046875,0.4383544921875,-0.4038543701171875,-0.1913731545209885,-0.7967482805252075,-0.6236055493354797,70.06147766113281,98.61273193359376,-22.07687377929688
192528,0.093658447265625,0.595855712890625,-0.4621734619140625,-0.2539507746696472,-0.831150472164154,-0.565315842628479,69.4912109375,98.90725708007812,-22.00830078125
192529,0.1446075439453125,0.829925537109375,-0.748046875,-0.169158399105072,-1.084550738334656,-0.5014883875846863,69.06709289550781,99.06095886230467,-21.78889465332031
192530,0.1446075439453125,0.829925537109375,-0.748046875,-0.169158399105072,-1.084550738334656,-0.5014883875846863,69.06709289550781,99.06095886230467,-21.78889465332031
192531,0.3527984619140625,1.48663330078125,-1.144119262695312,0.7097268104553223,-1.821375846862793,-0.1206236183643341,67.99374389648438,99.61614990234376,-21.99832153320312
192532,0.39984130859375,1.674285888671875,-0.72833251953125,0.9468267560005188,-0.4991917014122009,0.2432789653539658,67.53390502929688,99.66412353515624,-22.22882080078125
192533,0.39984130859375,1.674285888671875,-0.72833251953125,0.9468267560005188,-0.4991917014122009,0.2432789653539658,67.53390502929688,99.66412353515624,-22.22882080078125
192534,0.29864501953125,1.899337768554688,-0.1066741943359375,0.3546960353851318,0.929176390171051,0.0698014497756958,67.23794555664062,99.43911743164062,-23.04866027832031
192535,0.29864501953125,1.899337768554688,-0.1066741943359375,0.3546960353851318,0.929176390171051,0.0698014497756958,67.23794555664062,99.43911743164062,-23.04866027832031
192536,0.2106475830078125,2.211776733398438,-0.3053436279296875,0.413937509059906,0.2784273624420166,-0.1593441218137741,67.46206665039062,99.06752014160156,-22.9779052734375
192537,0.1143951416015625,2.615081787109375,-0.4399261474609375,0.81314617395401,-0.8281578421592712,-0.3335428237915039,67.62200927734375,98.97586059570312,-22.91021728515625
192538,0.0298919677734375,2.943344116210938,-0.3711700439453125,1.274711132049561,-1.516533613204956,-0.4936568439006805,67.663818359375,99.06097412109376,-23.21897888183594
192539,-0.1125640869140625,3.019989013671875,-0.342132568359375,1.571433901786804,-1.356730580329895,-0.5946135520935059,67.36746215820312,99.21205139160156,-23.92048645019531
192540,-0.2492218017578125,2.872467041015625,-0.484588623046875,1.563704371452332,-0.579358696937561,-0.5610824823379517,66.87643432617188,99.48707580566406,-24.85202026367188
192541,-0.1771087646484375,2.737991333007812,-0.68975830078125,1.277370810508728,-0.2488353848457336,-0.4638749957084656,66.32975769042969,99.65802001953124,-25.85624694824219
192542,0.03106689453125,2.727615356445312,-0.519012451171875,0.900043249130249,-0.3558220267295837,-0.4206811785697937,65.91119384765625,99.80723571777344,-26.75343322753906
192543,0.139862060546875,2.71038818359375,-0.1983642578125,0.587655782699585,-0.2524237334728241,-0.2374466359615326,65.69395446777344,99.76976013183594,-27.48249816894531
192544,0.139984130859375,2.71282958984375,0.0269775390625,0.3984760046005249,-0.0787776336073875,0.2052018940448761,65.57369995117188,99.6550750732422,-28.02474975585938
192545,0.0489959716796875,2.76507568359375,0.2734832763671875,0.451662003993988,0.1393837183713913,0.6845503449440002,65.55763244628906,99.52520751953124,-28.45335388183594
192546,-0.0988311767578125,2.625946044921875,0.336700439453125,0.7501536011695862,0.2865497469902039,1.123659014701843,65.85563659667969,99.25759887695312,-28.7281494140625
192547,-0.1497802734375,2.460601806640625,0.302398681640625,1.096746206283569,0.384606271982193,1.291666388511658,66.30989074707031,98.9548797607422,-28.98614501953125
192548,-0.1350860595703125,2.357803344726562,0.2490386962890625,1.396840453147888,0.3703836500644684,1.175673007965088,66.995849609375,98.50428771972656,-29.36517333984375
192549,-0.09844970703125,2.135208129882812,0.2801361083984375,1.542363882064819,0.3078851103782654,0.8820445537567139,67.75950622558594,97.95817565917967,-29.89283752441406
192550,0.01531982421875,1.41534423828125,0.403350830078125,1.506561160087585,0.2964676320552826,0.549618124961853,69.01275634765625,96.70974731445312,-31.04725646972656
192551,0.01531982421875,1.41534423828125,0.403350830078125,1.506561160087585,0.2964676320552826,0.549618124961853,69.01275634765625,96.70974731445312,-31.04725646972656
192552,0.0770416259765625,1.084274291992188,0.352386474609375,1.410676956176758,-0.0417554378509521,0.6254468560218811,69.52815246582031,96.1898956298828,-31.66410827636719
192553,0.1496429443359375,0.78857421875,0.252960205078125,1.410676956176758,-0.0417554378509521,0.6254468560218811,69.86187744140625,95.69029235839844,-32.27444458007812
192554,0.195465087890625,0.5622711181640625,0.204833984375,1.24097204208374,-0.4638941586017609,0.7229595184326172,70.13143920898438,95.24763488769533,-32.972412109375
192555,0.218292236328125,0.4336700439453125,0.2767181396484375,1.01714301109314,-0.7956990003585815,0.7834247350692749,70.43704223632812,94.71707153320312,-33.69096374511719
192556,0.258331298828125,0.3571014404296875,0.2870025634765625,0.791176974773407,-0.9720428586006165,0.7951788902282715,70.65589904785156,94.0752410888672,-34.20384216308594
192557,0.26055908203125,0.2913055419921875,0.2030487060546875,0.6626471877098083,-0.997561812400818,0.7729294896125793,70.91668701171875,93.53160095214844,-34.70198059082031
192558,0.1625213623046875,0.2389984130859375,0.082977294921875,0.622840166091919,-0.8988938331604004,0.7062402367591858,70.95497131347656,93.28306579589844,-35.21287536621094
192559,-0.2109527587890625,0.2952728271484375,0.1127166748046875,0.413935661315918,0.1531432121992111,0.5167842507362366,70.99992370605469,92.8519287109375,-36.18995666503906
192560,-0.2109527587890625,0.2952728271484375,0.1127166748046875,0.413935661315918,0.1531432121992111,0.5167842507362366,70.99992370605469,92.8519287109375,-36.18995666503906
192561,-0.26812744140625,0.2393646240234375,0.1444854736328125,0.0590920820832252,0.745306134223938,0.4584178924560547,71.11892700195312,92.63621520996094,-36.38920593261719
192562,-0.2957916259765625,0.1874542236328125,0.13641357421875,-0.3021998107433319,1.209637880325317,0.409561961889267,71.37782287597656,92.4613800048828,-36.46183776855469
192563,-0.2879638671875,0.1395263671875,0.0750885009765625,-0.5253721475601196,1.445495128631592,0.3699133396148682,71.637939453125,92.33290100097656,-36.37875366210938
192564,-0.2395477294921875,0.0919036865234375,0.0303192138671875,-0.564944326877594,1.473784327507019,0.3694353103637695,72.10040283203125,92.29071044921876,-36.14076232910156
192565,-0.024444580078125,0.176605224609375,0.2078857421875,-0.4845360517501831,1.606485843658447,0.340226024389267,73.1416015625,92.27912902832033,-35.01136779785156
192566,-0.024444580078125,0.176605224609375,0.2078857421875,-0.4845360517501831,1.606485843658447,0.340226024389267,73.1416015625,92.27912902832033,-35.01136779785156
192567,0.0342559814453125,0.27069091796875,0.3802032470703125,-0.6102972030639648,1.974552869796753,0.2352572530508041,73.55818176269531,92.16851806640624,-34.46763610839844
192568,0.06451416015625,0.360076904296875,0.4951629638671875,-1.302959799766541,2.937983512878418,-0.0079996036365628,74.08865356445312,92.17184448242188,-33.93905639648438
192569,0.0890655517578125,0.4651947021484375,0.549224853515625,-1.302959799766541,2.937983512878418,-0.0079996036365628,74.62142944335938,92.2235870361328,-33.17184448242188
192570,0.103759765625,0.58172607421875,0.5207366943359375,-1.671601533889771,3.118389844894409,-0.1811226457357407,75.17440795898438,92.25027465820312,-32.0999755859375
192571,0.0814208984375,0.6883087158203125,0.48223876953125,-1.883776903152466,2.887419462203979,-0.3598364591598511,75.81434631347656,92.44308471679688,-30.95706176757812
192572,-0.0526885986328125,0.8046417236328125,0.5324554443359375,-1.693696141242981,1.275235772132874,-0.5283448100090027,76.55654907226562,92.8504638671875,-27.92335510253906
192573,-0.0969085693359375,0.8563232421875,0.5774078369140625,-1.693696141242981,1.275235772132874,-0.5283448100090027,76.69882202148438,93.10783386230467,-26.5362548828125
192574,-0.0969085693359375,0.8563232421875,0.5774078369140625,-1.693696141242981,1.275235772132874,-0.5283448100090027,76.69882202148438,93.10783386230467,-26.5362548828125
192575,-0.125732421875,0.9146881103515624,0.6041107177734375,-1.738306999206543,0.8797385096549988,-0.5329778790473938,76.72288513183594,93.4326629638672,-25.24526977539062
192576,-0.1625823974609375,0.95123291015625,0.6118621826171875,-1.879057168960571,0.5725082755088806,-0.625685453414917,76.69609069824219,93.6561279296875,-24.15182495117188
192577,-0.2232818603515625,0.7893829345703125,0.50146484375,-2.198076486587524,0.2538178861141205,-0.925077497959137,76.41047668457031,94.05223083496094,-22.30436706542969
192578,-0.2232818603515625,0.7893829345703125,0.50146484375,-2.198076486587524,0.2538178861141205,-0.925077497959137,76.41047668457031,94.05223083496094,-22.30436706542969
192579,-0.2119903564453125,0.6642303466796875,0.3724212646484375,-2.285231828689575,0.1843000650405884,-1.027064323425293,76.09764099121094,94.4993896484375,-21.42802429199219
192580,-0.1712188720703125,0.584197998046875,0.2399139404296875,-2.146102666854858,0.101112499833107,-1.084286332130432,75.75421142578125,94.83302307128906,-20.4932861328125
192581,-0.1218109130859375,0.55450439453125,0.1055908203125,-2.146102666854858,0.101112499833107,-1.084286332130432,75.23902893066406,95.31214904785156,-19.346923828125
192582,-0.064361572265625,0.5540924072265625,-0.13421630859375,-1.916770815849304,-0.072591908276081,-1.088992714881897,74.68315124511719,95.6710968017578,-18.30851745605469
192583,0.0101470947265625,0.5827484130859375,-0.5595245361328125,-0.9596599936485292,-1.914496421813965,-1.073482155799866,74.10455322265625,96.11505126953124,-17.40705871582031
192584,0.121337890625,0.5005035400390625,-0.3230743408203125,-0.4732655584812164,-2.201069116592407,-0.9696332216262816,72.90274047851562,96.79537963867188,-16.13978576660156
192585,0.0901641845703125,0.389404296875,-0.106781005859375,-0.1299958229064941,-1.459956645965576,-0.8092017769813538,72.29881286621094,97.2765655517578,-16.01094055175781
192586,0.0901641845703125,0.389404296875,-0.106781005859375,-0.1299958229064941,-1.459956645965576,-0.8092017769813538,72.29881286621094,97.2765655517578,-16.01094055175781
192587,0.0663299560546875,0.176605224609375,-0.380767822265625,0.1318951845169067,-0.2282560765743256,-0.4007897675037384,71.01939392089844,98.09002685546876,-16.46800231933594
192588,0.0709228515625,0.168914794921875,-0.3763275146484375,0.1318951845169067,-0.2282560765743256,-0.4007897675037384,70.6453857421875,98.24940490722656,-16.60360717773438
192589,0.0678253173828125,0.166412353515625,-0.32183837890625,0.0136098181828856,-0.2692383825778961,-0.3840115666389465,70.27934265136719,98.49734497070312,-16.74610900878906
192590,0.0678253173828125,0.166412353515625,-0.32183837890625,0.0136098181828856,-0.2692383825778961,-0.3840115666389465,70.27934265136719,98.49734497070312,-16.74610900878906
192591,0.0772857666015625,0.169342041015625,-0.31396484375,-0.0815313458442688,-0.3282724320888519,-0.3890950083732605,70.06744384765625,98.51641845703124,-16.79917907714844
192592,0.100799560546875,0.2296905517578125,-0.3263397216796875,-0.1205599680542946,-0.3838779032230377,-0.3514421880245209,69.93815612792969,98.572021484375,-16.84169006347656
192593,0.13848876953125,0.381378173828125,-0.318450927734375,-0.0963276028633117,-0.2744163870811462,-0.0688437819480896,69.52545166015625,98.66329956054688,-16.77041625976562
192594,0.13848876953125,0.381378173828125,-0.318450927734375,-0.0963276028633117,-0.2744163870811462,-0.0688437819480896,69.52545166015625,98.66329956054688,-16.77041625976562
192595,0.1459197998046875,0.55596923828125,-0.221832275390625,-0.1231637448072433,-0.164262980222702,0.0292188711464405,69.24452209472656,98.81234741210938,-16.77548217773438
192596,0.149078369140625,0.6651458740234375,-0.285919189453125,-0.1231637448072433,-0.164262980222702,0.0292188711464405,69.23204040527344,98.83694458007812,-16.80178833007812
192597,0.1636199951171875,0.8018646240234375,-0.38372802734375,-0.0954018831253051,-0.4991624057292938,0.0426931343972683,69.22183227539062,98.82028198242188,-16.56207275390625
192598,0.1636199951171875,0.8018646240234375,-0.38372802734375,-0.0954018831253051,-0.4991624057292938,0.0426931343972683,69.22183227539062,98.82028198242188,-16.56207275390625
192599,0.1736297607421875,1.21246337890625,-0.2345123291015625,0.3215777575969696,-0.993364691734314,0.023877901956439,69.26028442382812,98.648193359375,-16.14637756347656
192600,0.14141845703125,1.499282836914062,-0.1283416748046875,0.7655693292617798,-0.6539072394371033,-0.0166559424251318,69.24510192871094,98.67901611328124,-16.08329772949219
192601,0.02178955078125,1.860260009765625,-0.0576324462890625,1.163600325584412,-0.1602533161640167,-0.1037250608205795,69.13398742675781,98.76715087890624,-16.26634216308594
192602,-0.188262939453125,2.289901733398438,0.1240234375,1.35135817527771,0.4874958992004395,-0.4591960906982422,69.0015869140625,99.03141784667967,-16.71762084960938
192603,-0.188262939453125,2.289901733398438,0.1240234375,1.35135817527771,0.4874958992004395,-0.4591960906982422,69.0015869140625,99.03141784667967,-16.71762084960938
192604,-0.42315673828125,2.883880615234375,0.1810455322265625,1.332185387611389,1.002994418144226,-1.202285647392273,68.73399353027344,99.37677001953124,-17.43476867675781
192605,-0.8486328125,3.569854736328125,0.2546539306640625,0.8299749493598938,0.7526878714561462,-1.985249400138855,68.44795227050781,99.6728057861328,-18.09153747558594
192606,-1.616729736328125,4.304153442382812,0.302093505859375,0.1806597858667374,0.9582743048667908,-2.046925783157349,67.97021484375,100.1484985351562,-18.56100463867188
192607,-0.7128143310546875,2.759963989257812,0.016448974609375,0.4106775522232056,0.8937786817550659,0.1474762707948685,66.52235412597656,101.0921325683594,-19.19578552246094
192608,-0.2608642578125,2.6544189453125,0.065887451171875,1.226293206214905,0.9853895902633668,0.5167036056518555,65.98674011230469,101.1782073974609,-18.77818298339844
192609,-0.214935302734375,2.56536865234375,0.1744842529296875,1.383220314979553,1.00778329372406,0.7474382519721985,66.03118896484375,101.2277679443359,-18.57597351074219
192610,-0.214935302734375,2.56536865234375,0.1744842529296875,1.383220314979553,1.00778329372406,0.7474382519721985,66.03118896484375,101.2277679443359,-18.57597351074219
192611,-0.206634521484375,2.372207641601562,0.27606201171875,1.278131127357483,0.8949869871139526,0.9031370282173156,66.14125061035156,100.927978515625,-18.86189270019531
192612,-0.1830902099609375,2.1622314453125,0.3677215576171875,1.383797407150269,0.9351801872253418,1.011395573616028,66.40483093261719,100.7518005371094,-19.71839904785156
192613,0.11370849609375,1.817916870117188,0.143890380859375,2.111520290374756,0.4876269102096558,1.076205968856812,67.37713623046875,100.0205078125,-21.07765197753906
192614,0.2332611083984375,1.72509765625,0.2014923095703125,1.639250993728638,0.0630777701735496,1.101447224617004,68.05296325683594,99.37503051757812,-21.80078125
192615,0.2332611083984375,1.72509765625,0.2014923095703125,1.639250993728638,0.0630777701735496,1.101447224617004,68.05296325683594,99.37503051757812,-21.80078125
192616,0.3053741455078125,1.481475830078125,0.0989837646484375,1.368201613426208,-0.1233355179429054,0.966241180896759,69.06163024902344,98.4075927734375,-23.73640441894531
192617,0.361236572265625,1.274002075195312,-0.0674285888671875,1.18931257724762,-0.5982493162155151,0.8435463905334473,69.53739929199219,97.90240478515624,-24.41650390625
192618,0.361236572265625,1.274002075195312,-0.0674285888671875,1.18931257724762,-0.5982493162155151,0.8435463905334473,69.53739929199219,97.90240478515624,-24.41650390625
192619,0.431976318359375,1.00921630859375,-0.127655029296875,1.140936017036438,-1.178178787231445,0.8104103207588196,69.887451171875,97.40299987792967,-25.15077209472656
192620,0.500885009765625,0.7987823486328125,-0.0533599853515625,1.261783838272095,-1.387914419174194,1.003437042236328,70.18771362304688,97.13148498535156,-25.7745361328125
192621,0.502716064453125,0.746734619140625,0.0760040283203125,1.179299116134644,-0.8880534172058105,0.9748013615608216,70.63377380371094,96.49075317382812,-27.09738159179688
192622,0.44482421875,0.8033599853515625,0.0543975830078125,0.9099389910697936,-0.2028292715549469,0.776085615158081,70.8411865234375,96.07162475585938,-27.92048645019531
192623,0.44482421875,0.8033599853515625,0.0543975830078125,0.9099389910697936,-0.2028292715549469,0.776085615158081,70.8411865234375,96.07162475585938,-27.92048645019531
192624,0.272918701171875,0.8028564453125,0.0463104248046875,0.5321499109268188,0.4751532077789307,0.5154215097427368,71.24041748046875,95.70018005371094,-28.50213623046875
192625,-0.0981597900390625,0.8323211669921875,0.2269439697265625,0.2103620320558548,1.402928233146667,0.6344347596168518,71.96319580078125,94.92707824707033,-29.1649169921875
192626,-0.0981597900390625,0.8323211669921875,0.2269439697265625,0.2103620320558548,1.402928233146667,0.6344347596168518,71.96319580078125,94.92707824707033,-29.1649169921875
192627,-0.2664794921875,0.7417755126953125,0.2398529052734375,0.13376285135746,1.630266785621643,0.5077990293502808,73.03033447265625,94.3152313232422,-29.27311706542969
192628,-0.315338134765625,0.6255950927734375,0.2315673828125,0.087039828300476,1.478224515914917,0.3561650216579437,73.68804931640625,94.0473175048828,-28.93267822265625
192629,-0.3289947509765625,0.48345947265625,0.2193756103515625,0.0389572530984878,1.254880905151367,0.2320060729980469,74.17372131347656,93.70628356933594,-28.62004089355469
192630,-0.3289947509765625,0.48345947265625,0.2193756103515625,0.0389572530984878,1.254880905151367,0.2320060729980469,74.17372131347656,93.70628356933594,-28.62004089355469
192631,-0.315277099609375,0.3548431396484375,0.229705810546875,-0.0023497070651501,1.071767926216125,0.1747579574584961,74.67683410644531,93.5815887451172,-28.33906555175781
192632,-0.2427825927734375,0.2360687255859375,0.42486572265625,-0.1663716733455658,1.39357602596283,0.1830095052719116,75.41828918457031,93.23054504394533,-27.62039184570312
192633,-0.2150421142578125,0.3008880615234375,0.5468292236328125,-0.370416671037674,1.952488780021667,0.1527938097715378,75.67291259765625,93.2158203125,-27.31819152832031
192634,-0.220123291015625,0.42291259765625,0.6315460205078125,-0.9665756821632384,3.111058712005615,-0.1038092225790024,75.857177734375,93.15513610839844,-27.12083435058594
192635,-0.220123291015625,0.42291259765625,0.6315460205078125,-0.9665756821632384,3.111058712005615,-0.1038092225790024,75.857177734375,93.15513610839844,-27.12083435058594
192636,-0.3010406494140625,0.6222381591796875,0.753662109375,-1.215049147605896,3.544286251068115,-0.2301130890846252,76.5511474609375,93.1239013671875,-25.82083129882812
192637,-0.341827392578125,0.6735382080078125,0.7153778076171875,-1.329936265945435,3.730593681335449,-0.2699249684810638,76.92768859863281,93.12425231933594,-24.73110961914062
192638,-0.341827392578125,0.6735382080078125,0.7153778076171875,-1.329936265945435,3.730593681335449,-0.2699249684810638,76.92768859863281,93.12425231933594,-24.73110961914062
192639,-0.3721466064453125,0.6934661865234375,0.6057586669921875,-1.327270746231079,3.552811145782471,-0.2295631468296051,77.27745056152344,93.24264526367188,-23.39413452148438
192640,-0.3995361328125,0.717742919921875,0.4900970458984375,-1.245313048362732,3.041330099105835,-0.1825993657112122,77.47868347167969,93.39865112304688,-21.91128540039062
192641,-0.371826171875,0.7205047607421875,0.3622894287109375,-1.203169822692871,1.722368001937866,-0.3246987164020538,77.78373718261719,93.8188934326172,-18.7010498046875
192642,-0.329803466796875,0.6498870849609375,0.3358917236328125,-1.378956317901611,1.168222784996033,-0.5192689895629883,77.70906066894531,94.11863708496094,-17.74407958984375
192643,-0.329803466796875,0.6498870849609375,0.3358917236328125,-1.378956317901611,1.168222784996033,-0.5192689895629883,77.70906066894531,94.11863708496094,-17.74407958984375
192644,-0.2018585205078125,0.4929962158203125,0.2579498291015625,-1.820581078529358,0.1862929165363312,-0.8793835043907166,77.37483215332031,94.53465270996094,-15.86650085449219
192645,-0.115753173828125,0.4619293212890625,0.2414398193359375,-1.903892755508423,-0.1355727463960648,-0.9707464575767516,76.96331787109375,94.67791748046876,-14.9554443359375
192646,-0.115753173828125,0.4619293212890625,0.2414398193359375,-1.903892755508423,-0.1355727463960648,-0.9707464575767516,76.96331787109375,94.67791748046876,-14.9554443359375
192647,0.0400390625,0.4360198974609375,0.152923583984375,-1.872796058654785,-0.5363214612007141,-0.9476182460784912,76.1885986328125,94.93666076660156,-13.36415100097656
192648,0.0400390625,0.4360198974609375,0.152923583984375,-1.872796058654785,-0.5363214612007141,-0.9476182460784912,76.1885986328125,94.93666076660156,-13.36415100097656
192649,0.09771728515625,0.420989990234375,0.1236114501953125,-1.802095890045166,-0.4889944493770599,-0.808810830116272,75.66461181640625,95.063232421875,-12.46037292480469
192650,0.1518707275390625,0.3915863037109375,0.0537567138671875,-1.597039341926575,-0.5461112856864929,-0.597221314907074,75.14521789550781,95.15388488769533,-11.51243591308594
192651,0.2159881591796875,0.33447265625,-0.1230926513671875,-1.184305548667908,-0.871198832988739,-0.3341830372810364,74.61328125,95.39710998535156,-10.82806396484375
192652,0.2674407958984375,0.2746734619140625,-0.322998046875,-1.184305548667908,-0.871198832988739,-0.3341830372810364,74.10157775878906,95.55384826660156,-10.19235229492188
192653,0.2196197509765625,0.2334442138671875,-0.2703857421875,0.3213489949703217,-1.237790703773499,-0.0853258147835731,73.17181396484375,95.896484375,-8.616043090820312
192654,0.2196197509765625,0.2334442138671875,-0.2703857421875,0.3213489949703217,-1.237790703773499,-0.0853258147835731,73.17181396484375,95.896484375,-8.616043090820312
192655,0.1667022705078125,0.2077178955078125,-0.11419677734375,0.3213489949703217,-1.237790703773499,-0.0853258147835731,73.103759765625,95.87582397460938,-8.702728271484375
192656,0.04779052734375,0.160736083984375,-0.1105194091796875,0.4468062520027161,-0.1442147046327591,-0.3673332631587982,72.88479614257812,96.01731872558594,-9.342315673828123
192657,-0.000732421875,0.127471923828125,-0.29876708984375,0.4347434639930725,0.2598142623901367,-0.5690871477127075,72.67152404785156,96.07948303222656,-9.603591918945312
192658,-0.000732421875,0.127471923828125,-0.29876708984375,0.4347434639930725,0.2598142623901367,-0.5690871477127075,72.67152404785156,96.07948303222656,-9.603591918945312
192659,-0.066162109375,0.1619720458984375,-0.7048492431640625,0.4711454212665558,-0.0255234688520431,-0.5408211946487427,72.08758544921875,96.74554443359376,-9.8865966796875
192660,0.001434326171875,0.249786376953125,-0.5794830322265625,0.2735607028007507,-0.0535748116672039,-0.3166394531726837,71.72561645507812,96.91184997558594,-9.953414916992188
192661,0.1266021728515625,0.3358154296875,-0.403076171875,0.0252789910882711,0.2447186708450317,-0.1088220849633217,71.38786315917969,97.14320373535156,-10.22657775878906
192662,0.1266021728515625,0.3358154296875,-0.403076171875,0.0252789910882711,0.2447186708450317,-0.1088220849633217,71.38786315917969,97.14320373535156,-10.22657775878906
192663,0.1908721923828125,0.4373779296875,-0.4116363525390625,-0.0176128149032592,0.2956327199935913,0.2083747833967209,71.17819213867188,97.2367706298828,-10.29435729980469
192664,0.2399139404296875,0.6028594970703125,-0.5084991455078125,-0.0176128149032592,0.2956327199935913,0.2083747833967209,71.07147216796875,97.2595672607422,-10.10234069824219
192665,0.3365478515625,1.063308715820312,-0.6323699951171875,0.512342095375061,-0.2926084399223328,0.4686265885829926,71.09080505371094,97.20298767089844,-9.830337524414062
192666,0.3365478515625,1.063308715820312,-0.6323699951171875,0.512342095375061,-0.2926084399223328,0.4686265885829926,71.09080505371094,97.20298767089844,-9.830337524414062
192667,0.318084716796875,1.802352905273438,-0.6164093017578125,0.9828888773918152,-0.4708612561225891,0.5435610413551331,71.35978698730469,97.02610778808594,-10.01380920410156
192668,0.20452880859375,2.234375,-0.247894287109375,0.912062644958496,0.0232123788446188,0.3840200901031494,71.43511962890625,96.93844604492188,-10.29434204101562
192669,0.1876068115234375,2.597335815429688,-0.0237274169921875,0.8277996778488159,0.5569583177566528,0.0421186909079551,71.49105834960938,96.88775634765624,-10.7213134765625
192670,0.1876068115234375,2.597335815429688,-0.0237274169921875,0.8277996778488159,0.5569583177566528,0.0421186909079551,71.49105834960938,96.88775634765624,-10.7213134765625
192671,0.158203125,2.958908081054688,-0.0409393310546875,0.985527515411377,0.6932043433189392,-0.2851878106594086,71.50363159179688,97.04151916503906,-11.25340270996094
192672,-0.179351806640625,3.634963989257812,0.2181243896484375,1.549618601799011,1.077938199043274,-1.251467108726501,71.19515991210938,97.68960571289062,-12.10787963867188
192673,-0.3835906982421875,3.547348022460938,0.094268798828125,1.482637643814087,1.167213439941406,-1.715508460998535,70.86447143554688,98.19180297851562,-12.91897583007812
192674,-0.6984710693359375,3.113327026367188,-0.1217041015625,1.257795810699463,0.7356060743331909,-1.934491991996765,70.27653503417969,98.67835998535156,-13.87428283691406
192675,-0.6984710693359375,3.113327026367188,-0.1217041015625,1.257795810699463,0.7356060743331909,-1.934491991996765,70.27653503417969,98.67835998535156,-13.87428283691406
192676,-1.191192626953125,2.494903564453125,-0.268707275390625,0.9538779854774476,0.5393625497817993,-1.348323583602905,69.63591003417969,99.3820343017578,-14.54812622070312
192677,-1.221054077148438,2.171463012695312,-0.4175872802734375,0.6013787984848022,0.3775939047336578,-0.1508805900812149,68.95069885253906,99.88528442382812,-15.27439880371094
192678,-0.301910400390625,2.479354858398438,0.057586669921875,1.025917768478394,0.4343461096286774,0.47711381316185,68.62686157226562,99.90315246582033,-15.71031188964844
192679,-0.301910400390625,2.479354858398438,0.057586669921875,1.025917768478394,0.4343461096286774,0.47711381316185,68.62686157226562,99.90315246582033,-15.71031188964844
192680,-0.15966796875,2.15374755859375,0.3535003662109375,1.971035122871399,0.7318092584609985,0.9620216488838196,69.07087707519531,99.44345092773438,-16.43778991699219
192681,-0.1669464111328125,2.045379638671875,0.498077392578125,2.071978092193604,0.848425567150116,1.206750154495239,69.56561279296875,99.18138122558594,-17.26850891113281
192682,-0.1669464111328125,2.045379638671875,0.498077392578125,2.071978092193604,0.848425567150116,1.206750154495239,69.56561279296875,99.18138122558594,-17.26850891113281
192683,-0.1206512451171875,1.827987670898438,0.526275634765625,1.697245836257935,0.917517066001892,1.156995415687561,70.0816650390625,98.78874206542967,-18.23825073242188
192684,0.001739501953125,1.300628662109375,0.4318695068359375,1.431461811065674,0.8082571625709534,1.086441040039062,71.31422424316406,97.86087036132812,-19.81329345703125
192685,0.0962066650390625,1.048629760742188,0.223175048828125,1.283889174461365,0.4136805236339569,1.063615083694458,71.87008666992188,97.39630126953124,-20.27212524414062
192686,0.0962066650390625,1.048629760742188,0.223175048828125,1.283889174461365,0.4136805236339569,1.063615083694458,71.87008666992188,97.39630126953124,-20.27212524414062
192687,0.147125244140625,0.913116455078125,0.06671142578125,1.291809439659119,-0.1573302298784256,1.026978254318237,72.22970581054688,97.07022094726562,-20.77973937988281
192688,0.167755126953125,0.9805755615234376,-0.0394744873046875,1.378989100456238,-0.8262398838996887,0.7572927474975586,72.91732788085938,96.51358032226562,-21.72845458984375
192689,0.1666412353515625,1.001022338867188,0.0034027099609375,1.241090059280396,-0.8070906400680542,0.612973153591156,73.23541259765625,96.236083984375,-22.37910461425781
192690,0.1666412353515625,1.001022338867188,0.0034027099609375,1.241090059280396,-0.8070906400680542,0.612973153591156,73.23541259765625,96.236083984375,-22.37910461425781
192691,0.0348968505859375,0.740997314453125,0.11767578125,0.7235859036445618,0.3835689723491669,0.5270904302597046,73.61796569824219,95.753173828125,-23.84500122070312
192692,-0.1520233154296875,0.614898681640625,0.077880859375,0.5543252825737,1.140897989273071,0.6261081099510193,73.77377319335938,95.4982452392578,-24.32182312011719
192693,-0.2383270263671875,0.6183929443359375,0.0440521240234375,0.4790451526641846,1.544021964073181,0.7087305188179016,74.04501342773438,95.19931030273438,-24.5673828125
192694,-0.2383270263671875,0.6183929443359375,0.0440521240234375,0.4790451526641846,1.544021964073181,0.7087305188179016,74.04501342773438,95.19931030273438,-24.5673828125
192695,-0.244232177734375,0.6163787841796875,0.082244873046875,0.4222433865070343,1.724177122116089,0.7007128596305847,74.42578125,94.90904235839844,-24.62126159667969
192696,-0.243316650390625,0.5494537353515625,0.11895751953125,0.2604949772357941,1.904561996459961,0.5814769864082336,74.98196411132812,94.61363220214844,-24.26229858398438
192697,-0.2434234619140625,0.407196044921875,0.2288665771484375,0.0365654677152633,2.076277017593384,0.4106514453887939,76.16966247558594,94.03790283203124,-23.66146850585938
192698,-0.2434234619140625,0.407196044921875,0.2288665771484375,0.0365654677152633,2.076277017593384,0.4106514453887939,76.16966247558594,94.03790283203124,-23.66146850585938
192699,-0.24005126953125,0.351043701171875,0.313690185546875,0.0365654677152633,2.076277017593384,0.4106514453887939,76.68020629882812,93.70027160644533,-23.3404541015625
192700,-0.2405548095703125,0.3190460205078125,0.4046630859375,-0.1243152916431427,2.233144283294678,0.288970559835434,77.18948364257812,93.5212860107422,-22.7615966796875
192701,-0.2628021240234375,0.38250732421875,0.612548828125,-0.5584760904312134,2.696527242660522,-0.0610500387847423,78.03608703613281,93.16780090332033,-21.44580078125
192702,-0.2628021240234375,0.38250732421875,0.612548828125,-0.5584760904312134,2.696527242660522,-0.0610500387847423,78.03608703613281,93.16780090332033,-21.44580078125
192703,-0.2754974365234375,0.4655303955078125,0.66790771484375,-0.8098020553588867,2.933605909347534,-0.2390993982553482,78.2403564453125,93.0992431640625,-20.60354614257812
192704,-0.290130615234375,0.5461273193359375,0.6508026123046875,-1.033064365386963,3.029421806335449,-0.3634796738624573,78.43147277832031,93.12832641601562,-19.24215698242188
192705,-0.37255859375,0.6797332763671875,0.5491180419921875,-1.30938708782196,2.497993469238281,-0.4368199408054352,78.45033264160156,93.3868408203125,-16.67799377441406
192706,-0.4052581787109375,0.71124267578125,0.4958038330078125,-1.378075122833252,1.966742634773254,-0.4551701843738556,78.339111328125,93.65202331542967,-15.45681762695312
192707,-0.4052581787109375,0.71124267578125,0.4958038330078125,-1.378075122833252,1.966742634773254,-0.4551701843738556,78.339111328125,93.65202331542967,-15.45681762695312
192708,-0.4098358154296875,0.7353973388671875,0.452239990234375,-1.478134036064148,0.7380974888801575,-0.6480700969696045,78.21414184570312,93.7725067138672,-14.30451965332031
192709,-0.3745574951171875,0.7118377685546875,0.4033203125,-1.478134036064148,0.7380974888801575,-0.6480700969696045,78.0860595703125,93.84222412109376,-13.26213073730469
192710,-0.2983551025390625,0.6385498046875,0.344390869140625,-1.526741027832031,0.183751717209816,-0.7737769484519958,77.7869873046875,93.8933563232422,-12.2623291015625
192711,-0.0691986083984375,0.4572906494140625,0.1898345947265625,-1.624705672264099,-0.9313404560089112,-0.8403967022895813,77.2137451171875,93.96510314941406,-10.99822998046875
192712,-0.0691986083984375,0.4572906494140625,0.1898345947265625,-1.624705672264099,-0.9313404560089112,-0.8403967022895813,77.2137451171875,93.96510314941406,-10.99822998046875
192713,0.0099639892578125,0.410980224609375,0.13360595703125,-1.624705672264099,-0.9313404560089112,-0.8403967022895813,76.84019470214844,94.06608581542967,-10.4681396484375
192714,0.070159912109375,0.3910980224609375,0.107940673828125,-1.697690844535828,-1.08069634437561,-0.7764898538589478,76.35403442382812,94.12255859375,-10.05404663085938
192715,0.1290435791015625,0.367950439453125,0.07684326171875,-1.822446942329407,-1.041612148284912,-0.5114830136299133,76.04257202148438,94.35284423828124,-9.80938720703125
192716,0.1905517578125,0.3321380615234375,-0.04022216796875,-1.662555813789368,-1.175021767616272,-0.3316604793071747,75.62405395507812,94.33465576171876,-9.363235473632812
192717,0.251129150390625,0.26751708984375,-0.239898681640625,-1.662555813789368,-1.175021767616272,-0.3316604793071747,75.31120300292969,94.49270629882812,-8.7374267578125
192718,0.2532196044921875,0.2172698974609375,-0.339019775390625,-1.23878800868988,-1.421223640441895,-0.2261087596416473,75.04470825195312,94.52076721191406,-8.110061645507812
192719,0.2074127197265625,0.2004547119140625,-0.2696685791015625,-0.1765630543231964,-1.181204080581665,-0.3110787868499756,74.93853759765625,94.46234130859376,-7.510116577148438
192720,0.140472412109375,0.182342529296875,-0.1751251220703125,-0.1765630543231964,-1.181204080581665,-0.3110787868499756,74.82339477539062,94.46418762207033,-7.123641967773438
192721,0.1008148193359375,0.1382598876953125,-0.1322479248046875,0.0928079709410667,-0.815093994140625,-0.4301644265651703,74.75642395019531,94.470947265625,-7.053466796875
192722,0.06658935546875,0.10125732421875,-0.15380859375,0.1906879246234894,-0.49268639087677,-0.5501872301101685,74.583984375,94.51084899902344,-7.165008544921875
192723,-0.0421142578125,0.06689453125,-0.2169342041015625,-0.135316014289856,-0.0303232837468385,-0.8899410963058472,74.12091064453125,95.15579223632812,-7.62298583984375
192724,-0.0421142578125,0.06689453125,-0.2169342041015625,-0.135316014289856,-0.0303232837468385,-0.8899410963058472,74.12091064453125,95.15579223632812,-7.62298583984375
192725,-0.0888824462890625,0.0677032470703125,-0.2152252197265625,-0.135316014289856,-0.0303232837468385,-0.8899410963058472,73.79925537109375,95.39128112792967,-7.83123779296875
192726,-0.1087493896484375,0.0790252685546875,-0.2550506591796875,-0.2630555927753448,0.0994142070412635,-0.8492562174797058,73.44398498535156,95.60926818847656,-7.728759765625
192727,-0.0887603759765625,0.0926971435546875,-0.3532562255859375,-0.3309065401554108,0.13820980489254,-0.7076948285102844,73.00132751464844,95.8324737548828,-7.584335327148438
192728,-0.045623779296875,0.172027587890625,-0.4859161376953125,-0.3250460028648376,-0.0064059677533805,-0.4707014560699463,72.56806945800781,96.05734252929688,-7.486099243164062
192729,0.1147003173828125,0.4970245361328125,-0.536651611328125,-0.1125755459070206,-0.2845190763473511,0.1543530821800232,71.96424865722656,96.49583435058594,-7.178817749023438
192730,0.1147003173828125,0.4970245361328125,-0.536651611328125,-0.1125755459070206,-0.2845190763473511,0.1543530821800232,71.96424865722656,96.49583435058594,-7.178817749023438
192731,0.1823272705078125,0.6533660888671875,-0.5296630859375,0.0749565288424491,-0.1084034368395805,0.4118314981460571,71.78672790527344,96.69110107421876,-7.10565185546875
192732,0.2408294677734375,0.9263916015625,-0.5148162841796875,0.3897043466567993,0.4987751841545105,0.7674164772033691,71.88552856445312,96.62721252441406,-7.095993041992188
192733,0.294830322265625,1.099502563476562,-0.4427947998046875,0.3897043466567993,0.4987751841545105,0.7674164772033691,72.04905700683594,96.44245910644533,-6.855712890625
192734,0.325042724609375,1.38275146484375,-0.3860321044921875,0.3716481328010559,0.5553087592124939,0.7904216647148132,72.26756286621094,96.23414611816406,-6.6802978515625
192735,0.325042724609375,1.38275146484375,-0.3860321044921875,0.3716481328010559,0.5553087592124939,0.7904216647148132,72.26756286621094,96.23414611816406,-6.6802978515625
192736,0.2172698974609375,2.323028564453125,-0.0567779541015625,0.3664893209934235,0.6080310940742493,0.2236994057893753,72.70512390136719,95.85467529296876,-6.77410888671875
192737,0.17340087890625,2.86798095703125,-0.1012725830078125,0.5542187094688416,0.4832747876644135,-0.1907201558351517,72.77120971679688,95.78939819335938,-6.713165283203125
192738,0.17340087890625,2.86798095703125,-0.1012725830078125,0.5542187094688416,0.4832747876644135,-0.1907201558351517,72.77120971679688,95.78939819335938,-6.713165283203125
192739,0.0814971923828125,3.569412231445312,-0.1975250244140625,1.077261209487915,0.2036881446838379,-0.6920586228370667,72.66352844238281,95.85554504394533,-6.722564697265625
192740,-0.060272216796875,4.223617553710938,-0.1721954345703125,1.674055099487305,-0.0138476388528943,-1.202475786209106,72.41801452636719,96.11329650878906,-6.916946411132812
192741,-0.3109893798828125,4.527557373046875,0.0176544189453125,1.910874485969543,0.5815310478210449,-1.571960091590881,72.05296325683594,96.66143798828124,-7.464630126953125
192742,-0.985870361328125,2.859893798828125,-0.589996337890625,1.081612229347229,1.127131223678589,-1.06057596206665,70.56666564941406,98.14884948730467,-9.201461791992188
192743,-0.985870361328125,2.859893798828125,-0.589996337890625,1.081612229347229,1.127131223678589,-1.06057596206665,70.56666564941406,98.14884948730467,-9.201461791992188
192744,-0.5607147216796875,2.168807983398438,-0.1982879638671875,0.7953767776489258,0.8436225652694702,0.3749158084392548,69.50984191894531,98.94352722167967,-10.28866577148438
192745,-0.392242431640625,2.324493408203125,0.0930023193359375,1.15484356880188,0.9497807025909424,0.7438256740570068,69.43022155761719,98.85971069335938,-10.42901611328125
192746,-0.392242431640625,2.324493408203125,0.0930023193359375,1.15484356880188,0.9497807025909424,0.7438256740570068,69.43022155761719,98.85971069335938,-10.42901611328125
192747,-0.35595703125,2.415481567382812,0.134124755859375,1.575107216835022,0.9569821357727052,0.8732369542121887,69.71784973144531,98.62747192382812,-10.67813110351562
192748,-0.27783203125,2.320526123046875,-0.007781982421875,1.726540684700012,0.4819240272045135,1.037308692932129,70.02597045898438,98.37712097167967,-11.17204284667969
192749,-0.1452178955078125,2.218414306640625,0.0859527587890625,1.653680324554443,0.1877725571393967,1.006269335746765,70.50788879394531,97.98529052734376,-11.81825256347656
192750,0.034210205078125,2.054351806640625,0.2130126953125,1.554471135139465,0.1148829087615013,0.8826112747192383,70.98773193359375,97.7831573486328,-12.47190856933594
192751,0.229644775390625,1.320281982421875,0.2416534423828125,1.631920695304871,-0.5530416369438171,0.8154252767562866,71.93417358398438,97.11224365234376,-13.96011352539062
192752,0.229644775390625,1.320281982421875,0.2416534423828125,1.631920695304871,-0.5530416369438171,0.8154252767562866,71.93417358398438,97.11224365234376,-13.96011352539062
192753,0.3433990478515625,0.7018585205078125,0.20379638671875,1.829515218734741,-0.9084542989730836,0.90878826379776,72.85841369628906,96.25279235839844,-15.37507629394531
192754,0.3433990478515625,0.7018585205078125,0.20379638671875,1.829515218734741,-0.9084542989730836,0.90878826379776,72.85841369628906,96.25279235839844,-15.37507629394531
192755,0.4194793701171875,0.4849090576171875,0.1909332275390625,1.979369640350342,-1.005090832710266,1.029975414276123,73.634765625,95.51522827148438,-17.1676025390625
192756,0.44232177734375,0.4842071533203125,0.0706939697265625,1.791677236557007,-0.9775406718254088,1.003568053245544,73.886474609375,95.24032592773438,-18.19410705566406
192757,0.44232177734375,0.4842071533203125,0.0706939697265625,1.791677236557007,-0.9775406718254088,1.003568053245544,73.886474609375,95.24032592773438,-18.19410705566406
192758,0.4158782958984375,0.531005859375,0.07537841796875,1.483561515808105,-0.8473904132843018,0.8868832588195801,74.27745056152344,95.01754760742188,-19.14710998535156
192759,0.09429931640625,0.552947998046875,0.2697906494140625,0.7301857471466064,0.2714168727397919,0.7091031074523926,74.90469360351562,94.36581420898438,-20.95481872558594
192760,-0.053253173828125,0.6036376953125,0.3287811279296875,0.4619537889957428,0.8844770789146423,0.7295569777488708,75.26325988769531,93.97959899902344,-21.31437683105469
192761,-0.053253173828125,0.6036376953125,0.3287811279296875,0.4619537889957428,0.8844770789146423,0.7295569777488708,75.26325988769531,93.97959899902344,-21.31437683105469
192762,-0.1297149658203125,0.5644989013671875,0.329803466796875,0.2894733548164368,1.308798313140869,0.6845729947090149,75.74931335449219,93.62974548339844,-21.72087097167969
192763,-0.2104339599609375,0.50299072265625,0.251953125,0.1570468693971634,1.411148548126221,0.5984429121017456,76.1962890625,93.23683166503906,-21.87211608886719
192764,-0.2667236328125,0.460784912109375,0.2211761474609375,-0.1411249041557312,1.198845148086548,0.3012173771858215,76.70086669921875,93.00471496582033,-21.79853820800781
192765,-0.331634521484375,0.3813323974609375,0.2760162353515625,-0.3057508766651154,1.191137433052063,0.1290288269519806,77.39036560058594,92.70864868164062,-21.14283752441406
192766,-0.331634521484375,0.3813323974609375,0.2760162353515625,-0.3057508766651154,1.191137433052063,0.1290288269519806,77.39036560058594,92.70864868164062,-21.14283752441406
192767,-0.35791015625,0.3593902587890625,0.3112030029296875,-0.6864052414894104,1.514729857444763,-0.1919731646776199,77.792724609375,92.52159118652344,-20.79301452636719
192768,-0.426849365234375,0.4423065185546875,0.4686279296875,-0.9074223041534424,1.880091905593872,-0.2998309135437012,77.97325134277344,92.69032287597656,-19.72555541992188
192769,-0.426849365234375,0.4423065185546875,0.4686279296875,-0.9074223041534424,1.880091905593872,-0.2998309135437012,77.97325134277344,92.69032287597656,-19.72555541992188
192770,-0.4361572265625,0.5713958740234375,0.500701904296875,-1.141023397445679,2.238842725753784,-0.3347678780555725,78.05374145507812,92.68223571777344,-18.9453125
192771,-0.4021453857421875,0.7925567626953125,0.4909820556640625,-1.341155171394348,2.41083550453186,-0.3004620969295502,77.91690063476562,92.83572387695312,-18.129150390625
192772,-0.283233642578125,1.116073608398438,0.39654541015625,-1.496400356292725,2.094176292419434,-0.2498039752244949,77.96246337890625,92.99774169921876,-16.27476501464844
192773,-0.183349609375,1.157913208007812,0.3532257080078125,-1.405847549438477,1.737501978874207,-0.2765490412712097,77.88844299316406,93.0475616455078,-14.93220520019531
192774,-0.183349609375,1.157913208007812,0.3532257080078125,-1.405847549438477,1.737501978874207,-0.2765490412712097,77.88844299316406,93.0475616455078,-14.93220520019531
192775,0.0415191650390625,1.008209228515625,0.2959747314453125,-1.093131184577942,0.9699448347091676,-0.3502435088157654,77.63752746582031,93.04693603515624,-12.60018920898438
192776,0.1125335693359375,0.880462646484375,0.329071044921875,-1.018375158309937,0.8186740875244141,-0.3807729184627533,77.46531677246094,93.14796447753906,-11.84132385253906
192777,0.140869140625,0.7436370849609375,0.36260986328125,-0.9843608140945436,0.8958476781845093,-0.3894726634025574,77.22544860839844,93.28237915039062,-11.17018127441406
192778,0.140869140625,0.7436370849609375,0.36260986328125,-0.9843608140945436,0.8958476781845093,-0.3894726634025574,77.22544860839844,93.28237915039062,-11.17018127441406
192779,0.1234283447265625,0.6128082275390625,0.350616455078125,-0.9410825371742249,1.071147084236145,-0.3939334452152252,77.03250122070312,93.39730834960938,-10.4453125
192780,-0.0006866455078125,0.34564208984375,0.0578765869140625,-0.8810335993766785,0.8970125913619995,-0.4639269113540649,76.565673828125,93.48312377929688,-9.156723022460938
192781,-0.0413360595703125,0.2116851806640625,-0.0947418212890625,-0.907578945159912,0.4952052235603333,-0.5096262097358704,76.2587890625,93.5288543701172,-8.487808227539062
192782,-0.0413360595703125,0.2116851806640625,-0.0947418212890625,-0.907578945159912,0.4952052235603333,-0.5096262097358704,76.2587890625,93.5288543701172,-8.487808227539062
192783,-0.0306854248046875,0.1106719970703125,-0.2198486328125,-0.955778419971466,-0.0005664543714374,-0.5403282046318054,76.06025695800781,93.50267028808594,-7.840713500976562
192784,-0.000732421875,0.0287322998046875,-0.3064422607421875,-0.94442480802536,-0.5458380579948425,-0.5320572257041931,75.76853942871094,93.5747528076172,-7.315521240234375
192785,0.054931640625,-0.05810546875,-0.22454833984375,-0.7724677324295044,-1.139632940292358,-0.392972856760025,75.31289672851562,93.7736358642578,-6.524276733398438
192786,0.054931640625,-0.05810546875,-0.22454833984375,-0.7724677324295044,-1.139632940292358,-0.392972856760025,75.31289672851562,93.7736358642578,-6.524276733398438
192787,0.0716552734375,-0.0721435546875,-0.1607208251953125,-0.6668339371681213,-1.077575206756592,-0.2951189875602722,75.14739990234375,93.86990356445312,-6.261306762695312
192788,0.0994415283203125,-0.0386199951171875,-0.1702117919921875,-0.381165474653244,-0.6391842365264893,-0.127315878868103,74.75053405761719,93.9954833984375,-6.022232055664062
192789,0.1159515380859375,0.0006866455078125,-0.194305419921875,-0.2344684302806854,-0.432089626789093,-0.0539484545588493,74.58078002929688,94.10212707519533,-6.067916870117188
192790,0.1171722412109375,0.060577392578125,-0.18798828125,0.013213007710874,0.0670477449893951,-0.0254118833690881,74.51254272460938,94.08470153808594,-5.873992919921875
192791,0.1171722412109375,0.060577392578125,-0.18798828125,0.013213007710874,0.0670477449893951,-0.0254118833690881,74.51254272460938,94.08470153808594,-5.873992919921875
192792,0.1354827880859375,0.1605072021484375,-0.1280670166015625,0.0763024911284446,0.3757270276546478,-0.0379186198115348,74.32109069824219,94.1973114013672,-5.44195556640625
192793,0.1513214111328125,0.2125091552734375,-0.12933349609375,0.0895839482545852,0.610443651676178,-0.0380488485097885,74.36808776855469,94.12353515625,-5.255401611328125
192794,0.1684722900390625,0.2575836181640625,-0.1651611328125,0.0556227825582027,0.534674882888794,-0.0151744252070784,74.24008178710938,94.213134765625,-5.210113525390625
192795,0.1684722900390625,0.2575836181640625,-0.1651611328125,0.0556227825582027,0.534674882888794,-0.0151744252070784,74.24008178710938,94.213134765625,-5.210113525390625
192796,0.2111663818359375,0.3411407470703125,-0.4359588623046875,0.1127571761608124,0.0769773423671722,0.0303874667733907,74.066650390625,94.17164611816406,-4.971115112304688
192797,0.2341766357421875,0.42681884765625,-0.6164398193359375,0.2914478182792664,-0.6218563914299011,0.0677646696567535,73.89138793945312,94.20315551757812,-4.726119995117188
192798,0.2680206298828125,0.5784454345703125,-0.768035888671875,0.8171185255050659,-1.194040298461914,0.1145036742091179,73.79353332519531,94.3143310546875,-4.489837646484375
192799,0.2680206298828125,0.5784454345703125,-0.768035888671875,0.8171185255050659,-1.194040298461914,0.1145036742091179,73.79353332519531,94.3143310546875,-4.489837646484375
192800,0.42547607421875,1.028793334960938,-1.004013061523438,1.19171667098999,-0.1264748573303223,0.3289115726947784,73.75776672363281,94.34803771972656,-4.89923095703125
192801,0.37115478515625,1.255905151367188,-0.8331756591796875,1.345348834991455,1.735157251358032,0.6668376922607422,73.72610473632812,94.44328308105467,-5.092269897460938
192802,0.37115478515625,1.255905151367188,-0.8331756591796875,1.345348834991455,1.735157251358032,0.6668376922607422,73.72610473632812,94.44328308105467,-5.092269897460938
192803,0.230377197265625,1.593338012695312,-0.75799560546875,0.781535267829895,2.290340423583984,0.670210063457489,73.71942138671875,94.63679504394533,-5.678573608398438
192804,0.184539794921875,2.601165771484375,-0.527862548828125,-0.9169500470161438,0.3443896174430847,-1.031568765640259,73.66909790039062,94.6437530517578,-5.98870849609375
192805,0.184539794921875,2.601165771484375,-0.527862548828125,-0.9169500470161438,0.3443896174430847,-1.031568765640259,73.66909790039062,94.6437530517578,-5.98870849609375
192806,0.267852783203125,4.107955932617188,-0.23626708984375,0.2561960816383362,-1.875001192092896,-1.882030606269836,73.35362243652344,94.74298095703124,-5.194412231445312
192807,0.267852783203125,4.107955932617188,-0.23626708984375,0.2561960816383362,-1.875001192092896,-1.882030606269836,73.35362243652344,94.74298095703124,-5.194412231445312
192808,-0.43988037109375,4.2684326171875,0.1546783447265625,1.867544412612915,2.10965633392334,-2.027829647064209,71.93778991699219,95.75035095214844,-5.302703857421875
192809,-0.8384857177734375,3.06903076171875,-0.7271270751953125,1.734675288200378,2.664581775665283,-1.587866067886353,71.00537109375,96.64659118652344,-5.992019653320312
192810,-0.8384857177734375,3.06903076171875,-0.7271270751953125,1.734675288200378,2.664581775665283,-1.587866067886353,71.00537109375,96.64659118652344,-5.992019653320312
192811,-1.275848388671875,2.399948120117188,-0.8972930908203125,1.080589056015015,1.529897093772888,-0.7940704822540283,70.11030578613281,97.57888793945312,-6.76483154296875
192812,-0.9474639892578124,2.405136108398438,-0.300933837890625,0.4814462661743164,0.7426735758781433,-0.1133249625563622,69.31513977050781,98.27871704101562,-7.685317993164062
192813,-0.5924530029296875,2.491775512695312,0.2508544921875,0.3391980230808258,0.7130805253982544,0.1981439739465714,68.761474609375,98.73516845703124,-8.396041870117188
192814,-0.373199462890625,2.318313598632812,0.2023162841796875,0.8830339312553406,0.1465814560651779,0.4549454152584076,68.83073425292969,98.6248779296875,-8.5166015625
192815,-0.373199462890625,2.318313598632812,0.2023162841796875,0.8830339312553406,0.1465814560651779,0.4549454152584076,68.83073425292969,98.6248779296875,-8.5166015625
192816,-0.20361328125,1.851409912109375,0.37469482421875,1.356972217559814,0.0953784510493278,0.7425884008407593,69.52436828613281,98.09344482421876,-8.820968627929688
192817,-0.0685882568359375,1.515716552734375,0.20440673828125,1.335599541664124,-0.0416081622242927,0.7731223106384277,70.33915710449219,97.51806640625,-9.949188232421877
192818,-0.0069580078125,1.185226440429688,0.1525421142578125,1.324300527572632,-0.3223737776279449,0.8018338680267334,70.68135070800781,97.12380981445312,-10.64370727539062
192819,-0.0069580078125,1.185226440429688,0.1525421142578125,1.324300527572632,-0.3223737776279449,0.8018338680267334,70.68135070800781,97.12380981445312,-10.64370727539062
192820,0.2075042724609375,0.7575836181640625,0.15313720703125,1.498723983764648,-0.8112303018569946,0.8492684960365295,71.41098022460938,96.67196655273438,-12.21195983886719
192821,0.30145263671875,0.6855621337890625,0.1504364013671875,1.551547765731812,-0.7841027975082397,0.8506208658218384,71.67521667480469,96.41339111328124,-12.92732238769531
192822,0.30145263671875,0.6855621337890625,0.1504364013671875,1.551547765731812,-0.7841027975082397,0.8506208658218384,71.67521667480469,96.41339111328124,-12.92732238769531
192823,0.401702880859375,0.61737060546875,0.0795440673828125,1.453393220901489,-0.6774038076400757,0.8688133955001831,71.94363403320312,96.20320129394533,-13.70866394042969
192824,0.6056060791015625,0.523834228515625,0.0686492919921875,0.9699029922485352,-0.2818045318126678,0.9591223001480104,72.50164794921875,95.99388122558594,-15.1922607421875
192825,0.6556243896484375,0.55224609375,0.083038330078125,0.7132872343063354,0.0131427003070712,0.972600519657135,72.85543823242188,95.79910278320312,-15.66859436035156
192826,0.6556243896484375,0.55224609375,0.083038330078125,0.7132872343063354,0.0131427003070712,0.972600519657135,72.85543823242188,95.79910278320312,-15.66859436035156
192827,0.447113037109375,0.674591064453125,0.2519989013671875,0.5790817141532898,0.3696078658103943,0.7785290479660034,73.32136535644531,95.43785095214844,-15.89964294433594
192828,-0.1734619140625,0.649505615234375,0.3122406005859375,0.6361077427864075,1.338722348213196,0.7763849496841431,74.19905090332031,94.76170349121094,-16.13600158691406
192829,-0.2466278076171875,0.6059417724609375,0.1971588134765625,0.5328963994979858,1.346186637878418,0.7671062350273132,74.68452453613281,94.55502319335938,-16.30892944335938
192830,-0.2658538818359375,0.53851318359375,0.175994873046875,0.3167931437492371,1.155944585800171,0.6828336715698242,75.22108459472656,94.27667236328124,-16.10148620605469
192831,-0.2658538818359375,0.53851318359375,0.175994873046875,0.3167931437492371,1.155944585800171,0.6828336715698242,75.22108459472656,94.27667236328124,-16.10148620605469
192832,-0.2191314697265625,0.4073333740234375,0.2045440673828125,0.0967888608574867,1.02121889591217,0.6197037100791931,75.52394104003906,94.0709228515625,-15.88377380371094
192833,-0.1155242919921875,0.2542877197265625,0.2354583740234375,-0.1671916544437408,1.097191214561462,0.5507883429527283,76.17623901367188,93.72395324707033,-15.46701049804688
192834,-0.1155242919921875,0.2542877197265625,0.2354583740234375,-0.1671916544437408,1.097191214561462,0.5507883429527283,76.17623901367188,93.72395324707033,-15.46701049804688
192835,-0.1244964599609375,0.2814788818359375,0.346435546875,-0.3048584461212158,1.427512645721436,0.4421611726284027,76.48736572265625,93.58717346191406,-15.27546691894531
192836,-0.2270660400390625,0.5330963134765625,0.452178955078125,-0.9116032123565674,2.485767364501953,0.105239599943161,76.88851928710938,93.48014831542967,-14.29933166503906
192837,-0.3196868896484375,0.7344970703125,0.3829193115234375,-1.29664945602417,2.761982440948486,-0.1564532518386841,77.02748107910156,93.32240295410156,-13.45112609863281
192838,-0.3196868896484375,0.7344970703125,0.3829193115234375,-1.29664945602417,2.761982440948486,-0.1564532518386841,77.02748107910156,93.32240295410156,-13.45112609863281
192839,-0.38507080078125,0.8916168212890625,0.34649658203125,-1.555182456970215,2.716829061508179,-0.429742842912674,77.10197448730469,93.3048858642578,-12.31672668457031
192840,-0.4482879638671875,0.881134033203125,0.4297637939453125,-1.45312237739563,2.3680260181427,-0.5872176885604858,76.73165893554688,93.35804748535156,-9.487457275390623
