time_idx,accelerometerAccelerationX(G),accelerometerAccelerationY(G),accelerometerAccelerationZ(G),gyroRotationX(rad/s),gyroRotationY(rad/s),gyroRotationZ(rad/s),magnetometerX(µT),magnetometerY(µT),magnetometerZ(µT)
301646,-0.309600830078125,1.061676025390625,0.215362548828125,-0.9630757570266724,0.3679987788200378,-0.2945940792560577,33.82650756835938,98.2310028076172,-8.267425537109375
301647,-0.3231048583984375,1.120254516601562,0.218475341796875,-1.057038426399231,0.282618910074234,-0.285235732793808,33.50016784667969,98.22117614746094,-7.935470581054688
301648,-0.3213043212890625,1.162765502929688,0.1989288330078125,-1.121040821075439,0.1418849676847458,-0.2792239189147949,32.99554443359375,98.15280151367188,-7.055023193359375
301649,-0.233978271484375,1.214935302734375,0.131256103515625,-1.126808166503906,-0.1510094851255417,-0.2684351801872253,32.62321472167969,98.00393676757812,-6.049835205078125
301650,-0.233978271484375,1.214935302734375,0.131256103515625,-1.126808166503906,-0.1510094851255417,-0.2684351801872253,32.62321472167969,98.00393676757812,-6.049835205078125
301651,-0.0773468017578125,1.241165161132812,0.006439208984375,-0.9661911129951476,-0.2994972169399261,-0.1809042692184448,32.13746643066406,97.79647827148438,-5.08880615234375
301652,-0.0093994140625,1.256271362304688,-0.052337646484375,-0.8357223272323608,-0.3326972723007202,-0.1054886057972908,31.9647216796875,97.764404296875,-4.488937377929688
301653,0.052001953125,1.25933837890625,-0.0787811279296875,-0.6906434297561646,-0.3170879483222961,-0.0257192123681306,31.857666015625,97.67779541015624,-3.936416625976562
301654,0.052001953125,1.25933837890625,-0.0787811279296875,-0.6906434297561646,-0.3170879483222961,-0.0257192123681306,31.857666015625,97.67779541015624,-3.936416625976562
301655,0.0676116943359375,1.252548217773438,-0.1105499267578125,-0.5383654832839966,-0.255500465631485,0.0200701151043176,31.78482055664062,97.57008361816406,-3.407852172851562
301656,0.0520782470703125,1.223587036132812,-0.148895263671875,-0.3987495005130768,-0.2596347630023956,0.0253594182431697,31.71232604980469,97.39239501953124,-3.144454956054688
301657,0.043914794921875,1.116653442382812,-0.25042724609375,-0.1298520117998123,-0.5016345977783203,-0.033186450600624,31.80842590332031,97.20127868652344,-2.492965698242188
301658,0.043914794921875,1.116653442382812,-0.25042724609375,-0.1298520117998123,-0.5016345977783203,-0.033186450600624,31.80842590332031,97.20127868652344,-2.492965698242188
301659,0.0666046142578125,1.015869140625,-0.34912109375,-0.0053018210455775,-0.6591901779174805,-0.0591810308396816,31.74742126464844,97.19499206542967,-2.265884399414062
301660,0.0873565673828125,0.943389892578125,-0.4437713623046875,0.1487862765789032,-0.7575353384017944,-0.039727970957756,31.76657104492188,97.17179870605467,-2.145004272460938
301661,0.1213226318359375,0.8889312744140625,-0.5572052001953125,0.5018711090087891,-0.7143410444259644,0.0464204959571361,31.93647766113281,96.8804168701172,-1.880264282226562
301662,0.1213226318359375,0.8889312744140625,-0.5572052001953125,0.5018711090087891,-0.7143410444259644,0.0464204959571361,31.93647766113281,96.8804168701172,-1.880264282226562
301663,0.1186676025390625,0.905792236328125,-0.5679473876953125,0.5992650389671326,-0.6512653827667236,0.0884230732917785,32.09909057617188,96.9136199951172,-1.934539794921875
301664,0.14312744140625,1.025192260742188,-0.5142364501953125,0.6200864315032959,-0.5215103030204773,0.1355216056108475,32.44291687011719,96.95231628417967,-2.410934448242188
301665,0.148101806640625,1.086624145507812,-0.472869873046875,0.6025944948196411,-0.4529501795768738,0.1631119549274445,32.60139465332031,96.95419311523438,-2.493881225585938
301666,0.148101806640625,1.086624145507812,-0.472869873046875,0.6025944948196411,-0.4529501795768738,0.1631119549274445,32.60139465332031,96.95419311523438,-2.493881225585938
301667,0.119384765625,1.198928833007812,-0.4129791259765625,0.5828831195831299,-0.3244560956954956,0.2272624522447586,32.83740234375,97.35438537597656,-3.210250854492188
301668,0.119384765625,1.198928833007812,-0.4129791259765625,0.5828831195831299,-0.3244560956954956,0.2272624522447586,32.83740234375,97.35438537597656,-3.210250854492188
301669,0.1404266357421875,1.326156616210938,-0.3015289306640625,0.5171350240707397,-0.1208609044551849,0.283062070608139,33.38088989257812,97.37458801269533,-3.605560302734375
301670,0.1404266357421875,1.326156616210938,-0.3015289306640625,0.5171350240707397,-0.1208609044551849,0.283062070608139,33.38088989257812,97.37458801269533,-3.605560302734375
301671,0.14215087890625,1.3773193359375,-0.193267822265625,0.470568835735321,-0.0241271741688251,0.2918007075786591,33.53224182128906,97.3754425048828,-3.891387939453125
301672,0.139404296875,1.391510009765625,-0.0689697265625,0.4706556499004364,0.0435091294348239,0.2802782654762268,33.79997253417969,97.5931396484375,-4.14373779296875
301673,0.095184326171875,1.337646484375,0.122039794921875,0.6408369541168213,-0.011782357469201,0.2170415073633194,34.26528930664062,97.6455078125,-4.51416015625
301674,0.095184326171875,1.337646484375,0.122039794921875,0.6408369541168213,-0.011782357469201,0.2170415073633194,34.26528930664062,97.6455078125,-4.51416015625
301675,-0.02386474609375,1.219772338867188,0.1189422607421875,0.7986612319946289,-0.2566466927528381,0.1072785183787346,34.56929016113281,97.939697265625,-5.42340087890625
301676,-0.065643310546875,1.139862060546875,0.14166259765625,0.8062818646430969,-0.3836259543895721,0.0136404447257518,34.75350952148438,98.04812622070312,-5.742477416992188
301677,-0.0738983154296875,1.023773193359375,0.1343841552734375,0.7768563628196716,-0.4596128761768341,-0.0454130209982395,34.94004821777344,98.07308959960938,-6.05535888671875
301678,-0.0738983154296875,1.023773193359375,0.1343841552734375,0.7768563628196716,-0.4596128761768341,-0.0454130209982395,34.94004821777344,98.07308959960938,-6.05535888671875
301679,-0.07098388671875,0.9473419189453124,0.0807647705078125,0.760248064994812,-0.5872539281845093,-0.0575652904808521,35.01689147949219,98.06802368164062,-6.300384521484375
301680,-0.1110687255859375,0.8774566650390625,0.0498504638671875,0.6111413836479187,-0.9448211193084716,-0.005789179354906,35.27693176269531,98.16952514648438,-7.10382080078125
301681,-0.113525390625,0.8909912109375,0.1042938232421875,0.5628817081451416,-0.9930126070976256,-0.0268228258937597,35.40948486328125,98.203369140625,-7.20355224609375
301682,-0.113525390625,0.8909912109375,0.1042938232421875,0.5628817081451416,-0.9930126070976256,-0.0268228258937597,35.40948486328125,98.203369140625,-7.20355224609375
301683,-0.131591796875,0.867462158203125,0.1311187744140625,0.5426284074783325,-0.8999817371368408,-0.0341779440641403,35.75590515136719,98.2537078857422,-7.505630493164062
301684,-0.1248779296875,0.8292388916015625,0.124114990234375,0.542306125164032,-0.818312406539917,-0.0082238409668207,35.98878479003906,98.21281433105467,-7.457443237304688
301685,-0.1145477294921875,0.7770233154296875,0.127349853515625,0.5258907079696655,-0.7099811434745789,0.029707295820117,36.03489685058594,98.23550415039062,-7.7142333984375
301686,-0.1145477294921875,0.7770233154296875,0.127349853515625,0.5258907079696655,-0.7099811434745789,0.029707295820117,36.03489685058594,98.23550415039062,-7.7142333984375
301687,-0.1156005859375,0.684600830078125,0.1875152587890625,0.3542720675468445,-0.356291264295578,0.0846168845891952,36.24708557128906,98.25128173828124,-8.021209716796875
301688,-0.11279296875,0.643951416015625,0.207763671875,0.1894109398126602,-0.1502036154270172,0.1181554049253464,36.32981872558594,98.42164611816406,-8.206100463867188
301689,-0.106201171875,0.6076812744140625,0.229095458984375,0.0058301920071244,0.023183349519968,0.1497205197811127,36.40950012207031,98.41413879394533,-8.213516235351562
301690,-0.106201171875,0.6076812744140625,0.229095458984375,0.0058301920071244,0.023183349519968,0.1497205197811127,36.40950012207031,98.41413879394533,-8.213516235351562
301691,-0.081634521484375,0.5824432373046875,0.254241943359375,-0.1813956201076508,0.1376915574073792,0.1919928789138794,36.55500793457031,98.46379089355467,-8.283065795898438
301692,-0.081634521484375,0.5824432373046875,0.254241943359375,-0.1813956201076508,0.1376915574073792,0.1919928789138794,36.55500793457031,98.46379089355467,-8.283065795898438
301693,0.0279998779296875,0.65234375,0.266357421875,-0.5963821411132812,-0.0342554412782192,0.2778430581092834,36.89042663574219,98.54222106933594,-7.923492431640625
301694,0.0279998779296875,0.65234375,0.266357421875,-0.5963821411132812,-0.0342554412782192,0.2778430581092834,36.89042663574219,98.54222106933594,-7.923492431640625
301695,0.0804595947265625,0.958343505859375,0.355194091796875,-0.7423596382141113,-0.3805779814720154,0.227327436208725,37.16767883300781,98.57171630859376,-7.462692260742188
301696,0.0943145751953125,1.05303955078125,0.3854522705078125,-0.7423596382141113,-0.3805779814720154,0.227327436208725,37.22297668457031,98.5839385986328,-7.160507202148438
301697,0.1065216064453125,1.125244140625,0.4402313232421875,-0.7996804118156433,-0.4091419577598572,0.167928546667099,37.31568908691406,98.4884033203125,-6.688827514648438
301698,0.1065216064453125,1.125244140625,0.4402313232421875,-0.7996804118156433,-0.4091419577598572,0.167928546667099,37.31568908691406,98.4884033203125,-6.688827514648438
301699,0.107147216796875,1.176132202148438,0.482574462890625,-0.871046245098114,-0.3446287512779236,0.0801134780049324,37.44619750976562,98.466064453125,-6.306320190429688
301700,0.05078125,1.24365234375,0.454742431640625,-1.054565668106079,-0.1878537833690643,-0.1867341995239258,37.50936889648438,98.3336944580078,-5.59521484375
301701,-0.0216217041015625,1.219085693359375,0.4039764404296875,-1.100698351860046,-0.1744825839996338,-0.3316234648227692,37.43601989746094,98.22564697265624,-5.076095581054688
301702,-0.0216217041015625,1.219085693359375,0.4039764404296875,-1.100698351860046,-0.1744825839996338,-0.3316234648227692,37.43601989746094,98.22564697265624,-5.076095581054688
301703,-0.1065521240234375,1.160980224609375,0.3326568603515625,-1.075690150260925,-0.2046362310647964,-0.4498228132724762,37.29118347167969,98.10597229003906,-4.448318481445312
301704,-0.1846466064453125,1.00152587890625,0.176239013671875,-0.8755155205726624,-0.3359862565994263,-0.5651392936706543,36.94949340820312,97.75450134277344,-3.35260009765625
301705,-0.1842498779296875,0.9671630859375,0.1105804443359375,-0.7652699947357178,-0.327187180519104,-0.5617504119873047,36.6844482421875,97.7340087890625,-2.834930419921875
301706,-0.1842498779296875,0.9671630859375,0.1105804443359375,-0.7652699947357178,-0.327187180519104,-0.5617504119873047,36.6844482421875,97.7340087890625,-2.834930419921875
301707,-0.1926727294921875,0.9727783203125,0.0276336669921875,-0.6875781416893005,-0.167667031288147,-0.5108054876327515,36.36911010742188,97.7028350830078,-2.589126586914062
301708,-0.1884613037109375,1.01458740234375,-0.0845489501953125,-0.6408894658088684,0.0538661628961563,-0.4365701377391815,35.99284362792969,97.50392150878906,-2.202362060546875
301709,-0.14764404296875,1.116043090820312,-0.1458740234375,-0.5063241720199585,0.3550110757350922,-0.347363293170929,35.43386840820312,97.2957000732422,-1.639251708984375
301710,-0.14764404296875,1.116043090820312,-0.1458740234375,-0.5063241720199585,0.3550110757350922,-0.347363293170929,35.43386840820312,97.2957000732422,-1.639251708984375
301711,-0.15032958984375,1.17169189453125,-0.1287078857421875,-0.3118654787540436,0.4418322741985321,-0.3644242882728577,35.04783630371094,97.19929504394533,-1.34368896484375
301712,-0.1686553955078125,1.237655639648438,-0.1835479736328125,-0.1981847286224365,0.4125294983386993,-0.3711439967155457,34.5750732421875,96.90231323242188,-0.9466400146484376
301713,-0.1584625244140625,1.189666748046875,-0.21624755859375,-0.0757823809981346,0.4048348367214203,-0.3493531942367554,34.23516845703125,96.75381469726562,-0.770599365234375
301714,-0.10089111328125,1.084243774414062,-0.2708740234375,0.0393210388720035,0.3901464343070984,-0.3094180226325989,33.95249938964844,96.6181182861328,-0.6168365478515625
301715,-0.10089111328125,1.084243774414062,-0.2708740234375,0.0393210388720035,0.3901464343070984,-0.3094180226325989,33.95249938964844,96.6181182861328,-0.6168365478515625
301716,-0.0023040771484375,0.88818359375,-0.3734130859375,0.3103040754795074,0.4104405343532562,-0.139589324593544,33.49371337890625,96.61297607421876,-0.55450439453125
301717,0.0188446044921875,0.840057373046875,-0.426239013671875,0.3103040754795074,0.4104405343532562,-0.139589324593544,33.3028564453125,96.58612060546876,-0.4883880615234375
301718,0.03253173828125,0.8208160400390625,-0.4747314453125,0.4191876649856567,0.4464493989944458,-0.0756668001413345,33.28810119628906,96.60768127441406,-0.5300750732421875
301719,0.03253173828125,0.8208160400390625,-0.4747314453125,0.4191876649856567,0.4464493989944458,-0.0756668001413345,33.28810119628906,96.60768127441406,-0.5300750732421875
301720,-0.007904052734375,0.8888397216796875,-0.5505523681640625,0.6294242739677429,0.5669859051704407,0.0108779473230242,32.99465942382812,96.90657043457033,-1.135391235351562
301721,-0.0594024658203125,0.954925537109375,-0.5675048828125,0.697119414806366,0.6122434139251709,0.0258955135941505,32.89582824707031,96.84666442871094,-1.313461303710938
301722,-0.0594024658203125,0.954925537109375,-0.5675048828125,0.697119414806366,0.6122434139251709,0.0258955135941505,32.89582824707031,96.84666442871094,-1.313461303710938
301723,-0.1531829833984375,1.087936401367188,-0.5266876220703125,0.7577148675918579,0.6599081158638,0.0491808615624904,32.91117858886719,97.01023864746094,-2.00958251953125
301724,-0.1759033203125,1.141891479492188,-0.4755401611328125,0.7792654037475586,0.6534954905509949,0.0621254220604896,32.79534912109375,97.19381713867188,-2.521270751953125
301725,-0.193115234375,1.188217163085938,-0.4023284912109375,0.7704037427902222,0.6485931873321533,0.0758979618549346,32.67303466796875,97.38986206054688,-2.867904663085938
301726,-0.193115234375,1.188217163085938,-0.4023284912109375,0.7704037427902222,0.6485931873321533,0.0758979618549346,32.67303466796875,97.38986206054688,-2.867904663085938
301727,-0.21258544921875,1.2344970703125,-0.32293701171875,0.7225571274757385,0.6618005633354187,0.0960354506969451,32.596435546875,97.54606628417967,-3.461013793945312
301728,-0.2226409912109375,1.265472412109375,-0.237213134765625,0.5797715187072754,0.7262037992477417,0.1547067612409592,32.57749938964844,97.63478088378906,-3.879745483398438
301729,-0.2025299072265625,1.265213012695312,-0.059783935546875,0.4652031064033508,0.7821570634841919,0.2750406265258789,32.58982849121094,97.91644287109376,-4.7469482421875
301730,-0.2025299072265625,1.265213012695312,-0.059783935546875,0.4652031064033508,0.7821570634841919,0.2750406265258789,32.58982849121094,97.91644287109376,-4.7469482421875
301731,-0.18646240234375,1.238006591796875,0.0226287841796875,0.4652031064033508,0.7821570634841919,0.2750406265258789,32.7083740234375,97.93495178222656,-5.07769775390625
301732,-0.1761322021484375,1.12994384765625,0.003143310546875,0.241466149687767,0.5588989853858948,0.4064021110534668,32.853271484375,98.03912353515624,-5.699752807617188
301733,-0.1297149658203125,1.118911743164062,0.0660552978515625,0.2444116026163101,0.4015700817108154,0.4105539619922638,32.97503662109375,97.97669982910156,-6.016952514648438
301734,-0.1297149658203125,1.118911743164062,0.0660552978515625,0.2444116026163101,0.4015700817108154,0.4105539619922638,32.97503662109375,97.97669982910156,-6.016952514648438
301735,0.0804901123046875,0.9617919921875,0.2197723388671875,0.1452195048332214,0.4344257414340973,0.367877870798111,33.384033203125,97.97401428222656,-6.900161743164062
301736,0.15264892578125,0.8418121337890625,0.2342071533203125,0.0846794694662094,0.4713403582572937,0.391257256269455,33.55801391601562,97.96014404296876,-6.91082763671875
301737,0.186614990234375,0.798675537109375,0.2443695068359375,0.0703266263008117,0.4649754166603088,0.4118634462356567,33.77139282226562,98.00502014160156,-7.092880249023438
301738,0.186614990234375,0.798675537109375,0.2443695068359375,0.0703266263008117,0.4649754166603088,0.4118634462356567,33.77139282226562,98.00502014160156,-7.092880249023438
301739,0.1416015625,0.86724853515625,0.247314453125,0.041682731360197,0.1594698131084442,0.2943639755249023,34.05201721191406,98.02435302734376,-7.6337890625
301740,0.1218109130859375,0.89300537109375,0.2060089111328125,0.041682731360197,0.1594698131084442,0.2943639755249023,34.309326171875,98.04547119140624,-7.681503295898438
301741,0.1110687255859375,0.9125518798828124,0.1476898193359375,0.015125423669815,-0.0506900735199451,0.2704567909240723,34.44210815429688,98.05758666992188,-7.724227905273438
301742,0.1110687255859375,0.9125518798828124,0.1476898193359375,0.015125423669815,-0.0506900735199451,0.2704567909240723,34.44210815429688,98.05758666992188,-7.724227905273438
301743,0.109039306640625,0.8904876708984375,0.069488525390625,0.0369295217096805,-0.2707057893276215,0.2679254412651062,34.54244995117188,98.08587646484376,-7.77581787109375
301744,0.1233978271484375,0.86212158203125,-0.007293701171875,0.1099560633301735,-0.4777284860610962,0.2670993506908417,34.71177673339844,98.02384948730467,-7.752777099609375
301745,0.1120452880859375,0.9088287353515624,-0.036865234375,0.1770996749401093,-0.5407330393791199,0.1489175707101822,35.0333251953125,98.21145629882812,-7.683914184570312
301746,0.1120452880859375,0.9088287353515624,-0.036865234375,0.1770996749401093,-0.5407330393791199,0.1489175707101822,35.0333251953125,98.21145629882812,-7.683914184570312
301747,0.043426513671875,0.9580078125,-0.04876708984375,0.1002706810832024,-0.3113365769386292,0.0229407362639904,35.13648986816406,98.17697143554688,-7.602264404296875
301748,-0.0617218017578125,0.969482421875,-0.0654144287109375,-0.0193824861198663,-0.0388597808778286,-0.2021610885858536,35.19429016113281,98.26168823242188,-7.58612060546875
301749,-0.1996307373046875,0.9397430419921876,0.0600433349609375,-0.0601434968411922,0.0027944548055529,-0.3129059672355652,35.21310424804688,98.40086364746094,-7.600936889648438
301750,-0.1996307373046875,0.9397430419921876,0.0600433349609375,-0.0601434968411922,0.0027944548055529,-0.3129059672355652,35.21310424804688,98.40086364746094,-7.600936889648438
301751,-0.2717132568359375,0.8493804931640625,0.101776123046875,-0.332154780626297,0.0391564555466175,-0.4730136394500732,35.05369567871094,98.21160888671876,-7.310836791992188
301752,-0.3106231689453125,0.82147216796875,0.10394287109375,-0.332154780626297,0.0391564555466175,-0.4730136394500732,34.99424743652344,98.1946258544922,-7.286544799804688
301753,-0.351654052734375,0.816741943359375,0.0946807861328125,-0.4057067632675171,0.0761304572224617,-0.4623910784721375,34.88153076171875,98.11936950683594,-7.0775146484375
301754,-0.351654052734375,0.816741943359375,0.0946807861328125,-0.4057067632675171,0.0761304572224617,-0.4623910784721375,34.88153076171875,98.11936950683594,-7.0775146484375
301755,-0.431884765625,0.846038818359375,0.0836181640625,-0.4025620818138123,0.3146255910396576,-0.3392664790153503,34.54621887207031,98.03419494628906,-6.913848876953125
301756,-0.447357177734375,0.8630523681640625,0.0738067626953125,-0.4025620818138123,0.3146255910396576,-0.3392664790153503,34.40695190429688,97.97927856445312,-6.833236694335938
301757,-0.4448699951171875,0.869354248046875,0.0743560791015625,-0.3724023401737213,0.3610652387142181,-0.3005409240722656,34.16395568847656,98.02305603027344,-6.595428466796875
301758,-0.4448699951171875,0.869354248046875,0.0743560791015625,-0.3724023401737213,0.3610652387142181,-0.3005409240722656,34.16395568847656,98.02305603027344,-6.595428466796875
301759,-0.3997955322265625,0.8728790283203125,0.1004486083984375,-0.3998829424381256,0.4007615447044373,-0.2071126997470856,33.7135009765625,98.04539489746094,-6.22088623046875
301760,-0.35687255859375,0.8815155029296875,0.1027984619140625,-0.4785420894622803,0.3735701143741608,-0.1511578261852264,33.57318115234375,97.94401550292967,-6.064712524414062
301761,-0.3000640869140625,0.904449462890625,0.1125640869140625,-0.5804282426834106,0.3155798017978668,-0.1026432886719704,33.32821655273438,97.97232055664062,-6.022125244140625
301762,-0.3000640869140625,0.904449462890625,0.1125640869140625,-0.5804282426834106,0.3155798017978668,-0.1026432886719704,33.32821655273438,97.97232055664062,-6.022125244140625
301763,-0.239013671875,0.938201904296875,0.12469482421875,-0.6886287331581116,0.2771461308002472,-0.0780782923102378,33.12518310546875,97.8745574951172,-5.801376342773438
301764,-0.126434326171875,1.029571533203125,0.11920166015625,-0.831384003162384,0.2239886224269867,-0.1128916665911674,32.84426879882812,97.79153442382812,-5.349044799804688
301765,-0.08917236328125,1.072128295898438,0.09405517578125,-0.847676157951355,0.1900719404220581,-0.1595409214496613,32.66751098632812,97.78440856933594,-5.044723510742188
301766,-0.08917236328125,1.072128295898438,0.09405517578125,-0.847676157951355,0.1900719404220581,-0.1595409214496613,32.66751098632812,97.78440856933594,-5.044723510742188
301767,-0.064453125,1.114273071289062,0.0467529296875,-0.8267437219619751,0.1472179442644119,-0.1907435804605484,32.50491333007812,97.65934753417967,-4.604751586914062
301768,-0.0198211669921875,1.206497192382812,-0.091583251953125,-0.5986495614051819,0.0096787260845303,-0.2115391492843628,32.14894104003906,97.3781280517578,-3.568023681640625
301769,0.0078582763671875,1.233108520507812,-0.1468963623046875,-0.4477410316467285,0.0021220068447291,-0.1705309897661209,32.03399658203125,97.3095703125,-3.166336059570312
301770,0.0078582763671875,1.233108520507812,-0.1468963623046875,-0.4477410316467285,0.0021220068447291,-0.1705309897661209,32.03399658203125,97.3095703125,-3.166336059570312
301771,0.018280029296875,1.262527465820312,-0.2066497802734375,-0.2967664301395416,-0.0058645470999181,-0.1117662116885185,31.72120666503906,97.15928649902344,-2.84478759765625
301772,0.03448486328125,1.216079711914062,-0.2466278076171875,-0.0594995468854904,-0.1191346496343613,-0.0321105308830738,31.45834350585938,97.068603515625,-2.35357666015625
301773,0.0337066650390625,1.140060424804688,-0.267181396484375,0.0559399649500846,-0.174522802233696,-0.0032860743813216,31.46968078613281,96.96115112304688,-2.172210693359375
301774,0.0337066650390625,1.140060424804688,-0.267181396484375,0.0559399649500846,-0.174522802233696,-0.0032860743813216,31.46968078613281,96.96115112304688,-2.172210693359375
301775,0.056854248046875,0.938690185546875,-0.4095458984375,0.6288143992424011,-0.2577615082263947,0.1434503793716431,31.43115234375,96.78851318359376,-1.912200927734375
301776,0.0806732177734375,0.842376708984375,-0.486083984375,0.6288143992424011,-0.2577615082263947,0.1434503793716431,31.54966735839844,96.83039855957033,-2.082427978515625
301777,0.10516357421875,0.7716064453125,-0.5258026123046875,0.8016412854194641,-0.2248211354017258,0.1940786689519882,31.61225891113281,96.86624145507812,-2.202102661132812
301778,0.10516357421875,0.7716064453125,-0.5258026123046875,0.8016412854194641,-0.2248211354017258,0.1940786689519882,31.61225891113281,96.86624145507812,-2.202102661132812
301779,0.117095947265625,0.7204132080078125,-0.5360107421875,0.8929960131645203,-0.1862010359764099,0.2183863967657089,31.74197387695312,96.87173461914062,-2.35809326171875
301780,0.1474151611328125,0.7616119384765625,-0.523040771484375,0.8241743445396423,-0.1678843349218369,0.1943604201078415,32.16470336914062,96.93171691894533,-3.14349365234375
301781,0.16607666015625,0.8362884521484375,-0.5067138671875,0.7503344416618347,-0.1565099805593491,0.1723326146602631,32.28988647460938,97.14762878417967,-3.51300048828125
301782,0.16607666015625,0.8362884521484375,-0.5067138671875,0.7503344416618347,-0.1565099805593491,0.1723326146602631,32.28988647460938,97.14762878417967,-3.51300048828125
301783,0.1630401611328125,1.145980834960938,-0.464202880859375,0.6576952934265137,-0.0768529698252677,0.1548020988702774,32.67561340332031,97.268310546875,-4.560287475585938
301784,0.1630401611328125,1.145980834960938,-0.464202880859375,0.6576952934265137,-0.0768529698252677,0.1548020988702774,32.67561340332031,97.268310546875,-4.560287475585938
301785,0.1624755859375,1.258071899414062,-0.4227752685546875,0.6221040487289429,-0.0953824445605278,0.1316799968481064,32.81309509277344,97.19192504882812,-4.838638305664062
301786,0.1624755859375,1.258071899414062,-0.4227752685546875,0.6221040487289429,-0.0953824445605278,0.1316799968481064,32.81309509277344,97.19192504882812,-4.838638305664062
301787,0.166900634765625,1.35394287109375,-0.362030029296875,0.596759557723999,-0.1151095479726791,0.0928404554724693,32.87541198730469,97.32498168945312,-5.230606079101562
301788,0.1273956298828125,1.452362060546875,-0.21246337890625,0.5793325901031494,-0.2072312086820602,-0.0365609414875507,33.05613708496094,97.54701232910156,-5.82623291015625
301789,0.0755462646484375,1.42877197265625,-0.1162109375,0.6324120759963989,-0.2339134216308594,-0.1261787116527557,33.220458984375,97.6033172607422,-6.104019165039062
301790,0.009124755859375,1.364791870117188,-0.052276611328125,0.7346039414405823,-0.2513840198516846,-0.1915872693061829,33.22784423828125,97.59675598144533,-6.36767578125
301791,0.009124755859375,1.364791870117188,-0.052276611328125,0.7346039414405823,-0.2513840198516846,-0.1915872693061829,33.22784423828125,97.59675598144533,-6.36767578125
301792,-0.1780242919921875,1.213470458984375,0.0037994384765625,1.04055643081665,-0.3481963276863098,-0.2391832917928696,33.26182556152344,97.7576904296875,-7.106414794921875
301793,-0.25482177734375,1.127120971679688,-0.032958984375,1.079664945602417,-0.5265926718711853,-0.2034966647624969,33.29835510253906,97.87799072265624,-7.385116577148438
301794,-0.30810546875,1.066452026367188,-0.0334625244140625,1.020391225814819,-0.7085697054862976,-0.1460472196340561,33.35557556152344,97.9197998046875,-7.66619873046875
301795,-0.30810546875,1.066452026367188,-0.0334625244140625,1.020391225814819,-0.7085697054862976,-0.1460472196340561,33.35557556152344,97.9197998046875,-7.66619873046875
301796,-0.3229217529296875,1.042205810546875,0.0037841796875,0.9109709858894348,-0.8199998140335083,-0.0897964686155319,33.44970703125,97.9591827392578,-8.18084716796875
301797,-0.298614501953125,1.037200927734375,0.032958984375,0.7998061180114746,-0.9621660113334656,-0.092217281460762,33.55873107910156,98.0789031982422,-8.744720458984375
301798,-0.298614501953125,1.037200927734375,0.032958984375,0.7998061180114746,-0.9621660113334656,-0.092217281460762,33.55873107910156,98.0789031982422,-8.744720458984375
301799,-0.2817230224609375,1.020965576171875,0.05572509765625,0.8195108771324158,-0.9829386472702026,-0.1059525310993195,33.61457824707031,98.06190490722656,-9.084747314453123
301800,-0.274169921875,0.9343414306640624,0.0869598388671875,0.7862908244132996,-0.8108865022659302,-0.0830070003867149,33.787109375,97.99746704101562,-9.351699829101562
301801,-0.2545013427734375,0.905181884765625,0.11505126953125,0.6860305666923523,-0.6276056170463562,-0.060701698064804,33.94644165039062,97.92037963867188,-9.501296997070312
301802,-0.233428955078125,0.8709869384765625,0.146240234375,0.5294931530952454,-0.4361546635627747,-0.0248281173408031,33.96040344238281,98.05560302734376,-9.88262939453125
301803,-0.233428955078125,0.8709869384765625,0.146240234375,0.5294931530952454,-0.4361546635627747,-0.0248281173408031,33.96040344238281,98.05560302734376,-9.88262939453125
301804,-0.181121826171875,0.7631683349609375,0.251708984375,0.1202156245708466,0.0068304752930998,0.0745085924863815,34.01123046875,98.1257781982422,-10.48025512695312
301805,-0.15966796875,0.708160400390625,0.2825927734375,-0.1067386940121651,0.274555116891861,0.1221666559576988,33.964599609375,98.15341186523438,-10.57876586914062
301806,-0.15966796875,0.708160400390625,0.2825927734375,-0.1067386940121651,0.274555116891861,0.1221666559576988,33.964599609375,98.15341186523438,-10.57876586914062
301807,-0.1280975341796875,0.6113128662109375,0.2559051513671875,-0.5115929841995239,0.5975134968757629,0.1754546463489532,34.16984558105469,98.00765991210938,-10.65162658691406
301808,-0.10406494140625,0.5370635986328125,0.214141845703125,-0.6570433974266052,0.5586297512054443,0.2253084927797318,34.35319519042969,98.01937866210938,-10.52934265136719
301809,-0.073974609375,0.4922637939453125,0.19921875,-0.8329286575317383,0.2477900981903076,0.3984882533550262,34.33290100097656,97.90359497070312,-10.42955017089844
301810,-0.073974609375,0.4922637939453125,0.19921875,-0.8329286575317383,0.2477900981903076,0.3984882533550262,34.33290100097656,97.90359497070312,-10.42955017089844
301811,-0.0180511474609375,0.79559326171875,0.2541656494140625,-0.9006952047348022,0.1565531194210052,0.4118908941745758,34.65786743164062,97.8424072265625,-10.11097717285156
301812,0.0036163330078125,0.958160400390625,0.25384521484375,-0.991577684879303,0.0464439317584037,0.3642938137054443,34.87930297851562,97.96258544921876,-9.337966918945312
301813,0.0143585205078125,1.078353881835938,0.2629241943359375,-1.080888628959656,-0.0357052683830261,0.275931715965271,34.8975830078125,97.96231079101562,-8.900863647460938
301814,0.02197265625,1.18377685546875,0.2588653564453125,-1.126557588577271,-0.0836280509829521,0.1560729593038559,34.95669555664062,97.96199035644533,-8.477569580078125
301815,0.02197265625,1.18377685546875,0.2588653564453125,-1.126557588577271,-0.0836280509829521,0.1560729593038559,34.95669555664062,97.96199035644533,-8.477569580078125
301816,-0.0120697021484375,1.283462524414062,0.285430908203125,-1.145636200904846,0.0402534119784832,-0.1260378211736679,34.96173095703125,97.97265625,-7.389114379882812
301817,-0.0279998779296875,1.288253784179688,0.284759521484375,-1.170672297477722,0.1840180456638336,-0.2396046072244644,34.86447143554688,97.88096618652344,-6.988082885742188
301818,-0.0279998779296875,1.288253784179688,0.284759521484375,-1.170672297477722,0.1840180456638336,-0.2396046072244644,34.86447143554688,97.88096618652344,-6.988082885742188
301819,-0.0484161376953125,1.249710083007812,0.2621002197265625,-1.159897685050964,0.3113477528095245,-0.3364579081535339,34.7581787109375,97.76681518554688,-6.511886596679688
301820,-0.118377685546875,1.100799560546875,0.1478424072265625,-0.9171732068061828,0.4784696400165558,-0.4518486857414246,34.30386352539062,97.5743408203125,-5.478652954101562
301821,-0.159698486328125,1.031402587890625,0.07122802734375,-0.7894642949104309,0.4800994992256165,-0.4420325458049774,34.01422119140625,97.4404754638672,-4.931442260742188
301822,-0.159698486328125,1.031402587890625,0.07122802734375,-0.7894642949104309,0.4800994992256165,-0.4420325458049774,34.01422119140625,97.4404754638672,-4.931442260742188
301823,-0.1862030029296875,1.001419067382812,0.0009613037109375,-0.7046180963516235,0.4503629207611084,-0.374110221862793,33.74211120605469,97.30540466308594,-4.66033935546875
301824,-0.19036865234375,1.065048217773438,-0.07958984375,-0.6191652417182922,0.4018614292144775,-0.2875433564186096,33.22825622558594,97.14686584472656,-4.152938842773438
301825,-0.18359375,1.09210205078125,-0.11297607421875,-0.5788044929504395,0.410194993019104,-0.2714000940322876,32.883544921875,97.00865173339844,-3.802505493164062
301826,-0.18359375,1.09210205078125,-0.11297607421875,-0.5788044929504395,0.410194993019104,-0.2714000940322876,32.883544921875,97.00865173339844,-3.802505493164062
301827,-0.1818084716796875,1.105270385742188,-0.1328277587890625,-0.4094157516956329,0.4842023551464081,-0.2197171747684479,32.59890747070312,96.908935546875,-3.646209716796875
301828,-0.1790313720703125,1.072189331054688,-0.2046966552734375,-0.3140263855457306,0.4962486326694489,-0.1890466213226318,32.10772705078125,96.79495239257812,-3.307861328125
301829,-0.162841796875,1.016265869140625,-0.2443084716796875,-0.1405105143785477,0.448487788438797,-0.1147090047597885,31.92723083496094,96.79261779785156,-3.135604858398438
301830,-0.1148529052734375,0.931915283203125,-0.2919769287109375,-0.1405105143785477,0.448487788438797,-0.1147090047597885,31.764404296875,96.73495483398438,-2.95501708984375
301831,-0.1148529052734375,0.931915283203125,-0.2919769287109375,-0.1405105143785477,0.448487788438797,-0.1147090047597885,31.764404296875,96.73495483398438,-2.95501708984375
301832,0.0034027099609375,0.8217620849609375,-0.4133758544921875,0.0747216418385505,0.4205336272716522,0.0163211822509765,31.62289428710938,96.35113525390624,-2.287063598632812
301833,0.049041748046875,0.79998779296875,-0.478363037109375,0.2013773173093796,0.4335335791110992,0.0796660631895065,31.60208129882812,96.28549194335938,-2.505386352539062
301834,0.049041748046875,0.79998779296875,-0.478363037109375,0.2013773173093796,0.4335335791110992,0.0796660631895065,31.60208129882812,96.28549194335938,-2.505386352539062
301835,0.09881591796875,0.83984375,-0.5715179443359375,0.3952701091766357,0.5195387601852417,0.1551666855812073,31.49484252929688,96.3761749267578,-3.259475708007812
301836,0.0853271484375,0.88983154296875,-0.5833282470703125,0.4484707415103912,0.5674519538879395,0.1401600390672684,31.51237487792969,96.48521423339844,-3.57794189453125
301837,0.040863037109375,0.9398193359375,-0.5685272216796875,0.4858066439628601,0.581975519657135,0.1094047874212265,31.52180480957031,96.53582763671876,-3.764785766601562
301838,0.040863037109375,0.9398193359375,-0.5685272216796875,0.4858066439628601,0.581975519657135,0.1094047874212265,31.52180480957031,96.53582763671876,-3.764785766601562
301839,-0.0316314697265625,1.0091552734375,-0.5104827880859375,0.5780830383300781,0.6419107913970947,0.0585932731628418,31.56599426269531,96.57200622558594,-4.355606079101562
301840,-0.047607421875,1.035812377929688,-0.488006591796875,0.6150463819503784,0.6886862516403198,0.0548536628484726,31.568603515625,96.74031066894533,-4.724807739257812
301841,-0.0596771240234375,1.062850952148438,-0.462066650390625,0.6127861738204956,0.732310950756073,0.0605072863399982,31.47349548339844,96.78709411621094,-5.047332763671875
301842,-0.077789306640625,1.093902587890625,-0.421905517578125,0.5718544721603394,0.7781569957733154,0.0698928013443946,31.46995544433594,96.7494659423828,-5.579315185546875
301843,-0.077789306640625,1.093902587890625,-0.421905517578125,0.5718544721603394,0.7781569957733154,0.0698928013443946,31.46995544433594,96.7494659423828,-5.579315185546875
301844,-0.0987701416015625,1.121597290039062,-0.3712158203125,0.4967903196811676,0.7812681198120117,0.0940692424774169,31.37863159179688,96.93423461914062,-6.139053344726562
301845,-0.1388092041015625,1.116378784179688,-0.2068634033203125,0.2469839602708817,0.6972435116767883,0.1338787078857422,31.36265563964844,97.20124816894533,-6.890243530273438
301846,-0.143646240234375,1.071945190429688,-0.144378662109375,0.1826289296150208,0.5832727551460266,0.2564520239830017,31.27311706542969,97.2943878173828,-7.289474487304688
301847,-0.143646240234375,1.071945190429688,-0.144378662109375,0.1826289296150208,0.5832727551460266,0.2564520239830017,31.27311706542969,97.2943878173828,-7.289474487304688
301848,-0.1165618896484375,1.045455932617188,0.017791748046875,0.2782076597213745,0.6443874835968018,0.3152817785739899,31.40223693847656,97.4293212890625,-7.838638305664062
301849,-0.117919921875,1.067001342773438,0.0714874267578125,0.3327707648277283,0.6656549572944641,0.3757941424846649,31.62783813476562,97.41387939453124,-7.872146606445312
301850,-0.117919921875,1.067001342773438,0.0714874267578125,0.3327707648277283,0.6656549572944641,0.3757941424846649,31.62783813476562,97.41387939453124,-7.872146606445312
301851,-0.1484222412109375,1.10577392578125,0.14111328125,0.3266042172908783,0.6507644653320312,0.4039488136768341,31.79055786132812,97.47296142578124,-8.298782348632812
301852,-0.1667327880859375,1.125808715820312,0.2477264404296875,0.248805820941925,0.7000486254692078,0.305182546377182,32.1240234375,97.60255432128906,-8.919784545898438
301853,-0.1577606201171875,1.056198120117188,0.2262420654296875,0.200222834944725,0.6290873885154724,0.2646247446537018,32.24273681640625,97.59344482421876,-9.169448852539062
301854,-0.1577606201171875,1.056198120117188,0.2262420654296875,0.200222834944725,0.6290873885154724,0.2646247446537018,32.24273681640625,97.59344482421876,-9.169448852539062
301855,-0.093597412109375,0.952850341796875,0.1772613525390625,0.1857594847679138,0.4175522327423096,0.2807957231998444,32.43687438964844,97.6945343017578,-9.447662353515623
301856,0.0885162353515625,0.8642578125,0.098175048828125,0.2179214060306549,-0.130420058965683,0.3106196522712708,32.67315673828125,97.62123107910156,-9.69134521484375
301857,0.1320343017578125,0.8681793212890625,0.0764312744140625,0.2361009418964386,-0.3431040942668915,0.3187023401260376,32.848876953125,97.63461303710938,-9.919158935546877
301858,0.1320343017578125,0.8681793212890625,0.0764312744140625,0.2361009418964386,-0.3431040942668915,0.3187023401260376,32.848876953125,97.63461303710938,-9.919158935546877
301859,0.146148681640625,0.9051666259765624,0.054107666015625,0.2471338957548141,-0.4488523602485657,0.2964676320552826,32.98806762695312,97.54367065429688,-10.00605773925781
301860,0.0301666259765625,0.9785919189453124,0.00030517578125,0.2417042404413223,-0.2613993883132935,0.1049354672431946,33.31517028808594,97.69871520996094,-10.13636779785156
301861,-0.0687408447265625,0.9896087646484376,-0.016448974609375,0.2306515872478485,-0.1389451026916504,-0.0017438378417864,33.3978271484375,97.7520751953125,-10.18809509277344
301862,-0.0687408447265625,0.9896087646484376,-0.016448974609375,0.2306515872478485,-0.1389451026916504,-0.0017438378417864,33.3978271484375,97.7520751953125,-10.18809509277344
301863,-0.184295654296875,0.915313720703125,0.0456695556640625,0.1736556738615036,-0.2091697305440903,-0.1878324896097183,33.52374267578125,97.75502014160156,-10.20918273925781
301864,-0.2128143310546875,0.8480987548828125,0.04498291015625,0.1048614308238029,-0.2789426743984222,-0.2667496800422668,33.47012329101562,97.6325225830078,-10.10824584960938
301865,-0.2275543212890625,0.7774505615234375,0.0335845947265625,-0.0957124084234237,-0.3603613674640656,-0.3559961915016174,33.41096496582031,97.757568359375,-10.27876281738281
301866,-0.2471771240234375,0.7440948486328125,0.0416717529296875,-0.0957124084234237,-0.3603613674640656,-0.3559961915016174,33.20266723632812,97.81723022460938,-10.58287048339844
301867,-0.2471771240234375,0.7440948486328125,0.0416717529296875,-0.0957124084234237,-0.3603613674640656,-0.3559961915016174,33.20266723632812,97.81723022460938,-10.58287048339844
301868,-0.3375244140625,0.8103790283203125,0.066925048828125,-0.2891665697097778,-0.1566673815250397,-0.4193218946456909,32.98440551757812,97.71760559082033,-10.38140869140625
301869,-0.374176025390625,0.8541259765625,0.1107635498046875,-0.3646892905235291,0.0023619574494659,-0.4246687293052673,32.91793823242188,97.57611083984376,-10.13348388671875
301870,-0.4020843505859375,0.891510009765625,0.147369384765625,-0.4470752477645874,0.1966310292482376,-0.4175485074520111,32.79188537597656,97.44815063476562,-9.9053955078125
301871,-0.4020843505859375,0.891510009765625,0.147369384765625,-0.4470752477645874,0.1966310292482376,-0.4175485074520111,32.79188537597656,97.44815063476562,-9.9053955078125
301872,-0.43365478515625,0.918426513671875,0.1581878662109375,-0.6421981453895569,0.389052152633667,-0.3793041706085205,32.39439392089844,97.673095703125,-9.74285888671875
301873,-0.4385528564453125,0.9170684814453124,0.16693115234375,-0.7273276448249817,0.3577733337879181,-0.3254827558994293,32.12675476074219,97.59713745117188,-9.516036987304688
301874,-0.4385528564453125,0.9170684814453124,0.16693115234375,-0.7273276448249817,0.3577733337879181,-0.3254827558994293,32.12675476074219,97.59713745117188,-9.516036987304688
301875,-0.42584228515625,0.92071533203125,0.165618896484375,-0.8220720291137695,0.2779767513275146,-0.2473498731851578,31.93655395507812,97.53073120117188,-9.326385498046877
301876,-0.351287841796875,0.9502716064453124,0.1159515380859375,-1.024147391319275,0.1670542359352112,-0.0811880603432655,31.61563110351562,97.4257354736328,-8.657608032226562
301877,-0.299041748046875,0.968505859375,0.0611572265625,-1.090228080749512,0.1158653497695923,0.0011004181578755,31.46836853027344,97.40972900390624,-8.157562255859375
301878,-0.299041748046875,0.968505859375,0.0611572265625,-1.090228080749512,0.1158653497695923,0.0011004181578755,31.46836853027344,97.40972900390624,-8.157562255859375
301879,-0.157379150390625,1.055862426757812,0.00067138671875,-0.8303195834159851,0.3447291553020477,0.2158912867307663,31.28671264648438,97.35285949707033,-7.180389404296875
301880,-0.094268798828125,1.133132934570312,-0.0333251953125,-0.8303195834159851,0.3447291553020477,0.2158912867307663,31.12884521484375,97.3417510986328,-6.671798706054688
301881,-0.0407562255859375,1.19073486328125,-0.071380615234375,-0.6821021437644958,0.3976208567619324,0.2163504064083099,31.07586669921875,97.30580139160156,-6.2156982421875
301882,-0.0407562255859375,1.19073486328125,-0.071380615234375,-0.6821021437644958,0.3976208567619324,0.2163504064083099,31.07586669921875,97.30580139160156,-6.2156982421875
301883,0.0005645751953125,1.223464965820312,-0.0747222900390625,-0.6072654128074646,0.3566747605800629,0.1959569901227951,31.0133056640625,97.24940490722656,-5.767532348632812
301884,0.0816497802734375,1.211318969726562,-0.1247711181640625,-0.5995385646820068,0.1506598144769669,0.2066394537687302,30.82928466796875,97.323486328125,-5.148025512695312
301885,0.11553955078125,1.13934326171875,-0.18438720703125,-0.4785375595092773,0.0377681516110897,0.2592174410820007,30.88197326660156,97.21278381347656,-4.845596313476562
301886,0.11553955078125,1.13934326171875,-0.18438720703125,-0.4785375595092773,0.0377681516110897,0.2592174410820007,30.88197326660156,97.21278381347656,-4.845596313476562
301887,0.1363983154296875,1.046478271484375,-0.2642364501953125,0.0297355242073535,-0.0490197390317916,0.4179104268550873,30.88768005371094,97.17781066894533,-4.485397338867188
301888,0.191375732421875,0.8913116455078125,-0.4742584228515625,0.5624076724052429,-0.0778383389115333,0.6230531930923462,31.11445617675781,97.0336456298828,-4.085647583007812
301889,0.226287841796875,0.862457275390625,-0.5201873779296875,0.5624076724052429,-0.0778383389115333,0.6230531930923462,31.40510559082031,96.94224548339844,-4.141754150390625
301890,0.2503662109375,0.8717803955078125,-0.5206146240234375,0.7111039757728577,-0.0648719370365142,0.665510356426239,31.71241760253906,96.8280792236328,-4.205947875976562
301891,0.2503662109375,0.8717803955078125,-0.5206146240234375,0.7111039757728577,-0.0648719370365142,0.665510356426239,31.71241760253906,96.8280792236328,-4.205947875976562
301892,0.3023223876953125,0.936676025390625,-0.5003662109375,0.7232210636138916,-0.1328667104244232,0.6422950625419617,32.33462524414062,96.91256713867188,-5.050750732421875
301893,0.3202972412109375,0.9891815185546876,-0.4990081787109375,0.6886878609657288,-0.1818241328001022,0.620218813419342,32.66876220703125,97.06336975097656,-5.312042236328125
301894,0.3202972412109375,0.9891815185546876,-0.4990081787109375,0.6886878609657288,-0.1818241328001022,0.620218813419342,32.66876220703125,97.06336975097656,-5.312042236328125
301895,0.326385498046875,1.077072143554688,-0.4994659423828125,0.6750543117523193,-0.2006548047065735,0.5798149108886719,32.95323181152344,97.26887512207033,-5.6099853515625
301896,0.3177490234375,1.296310424804688,-0.4957122802734375,0.5950311422348022,-0.1663279980421066,0.4293729364871979,33.52447509765625,97.4051513671875,-5.904098510742188
301897,0.297698974609375,1.427230834960938,-0.4644775390625,0.4781788289546967,-0.1140996739268303,0.3483502566814423,33.7926025390625,97.57005310058594,-6.233566284179688
301898,0.297698974609375,1.427230834960938,-0.4644775390625,0.4781788289546967,-0.1140996739268303,0.3483502566814423,33.7926025390625,97.57005310058594,-6.233566284179688
301899,0.1845245361328125,1.585311889648438,-0.299102783203125,0.2870346903800964,-0.2739761471748352,0.1325870752334595,34.17466735839844,97.8433837890625,-7.073928833007812
301900,0.137603759765625,1.572616577148438,-0.1873931884765625,0.4561430215835571,-0.5515140295028687,-0.0763299241662025,34.37442016601562,97.79849243164062,-7.105438232421875
301901,0.087860107421875,1.524398803710938,-0.148468017578125,0.4561430215835571,-0.5515140295028687,-0.0763299241662025,34.54452514648438,97.79757690429688,-7.304946899414062
301902,0.087860107421875,1.524398803710938,-0.148468017578125,0.4561430215835571,-0.5515140295028687,-0.0763299241662025,34.54452514648438,97.79757690429688,-7.304946899414062
301903,0.0351104736328125,1.43316650390625,-0.1029205322265625,0.8788607120513916,-0.7652696967124939,-0.2718221843242645,34.67143249511719,97.95008850097656,-7.468917846679688
301904,-0.1072998046875,1.116195678710938,-0.0326385498046875,0.9967697858810424,-0.851398766040802,-0.2546312212944031,34.9150390625,98.0220947265625,-7.982192993164062
301905,-0.1324005126953125,1.011993408203125,-0.017822265625,1.024995088577271,-0.9822843074798584,-0.2061936408281326,34.95407104492188,97.93580627441406,-8.078887939453125
301906,-0.1324005126953125,1.011993408203125,-0.017822265625,1.024995088577271,-0.9822843074798584,-0.2061936408281326,34.95407104492188,97.93580627441406,-8.078887939453125
301907,-0.1292266845703125,0.93695068359375,0.028106689453125,0.9083906412124634,-1.200050473213196,-0.1025812327861786,35.05729675292969,97.82765197753906,-8.284561157226562
301908,-0.1051788330078125,0.865997314453125,0.12548828125,0.8151344656944275,-1.197890877723694,-0.0552936159074306,35.19538879394531,97.88681030273438,-9.145721435546877
301909,-0.1214447021484375,0.854095458984375,0.1252593994140625,0.748971700668335,-1.175055623054504,-0.0135815888643264,35.23292541503906,97.8465576171875,-9.339752197265623
301910,-0.14569091796875,0.861541748046875,0.1045684814453125,0.7582547068595886,-1.166938304901123,0.0102305328473448,35.28860473632812,97.87045288085938,-9.623214721679688
301911,-0.159942626953125,0.849761962890625,0.089141845703125,0.8290329575538635,-1.182789444923401,-0.010064085945487,35.52874755859375,97.75466918945312,-9.780426025390623
301912,-0.171600341796875,0.803314208984375,0.0862274169921875,0.8964695334434509,-1.13762378692627,-0.0507396087050437,35.64706420898438,97.80506896972656,-9.838043212890623
301913,-0.1698455810546875,0.719024658203125,0.0750732421875,0.918728768825531,-1.020641803741455,-0.0660115107893943,35.717529296875,97.83438110351562,-10.04972839355469
301914,-0.1698455810546875,0.719024658203125,0.0750732421875,0.918728768825531,-1.020641803741455,-0.0660115107893943,35.717529296875,97.83438110351562,-10.04972839355469
301915,-0.1069793701171875,0.5804443359375,0.1014404296875,0.7334577441215515,-0.6122468709945679,-0.0356980748474597,35.90242004394531,98.09909057617188,-10.50755310058594
301916,-0.051788330078125,0.536224365234375,0.1454315185546875,0.5223516225814819,-0.3663699924945831,0.0277426820248365,35.89390563964844,98.08689880371094,-10.79568481445312
301917,-0.0152435302734375,0.51788330078125,0.20196533203125,0.2457948476076126,-0.1303529441356659,0.1155292615294456,35.86599731445312,98.1522979736328,-11.05209350585938
301918,-0.0096588134765625,0.52197265625,0.2524261474609375,-0.3366675078868866,0.2959014177322388,0.2178367227315903,35.86882019042969,98.24899291992188,-11.2799072265625
301919,-0.0096588134765625,0.52197265625,0.2524261474609375,-0.3366675078868866,0.2959014177322388,0.2178367227315903,35.86882019042969,98.24899291992188,-11.2799072265625
301920,-0.018341064453125,0.5285186767578125,0.28704833984375,-0.5919677019119263,0.4241051971912384,0.2268118411302567,35.99577331542969,98.43214416503906,-11.54934692382812
301921,-0.009185791015625,0.5245361328125,0.2757415771484375,-0.8259381055831909,0.4390836358070374,0.2485690712928772,36.08210754394531,98.39874267578124,-11.3865966796875
301922,-0.030670166015625,0.604583740234375,0.32281494140625,-1.032125949859619,0.3933826982975006,0.2904440760612488,36.1517333984375,98.359619140625,-11.18243408203125
301923,-0.030670166015625,0.604583740234375,0.32281494140625,-1.032125949859619,0.3933826982975006,0.2904440760612488,36.1517333984375,98.359619140625,-11.18243408203125
301924,-0.0847015380859375,1.035919189453125,0.4209747314453125,-1.395404577255249,0.335110604763031,0.2924425303936005,36.30841064453125,98.34521484375,-10.75936889648438
301925,-0.08251953125,1.154983520507812,0.4457855224609375,-1.493860006332397,0.2096280604600906,0.2459660917520523,36.51190185546875,98.28990173339844,-10.17062377929688
301926,-0.08251953125,1.154983520507812,0.4457855224609375,-1.493860006332397,0.2096280604600906,0.2459660917520523,36.51190185546875,98.28990173339844,-10.17062377929688
301927,-0.023651123046875,1.332260131835938,0.5174560546875,-1.327851057052612,-0.0126691898331046,0.0524653382599353,36.63796997070312,98.1907196044922,-8.91668701171875
301928,-0.0070037841796875,1.391036987304688,0.5394439697265625,-1.157793879508972,-0.0681612119078636,-0.0977718308568,36.57981872558594,98.08219909667967,-7.985397338867188
301929,-0.0013427734375,1.428009033203125,0.5071563720703125,-1.069531321525574,-0.118783637881279,-0.2437727153301239,36.59855651855469,97.98109436035156,-7.243484497070312
301930,-0.043548583984375,1.190185546875,0.044677734375,-0.8643712401390076,-0.3331880867481232,-0.6373634338378906,35.87294006347656,97.56996154785156,-4.840225219726562
301931,-0.043548583984375,1.190185546875,0.044677734375,-0.8643712401390076,-0.3331880867481232,-0.6373634338378906,35.87294006347656,97.56996154785156,-4.840225219726562
301932,-0.043548583984375,1.190185546875,0.044677734375,-0.8643712401390076,-0.3331880867481232,-0.6373634338378906,35.87294006347656,97.56996154785156,-4.840225219726562
301933,-0.043548583984375,1.190185546875,0.044677734375,-0.8643712401390076,-0.3331880867481232,-0.6373634338378906,35.87294006347656,97.56996154785156,-4.840225219726562
301934,-0.04705810546875,1.095108032226562,-0.01513671875,-0.514282763004303,0.3110969066619873,-0.5071657299995422,35.56594848632812,97.47520446777344,-4.39508056640625
301935,-0.04705810546875,1.095108032226562,-0.01513671875,-0.514282763004303,0.3110969066619873,-0.5071657299995422,35.56594848632812,97.47520446777344,-4.39508056640625
301936,-0.0329132080078125,1.014144897460938,-0.0856475830078125,-0.4829581379890442,0.4636566042900085,-0.4282653331756592,34.80815124511719,97.41673278808594,-3.860671997070312
301937,-0.03900146484375,0.9969940185546876,-0.0680999755859375,-0.4829581379890442,0.4636566042900085,-0.4282653331756592,34.39619445800781,97.41326904296876,-3.643814086914062
301938,-0.03900146484375,0.9969940185546876,-0.0680999755859375,-0.4829581379890442,0.4636566042900085,-0.4282653331756592,34.39619445800781,97.41326904296876,-3.643814086914062
301939,-0.07598876953125,1.032943725585938,-0.0916748046875,-0.5242043733596802,0.4172502160072327,-0.4023682177066803,34.13494873046875,97.18756103515624,-3.340484619140625
301940,-0.1422882080078125,1.114913940429688,-0.2287445068359375,-0.4315279722213745,0.2810023725032806,-0.2994226515293121,33.53396606445312,97.10585021972656,-2.935089111328125
301941,-0.114898681640625,1.093673706054688,-0.3210601806640625,-0.2672013342380524,0.1947596371173859,-0.2209171950817108,33.28691101074219,96.93234252929688,-2.598312377929688
301942,-0.114898681640625,1.093673706054688,-0.3210601806640625,-0.2672013342380524,0.1947596371173859,-0.2209171950817108,33.28691101074219,96.93234252929688,-2.598312377929688
301943,-0.046661376953125,1.060165405273438,-0.400543212890625,-0.0701018571853637,0.1941827982664108,-0.113843210041523,33.0911865234375,96.83407592773438,-2.4403076171875
301944,0.1043701171875,1.02191162109375,-0.5780487060546875,0.313850611448288,0.4362249970436096,0.1062244400382042,32.83168029785156,96.65792846679688,-2.167221069335938
301945,0.146392822265625,1.019317626953125,-0.6280975341796875,0.4610272645950317,0.5485344529151917,0.1711773425340652,32.71560668945312,96.59925842285156,-2.068954467773438
301946,0.171417236328125,1.019317626953125,-0.6326141357421875,0.5634204745292664,0.6292538046836853,0.1913095116615295,32.71658325195312,96.60171508789062,-2.187530517578125
301947,0.171417236328125,1.019317626953125,-0.6326141357421875,0.5634204745292664,0.6292538046836853,0.1913095116615295,32.71658325195312,96.60171508789062,-2.187530517578125
301948,0.150787353515625,1.062271118164062,-0.6183929443359375,0.6825143694877625,0.68000727891922,0.1189426332712173,32.71173095703125,96.74301147460938,-2.724655151367188
301949,0.09259033203125,1.100112915039062,-0.6108245849609375,0.7584930658340454,0.6744354367256165,0.0846347287297248,32.73402404785156,96.81600952148438,-3.190414428710938
301950,0.09259033203125,1.100112915039062,-0.6108245849609375,0.7584930658340454,0.6744354367256165,0.0846347287297248,32.73402404785156,96.81600952148438,-3.190414428710938
301951,0.032440185546875,1.134811401367188,-0.5894012451171875,0.9018688201904296,0.7580437660217285,0.0453024990856647,32.74588012695312,96.96408081054688,-3.671920776367188
301952,-0.0675506591796875,1.20269775390625,-0.5015411376953125,0.8864092230796814,0.795596718788147,0.0317725762724876,32.73991394042969,97.25045776367188,-4.539596557617188
301953,-0.0940093994140625,1.220916748046875,-0.4556427001953125,0.8200562596321106,0.7572016716003418,0.0185747500509023,32.66531372070312,97.31158447265624,-4.89300537109375
301954,-0.0940093994140625,1.220916748046875,-0.4556427001953125,0.8200562596321106,0.7572016716003418,0.0185747500509023,32.66531372070312,97.31158447265624,-4.89300537109375
301955,-0.107635498046875,1.129470825195312,-0.2262115478515625,0.5699649453163147,0.5848267078399658,0.0155858835205435,32.56072998046875,97.63064575195312,-6.44464111328125
301956,-0.119171142578125,1.028976440429688,-0.117279052734375,0.3244052529335022,0.6232382655143738,0.0524717308580875,32.5667724609375,97.804931640625,-6.869674682617188
301957,-0.1143951416015625,0.9847564697265624,-0.0808563232421875,0.2836191952228546,0.4871326386928558,0.1197634190320969,32.576904296875,97.9306640625,-7.34869384765625
301958,-0.1143951416015625,0.9847564697265624,-0.0808563232421875,0.2836191952228546,0.4871326386928558,0.1197634190320969,32.576904296875,97.9306640625,-7.34869384765625
301959,-0.088165283203125,0.9529571533203124,0.049896240234375,0.4109800755977631,0.4329940378665924,0.231544017791748,32.65225219726562,97.90101623535156,-7.659072875976562
301960,-0.0814208984375,0.9446563720703124,0.1795501708984375,0.5071313977241516,0.4281598627567291,0.3834762871265411,32.92514038085938,97.9246826171875,-8.24237060546875
301961,-0.0891265869140625,0.9470977783203124,0.242462158203125,0.3870489299297333,0.4527770578861237,0.3991266191005707,33.13777160644531,97.97447204589844,-8.593780517578125
301962,-0.0891265869140625,0.9470977783203124,0.242462158203125,0.3870489299297333,0.4527770578861237,0.3991266191005707,33.13777160644531,97.97447204589844,-8.593780517578125
301963,-0.0777130126953125,0.9182586669921876,0.27783203125,0.2383148372173309,0.4950656592845917,0.3673274219036102,33.24505615234375,98.12844848632812,-8.95587158203125
301964,-0.0485076904296875,0.85748291015625,0.255157470703125,0.1115470305085182,0.4078154563903809,0.2977347373962402,33.61572265625,97.97740173339844,-9.44549560546875
301965,-0.000640869140625,0.876068115234375,0.2097015380859375,0.1454179137945175,0.2674801647663116,0.2845867276191711,33.92530822753906,97.98289489746094,-9.4560546875
301966,-0.000640869140625,0.876068115234375,0.2097015380859375,0.1454179137945175,0.2674801647663116,0.2845867276191711,33.92530822753906,97.98289489746094,-9.4560546875
301967,0.0697021484375,0.863800048828125,0.084259033203125,0.2739250361919403,-0.3357521593570709,0.2756888270378113,34.13409423828125,97.96031188964844,-9.965179443359377
301968,0.099212646484375,0.8213043212890625,0.024322509765625,0.2739250361919403,-0.3357521593570709,0.2756888270378113,34.2977294921875,97.95155334472656,-9.907745361328123
301969,0.1174468994140625,0.7824249267578125,-0.0118255615234375,0.2878818511962891,-0.5207265615463257,0.2544778287410736,34.47430419921875,97.84181213378906,-9.967453002929688
301970,0.1227264404296875,0.7592315673828125,-0.0391998291015625,0.2728355228900909,-0.6047572493553162,0.1847144514322281,34.49160766601562,97.92985534667967,-10.18006896972656
301971,0.1227264404296875,0.7592315673828125,-0.0391998291015625,0.2728355228900909,-0.6047572493553162,0.1847144514322281,34.49160766601562,97.92985534667967,-10.18006896972656
301972,0.1051483154296875,0.7673797607421875,-0.0438232421875,0.0675564035773277,-0.2815957367420197,-0.0945888236165046,34.54966735839844,98.17507934570312,-10.48757934570312
301973,-0.057037353515625,0.810394287109375,-0.0530853271484375,-0.042696863412857,-0.0608183443546295,-0.2152500003576279,34.68861389160156,98.27337646484376,-10.49433898925781
301974,-0.057037353515625,0.810394287109375,-0.0530853271484375,-0.042696863412857,-0.0608183443546295,-0.2152500003576279,34.68861389160156,98.27337646484376,-10.49433898925781
301975,-0.1282196044921875,0.8525543212890625,-0.0017547607421875,-0.1071152687072754,-0.0213974341750145,-0.3239527642726898,34.67765808105469,98.29304504394533,-10.35432434082031
301976,-0.216064453125,0.8980712890625,0.0952301025390625,-0.2745636403560638,0.0192533228546381,-0.4997685253620148,34.34132385253906,98.17022705078124,-10.05154418945312
301977,-0.25,0.8921966552734375,0.092193603515625,-0.3726806342601776,-0.0019840549211949,-0.5418688654899597,34.21726989746094,98.0800323486328,-10.09565734863281
301978,-0.26971435546875,0.8724822998046875,0.0969390869140625,-0.4432086050510406,-0.0284665282815694,-0.5469778776168823,33.99923706054688,98.1208038330078,-10.07057189941406
301979,-0.26971435546875,0.8724822998046875,0.0969390869140625,-0.4432086050510406,-0.0284665282815694,-0.5469778776168823,33.99923706054688,98.1208038330078,-10.07057189941406
301980,-0.2826690673828125,0.8543548583984375,0.145965576171875,-0.5308265686035156,0.0611072964966297,-0.5152377486228943,33.53498840332031,98.08753967285156,-9.832077026367188
301981,-0.3055877685546875,0.8628997802734375,0.1568450927734375,-0.5844128727912903,0.1719531267881393,-0.5143048763275146,33.326904296875,98.0375518798828,-9.606231689453123
301982,-0.379638671875,0.8844757080078125,0.1605377197265625,-0.6841365098953247,0.3081815242767334,-0.5102640390396118,32.84548950195312,97.80784606933594,-8.993133544921875
301983,-0.379638671875,0.8844757080078125,0.1605377197265625,-0.6841365098953247,0.3081815242767334,-0.5102640390396118,32.84548950195312,97.80784606933594,-8.993133544921875
301984,-0.4195709228515625,0.8997344970703125,0.1679229736328125,-0.7335836887359619,0.3024978041648865,-0.4990814328193665,32.59005737304688,97.78581237792967,-8.686843872070312
301985,-0.43951416015625,0.9150390625,0.1783905029296875,-0.7906429767608643,0.261803925037384,-0.4630643129348755,32.36141967773438,97.7230987548828,-8.360443115234375
301986,-0.43951416015625,0.9150390625,0.1783905029296875,-0.7906429767608643,0.261803925037384,-0.4630643129348755,32.36141967773438,97.7230987548828,-8.360443115234375
301987,-0.41876220703125,0.979156494140625,0.1711883544921875,-0.970504343509674,0.1162246093153954,-0.3835258185863495,31.88050842285156,97.47238159179688,-7.663894653320312
301988,-0.3859710693359375,1.001663208007812,0.142181396484375,-1.06704044342041,0.0337190814316272,-0.3362903892993927,31.61099243164062,97.50608825683594,-7.261215209960938
301989,-0.3353424072265625,1.030349731445312,0.0910491943359375,-1.131134033203125,-0.070871777832508,-0.2802316546440125,31.32107543945312,97.52696228027344,-6.772018432617188
301990,-0.3353424072265625,1.030349731445312,0.0910491943359375,-1.131134033203125,-0.070871777832508,-0.2802316546440125,31.32107543945312,97.52696228027344,-6.772018432617188
301991,-0.1797332763671875,1.136962890625,0.008697509765625,-1.01904821395874,-0.1888452768325806,-0.1710774749517441,30.89193725585938,97.32809448242188,-5.58612060546875
301992,-0.099273681640625,1.175048828125,-0.0297698974609375,-0.854982852935791,-0.1117377132177353,-0.1183242499828339,30.722412109375,97.23757934570312,-4.897491455078125
301993,-0.042877197265625,1.204696655273438,-0.0574951171875,-0.52541583776474,0.0130731910467147,-0.0844059586524963,30.52098083496094,97.18263244628906,-4.414840698242188
301994,-0.042877197265625,1.204696655273438,-0.0574951171875,-0.52541583776474,0.0130731910467147,-0.0844059586524963,30.52098083496094,97.18263244628906,-4.414840698242188
301995,0.00518798828125,1.179122924804688,-0.0975189208984375,-0.4240418076515198,-0.0684264600276947,-0.0904316306114196,30.2283935546875,97.12045288085938,-3.6744384765625
301996,0.0373992919921875,1.146957397460938,-0.113067626953125,-0.3301315605640411,-0.1716881394386292,-0.0977968648076057,29.99186706542969,97.0194091796875,-3.37744140625
301997,0.071624755859375,1.069412231445312,-0.19073486328125,-0.2429452687501907,-0.3175481259822845,-0.0817976593971252,29.98658752441406,97.02308654785156,-3.21405029296875
301998,0.071624755859375,1.069412231445312,-0.19073486328125,-0.2429452687501907,-0.3175481259822845,-0.0817976593971252,29.98658752441406,97.02308654785156,-3.21405029296875
301999,0.1188812255859375,0.9823150634765624,-0.282745361328125,-0.1279619634151459,-0.4959618151187897,-0.0236446093767881,29.88021850585938,96.93508911132812,-3.039962768554688
302000,0.2014312744140625,0.8725433349609375,-0.45269775390625,0.2495211511850357,-0.6447491645812988,0.137350931763649,30.00408935546875,96.49856567382812,-2.602554321289062
302001,0.2166290283203125,0.8576812744140625,-0.5069427490234375,0.4529981017112732,-0.5893034934997559,0.2229127138853073,30.1353759765625,96.322265625,-2.364089965820312
302002,0.2167816162109375,0.880615234375,-0.5268707275390625,0.5864480137825012,-0.505753755569458,0.3008735477924347,30.32441711425781,96.310302734375,-2.39739990234375
302003,0.2167816162109375,0.880615234375,-0.5268707275390625,0.5864480137825012,-0.505753755569458,0.3008735477924347,30.32441711425781,96.310302734375,-2.39739990234375
302004,0.1927032470703125,1.013168334960938,-0.488494873046875,0.5833052396774292,-0.3718619644641876,0.2983230352401733,30.73284912109375,96.4033203125,-2.634765625
302005,0.187774658203125,1.10308837890625,-0.465545654296875,0.5416014790534973,-0.3639110922813416,0.2627826333045959,30.99821472167969,96.39810180664062,-2.858352661132812
302006,0.187774658203125,1.10308837890625,-0.465545654296875,0.5416014790534973,-0.3639110922813416,0.2627826333045959,30.99821472167969,96.39810180664062,-2.858352661132812
302007,0.1851043701171875,1.178756713867188,-0.447509765625,0.5531390905380249,-0.3092475831508636,0.2510569989681244,31.187744140625,96.5784912109375,-3.140182495117188
302008,0.1771240234375,1.26751708984375,-0.43963623046875,0.6005593538284302,-0.2445298582315445,0.239689826965332,31.3768310546875,96.59616088867188,-3.233840942382812
302009,0.1631622314453125,1.466552734375,-0.3480987548828125,0.5947824120521545,-0.1214633136987686,0.1994241625070572,31.72810363769531,96.72108459472656,-3.718780517578125
302010,0.1631622314453125,1.466552734375,-0.3480987548828125,0.5947824120521545,-0.1214633136987686,0.1994241625070572,31.72810363769531,96.72108459472656,-3.718780517578125
302011,0.1252593994140625,1.629470825195312,-0.1709747314453125,0.5446321368217468,-0.0556009449064731,0.1376803666353226,32.04498291015625,96.96980285644533,-4.234878540039062
302012,0.083953857421875,1.650115966796875,-0.074310302734375,0.5937789082527161,-0.1482682973146439,0.0913877040147781,32.18659973144531,97.00584411621094,-4.445053100585938
302013,0.02569580078125,1.607940673828125,0.011505126953125,0.6908482313156128,-0.2928640842437744,0.0011768508702516,32.36027526855469,97.14404296875,-4.782196044921875
302014,-0.0348663330078125,1.485977172851562,0.0689544677734375,0.7941804528236389,-0.4219986498355865,-0.1017085164785385,32.499755859375,97.29965209960938,-5.181259155273438
302015,-0.0348663330078125,1.485977172851562,0.0689544677734375,0.7941804528236389,-0.4219986498355865,-0.1017085164785385,32.499755859375,97.29965209960938,-5.181259155273438
302016,-0.1761932373046875,1.154037475585938,0.0731964111328125,1.026457905769348,-0.4857661724090576,-0.1804440766572952,32.67401123046875,97.41810607910156,-5.856903076171875
302017,-0.230316162109375,1.009323120117188,0.05816650390625,1.059810757637024,-0.5739929676055908,-0.1500113308429718,32.85008239746094,97.4078369140625,-6.30035400390625
302018,-0.2601318359375,0.9188232421875,0.0870513916015625,1.014371991157532,-0.680600106716156,-0.1126256138086319,32.90480041503906,97.4884796142578,-6.780532836914062
302019,-0.27764892578125,0.8564300537109375,0.117340087890625,0.9202480912208556,-0.752773642539978,-0.0973164364695549,33.01335144042969,97.56822204589844,-7.213623046875
302020,-0.288055419921875,0.8032073974609375,0.118408203125,0.7692199945449829,-0.8212096691131592,-0.082402728497982,33.08816528320312,97.55108642578124,-7.46710205078125
302021,-0.2792205810546875,0.7800750732421875,0.089630126953125,0.6233309507369995,-0.8829763531684875,-0.0526376441121101,33.20277404785156,97.4872589111328,-7.692977905273438
302022,-0.2792205810546875,0.7800750732421875,0.089630126953125,0.6233309507369995,-0.8829763531684875,-0.0526376441121101,33.20277404785156,97.4872589111328,-7.692977905273438
302023,-0.2236785888671875,0.7927093505859375,0.0208740234375,0.6032411456108093,-0.9850433468818665,-0.0549229048192501,33.41935729980469,97.33152770996094,-7.918670654296875
302024,-0.2147369384765625,0.790679931640625,0.0184173583984375,0.7093396186828613,-0.8688717484474182,-0.0565287880599498,33.65151977539062,97.29084777832033,-7.910324096679688
302025,-0.2095947265625,0.7790679931640625,0.0114593505859375,0.7852503657341003,-0.6647217869758606,-0.0488274618983268,33.78157043457031,97.2822723388672,-8.078964233398438
302026,-0.2095947265625,0.7790679931640625,0.0114593505859375,0.7852503657341003,-0.6647217869758606,-0.0488274618983268,33.78157043457031,97.2822723388672,-8.078964233398438
302027,-0.191802978515625,0.748626708984375,0.0213775634765625,0.7743399143218994,-0.4364526867866516,-0.0370589531958103,33.70809936523438,97.49327087402344,-8.527633666992188
302028,-0.1555633544921875,0.7086181640625,0.0556488037109375,0.4527701437473297,-0.0965047031641006,0.065102569758892,33.69972229003906,97.49411010742188,-8.8016357421875
302029,-0.074493408203125,0.6260833740234375,0.1596527099609375,0.2073145657777786,0.0214538928121328,0.1234755963087082,33.77488708496094,97.44358825683594,-9.172561645507812
302030,-0.074493408203125,0.6260833740234375,0.1596527099609375,0.2073145657777786,0.0214538928121328,0.1234755963087082,33.77488708496094,97.44358825683594,-9.172561645507812
302031,-0.0546875,0.581268310546875,0.1932373046875,-0.2328944951295853,0.2208748608827591,0.1972616761922836,33.80325317382812,97.52897644042967,-9.327545166015623
302032,-0.0161590576171875,0.5068817138671875,0.23760986328125,-0.3925427496433258,0.2947394847869873,0.237058088183403,34.00096130371094,97.44758605957033,-9.24365234375
302033,0.0027618408203125,0.5009765625,0.2523651123046875,-0.5202101469039917,0.345305472612381,0.2868818342685699,34.0885009765625,97.45626831054688,-9.078933715820312
302034,0.0027618408203125,0.5009765625,0.2523651123046875,-0.5202101469039917,0.345305472612381,0.2868818342685699,34.0885009765625,97.45626831054688,-9.078933715820312
302035,0.01544189453125,0.669464111328125,0.34210205078125,-0.7941266894340515,0.3885008692741394,0.3641289472579956,34.15394592285156,97.7180633544922,-9.317962646484377
302036,-0.0177154541015625,0.916015625,0.396026611328125,-0.92962247133255,0.4462187588214874,0.349715918302536,34.24800109863281,97.792724609375,-9.188644409179688
302037,-0.05047607421875,1.065963745117188,0.402008056640625,-1.03980565071106,0.4270235002040863,0.2960803806781769,34.31851196289062,97.8051300048828,-8.910659790039062
302038,-0.0751190185546875,1.144561767578125,0.4219818115234375,-1.114426612854004,0.210101306438446,0.1575185209512711,34.43133544921875,97.72789001464844,-8.5157470703125
302039,-0.0751190185546875,1.144561767578125,0.4219818115234375,-1.114426612854004,0.210101306438446,0.1575185209512711,34.43133544921875,97.72789001464844,-8.5157470703125
302040,-0.0893096923828125,1.2646484375,0.4737701416015625,-1.073368668556213,0.0676426962018013,0.0437959507107734,34.47396850585938,97.745849609375,-7.590713500976562
302041,-0.0953369140625,1.274124145507812,0.4995574951171875,-1.043669939041138,-0.0319283716380596,-0.081522025167942,34.47943115234375,97.89436340332033,-7.175521850585938
302042,-0.0953369140625,1.274124145507812,0.4995574951171875,-1.043669939041138,-0.0319283716380596,-0.081522025167942,34.47943115234375,97.89436340332033,-7.175521850585938
302043,-0.092315673828125,1.205413818359375,0.446258544921875,-1.135938882827759,-0.269237607717514,-0.4375083744525909,34.36549377441406,97.62149047851562,-6.192718505859375
302044,-0.097442626953125,1.133148193359375,0.3719329833984375,-1.135938882827759,-0.269237607717514,-0.4375083744525909,34.2662353515625,97.5034637451172,-5.645721435546875
302045,-0.1049652099609375,1.063156127929688,0.2702178955078125,-1.06241250038147,-0.405045747756958,-0.5002534985542297,34.10807800292969,97.41806030273438,-5.082107543945312
302046,-0.1049652099609375,1.063156127929688,0.2702178955078125,-1.06241250038147,-0.405045747756958,-0.5002534985542297,34.10807800292969,97.41806030273438,-5.082107543945312
302047,-0.111236572265625,1.0,0.1477813720703125,-0.6790189743041992,-0.5463150143623352,-0.4587364196777344,33.87663269042969,97.37019348144533,-4.654067993164062
302048,-0.1027069091796875,0.9821929931640624,-0.0440216064453125,-0.5122702121734619,-0.2712528109550476,-0.364922046661377,33.38627624511719,96.99893188476562,-3.677352905273438
302049,-0.0871734619140625,1.020767211914062,-0.1399383544921875,-0.4157468676567078,0.0603530891239643,-0.2831001579761505,33.069580078125,96.9160614013672,-3.239227294921875
302050,-0.0962982177734375,1.047073364257812,-0.1596832275390625,-0.3523761630058289,0.2669461965560913,-0.2562272548675537,32.7596435546875,96.79548645019533,-2.824111938476562
302051,-0.1137237548828125,1.053573608398438,-0.1392669677734375,-0.3418931663036346,0.3266806602478027,-0.2426070421934128,32.54998779296875,96.79490661621094,-2.612075805664062
302052,-0.138092041015625,1.09942626953125,-0.131103515625,-0.3652301728725433,0.3123557567596436,-0.2330388426780701,32.342041015625,96.63949584960938,-2.403778076171875
302053,-0.157989501953125,1.150543212890625,-0.16046142578125,-0.3692688643932343,0.2903359532356262,-0.2233590483665466,32.13462829589844,96.61611938476562,-2.187347412109375
302054,-0.157989501953125,1.150543212890625,-0.16046142578125,-0.3692688643932343,0.2903359532356262,-0.2233590483665466,32.13462829589844,96.61611938476562,-2.187347412109375
302055,-0.1521453857421875,1.176681518554688,-0.22052001953125,-0.2952191233634949,0.1962294280529022,-0.188438355922699,31.94436645507812,96.48170471191406,-1.884323120117188
302056,-0.093048095703125,1.16778564453125,-0.2734222412109375,-0.1332515329122543,0.1649668514728546,-0.1142895594239235,31.77593994140625,96.31295776367188,-1.668563842773438
302057,0.083099365234375,1.102981567382812,-0.4904022216796875,0.3498003482818604,0.3102611899375916,0.1111494228243828,31.64189147949219,96.12277221679688,-1.28692626953125
302058,0.083099365234375,1.102981567382812,-0.4904022216796875,0.3498003482818604,0.3102611899375916,0.1111494228243828,31.64189147949219,96.12277221679688,-1.28692626953125
302059,0.1505584716796875,1.09637451171875,-0.5818023681640625,0.5880584716796875,0.4417968392372131,0.2225529104471207,31.56121826171875,96.17184448242188,-1.488693237304688
302060,0.182373046875,1.105331420898438,-0.635772705078125,0.8264231085777283,0.6100111603736877,0.2960087656974792,31.68365478515625,96.21820068359376,-1.902694702148438
302061,0.1229248046875,1.130294799804688,-0.61090087890625,0.8521968722343445,0.5585554242134094,0.2345411330461502,31.74818420410156,96.36708068847656,-2.1583251953125
302062,0.1229248046875,1.130294799804688,-0.61090087890625,0.8521968722343445,0.5585554242134094,0.2345411330461502,31.74818420410156,96.36708068847656,-2.1583251953125
302063,-0.022613525390625,1.187759399414062,-0.555389404296875,1.01253354549408,0.490969717502594,0.1531426757574081,31.97653198242188,96.8326416015625,-3.157852172851562
302064,-0.0808868408203125,1.211334228515625,-0.552520751953125,1.101996898651123,0.5014841556549072,0.1261214464902878,32.02464294433594,96.95706176757812,-3.646163940429688
302065,-0.1336212158203125,1.222122192382812,-0.4973602294921875,1.12614905834198,0.5440657138824463,0.1083227470517159,32.02522277832031,97.21031188964844,-4.259140014648438
302066,-0.1336212158203125,1.222122192382812,-0.4973602294921875,1.12614905834198,0.5440657138824463,0.1083227470517159,32.02522277832031,97.21031188964844,-4.259140014648438
302067,-0.18048095703125,1.232589721679688,-0.447113037109375,0.8546805381774902,0.4881070852279663,0.0517793074250221,32.11126708984375,97.41323852539062,-5.037689208984375
302068,-0.1830291748046875,1.143798828125,-0.2538909912109375,0.6298375725746155,0.4055440425872803,0.0534861274063587,32.27072143554688,97.63410949707033,-6.308990478515625
302069,-0.185302734375,1.027359008789062,-0.077239990234375,0.2835297286510468,0.5803880095481873,0.099927932024002,32.27609252929688,97.67062377929688,-6.682464599609375
302070,-0.1651458740234375,0.95330810546875,-0.13995361328125,0.2415897250175476,0.3292436599731445,0.3378443419933319,32.2774658203125,97.814208984375,-7.065963745117188
302071,-0.1651458740234375,0.95330810546875,-0.13995361328125,0.2415897250175476,0.3292436599731445,0.3378443419933319,32.2774658203125,97.814208984375,-7.065963745117188
302072,-0.0673675537109375,0.9735107421875,0.08294677734375,0.3901956975460052,0.3607275784015656,0.4590253829956055,32.45835876464844,97.7773895263672,-7.76629638671875
302073,-0.042694091796875,0.990203857421875,0.1050262451171875,0.4217626750469208,0.3893376290798187,0.5240951776504517,32.76644897460938,97.81208801269533,-7.984207153320312
302074,-0.042694091796875,0.990203857421875,0.1050262451171875,0.4217626750469208,0.3893376290798187,0.5240951776504517,32.76644897460938,97.81208801269533,-7.984207153320312
302075,-0.0370941162109375,0.9727783203125,0.1353912353515625,0.2129993587732315,0.3575759828090668,0.4600000977516174,33.15017700195312,97.7763671875,-8.432449340820312
302076,-0.03387451171875,0.934478759765625,0.156707763671875,0.1406668424606323,0.3342687785625458,0.398386538028717,33.37858581542969,97.86026000976562,-8.65789794921875
302077,-0.0275726318359375,0.9061431884765624,0.1744842529296875,0.1491833627223969,0.321881890296936,0.346202939748764,33.57208251953125,98.07382202148438,-8.799102783203125
302078,-0.0041656494140625,0.90472412109375,0.17474365234375,0.2022348642349243,0.2113833427429199,0.2833307683467865,33.69619750976562,98.08200073242188,-8.988555908203125
302079,-0.0041656494140625,0.90472412109375,0.17474365234375,0.2022348642349243,0.2113833427429199,0.2833307683467865,33.69619750976562,98.08200073242188,-8.988555908203125
302080,0.0663909912109375,0.9029083251953124,0.11175537109375,0.2044993489980698,0.0827239081263542,0.2929509282112122,33.9454345703125,98.04672241210938,-9.22235107421875
302081,0.111114501953125,0.878387451171875,0.0686187744140625,0.2025022357702255,-0.0926718786358833,0.31639364361763,34.15936279296875,98.013916015625,-9.284454345703123
302082,0.111114501953125,0.878387451171875,0.0686187744140625,0.2025022357702255,-0.0926718786358833,0.31639364361763,34.15936279296875,98.013916015625,-9.284454345703123
302083,0.1397705078125,0.8480987548828125,0.0379638671875,0.1996675729751587,-0.4186214804649353,0.2948047518730164,34.32757568359375,98.11639404296876,-9.393707275390623
302084,0.1446990966796875,0.7998046875,-0.0170135498046875,0.2078123241662979,-0.5040857791900635,0.2103188782930374,34.55671691894531,98.08119201660156,-9.723403930664062
302085,0.1077880859375,0.805938720703125,-0.0251922607421875,0.1944600194692612,-0.4899135231971741,0.0581384040415287,34.68820190429688,98.07061767578124,-9.618896484375
302086,0.02056884765625,0.8206024169921875,-0.01812744140625,0.1478427201509476,-0.3253328204154968,-0.1122157573699951,34.71188354492188,98.1045379638672,-9.634292602539062
302087,-0.0962677001953125,0.8312225341796875,-0.03753662109375,0.020372649654746,-0.1004355251789093,-0.3290676474571228,34.70932006835938,98.22067260742188,-9.718887329101562
302088,-0.176544189453125,0.8431396484375,-0.0137939453125,0.020372649654746,-0.1004355251789093,-0.3290676474571228,34.68434143066406,98.26104736328124,-9.60943603515625
302089,-0.21734619140625,0.860626220703125,0.0499725341796875,-0.0617238171398639,-0.0578004494309425,-0.3957521319389343,34.68055725097656,98.19020080566406,-9.526016235351562
302090,-0.21734619140625,0.860626220703125,0.0499725341796875,-0.0617238171398639,-0.0578004494309425,-0.3957521319389343,34.68055725097656,98.19020080566406,-9.526016235351562
302091,-0.23828125,0.86102294921875,0.0931396484375,-0.1500371694564819,-0.0072371400892734,-0.4416104257106781,34.44477844238281,98.1418914794922,-9.813095092773438
302092,-0.2678985595703125,0.8489837646484375,0.1591033935546875,-0.2942196428775787,0.1257621943950653,-0.4411046802997589,34.12130737304688,98.29136657714844,-9.723876953125
302093,-0.2930145263671875,0.851959228515625,0.187255859375,-0.3971952795982361,0.2104033082723618,-0.4403773844242096,33.90406799316406,98.226806640625,-9.667205810546877
302094,-0.2930145263671875,0.851959228515625,0.187255859375,-0.3971952795982361,0.2104033082723618,-0.4403773844242096,33.90406799316406,98.226806640625,-9.667205810546877
302095,-0.32208251953125,0.860198974609375,0.197479248046875,-0.517866849899292,0.2778561115264893,-0.4390897452831268,33.73081970214844,98.05288696289062,-9.569305419921877
302096,-0.3662872314453125,0.8686370849609375,0.2039031982421875,-0.7066562175750732,0.3405312299728394,-0.4235557913780212,33.33102416992188,98.09254455566406,-9.394317626953123
302097,-0.379669189453125,0.8690643310546875,0.2161102294921875,-0.7579731941223145,0.318213939666748,-0.4049088656902313,33.13636779785156,98.13803100585938,-9.059219360351562
302098,-0.379669189453125,0.8690643310546875,0.2161102294921875,-0.7579731941223145,0.318213939666748,-0.4049088656902313,33.13636779785156,98.13803100585938,-9.059219360351562
302099,-0.3907623291015625,0.8770751953125,0.2333831787109375,-0.7949807643890381,0.2870046198368073,-0.3766103982925415,32.92076110839844,98.1581573486328,-8.802780151367188
302100,-0.3554229736328125,0.8928375244140625,0.223876953125,-0.9143319129943848,0.1510829925537109,-0.3231303989887238,32.44108581542969,98.00233459472656,-8.242507934570312
302101,-0.31048583984375,0.895172119140625,0.1903228759765625,-0.9942235350608826,0.0538435243070125,-0.3027465641498566,32.23399353027344,97.95426940917967,-7.807907104492188
302102,-0.31048583984375,0.895172119140625,0.1903228759765625,-0.9942235350608826,0.0538435243070125,-0.3027465641498566,32.23399353027344,97.95426940917967,-7.807907104492188
302103,-0.18804931640625,0.94061279296875,0.1055755615234375,-1.077972292900085,-0.157668724656105,-0.2740019857883453,31.7412109375,97.74226379394533,-7.091293334960938
302104,-0.124114990234375,0.9836883544921876,0.0675506591796875,-1.064154982566833,-0.2197928130626678,-0.2448813915252686,31.4945068359375,97.62332153320312,-6.57000732421875
302105,-0.05841064453125,1.055206298828125,0.024871826171875,-0.9988356232643129,-0.2275993376970291,-0.2001807689666748,31.35813903808594,97.61140441894533,-6.009841918945312
302106,-0.05841064453125,1.055206298828125,0.024871826171875,-0.9988356232643129,-0.2275993376970291,-0.2001807689666748,31.35813903808594,97.61140441894533,-6.009841918945312
302107,-0.0068359375,1.127792358398438,-0.026824951171875,-0.7048497796058655,-0.1339626014232635,-0.1657024174928665,31.12132263183594,97.58522033691406,-5.508041381835938
302108,0.032958984375,1.217742919921875,-0.1231231689453125,-0.5296065807342529,-0.1168906688690186,-0.1465255171060562,30.74308776855469,97.35597229003906,-4.391098022460938
302109,0.0531158447265625,1.225753784179688,-0.1441192626953125,-0.3732292354106903,-0.174257293343544,-0.1269004195928574,30.62887573242188,97.16978454589844,-3.7685546875
302110,0.068328857421875,1.228530883789062,-0.1662750244140625,-0.2343621701002121,-0.2844354510307312,-0.1055959314107895,30.44111633300781,97.0226593017578,-3.442413330078125
302111,0.068328857421875,1.228530883789062,-0.1662750244140625,-0.2343621701002121,-0.2844354510307312,-0.1055959314107895,30.44111633300781,97.0226593017578,-3.442413330078125
302112,0.102783203125,1.1170654296875,-0.2863922119140625,0.0768833309412002,-0.5200448036193848,-0.0251484960317611,30.27458190917969,96.92832946777344,-3.015106201171875
302113,0.1212005615234375,1.050369262695312,-0.38665771484375,0.5522754192352295,-0.5558786988258362,0.137275293469429,30.28176879882812,96.9351043701172,-2.62359619140625
302114,0.142059326171875,0.986053466796875,-0.480560302734375,0.5522754192352295,-0.5558786988258362,0.137275293469429,30.34112548828125,96.9195556640625,-2.455169677734375
302115,0.142059326171875,0.986053466796875,-0.480560302734375,0.5522754192352295,-0.5558786988258362,0.137275293469429,30.34112548828125,96.9195556640625,-2.455169677734375
302116,0.157440185546875,0.8766632080078125,-0.5832977294921875,0.970058798789978,-0.3006471693515778,0.3774615228176117,30.52447509765625,96.70263671875,-2.557998657226562
302117,0.1415863037109375,0.87164306640625,-0.5667266845703125,0.970058798789978,-0.3006471693515778,0.3774615228176117,30.66184997558594,96.76351928710938,-2.774490356445312
302118,0.1444244384765625,0.901519775390625,-0.5222320556640625,0.8973353505134583,-0.2458750158548355,0.3748804032802582,30.91813659667969,96.8149871826172,-2.922073364257812
302119,0.1444244384765625,0.901519775390625,-0.5222320556640625,0.8973353505134583,-0.2458750158548355,0.3748804032802582,30.91813659667969,96.8149871826172,-2.922073364257812
302120,0.185546875,1.0091552734375,-0.46636962890625,0.7012460231781006,-0.1789564341306686,0.3333305716514587,31.47004699707031,96.9209442138672,-3.520782470703125
302121,0.1890869140625,1.105377197265625,-0.4639129638671875,0.6718928813934326,-0.1419257074594498,0.3277610838413239,31.72364807128906,97.07600402832033,-3.876419067382812
302122,0.1890869140625,1.105377197265625,-0.4639129638671875,0.6718928813934326,-0.1419257074594498,0.3277610838413239,31.72364807128906,97.07600402832033,-3.876419067382812
302123,0.19451904296875,1.243545532226562,-0.4578399658203125,0.6467878222465515,-0.1163151562213898,0.3088281452655792,31.86672973632812,97.26345825195312,-4.515609741210938
302124,0.193450927734375,1.51080322265625,-0.361724853515625,0.540798008441925,-0.1441089659929276,0.1745696812868118,32.28153991699219,97.45262145996094,-5.250076293945312
302125,0.1680450439453125,1.609222412109375,-0.2541656494140625,0.4913963675498962,-0.192099928855896,0.0690887868404388,32.42962646484375,97.48747253417967,-5.400405883789062
302126,0.1680450439453125,1.609222412109375,-0.2541656494140625,0.4913963675498962,-0.192099928855896,0.0690887868404388,32.42962646484375,97.48747253417967,-5.400405883789062
302127,0.1369171142578125,1.668731689453125,-0.1381378173828125,0.4937886893749237,-0.2716509401798248,-0.0329662039875984,32.49934387207031,97.68174743652344,-5.657745361328125
302128,0.091552734375,1.659286499023438,-0.0380401611328125,0.8182958960533142,-0.2727556228637695,-0.161889836192131,32.62034606933594,97.7041015625,-5.966079711914062
302129,-0.06805419921875,1.493637084960938,0.004302978515625,1.254817366600037,-0.3461752533912659,-0.1580756604671478,32.90875244140625,97.71707153320312,-6.32379150390625
302130,-0.1519927978515625,1.316192626953125,-0.0070953369140625,1.311039805412292,-0.4629974663257599,-0.0924423187971115,32.96524047851562,97.79541015625,-6.5010986328125
302131,-0.1519927978515625,1.316192626953125,-0.0070953369140625,1.311039805412292,-0.4629974663257599,-0.0924423187971115,32.96524047851562,97.79541015625,-6.5010986328125
302132,-0.1856231689453125,0.9447784423828124,0.05963134765625,1.282042026519775,-0.5726619362831116,-0.0067713535390794,33.06741333007812,97.81819152832033,-7.368972778320312
302133,-0.1810302734375,0.823577880859375,0.0828704833984375,1.187250733375549,-0.682763397693634,0.0680134072899818,33.11962890625,97.87452697753906,-7.912307739257812
302134,-0.1810302734375,0.823577880859375,0.0828704833984375,1.187250733375549,-0.682763397693634,0.0680134072899818,33.11962890625,97.87452697753906,-7.912307739257812
302135,-0.167510986328125,0.770111083984375,0.0711517333984375,1.03193998336792,-0.8278998136520386,0.0896145701408386,33.155517578125,98.05720520019533,-8.487640380859375
302136,-0.169036865234375,0.8149871826171875,0.02667236328125,0.8719716668128967,-1.165206432342529,-0.0190282855182886,33.61666870117188,98.08514404296876,-9.488784790039062
302137,-0.1891021728515625,0.8339385986328125,0.0184326171875,0.8719716668128967,-1.165206432342529,-0.0190282855182886,33.737060546875,98.0460968017578,-9.838790893554688
302138,-0.1891021728515625,0.8339385986328125,0.0184326171875,0.8719716668128967,-1.165206432342529,-0.0190282855182886,33.737060546875,98.0460968017578,-9.838790893554688
302139,-0.2699737548828125,0.779083251953125,-0.0052947998046875,0.9149657487869264,-0.6990156173706055,-0.0533796027302742,34.0611572265625,98.20100402832033,-10.59585571289062
302140,-0.2633514404296875,0.7537078857421875,-0.028045654296875,0.8614670634269714,-0.4201323091983795,0.0028826056513935,34.12614440917969,98.16404724121094,-10.80223083496094
302141,-0.2144317626953125,0.72808837890625,-0.001220703125,0.7461578249931335,-0.2735694944858551,0.0587599873542785,34.24220275878906,98.20248413085938,-11.21986389160156
302142,-0.2144317626953125,0.72808837890625,-0.001220703125,0.7461578249931335,-0.2735694944858551,0.0587599873542785,34.24220275878906,98.20248413085938,-11.21986389160156
302143,-0.0875091552734375,0.6148223876953125,0.150054931640625,0.309587150812149,0.0575439855456352,0.1945087611675262,34.23699951171875,98.17816162109376,-11.83914184570312
302144,-0.046966552734375,0.5507049560546875,0.1827392578125,0.0280683860182762,0.232031375169754,0.2537142932415009,34.41471862792969,98.16062927246094,-12.02864074707031
302145,-0.01580810546875,0.505035400390625,0.1924285888671875,-0.2357323616743088,0.3340839743614197,0.3050171732902527,34.50228881835938,98.23739624023438,-12.16654968261719
302146,-0.01580810546875,0.505035400390625,0.1924285888671875,-0.2357323616743088,0.3340839743614197,0.3050171732902527,34.50228881835938,98.23739624023438,-12.16654968261719
302147,0.0328216552734375,0.48065185546875,0.2305450439453125,-0.6416811943054199,0.3326418697834015,0.3373559415340424,34.84230041503906,98.25714111328124,-11.87008666992188
302148,0.0279083251953125,0.5399322509765625,0.259063720703125,-0.7866826057434082,0.2926656901836395,0.3162192106246948,34.92855834960938,98.33209228515624,-11.66932678222656
302149,-0.01751708984375,0.728424072265625,0.3112030029296875,-0.9081448316574096,0.2828122675418854,0.2821749746799469,35.0977783203125,98.35134887695312,-11.32093811035156
302150,-0.01751708984375,0.728424072265625,0.3112030029296875,-0.9081448316574096,0.2828122675418854,0.2821749746799469,35.0977783203125,98.35134887695312,-11.32093811035156
302151,-0.049407958984375,0.9507293701171876,0.3451995849609375,-1.021578788757324,0.2954502999782562,0.2751697897911072,35.19613647460938,98.38810729980467,-10.99095153808594
302152,-0.0731201171875,1.186981201171875,0.3717498779296875,-1.217521071434021,0.2829281091690063,0.146385446190834,35.3902587890625,98.41848754882812,-10.07183837890625
302153,-0.0778045654296875,1.2451171875,0.372406005859375,-1.251814007759094,0.2838394343852997,0.0585597157478332,35.42301940917969,98.4188995361328,-9.75927734375
302154,-0.0778045654296875,1.2451171875,0.372406005859375,-1.251814007759094,0.2838394343852997,0.0585597157478332,35.42301940917969,98.4188995361328,-9.75927734375
302155,-0.08734130859375,1.298934936523438,0.35418701171875,-1.223983287811279,0.226396918296814,-0.0644306540489196,35.39106750488281,98.43983459472656,-9.400527954101562
302156,-0.1259307861328125,1.330368041992188,0.397186279296875,-1.139422297477722,0.2141402512788773,-0.3228355646133423,35.11265563964844,98.47653198242188,-8.418182373046875
302157,-0.1444244384765625,1.30316162109375,0.344573974609375,-1.11279034614563,0.2201094627380371,-0.429926872253418,34.99459838867188,98.24382019042967,-7.782806396484375
302158,-0.1444244384765625,1.30316162109375,0.344573974609375,-1.11279034614563,0.2201094627380371,-0.429926872253418,34.99459838867188,98.24382019042967,-7.782806396484375
302159,-0.162017822265625,1.243988037109375,0.2614288330078125,-1.072961449623108,0.0966996476054191,-0.5204578638076782,34.74836730957031,98.19784545898438,-7.311492919921875
302160,-0.176300048828125,1.087600708007812,0.0968017578125,-0.945329248905182,-0.109355516731739,-0.5300731658935547,34.26493835449219,97.93215942382812,-6.298828125
302161,-0.134002685546875,1.057174682617188,-0.0241851806640625,-0.8821718096733093,0.008741027675569,-0.4491021633148193,33.88214111328125,97.770263671875,-5.73779296875
302162,-0.134002685546875,1.057174682617188,-0.0241851806640625,-0.8821718096733093,0.008741027675569,-0.4491021633148193,33.88214111328125,97.770263671875,-5.73779296875
302163,-0.0566253662109375,1.040740966796875,-0.1356048583984375,-0.6141356229782104,0.3625518381595612,-0.3415442705154419,33.29713439941406,97.5386199951172,-5.005416870117188
302164,-0.057098388671875,1.029617309570312,-0.1520233154296875,-0.4990819692611694,0.4888796806335449,-0.3302341103553772,32.98454284667969,97.451904296875,-4.709136962890625
302165,-0.0803070068359375,1.031356811523438,-0.18316650390625,-0.4415867328643799,0.5110193490982056,-0.3248566389083862,32.7193603515625,97.30479431152344,-4.356185913085938
302166,-0.0803070068359375,1.031356811523438,-0.18316650390625,-0.4415867328643799,0.5110193490982056,-0.3248566389083862,32.7193603515625,97.30479431152344,-4.356185913085938
302167,-0.1085052490234375,1.026626586914062,-0.28826904296875,-0.3691743016242981,0.3342613279819489,-0.3008770048618317,32.27159118652344,97.2541961669922,-3.921829223632812
302168,-0.080596923828125,1.011871337890625,-0.37249755859375,-0.2657121121883392,0.2130073457956314,-0.259871780872345,31.9886474609375,97.27890014648438,-3.79400634765625
302169,-0.0093841552734375,0.97918701171875,-0.46685791015625,-0.1134599819779396,0.1770363003015518,-0.1679088473320007,31.87171936035156,97.05062866210938,-3.430862426757812
302170,-0.0093841552734375,0.97918701171875,-0.46685791015625,-0.1134599819779396,0.1770363003015518,-0.1679088473320007,31.87171936035156,97.05062866210938,-3.430862426757812
302171,0.068389892578125,0.9762725830078124,-0.5680084228515625,0.0786415487527847,0.2463296204805374,-0.0592726431787014,31.67657470703125,96.9210968017578,-3.270416259765625
302172,0.1596527099609375,1.055130004882812,-0.68365478515625,0.3970679938793182,0.5102507472038269,0.1314650774002075,31.522216796875,96.84176635742188,-3.395355224609375
302173,0.153228759765625,1.121871948242188,-0.680450439453125,0.4975719749927521,0.6047143936157227,0.1551280617713928,31.57389831542969,96.698974609375,-3.351669311523438
302174,0.1199951171875,1.173690795898438,-0.6486358642578125,0.5900981426239014,0.6347822546958923,0.1211831495165825,31.56768798828125,96.899169921875,-3.657516479492188
302175,0.08148193359375,1.204193115234375,-0.6170196533203125,0.8339723348617554,0.6176565885543823,0.0805275961756706,31.47830200195312,97.06184387207033,-4.221237182617188
302176,0.0214385986328125,1.2232666015625,-0.6087799072265625,0.8339723348617554,0.6176565885543823,0.0805275961756706,31.57060241699219,97.2340850830078,-4.779052734375
302177,-0.0219268798828125,1.20166015625,-0.58819580078125,0.9357077479362488,0.6380734443664551,0.0792599320411682,31.56629943847656,97.40316772460938,-5.15289306640625
302178,-0.049560546875,1.181655883789062,-0.54571533203125,0.9631785154342652,0.6798413991928101,0.0838911682367324,31.53874206542969,97.579833984375,-5.674758911132812
302179,-0.049560546875,1.181655883789062,-0.54571533203125,0.9631785154342652,0.6798413991928101,0.0838911682367324,31.53874206542969,97.579833984375,-5.674758911132812
302180,-0.0770111083984375,1.158248901367188,-0.4168701171875,0.7974359393119812,0.7013195157051086,0.0865338295698165,31.59782409667969,97.58268737792967,-6.7691650390625
302181,-0.094940185546875,1.087081909179688,-0.2995452880859375,0.618963897228241,0.6834534406661987,0.0813324078917503,31.66319274902344,97.76683044433594,-7.405410766601562
302182,-0.094940185546875,1.087081909179688,-0.2995452880859375,0.618963897228241,0.6834534406661987,0.0813324078917503,31.66319274902344,97.76683044433594,-7.405410766601562
302183,-0.128662109375,0.9293975830078124,-0.2076873779296875,0.3395703434944153,0.4506779611110687,0.1392921060323715,31.69486999511719,97.81149291992188,-8.289443969726562
302184,-0.1119232177734375,0.912567138671875,-0.0691070556640625,0.4558668732643127,0.4350920617580414,0.2441745847463608,31.82354736328125,97.81045532226562,-8.641357421875
302185,-0.10595703125,0.9254150390625,0.0073089599609375,0.5896427631378174,0.4227323532104492,0.3702837824821472,31.86532592773438,97.99032592773438,-8.940322875976562
302186,-0.10595703125,0.9254150390625,0.0073089599609375,0.5896427631378174,0.4227323532104492,0.3702837824821472,31.86532592773438,97.99032592773438,-8.940322875976562
302187,-0.1235504150390625,0.9556884765625,0.0670013427734375,0.6294493079185486,0.3597970604896545,0.4532527029514313,32.0677490234375,98.0765380859375,-9.411102294921877
302188,-0.13983154296875,0.980712890625,0.1198577880859375,0.5397114157676697,0.2941762208938599,0.4690218269824982,32.20692443847656,98.1811065673828,-9.868240356445312
302189,-0.1488800048828125,0.9571990966796876,0.226287841796875,0.2753247916698456,0.2463961988687515,0.4066289961338043,32.72285461425781,98.24794006347656,-10.53654479980469
302190,-0.1488800048828125,0.9571990966796876,0.226287841796875,0.2753247916698456,0.2463961988687515,0.4066289961338043,32.72285461425781,98.24794006347656,-10.53654479980469
302191,-0.11248779296875,0.9020233154296876,0.2281341552734375,0.203586146235466,0.1625239253044128,0.3011800944805145,33.0987548828125,98.29631042480467,-11.11605834960938
302192,-0.06353759765625,0.885223388671875,0.1937255859375,0.203586146235466,0.1625239253044128,0.3011800944805145,33.24041748046875,98.27871704101562,-11.26220703125
302193,-0.0100555419921875,0.8524169921875,0.135406494140625,0.1954605728387833,0.0675465539097785,0.2845252156257629,33.42167663574219,98.33224487304688,-11.3995361328125
302194,-0.0100555419921875,0.8524169921875,0.135406494140625,0.1954605728387833,0.0675465539097785,0.2845252156257629,33.42167663574219,98.33224487304688,-11.3995361328125
302195,0.0484771728515625,0.7966156005859375,0.0601959228515625,0.1826137602329254,-0.0911365672945976,0.2936931252479553,33.58634948730469,98.34414672851562,-11.4095458984375
302196,0.130828857421875,0.80023193359375,0.0303955078125,0.0520410984754562,-0.2113242298364639,0.1488994657993317,33.83148193359375,98.4914093017578,-11.66035461425781
302197,0.099395751953125,0.866546630859375,0.0343170166015625,0.0520410984754562,-0.2113242298364639,0.1488994657993317,33.91696166992188,98.52903747558594,-11.681884765625
302198,0.00994873046875,0.9284515380859376,0.0113067626953125,-0.0452705435454845,-0.0065460498444736,0.021999042481184,34.00772094726562,98.41932678222656,-11.57765197753906
302199,0.00994873046875,0.9284515380859376,0.0113067626953125,-0.0452705435454845,-0.0065460498444736,0.021999042481184,34.00772094726562,98.41932678222656,-11.57765197753906
302200,-0.0751800537109375,0.9532623291015624,0.01348876953125,-0.1077565550804138,0.0379114300012588,-0.0933744236826896,34.00930786132812,98.55598449707033,-11.61756896972656
302201,-0.1512298583984375,0.92095947265625,0.1305084228515625,-0.21434585750103,-0.0536664240062236,-0.3407298922538757,33.97544860839844,98.5293426513672,-11.66636657714844
302202,-0.1512298583984375,0.92095947265625,0.1305084228515625,-0.21434585750103,-0.0536664240062236,-0.3407298922538757,33.97544860839844,98.5293426513672,-11.66636657714844
302203,-0.2165985107421875,0.8490447998046875,0.1752777099609375,-0.4440930187702179,-0.1321625709533691,-0.5500136017799377,33.734619140625,98.48963928222656,-11.54948425292969
302204,-0.2567596435546875,0.836883544921875,0.18585205078125,-0.4440930187702179,-0.1321625709533691,-0.5500136017799377,33.59576416015625,98.49740600585938,-11.39910888671875
302205,-0.2960662841796875,0.8385009765625,0.1997528076171875,-0.5241415500640869,-0.0887200161814689,-0.5782899856567383,33.42579650878906,98.38658142089844,-11.1192626953125
302206,-0.2960662841796875,0.8385009765625,0.1997528076171875,-0.5241415500640869,-0.0887200161814689,-0.5782899856567383,33.42579650878906,98.38658142089844,-11.1192626953125
302207,-0.3401947021484375,0.850189208984375,0.2188873291015625,-0.6982989311218262,0.1690297722816467,-0.5949152708053589,33.18856811523438,98.37086486816406,-10.89788818359375
302208,-0.384796142578125,0.857879638671875,0.2229766845703125,-0.6982989311218262,0.1690297722816467,-0.5949152708053589,33.05894470214844,98.27197265625,-10.62297058105469
302209,-0.46075439453125,0.8530731201171875,0.1912384033203125,-0.8947305083274841,0.2004753053188324,-0.5212666392326355,32.56791687011719,98.09719848632812,-9.751998901367188
302210,-0.473480224609375,0.84442138671875,0.1760711669921875,-0.8947305083274841,0.2004753053188324,-0.5212666392326355,32.23658752441406,98.01995849609376,-9.574722290039062
302211,-0.473480224609375,0.84442138671875,0.1760711669921875,-0.8947305083274841,0.2004753053188324,-0.5212666392326355,32.23658752441406,98.01995849609376,-9.574722290039062
302212,-0.429473876953125,0.8593597412109375,0.13421630859375,-1.058558344841003,0.0151523211970925,-0.4194593131542206,31.82717895507812,97.79931640625,-8.567825317382812
302213,-0.384613037109375,0.8746337890625,0.07513427734375,-1.155128836631775,-0.0699977278709411,-0.345338761806488,31.58964538574219,97.64535522460938,-8.032272338867188
302214,-0.32232666015625,0.8942718505859375,0.0324554443359375,-1.229130864143372,-0.1351511627435684,-0.2632087171077728,31.3372802734375,97.59158325195312,-7.374267578125
302215,-0.32232666015625,0.8942718505859375,0.0324554443359375,-1.229130864143372,-0.1351511627435684,-0.2632087171077728,31.3372802734375,97.59158325195312,-7.374267578125
302216,-0.1769866943359375,0.991241455078125,-0.0284576416015625,-1.22112250328064,-0.0498391948640346,-0.0901653096079826,30.91841125488281,97.40414428710938,-6.099380493164062
302217,-0.1143035888671875,1.062240600585938,-0.0839080810546875,-1.091730117797852,0.0507465340197086,-0.0453618876636028,30.72210693359375,97.24900817871094,-5.256256103515625
302218,-0.011688232421875,1.220245361328125,-0.1091156005859375,-0.8247668743133545,0.0524110086262226,-0.047163251787424,30.34573364257812,96.95458984375,-4.265884399414062
302219,-0.011688232421875,1.220245361328125,-0.1091156005859375,-0.8247668743133545,0.0524110086262226,-0.047163251787424,30.34573364257812,96.95458984375,-4.265884399414062
302220,0.0327911376953125,1.2977294921875,-0.149169921875,-0.8247668743133545,0.0524110086262226,-0.047163251787424,30.15217590332031,96.9481964111328,-3.854034423828125
302221,0.046295166015625,1.350936889648438,-0.1832122802734375,-0.7240642309188843,-0.0610005035996437,-0.0446955673396587,30.01536560058594,96.94537353515624,-3.4052734375
302222,0.076995849609375,1.341262817382812,-0.21954345703125,-0.5702983736991882,-0.1589957773685455,-0.0425053834915161,29.90409851074219,96.83026123046876,-2.976364135742188
302223,0.076995849609375,1.341262817382812,-0.21954345703125,-0.5702983736991882,-0.1589957773685455,-0.0425053834915161,29.90409851074219,96.83026123046876,-2.976364135742188
302224,0.1447296142578125,1.169998168945312,-0.3763885498046875,-0.0706272944808006,-0.3200653493404388,0.0858973339200019,29.73748779296875,96.36021423339844,-2.38165283203125
302225,0.1822509765625,1.06024169921875,-0.4490203857421875,0.5512927174568176,-0.3168834149837494,0.30092653632164,29.77149963378906,96.31805419921876,-2.07501220703125
302226,0.2143402099609375,0.962158203125,-0.5074005126953125,0.5512927174568176,-0.3168834149837494,0.30092653632164,29.88041687011719,96.23445129394533,-1.9974365234375
302227,0.2143402099609375,0.962158203125,-0.5074005126953125,0.5512927174568176,-0.3168834149837494,0.30092653632164,29.88041687011719,96.23445129394533,-1.9974365234375
302228,0.2387237548828125,0.838470458984375,-0.5299835205078125,0.8660836815834045,-0.2077276259660721,0.4726274609565735,30.18916320800781,96.22705078125,-2.043563842773438
302229,0.258148193359375,0.8448333740234375,-0.5060882568359375,0.7246658205986023,-0.2397012710571289,0.4690782725811005,30.43513488769531,96.21365356445312,-2.185714721679688
302230,0.2879180908203125,0.894561767578125,-0.4851837158203125,0.7246658205986023,-0.2397012710571289,0.4690782725811005,30.83686828613281,96.17626953125,-2.361968994140625
302231,0.2879180908203125,0.894561767578125,-0.4851837158203125,0.7246658205986023,-0.2397012710571289,0.4690782725811005,30.83686828613281,96.17626953125,-2.361968994140625
302232,0.2758941650390625,1.080841064453125,-0.444732666015625,0.5949919819831848,-0.3114159405231476,0.422941654920578,31.33148193359375,96.43577575683594,-3.156906127929688
302233,0.2728118896484375,1.219009399414062,-0.43603515625,0.6056073307991028,-0.330443948507309,0.3869309425354004,31.56266784667969,96.62570190429688,-3.546829223632812
302234,0.2747344970703125,1.367889404296875,-0.416259765625,0.6251909136772156,-0.3462769985198975,0.3398856520652771,31.77548217773438,96.77906799316406,-4.080001831054688
302235,0.2660369873046875,1.500808715820312,-0.3576507568359375,0.6324788928031921,-0.3588492274284363,0.28022101521492,31.99542236328125,96.9118194580078,-4.401657104492188
302236,0.225799560546875,1.615829467773438,-0.2616119384765625,0.6054174900054932,-0.4268032610416412,0.195478692650795,32.23748779296875,97.03250122070312,-4.542770385742188
302237,0.1739044189453125,1.68280029296875,-0.1175537109375,0.5782614946365356,-0.5338375568389893,0.112088717520237,32.41130065917969,97.09986877441406,-4.723297119140625
302238,0.12200927734375,1.675933837890625,0.0149993896484375,0.601773202419281,-0.5735825896263123,0.0262971185147762,32.59440612792969,97.2204132080078,-5.041778564453125
302239,0.12200927734375,1.675933837890625,0.0149993896484375,0.601773202419281,-0.5735825896263123,0.0262971185147762,32.59440612792969,97.2204132080078,-5.041778564453125
302240,-0.05340576171875,1.41656494140625,0.0450439453125,1.023014426231384,-0.6861298680305481,-0.1092897355556488,32.93708801269531,97.3983917236328,-5.520492553710938
302241,-0.1579437255859375,1.247894287109375,0.0509033203125,1.254145383834839,-0.7640364170074463,-0.1028560772538185,33.03398132324219,97.51033020019533,-5.615875244140625
302242,-0.2203369140625,1.118743896484375,0.0772857666015625,1.347020983695984,-0.8454542756080627,-0.0804085582494735,33.21548461914062,97.52116394042967,-6.039505004882812
302243,-0.2203369140625,1.118743896484375,0.0772857666015625,1.347020983695984,-0.8454542756080627,-0.0804085582494735,33.21548461914062,97.52116394042967,-6.039505004882812
302244,-0.2556610107421875,0.8903656005859375,0.1565093994140625,1.119231820106506,-0.9990036487579346,-0.0630948096513748,33.48829650878906,97.7371826171875,-7.183670043945312
302245,-0.2461700439453125,0.83123779296875,0.1809539794921875,0.9086614847183228,-1.051962971687317,-0.0318423509597778,33.63119506835938,97.81460571289062,-7.540618896484375
302246,-0.2061004638671875,0.8154449462890625,0.1444854736328125,0.6426317095756531,-1.259497046470642,-0.0013036173768341,33.82063293457031,97.80465698242188,-7.910186767578125
302247,-0.2061004638671875,0.8154449462890625,0.1444854736328125,0.6426317095756531,-1.259497046470642,-0.0013036173768341,33.82063293457031,97.80465698242188,-7.910186767578125
302248,-0.1593475341796875,0.856414794921875,0.0777587890625,0.6834683418273926,-1.349126219749451,-0.023559920489788,34.06448364257812,97.853759765625,-8.29754638671875
302249,-0.1829681396484375,0.8507232666015625,0.0582427978515625,0.7955732941627502,-1.334333181381226,-0.0320173203945159,34.22853088378906,97.73626708984376,-8.274124145507812
302250,-0.20989990234375,0.809295654296875,0.047760009765625,0.9030342698097228,-1.180519938468933,-0.0328120067715644,34.34745788574219,97.82540893554688,-8.295059204101562
302251,-0.20989990234375,0.809295654296875,0.047760009765625,0.9030342698097228,-1.180519938468933,-0.0328120067715644,34.34745788574219,97.82540893554688,-8.295059204101562
302252,-0.1968536376953125,0.6670074462890625,0.0476226806640625,0.7800396084785461,-0.6263637542724609,-0.0026154904626309,34.51402282714844,97.99240112304688,-8.876632690429688
302253,-0.139129638671875,0.6201019287109375,0.0753631591796875,0.5867494940757751,-0.3991215527057648,0.0410153418779373,34.61317443847656,98.06707763671876,-9.0657958984375
302254,-0.0807342529296875,0.582183837890625,0.14007568359375,0.3319302797317505,-0.2542485296726227,0.1043077632784843,34.60995483398438,98.13412475585938,-9.357101440429688
302255,-0.0807342529296875,0.582183837890625,0.14007568359375,0.3319302797317505,-0.2542485296726227,0.1043077632784843,34.60995483398438,98.13412475585938,-9.357101440429688
302256,-0.019683837890625,0.5121307373046875,0.2559051513671875,-0.2581743001937866,0.0320591330528259,0.1941976994276047,34.76397705078125,98.16561889648438,-9.752426147460938
302257,-0.0062255859375,0.4942169189453125,0.2959442138671875,-0.5194743275642395,0.175269290804863,0.2224069684743881,34.84687805175781,98.20135498046876,-9.6259765625
302258,0.0025787353515625,0.4920654296875,0.3166351318359375,-0.9389200806617736,0.3659670650959015,0.2286659330129623,34.97802734375,98.19033813476562,-9.543777465820312
302259,0.0025787353515625,0.4920654296875,0.3166351318359375,-0.9389200806617736,0.3659670650959015,0.2286659330129623,34.97802734375,98.19033813476562,-9.543777465820312
302260,-0.018310546875,0.584808349609375,0.377960205078125,-1.098496913909912,0.4221760034561157,0.283184289932251,35.21580505371094,98.15292358398438,-9.179122924804688
302261,-0.0668487548828125,0.818634033203125,0.4322967529296875,-1.213881015777588,0.5238307118415833,0.3073034882545471,35.33607482910156,98.18429565429688,-8.675765991210938
302262,-0.0948486328125,0.99774169921875,0.4376983642578125,-1.315762996673584,0.5303815603256226,0.2608110904693604,35.45176696777344,98.32682800292967,-8.469100952148438
302263,-0.11407470703125,1.102767944335938,0.4378814697265625,-1.375433444976807,0.2385819405317307,0.1030313074588776,35.4033203125,98.254638671875,-8.059768676757812
302264,-0.1233978271484375,1.184860229492188,0.44854736328125,-1.375433444976807,0.2385819405317307,0.1030313074588776,35.53834533691406,98.10675048828124,-7.494842529296875
302265,-0.1338348388671875,1.27545166015625,0.46929931640625,-1.303600311279297,0.0288588125258684,-0.008894957602024,35.53944396972656,98.05128479003906,-6.987396240234375
302266,-0.130035400390625,1.33038330078125,0.532623291015625,-1.268619179725647,0.0127916950732469,-0.2482252568006516,35.53459167480469,97.9188232421875,-6.384872436523438
302267,-0.130035400390625,1.33038330078125,0.532623291015625,-1.268619179725647,0.0127916950732469,-0.2482252568006516,35.53459167480469,97.9188232421875,-6.384872436523438
302268,-0.1060028076171875,1.32684326171875,0.480865478515625,-1.326891183853149,0.0855860039591789,-0.373773604631424,35.43486022949219,97.77249145507812,-5.206649780273438
302269,-0.096588134765625,1.285751342773438,0.3636016845703125,-1.217311978340149,-0.1505780518054962,-0.5214653015136719,35.26263427734375,97.73011779785156,-4.5660400390625
302270,-0.088165283203125,1.226226806640625,0.2422637939453125,-0.9993754029273988,-0.2582161128520966,-0.5118401050567627,35.02191162109375,97.58116149902344,-3.912734985351562
302271,-0.088165283203125,1.226226806640625,0.2422637939453125,-0.9993754029273988,-0.2582161128520966,-0.5118401050567627,35.02191162109375,97.58116149902344,-3.912734985351562
302272,-0.0351715087890625,1.192962646484375,0.0469818115234375,-0.7730373740196228,-0.0686736032366752,-0.4415057599544525,34.45359802246094,96.99147033691406,-2.675643920898438
302273,-0.0113525390625,1.207107543945312,-0.0799713134765625,-0.6211495399475098,0.2469328194856644,-0.3721051216125488,34.20611572265625,97.00846862792967,-2.282791137695312
302274,-0.0113677978515625,1.189361572265625,-0.1508026123046875,-0.4104288220405579,0.5215452313423157,-0.245428666472435,33.8443603515625,96.88850402832033,-1.8087158203125
302275,-0.0113677978515625,1.189361572265625,-0.1508026123046875,-0.4104288220405579,0.5215452313423157,-0.245428666472435,33.8443603515625,96.88850402832033,-1.8087158203125
302276,-0.0656280517578125,1.153152465820312,-0.1409759521484375,-0.3473499715328217,0.4790856242179871,-0.1933628022670746,33.24859619140625,96.696044921875,-1.324417114257812
302277,-0.1088714599609375,1.130874633789062,-0.1700439453125,-0.3034437596797943,0.3973731994628906,-0.1735555380582809,32.97708129882812,96.5294952392578,-1.150833129882812
302278,-0.123809814453125,1.087234497070312,-0.22003173828125,-0.2300563752651215,0.3206427395343781,-0.1432293355464935,32.72795104980469,96.48455810546876,-0.88006591796875
302279,-0.123809814453125,1.087234497070312,-0.22003173828125,-0.2300563752651215,0.3206427395343781,-0.1432293355464935,32.72795104980469,96.48455810546876,-0.88006591796875
302280,0.0028839111328125,0.948699951171875,-0.3752899169921875,0.0803872495889663,0.3313140273094177,-0.0352488011121749,32.4334716796875,96.37200927734376,-0.6519317626953125
302281,0.070587158203125,0.90875244140625,-0.4593353271484375,0.2679808437824249,0.4031301438808441,0.0349491946399211,32.31443786621094,96.33871459960938,-0.6055145263671875
302282,0.129364013671875,0.9092254638671876,-0.5319061279296875,0.4336529076099396,0.4623620510101318,0.0936958640813827,32.26876831054688,96.190673828125,-0.505096435546875
302283,0.129364013671875,0.9092254638671876,-0.5319061279296875,0.4336529076099396,0.4623620510101318,0.0936958640813827,32.26876831054688,96.190673828125,-0.505096435546875
302284,0.2028045654296875,0.9549713134765624,-0.5897979736328125,0.6409435272216797,0.5684964656829834,0.1149353757500648,32.14706420898438,96.23054504394533,-0.86883544921875
302285,0.1886749267578125,1.014678955078125,-0.579498291015625,0.6709437370300293,0.6062433123588562,0.0600777193903923,32.15350341796875,96.25341796875,-1.085540771484375
302286,0.13818359375,1.069290161132812,-0.5704803466796875,0.7740679979324341,0.5536259412765503,-0.0052983588539063,32.20001220703125,96.3194580078125,-1.420639038085938
302287,0.13818359375,1.069290161132812,-0.5704803466796875,0.7740679979324341,0.5536259412765503,-0.0052983588539063,32.20001220703125,96.3194580078125,-1.420639038085938
302288,0.032745361328125,1.151885986328125,-0.5258941650390625,0.8635321259498596,0.5500021576881409,0.0010764497565105,32.25192260742188,96.59358215332033,-2.269500732421875
302289,-0.0166473388671875,1.187255859375,-0.4984893798828125,0.9274229407310486,0.5524434447288513,0.0151712298393249,32.1190185546875,96.68096923828124,-2.696792602539062
302290,-0.073577880859375,1.206924438476562,-0.435089111328125,0.8300638794898987,0.5494367480278015,0.0533891879022121,32.04631042480469,96.89242553710938,-3.229598999023438
302291,-0.073577880859375,1.206924438476562,-0.435089111328125,0.8300638794898987,0.5494367480278015,0.0533891879022121,32.04631042480469,96.89242553710938,-3.229598999023438
302292,-0.157257080078125,1.211883544921875,-0.268157958984375,0.7141628861427307,0.4969213604927063,0.0733695551753044,32.00634765625,97.32460021972656,-4.309829711914062
302293,-0.164642333984375,1.181777954101562,-0.1743927001953125,0.5965555310249329,0.417226254940033,0.1028211861848831,32.03265380859375,97.43055725097656,-4.86517333984375
302294,-0.1607208251953125,1.153839111328125,-0.063140869140625,0.505609393119812,0.3797939419746399,0.1522015184164047,32.01382446289062,97.53288269042967,-5.262847900390625
302295,-0.1607208251953125,1.153839111328125,-0.063140869140625,0.505609393119812,0.3797939419746399,0.1522015184164047,32.01382446289062,97.53288269042967,-5.262847900390625
302296,-0.15167236328125,1.031402587890625,0.1179962158203125,0.3307920396327972,0.5524290800094604,0.2523451745510101,32.0225830078125,97.70277404785156,-6.287826538085938
302297,-0.1308135986328125,0.9996185302734376,0.1241912841796875,0.3540073335170746,0.4544029235839844,0.2996048331260681,32.05271911621094,97.72544860839844,-6.618255615234375
302298,-0.09539794921875,0.9834442138671876,0.2031097412109375,0.4136674702167511,0.4211517572402954,0.3398047089576721,32.23442077636719,97.80841064453124,-6.9161376953125
302299,-0.0624237060546875,0.9808502197265624,0.2381591796875,0.4232607185840607,0.4617234170436859,0.3421597480773926,32.42727661132812,97.88450622558594,-7.24114990234375
302300,-0.0474853515625,0.964874267578125,0.230133056640625,0.3783781826496124,0.4402229189872742,0.3178072571754456,32.53694152832031,97.83445739746094,-7.4979248046875
302301,-0.0382080078125,0.9435272216796876,0.2268218994140625,0.2434848248958588,0.2037494033575058,0.2544200420379639,32.73582458496094,97.9002685546875,-7.701690673828125
302302,-0.0043487548828125,0.90948486328125,0.21856689453125,0.2240307033061981,0.0357942171394825,0.2502319514751434,33.05006408691406,97.92326354980467,-8.21697998046875
302303,-0.0043487548828125,0.90948486328125,0.21856689453125,0.2240307033061981,0.0357942171394825,0.2502319514751434,33.05006408691406,97.92326354980467,-8.21697998046875
302304,0.026885986328125,0.886383056640625,0.184234619140625,0.2514865696430206,-0.1516736745834351,0.2621152400970459,33.1640625,97.87669372558594,-8.458602905273438
302305,0.0655670166015625,0.857574462890625,0.12457275390625,0.2913391590118408,-0.3663702607154846,0.2703007161617279,33.34379577636719,97.83041381835938,-8.479995727539062
302306,0.122344970703125,0.80633544921875,0.0080718994140625,0.4085677862167358,-0.8392504453659058,0.1983623504638672,33.88514709472656,97.86317443847656,-8.559707641601562
302307,0.122344970703125,0.80633544921875,0.0080718994140625,0.4085677862167358,-0.8392504453659058,0.1983623504638672,33.88514709472656,97.86317443847656,-8.559707641601562
302308,0.114013671875,0.7942962646484375,-0.008392333984375,0.4599175155162811,-0.959147572517395,0.0888973847031593,33.94125366210938,97.9581298828125,-8.514236450195312
302309,0.056304931640625,0.811309814453125,-0.006683349609375,0.4647671580314636,-0.8746036887168884,-0.0520240515470504,33.95809936523438,98.06741333007812,-8.573928833007812
302310,-0.0217437744140625,0.83746337890625,-0.01763916015625,0.4132525622844696,-0.6129339933395386,-0.2022819966077805,33.95103454589844,98.16984558105467,-8.899002075195312
302311,-0.0217437744140625,0.83746337890625,-0.01763916015625,0.4132525622844696,-0.6129339933395386,-0.2022819966077805,33.95103454589844,98.16984558105467,-8.899002075195312
302312,-0.197113037109375,0.85009765625,-0.0059967041015625,0.1948885321617126,-0.2491674870252609,-0.3924580514431,33.87635803222656,98.1302490234375,-8.92108154296875
302313,-0.2289581298828125,0.8387908935546875,0.07330322265625,0.08966064453125,-0.2480396330356598,-0.4446744024753571,33.70547485351562,98.17025756835938,-9.105758666992188
302314,-0.2664794921875,0.808929443359375,0.103424072265625,-0.0248297154903411,-0.2315677106380463,-0.4750528037548065,33.5714111328125,98.11708068847656,-9.159423828125
302315,-0.3023529052734375,0.78240966796875,0.09930419921875,-0.1312224715948105,-0.2110613733530045,-0.4840534925460815,33.34858703613281,98.11930847167967,-9.117660522460938
302316,-0.3363189697265625,0.774566650390625,0.0990753173828125,-0.3483465313911438,-0.0727064311504364,-0.4557472765445709,33.2130126953125,98.08395385742188,-9.044387817382812
302317,-0.371246337890625,0.796600341796875,0.1068115234375,-0.3483465313911438,-0.0727064311504364,-0.4557472765445709,33.12153625488281,97.93122863769533,-8.86419677734375
302318,-0.40576171875,0.828826904296875,0.11761474609375,-0.4532252848148346,0.0691119581460952,-0.432799905538559,32.88299560546875,97.8606414794922,-8.680862426757812
302319,-0.40576171875,0.828826904296875,0.11761474609375,-0.4532252848148346,0.0691119581460952,-0.432799905538559,32.88299560546875,97.8606414794922,-8.680862426757812
302320,-0.4387359619140625,0.894317626953125,0.1515655517578125,-0.6490855813026428,0.3513809442520142,-0.3923768401145935,32.53974914550781,97.89120483398438,-8.334197998046875
302321,-0.443572998046875,0.915313720703125,0.1793060302734375,-0.7220253348350525,0.4391270279884338,-0.3561154901981354,32.29415893554688,97.7639617919922,-8.029632568359375
302322,-0.44732666015625,0.93939208984375,0.2088623046875,-0.7959232330322266,0.4690298140048981,-0.3049053251743317,32.12382507324219,97.77970886230467,-7.902603149414062
302323,-0.43878173828125,0.9646453857421876,0.21820068359375,-0.8836975693702698,0.42645063996315,-0.2509666979312897,31.96553039550781,97.763671875,-7.709396362304688
302324,-0.420166015625,0.9906005859375,0.2146453857421875,-0.9809921383857728,0.3080073595046997,-0.2048346400260925,31.73617553710938,97.72048950195312,-7.365036010742188
302325,-0.3742523193359375,1.00506591796875,0.19818115234375,-1.078086256980896,0.1798003911972046,-0.1771771758794785,31.56217956542969,97.65029907226562,-7.04547119140625
302326,-0.3010711669921875,1.0108642578125,0.1669769287109375,-1.176173090934753,0.0290079489350318,-0.1281848698854446,31.4052734375,97.59658813476562,-6.698974609375
302327,-0.3010711669921875,1.0108642578125,0.1669769287109375,-1.176173090934753,0.0290079489350318,-0.1281848698854446,31.4052734375,97.59658813476562,-6.698974609375
302328,-0.1531219482421875,1.071502685546875,0.0422515869140625,-1.096898198127747,-0.0062174159102141,-0.0921935737133026,31.09429931640625,97.4329071044922,-5.55224609375
302329,-0.0796356201171875,1.134063720703125,-0.0172882080078125,-0.7190068960189819,0.0011797803454101,-0.0230645723640918,31.00444030761719,97.33750915527344,-4.884475708007812
302330,-0.0125579833984375,1.170303344726562,-0.0703277587890625,-0.7190068960189819,0.0011797803454101,-0.0230645723640918,30.85043334960938,97.21212768554688,-4.286407470703125
302331,-0.0125579833984375,1.170303344726562,-0.0703277587890625,-0.7190068960189819,0.0011797803454101,-0.0230645723640918,30.85043334960938,97.21212768554688,-4.286407470703125
302332,0.0408782958984375,1.228973388671875,-0.1338043212890625,-0.4822902083396912,-0.1326922625303268,-0.0094315847381949,30.65272521972656,97.09230041503906,-3.20660400390625
302333,0.056732177734375,1.232009887695312,-0.1706390380859375,-0.3870779573917389,-0.2401734590530396,-0.0285714566707611,30.50697326660156,97.13346862792967,-2.918502807617188
302334,0.0803375244140625,1.09033203125,-0.300811767578125,-0.1321899890899658,-0.5937538743019104,-0.0432097874581813,30.38491821289062,96.885498046875,-2.420516967773438
