time_idx,accelerometerAccelerationX(G),accelerometerAccelerationY(G),accelerometerAccelerationZ(G),gyroRotationX(rad/s),gyroRotationY(rad/s),gyroRotationZ(rad/s),magnetometerX(µT),magnetometerY(µT),magnetometerZ(µT)
268782,-0.4003753662109375,0.440093994140625,-0.1328887939453125,0.7518218159675598,0.1856875717639923,-0.4310491383075714,33.55264282226562,96.8226318359375,-33.2874755859375
268783,-0.230010986328125,0.237518310546875,-0.151214599609375,0.8224586844444275,-0.2162436246871948,-0.2343416661024094,33.54464721679688,96.30487060546876,-34.05966186523438
268784,-0.1725921630859375,0.1710662841796875,-0.1204833984375,0.8224586844444275,-0.2162436246871948,-0.2343416661024094,33.38975524902344,96.07798767089844,-34.31678771972656
268785,-0.1265869140625,0.12225341796875,-0.1044769287109375,0.8034876585006714,-0.3028038144111633,-0.1703317910432816,33.31695556640625,95.8891143798828,-34.66288757324219
268786,-0.08233642578125,0.0985260009765625,-0.0787811279296875,0.7511182427406311,-0.3948549032211304,-0.1322280764579773,33.17088317871094,95.69931030273438,-34.87773132324219
268787,-0.08233642578125,0.0985260009765625,-0.0787811279296875,0.7511182427406311,-0.3948549032211304,-0.1322280764579773,33.17088317871094,95.69931030273438,-34.87773132324219
268788,-0.072601318359375,0.12701416015625,-0.0250091552734375,0.6458700895309448,-0.4286485612392426,-0.1553997099399567,33.13066101074219,95.54559326171876,-35.13465881347656
268789,-0.060333251953125,0.2588958740234375,0.0398406982421875,0.4987959563732147,-0.6290264129638672,-0.3048706948757172,32.93589782714844,95.1907958984375,-35.40000915527344
268790,-0.1368255615234375,0.3681488037109375,0.136627197265625,0.503745436668396,-0.7241230607032776,-0.3695138692855835,32.80364990234375,95.08750915527344,-35.51521301269531
268791,-0.1368255615234375,0.3681488037109375,0.136627197265625,0.503745436668396,-0.7241230607032776,-0.3695138692855835,32.80364990234375,95.08750915527344,-35.51521301269531
268792,-0.3628082275390625,0.5638580322265625,0.407745361328125,0.5862389802932739,-0.6174277663230896,-0.1941550970077515,32.25674438476562,95.07591247558594,-35.88179016113281
268793,-0.5540924072265625,0.709228515625,0.476654052734375,0.5611363053321838,-0.4829541444778442,-0.2360450178384781,32.06156921386719,94.92575073242188,-36.04965209960938
268794,-0.5540924072265625,0.709228515625,0.476654052734375,0.5611363053321838,-0.4829541444778442,-0.2360450178384781,32.06156921386719,94.92575073242188,-36.04965209960938
268795,-0.7781524658203125,0.8255767822265625,0.4970245361328125,0.2550064623355865,-0.6264005303382874,-0.7184327244758606,31.69902038574219,94.93109130859376,-36.22607421875
268796,-0.9898529052734376,0.8084869384765625,0.4752197265625,0.0009856359101831,-0.8998714685440063,-0.8971808552742004,31.57252502441406,94.8602294921875,-36.41377258300781
268797,-1.246536254882812,0.4019622802734375,0.3549041748046875,-0.2971741557121277,-1.266121625900269,-0.8635017275810242,31.09292602539062,94.7065887451172,-36.84870910644531
268798,-1.136871337890625,0.2592620849609375,0.2646484375,-0.6938365697860718,-1.501156210899353,-0.785884439945221,30.73020935058594,94.51190185546876,-36.88693237304688
268799,-1.136871337890625,0.2592620849609375,0.2646484375,-0.6938365697860718,-1.501156210899353,-0.785884439945221,30.73020935058594,94.51190185546876,-36.88693237304688
268800,-0.845794677734375,0.229766845703125,-0.400115966796875,-1.157029271125793,-2.243157148361206,-0.6020512580871582,29.45610046386719,94.34414672851562,-36.10067749023438
268801,-0.6028900146484375,0.2422027587890625,-0.3183135986328125,-0.9980425238609314,-2.135449886322021,-0.4980228245258331,28.79153442382812,94.46334838867188,-35.32685852050781
268802,-0.6028900146484375,0.2422027587890625,-0.3183135986328125,-0.9980425238609314,-2.135449886322021,-0.4980228245258331,28.79153442382812,94.46334838867188,-35.32685852050781
268803,-0.385498046875,0.264617919921875,-0.06146240234375,-0.4554077386856079,-1.708158731460571,-0.4511685073375702,28.06639099121094,94.63128662109376,-34.52442932128906
268804,-0.0951385498046875,0.224029541015625,0.25518798828125,0.2988151907920837,-0.6268183588981628,-0.302984893321991,26.93836975097656,94.76963806152344,-32.85682678222656
268805,0.0027923583984375,0.2051849365234375,0.166351318359375,0.1808632612228394,-0.5566241145133972,0.0758348405361175,26.50825500488281,94.70489501953124,-32.54840087890625
268806,0.0027923583984375,0.2051849365234375,0.166351318359375,0.1808632612228394,-0.5566241145133972,0.0758348405361175,26.50825500488281,94.70489501953124,-32.54840087890625
268807,0.0752410888671875,0.17529296875,0.087890625,0.1808632612228394,-0.5566241145133972,0.0758348405361175,26.41578674316406,94.40194702148438,-32.44166564941406
268808,0.2067718505859375,0.045654296875,-0.1927032470703125,-0.3108241856098175,-1.583826661109924,0.8288177847862244,26.60061645507812,94.09048461914062,-32.17373657226562
268809,0.2400054931640625,0.0209503173828125,-0.41546630859375,-0.2467333525419235,-2.468944549560547,1.238347291946411,26.73649597167969,94.02796936035156,-31.75503540039062
268810,0.2400054931640625,0.0209503173828125,-0.41546630859375,-0.2467333525419235,-2.468944549560547,1.238347291946411,26.73649597167969,94.02796936035156,-31.75503540039062
268811,0.2134552001953125,0.0814208984375,-0.379425048828125,0.0610287338495254,-3.143406867980957,1.448400139808655,26.89198303222656,94.06919860839844,-31.20716857910156
268812,0.1189117431640625,0.275390625,-0.1661224365234375,0.3890691995620728,-1.301635146141052,1.041133999824524,26.96502685546875,94.5382843017578,-29.61636352539062
268813,0.08807373046875,0.3488616943359375,-0.341461181640625,0.5835151076316833,-0.5616289973258972,0.7354468703269958,26.9923095703125,94.91433715820312,-28.916015625
268814,0.08807373046875,0.3488616943359375,-0.341461181640625,0.5835151076316833,-0.5616289973258972,0.7354468703269958,26.9923095703125,94.91433715820312,-28.916015625
268815,0.07061767578125,0.4098968505859375,-0.320526123046875,0.6557043194770813,-0.4202470779418945,0.5205745100975037,27.15545654296875,95.05459594726562,-28.33380126953125
268816,0.05426025390625,0.5641021728515625,-0.2307586669921875,0.1425662040710449,-0.6385011076927185,0.4616384506225586,27.763427734375,95.05897521972656,-28.34135437011719
268817,0.0053863525390625,0.6887664794921875,-0.2361297607421875,-0.2269327491521835,-0.7353845238685608,0.5204322934150696,27.89479064941406,95.10511779785156,-28.43772888183594
268818,0.0053863525390625,0.6887664794921875,-0.2361297607421875,-0.2269327491521835,-0.7353845238685608,0.5204322934150696,27.89479064941406,95.10511779785156,-28.43772888183594
268819,-0.1050567626953125,0.850494384765625,-0.240997314453125,-0.4540804028511047,-0.6956619024276733,0.5284159183502197,28.02084350585938,95.10855102539062,-28.39097595214844
268820,-0.4681396484375,1.413497924804688,-0.7031402587890625,0.2894246280193329,-0.459959864616394,0.2549249827861786,28.39338684082031,95.29896545410156,-27.18919372558594
268821,-0.7257843017578125,1.734649658203125,-0.7512054443359375,0.9741478562355042,0.0750587955117225,0.0120694460347294,28.39201354980469,95.30924987792967,-26.87258911132812
268822,-0.7257843017578125,1.734649658203125,-0.7512054443359375,0.9741478562355042,0.0750587955117225,0.0120694460347294,28.39201354980469,95.30924987792967,-26.87258911132812
268823,-1.046188354492188,1.95452880859375,-0.6660614013671875,1.215300321578979,0.8339241743087769,-0.384534627199173,28.41520690917969,95.18130493164062,-27.15838623046875
268824,-1.709365844726562,2.234344482421875,-0.834747314453125,0.7840465903282166,1.203688621520996,-2.083436250686646,28.20195007324219,94.4558563232422,-28.43595886230469
268825,-1.734512329101562,1.681411743164062,-0.79644775390625,0.506735622882843,1.794963955879211,-1.601528167724609,27.78431701660156,93.97032165527344,-29.20001220703125
268826,-1.191726684570312,1.092315673828125,-0.5149078369140625,0.5206844806671143,2.100595474243164,-0.1632411181926727,27.27436828613281,93.5543212890625,-30.25228881835938
268827,-1.191726684570312,1.092315673828125,-0.5149078369140625,0.5206844806671143,2.100595474243164,-0.1632411181926727,27.27436828613281,93.5543212890625,-30.25228881835938
268828,-0.1754150390625,1.194854736328125,-0.221405029296875,0.8546046614646912,0.9668795466423036,1.269605278968811,27.64192199707031,93.23388671875,-31.80699157714844
268829,-0.05755615234375,1.45343017578125,-0.452545166015625,0.7768584489822388,-0.0081857582554221,1.611406087875366,28.29167175292969,93.33212280273438,-32.40974426269531
268830,-0.05755615234375,1.45343017578125,-0.452545166015625,0.7768584489822388,-0.0081857582554221,1.611406087875366,28.29167175292969,93.33212280273438,-32.40974426269531
268831,-0.1251068115234375,1.96759033203125,-0.6036376953125,0.705040454864502,-0.7703803181648254,1.834904074668884,28.869384765625,93.47599792480467,-32.99371337890625
268832,-0.9324798583984376,3.04095458984375,-0.4574127197265625,0.9823905825614928,0.460257351398468,0.9511045813560486,29.64962768554688,93.9049072265625,-33.62370300292969
268833,-1.433547973632812,3.005020141601562,-0.1693115234375,1.143852949142456,0.8986331224441528,0.0494591630995273,29.92420959472656,94.12088012695312,-34.20367431640625
268834,-1.72711181640625,2.94464111328125,0.2325897216796875,1.005975484848022,1.305191040039062,-0.9669679403305054,30.07762145996094,94.22572326660156,-34.84172058105469
268835,-1.72711181640625,2.94464111328125,0.2325897216796875,1.005975484848022,1.305191040039062,-0.9669679403305054,30.07762145996094,94.22572326660156,-34.84172058105469
268836,-2.079910278320312,2.348739624023438,0.29595947265625,0.5741234421730042,1.806181192398071,-2.306562900543213,29.64300537109375,93.9998779296875,-36.46832275390625
268837,-2.260147094726562,1.418838500976562,0.3340606689453125,0.7958864569664001,1.595660328865051,-1.486980795860291,29.31585693359375,93.621337890625,-37.37666320800781
268838,-2.260147094726562,1.418838500976562,0.3340606689453125,0.7958864569664001,1.595660328865051,-1.486980795860291,29.31585693359375,93.621337890625,-37.37666320800781
268839,-2.221954345703125,0.80853271484375,0.3990936279296875,0.9962177276611328,1.359967947006226,-0.1036558225750923,29.14381408691406,93.32275390625,-38.42828369140625
268840,-1.333358764648438,0.6551666259765625,0.413818359375,0.8768668174743652,0.24739009141922,0.273167610168457,29.74394226074219,93.01373291015624,-39.93290710449219
268841,-1.128173828125,0.4247894287109375,0.4288330078125,0.4889664947986603,-0.0226813443005085,0.414567619562149,30.17929077148438,92.93533325195312,-40.57028198242188
268842,-1.128173828125,0.4247894287109375,0.4288330078125,0.4889664947986603,-0.0226813443005085,0.414567619562149,30.17929077148438,92.93533325195312,-40.57028198242188
268843,-1.012176513671875,0.2589111328125,0.1755218505859375,0.1879057139158249,-0.3183249831199646,0.585330069065094,30.30355834960938,92.84756469726562,-40.70130920410156
268844,-0.9143524169921876,0.1887359619140625,-0.0296783447265625,0.1215599849820137,-0.7907974720001221,0.4575667679309845,30.52809143066406,92.86993408203124,-40.596923828125
268845,-0.7973785400390625,0.4498748779296875,0.047760009765625,0.2600369155406952,-0.0185060407966375,0.2126185297966003,30.59031677246094,93.00587463378906,-40.56282043457031
268846,-0.7973785400390625,0.4498748779296875,0.047760009765625,0.2600369155406952,-0.0185060407966375,0.2126185297966003,30.59031677246094,93.00587463378906,-40.56282043457031
268847,-0.5620880126953125,0.761566162109375,0.0269012451171875,1.37643563747406,1.265374064445496,-0.1895536780357361,30.95365905761719,92.7279815673828,-40.64028930664062
268848,-0.398651123046875,0.72100830078125,0.012908935546875,1.43524169921875,0.9190571308135986,-0.0948759093880653,31.28068542480469,92.27987670898438,-41.11949157714844
268849,-0.25244140625,0.6372222900390625,-0.067413330078125,1.43524169921875,0.9190571308135986,-0.0948759093880653,31.64732360839844,91.75650024414062,-41.75543212890625
268850,-0.25244140625,0.6372222900390625,-0.067413330078125,1.43524169921875,0.9190571308135986,-0.0948759093880653,31.64732360839844,91.75650024414062,-41.75543212890625
268851,-0.1514434814453125,0.509521484375,-0.1546478271484375,0.8146803975105286,-0.5454151034355164,0.1741646081209183,32.08198547363281,91.05921936035156,-42.47541809082031
268852,-0.025848388671875,0.2124176025390625,-0.2109222412109375,0.6299915313720703,-1.218175649642944,0.2466819584369659,32.30203247070312,90.44425964355467,-43.21052551269531
268853,0.0185089111328125,0.098236083984375,-0.156646728515625,0.5077473521232605,-1.619823217391968,0.2704349458217621,32.3001708984375,90.37513732910156,-43.25611877441406
268854,0.0185089111328125,0.098236083984375,-0.156646728515625,0.5077473521232605,-1.619823217391968,0.2704349458217621,32.3001708984375,90.37513732910156,-43.25611877441406
268855,0.0665435791015625,0.015167236328125,-0.0869598388671875,0.3373191654682159,-1.719162106513977,0.1139667853713036,31.66183471679688,90.48463439941406,-43.1326904296875
268856,0.063201904296875,0.0746307373046875,0.0354461669921875,0.2384144365787506,-1.461186766624451,-0.0201529394835233,31.23789978027344,90.4877471923828,-42.81045532226562
268857,0.005706787109375,0.238922119140625,0.1800079345703125,0.0627821609377861,-0.953626036643982,-0.2465991228818893,30.84117126464844,90.4521942138672,-42.46707153320312
268858,-0.1055755615234375,0.370330810546875,0.2698822021484375,-0.0842863842844963,-0.4772025048732758,-0.3570763766765594,30.44392395019531,90.48548889160156,-42.33073425292969
268859,-0.1055755615234375,0.370330810546875,0.2698822021484375,-0.0842863842844963,-0.4772025048732758,-0.3570763766765594,30.44392395019531,90.48548889160156,-42.33073425292969
268860,-0.4787750244140625,0.7797088623046875,0.3740081787109375,-0.148926630616188,-0.0892260149121284,-0.5883567333221436,29.98165893554688,90.45881652832033,-42.09773254394531
268861,-0.7388153076171875,0.991943359375,0.375457763671875,-0.0396755076944828,-0.3264942169189453,-0.8397966623306274,29.81117248535156,90.48577880859376,-42.05679321289062
268862,-0.7388153076171875,0.991943359375,0.375457763671875,-0.0396755076944828,-0.3264942169189453,-0.8397966623306274,29.81117248535156,90.48577880859376,-42.05679321289062
268863,-1.327957153320312,0.8227386474609375,0.4337158203125,-0.0573903210461139,-0.9346643686294556,-1.268991708755493,29.2003173828125,90.38786315917967,-42.44026184082031
268864,-1.526504516601562,0.3146209716796875,0.4271087646484375,-0.4591888785362244,-0.7076599597930908,-0.7557188272476196,28.6412353515625,90.27180480957033,-42.64231872558594
268865,-1.233200073242188,0.083984375,0.191070556640625,-0.8090366125106812,-0.6856276392936707,-0.4242373108863831,28.05287170410156,90.09779357910156,-42.81927490234375
268866,-1.233200073242188,0.083984375,0.191070556640625,-0.8090366125106812,-0.6856276392936707,-0.4242373108863831,28.05287170410156,90.09779357910156,-42.81927490234375
268867,-0.860382080078125,0.0126953125,-0.2545013427734375,-0.8621075749397278,-1.538431406021118,-0.4400357007980347,27.62358093261719,90.2450714111328,-42.66836547851562
268868,-0.605010986328125,-0.0734405517578125,-0.4589080810546875,-0.7204689383506775,-2.622901201248169,-0.3034219443798065,27.04981994628906,90.39112854003906,-42.12974548339844
268869,-0.140716552734375,0.0533599853515625,-0.1594085693359375,-0.4923367202281952,-2.736300468444824,-0.0465480610728263,25.33181762695312,90.80252075195312,-40.37339782714844
268870,-0.140716552734375,0.0533599853515625,-0.1594085693359375,-0.4923367202281952,-2.736300468444824,-0.0465480610728263,25.33181762695312,90.80252075195312,-40.37339782714844
268871,0.006927490234375,0.0744171142578125,-0.1009979248046875,-0.2631141841411591,-2.416683673858643,0.0583123080432415,24.58509826660156,90.99073791503906,-39.41868591308594
268872,0.0749664306640625,0.0410614013671875,0.012725830078125,-0.0478370301425457,-1.7411789894104,0.148727685213089,23.76438903808594,91.0288543701172,-37.52565002441406
268873,0.1277008056640625,-0.0312042236328125,-0.068634033203125,-0.0595400258898735,-1.577553272247314,0.2340308725833893,23.709716796875,91.04304504394533,-36.98228454589844
268874,0.1277008056640625,-0.0312042236328125,-0.068634033203125,-0.0595400258898735,-1.577553272247314,0.2340308725833893,23.709716796875,91.04304504394533,-36.98228454589844
268875,0.1817779541015625,-0.0780487060546875,-0.2120513916015625,-0.0246385000646114,-1.70837414264679,0.4016888439655304,23.61932373046875,90.94984436035156,-36.17123413085938
268876,0.336029052734375,-0.0312347412109375,-0.4194183349609375,0.3024669289588928,-2.729756355285645,0.9132202863693236,23.99787902832031,90.94581604003906,-34.58700561523438
268877,0.4510955810546875,0.0567779541015625,-0.367889404296875,0.5239327549934387,-2.857019424438477,1.223534226417542,24.1646728515625,90.97892761230467,-33.81120300292969
268878,0.4510955810546875,0.0567779541015625,-0.367889404296875,0.5239327549934387,-2.857019424438477,1.223534226417542,24.1646728515625,90.97892761230467,-33.81120300292969
268879,0.3827972412109375,0.27093505859375,-0.2133636474609375,-0.0031345405150204,0.1911782175302505,1.313329935073853,23.85269165039062,91.1767578125,-32.19522094726562
268880,0.2069854736328125,0.31494140625,-0.1517486572265625,0.0991124659776687,0.5247393846511841,1.261880278587341,24.05850219726562,91.48223876953124,-31.79539489746094
268881,0.1063385009765625,0.364105224609375,-0.1353302001953125,0.0673452168703079,0.441171258687973,1.077157855033875,24.62351989746094,91.69219970703124,-31.5946044921875
268882,0.1063385009765625,0.364105224609375,-0.1353302001953125,0.0673452168703079,0.441171258687973,1.077157855033875,24.62351989746094,91.69219970703124,-31.5946044921875
268883,0.016021728515625,0.4647674560546875,-0.1464996337890625,-0.1730026751756668,-0.2895889282226562,0.525933027267456,25.11798095703125,91.79757690429688,-31.58451843261719
268884,-0.2304840087890625,0.90081787109375,-0.3210296630859375,-0.2102379202842712,-0.6660552620887756,0.1795939952135086,25.92781066894531,92.23355102539062,-31.71568298339844
268885,-0.39398193359375,1.0125732421875,-0.3003387451171875,-0.2471099197864532,-0.5989198684692383,-0.1195397153496742,25.9278564453125,92.31632995605467,-31.50990295410156
268886,-0.5460968017578125,1.015655517578125,-0.3489837646484375,-0.2900004088878632,-0.057699516415596,-0.2652244865894318,25.77314758300781,92.36114501953124,-31.26348876953125
268887,-0.5460968017578125,1.015655517578125,-0.3489837646484375,-0.2900004088878632,-0.057699516415596,-0.2652244865894318,25.77314758300781,92.36114501953124,-31.26348876953125
268888,-0.84515380859375,1.315155029296875,-0.829437255859375,0.0168961584568023,0.411986231803894,-0.3724942207336426,25.42184448242188,92.38720703125,-30.96229553222656
268889,-0.9432373046875,1.615341186523438,-0.5623626708984375,0.1895715296268463,0.7432680130004883,-0.9883469939231871,25.20114135742188,92.1883544921875,-30.91085815429688
268890,-0.9432373046875,1.615341186523438,-0.5623626708984375,0.1895715296268463,0.7432680130004883,-0.9883469939231871,25.20114135742188,92.1883544921875,-30.91085815429688
268891,-1.065597534179688,1.87835693359375,-0.1336517333984375,0.1895715296268463,0.7432680130004883,-0.9883469939231871,24.96292114257812,92.04525756835938,-31.03713989257812
268892,-1.185501098632812,2.169525146484375,-0.0363006591796875,0.1957439333200455,1.196800351142883,-1.694927334785461,24.74433898925781,91.82437133789062,-31.30426025390625
268893,-1.263015747070312,2.463638305664062,-0.1070404052734375,0.01201724819839,1.079493403434753,-1.953009247779846,23.78501892089844,91.1271514892578,-32.40249633789062
268894,-1.263015747070312,2.463638305664062,-0.1070404052734375,0.01201724819839,1.079493403434753,-1.953009247779846,23.78501892089844,91.1271514892578,-32.40249633789062
268895,-1.478591918945312,2.510009765625,-0.047821044921875,-0.3744348585605621,1.087756633758545,-0.5528413653373718,23.07949829101562,90.59442138671876,-33.27989196777344
268896,-1.210647583007812,2.728134155273438,0.07159423828125,0.4149703085422516,0.3083213567733765,1.62997841835022,22.46173095703125,89.9085693359375,-34.48129272460938
268897,-0.9677734375,2.472702026367188,0.240203857421875,1.033711791038513,0.3767960071563721,1.379364252090454,22.71282958984375,90.18116760253906,-34.68930053710938
268898,-1.058029174804688,2.283111572265625,0.33544921875,1.257733464241028,0.8554975986480713,1.072067737579346,23.13685607910156,90.63566589355467,-35.13487243652344
268899,-1.058029174804688,2.283111572265625,0.33544921875,1.257733464241028,0.8554975986480713,1.072067737579346,23.13685607910156,90.63566589355467,-35.13487243652344
268900,-1.435195922851562,2.321685791015625,0.5704345703125,1.324301600456238,1.351724982261658,0.222471684217453,23.95272827148438,91.04988098144533,-36.58145141601562
268901,-1.504257202148438,2.246139526367188,0.57940673828125,1.226948976516724,1.2111976146698,-0.4273683726787567,24.37615966796875,91.13644409179688,-37.50498962402344
268902,-1.504257202148438,2.246139526367188,0.57940673828125,1.226948976516724,1.2111976146698,-0.4273683726787567,24.37615966796875,91.13644409179688,-37.50498962402344
268903,-1.509490966796875,1.97772216796875,0.4388427734375,1.027988910675049,0.7193488478660583,-1.012030482292175,24.65516662597656,90.86546325683594,-38.32722473144531
268904,-1.438125610351562,1.0618896484375,0.2106170654296875,0.5511614084243774,-0.7233017683029175,-0.9516156315803528,24.51121520996094,90.38059997558594,-39.99113464355469
268905,-1.23358154296875,0.6614837646484375,0.117584228515625,0.3825756013393402,-0.8496953845024109,-0.5059300065040588,24.13919067382812,90.00956726074219,-40.28854370117188
268906,-1.23358154296875,0.6614837646484375,0.117584228515625,0.3825756013393402,-0.8496953845024109,-0.5059300065040588,24.13919067382812,90.00956726074219,-40.28854370117188
268907,-0.9693145751953124,0.3983917236328125,-0.012176513671875,0.5598220229148865,-0.9463063478469848,-0.1344249248504639,23.80195617675781,89.70008850097656,-40.40617370605469
268908,-0.8300018310546875,0.1729278564453125,0.226226806640625,1.052256464958191,-0.1580689996480942,0.4075329005718231,23.2958984375,89.40711975097656,-40.35720825195312
268909,-0.9314727783203124,0.257843017578125,0.181640625,1.14293098449707,0.3250707685947418,0.4471998810768127,23.20654296875,89.43594360351562,-40.44180297851562
268910,-0.9314727783203124,0.257843017578125,0.181640625,1.14293098449707,0.3250707685947418,0.4471998810768127,23.20654296875,89.43594360351562,-40.44180297851562
268911,-1.139678955078125,0.43035888671875,0.0905914306640625,1.184144735336304,0.428658664226532,0.066242404282093,23.481689453125,89.30409240722656,-40.57780456542969
268912,-1.199798583984375,0.5021514892578125,-0.084503173828125,1.305149435997009,0.3871138989925385,-0.2141229510307312,24.09132385253906,88.98588562011719,-41.44718933105469
268913,-0.88385009765625,0.40771484375,-0.1082000732421875,1.538520455360413,0.5438939332962036,-0.225383847951889,24.34812927246094,88.69479370117188,-41.85205078125
268914,-0.88385009765625,0.40771484375,-0.1082000732421875,1.538520455360413,0.5438939332962036,-0.225383847951889,24.34812927246094,88.69479370117188,-41.85205078125
268915,-0.3734283447265625,0.306854248046875,-0.1343231201171875,1.859641194343567,0.8900238871574402,-0.0392486043274402,24.92247009277344,87.67533874511719,-43.06442260742188
268916,-0.2332305908203125,0.279296875,-0.1368560791015625,1.728513479232788,0.6900282502174377,0.0412188097834587,25.19444274902344,87.15333557128906,-43.95578002929688
268917,-0.1217498779296875,0.176055908203125,-0.2296295166015625,1.461999773979187,0.2148334681987762,0.120871290564537,25.47988891601562,86.53732299804688,-44.61280822753906
268918,-0.1217498779296875,0.176055908203125,-0.2296295166015625,1.461999773979187,0.2148334681987762,0.120871290564537,25.47988891601562,86.53732299804688,-44.61280822753906
268919,-0.019989013671875,0.0651092529296875,-0.3606109619140625,1.22675347328186,-0.4950491487979889,0.238493800163269,25.65098571777344,86.00233459472656,-45.36666870117188
268920,0.09375,0.0791473388671875,-0.1132049560546875,0.6366270780563354,-1.350131869316101,0.4340499937534332,25.75706481933594,85.35194396972656,-46.17941284179688
268921,0.0870208740234375,0.2032623291015625,-0.0361785888671875,0.4079672396183014,-1.369259476661682,0.3571000695228577,25.45753479003906,85.34355163574219,-46.16067504882812
268922,0.0870208740234375,0.2032623291015625,-0.0361785888671875,0.4079672396183014,-1.369259476661682,0.3571000695228577,25.45753479003906,85.34355163574219,-46.16067504882812
268923,0.0497283935546875,0.3270416259765625,0.045318603515625,0.2912187874317169,-1.349058866500854,0.2038692384958267,25.21640014648438,85.275634765625,-45.93757629394531
268924,-0.1785736083984375,0.728302001953125,0.3697967529296875,0.1351783275604248,-0.8180964589118958,0.0372885167598724,24.64654541015625,85.34231567382812,-45.42826843261719
268925,-0.4097900390625,1.031204223632812,0.42919921875,0.1415107846260071,-0.5312247276306152,-0.0590907521545887,24.36091613769531,85.43246459960938,-45.11358642578125
268926,-0.4097900390625,1.031204223632812,0.42919921875,0.1415107846260071,-0.5312247276306152,-0.0590907521545887,24.36091613769531,85.43246459960938,-45.11358642578125
268927,-0.7102508544921875,1.3062744140625,0.4366607666015625,0.2482177913188934,-0.4884237349033356,-0.3065737783908844,24.15252685546875,85.3798828125,-45.00741577148438
268928,-1.163970947265625,1.314422607421875,0.42303466796875,0.6005875468254089,-1.162762522697449,-1.300626873970032,23.95066833496094,85.13427734375,-45.19174194335938
268929,-1.304840087890625,0.8395538330078125,0.448760986328125,0.6025748252868652,-1.613264441490173,-1.631158947944641,23.76158142089844,84.96852111816406,-45.37307739257812
268930,-1.304840087890625,0.8395538330078125,0.448760986328125,0.6025748252868652,-1.613264441490173,-1.631158947944641,23.76158142089844,84.96852111816406,-45.37307739257812
268931,-1.49896240234375,0.077392578125,0.4840545654296875,0.1669532954692841,-1.341132521629333,-1.04072105884552,23.15556335449219,84.59773254394531,-45.59002685546875
268932,-0.899505615234375,-0.0847320556640625,-0.072235107421875,-0.2649666965007782,-1.947824001312256,-0.2969728112220764,21.652099609375,84.08145141601562,-45.53851318359375
268933,-0.702239990234375,-0.001220703125,0.0388031005859375,-0.3765462040901184,-2.101804256439209,-0.2447418421506882,21.00961303710938,84.00175476074219,-45.19708251953125
268934,-0.4963836669921875,0.0652618408203125,-0.058837890625,-0.4971703588962555,-1.789259910583496,-0.2033848166465759,20.3802490234375,84.0618896484375,-44.54486083984375
268935,-0.4963836669921875,0.0652618408203125,-0.058837890625,-0.4971703588962555,-1.789259910583496,-0.2033848166465759,20.3802490234375,84.0618896484375,-44.54486083984375
268936,-0.1321868896484375,0.06036376953125,-0.188140869140625,-0.208272784948349,-1.492927074432373,-0.0535753443837165,19.30947875976562,84.19120788574219,-42.92155456542969
268937,-0.0138702392578125,0.0409088134765625,-0.138458251953125,-0.0700121074914932,-1.280114650726318,0.0618591047823429,18.98179626464844,84.15736389160156,-42.15765380859375
268938,-0.0138702392578125,0.0409088134765625,-0.138458251953125,-0.0700121074914932,-1.280114650726318,0.0618591047823429,18.98179626464844,84.15736389160156,-42.15765380859375
268939,0.158599853515625,-0.004119873046875,-0.05889892578125,-0.0721551552414894,-0.9574082493782043,0.4175615608692169,18.41264343261719,84.04281616210938,-41.22674560546875
268940,0.2017822265625,-0.02972412109375,-0.1221160888671875,-0.1117923110723495,-1.010884284973145,0.6731986403465271,18.26934814453125,84.05441284179688,-40.68110656738281
268941,0.2301483154296875,-0.0703582763671875,-0.204193115234375,-0.0754609331488609,-1.213233947753906,0.9502640962600708,18.22529602050781,84.19476318359375,-40.25669860839844
268942,0.2301483154296875,-0.0703582763671875,-0.204193115234375,-0.0754609331488609,-1.213233947753906,0.9502640962600708,18.22529602050781,84.19476318359375,-40.25669860839844
268943,0.2438812255859375,-0.06890869140625,-0.2144622802734375,0.0203635953366756,-1.392015099525452,1.181540727615356,18.21141052246094,84.34379577636719,-39.59820556640625
268944,0.2338714599609375,0.04541015625,-0.119659423828125,0.3009941875934601,-1.183032870292664,1.392578601837158,18.48927307128906,84.97102355957031,-38.3812255859375
268945,0.223358154296875,0.0975799560546875,-0.139190673828125,0.4592075347900391,-0.940318763256073,1.40998899936676,18.67364501953125,85.1842041015625,-37.68527221679688
268946,0.223358154296875,0.0975799560546875,-0.139190673828125,0.4592075347900391,-0.940318763256073,1.40998899936676,18.67364501953125,85.1842041015625,-37.68527221679688
268947,0.204071044921875,0.140289306640625,-0.1557159423828125,0.6060446500778198,-0.7893673181533813,1.398539304733276,18.922119140625,85.55802917480469,-37.155029296875
268948,0.1814117431640625,0.17889404296875,-0.1195526123046875,0.7018558382987976,-0.6929590106010437,1.371163606643677,19.20892333984375,85.86773681640625,-37.01707458496094
268949,0.1295013427734375,0.3334197998046875,-0.136993408203125,0.8008096218109131,-0.5453158020973206,1.308515191078186,19.85478210449219,86.20458984375,-36.64558410644531
268950,0.0865325927734375,0.4954986572265625,-0.245849609375,0.8008096218109131,-0.5453158020973206,1.308515191078186,20.14344787597656,86.28434753417969,-36.6771240234375
268951,0.0865325927734375,0.4954986572265625,-0.245849609375,0.8008096218109131,-0.5453158020973206,1.308515191078186,20.14344787597656,86.28434753417969,-36.6771240234375
268952,-0.122039794921875,1.003692626953125,-0.509124755859375,0.892874002456665,-0.9065235257148744,0.9602269530296326,20.71589660644531,86.52980041503906,-36.176025390625
268953,-0.3019256591796875,1.235626220703125,-0.802581787109375,0.958487629890442,-0.9768280386924744,0.482568770647049,21.0750732421875,86.51776123046875,-35.96923828125
268954,-0.4703521728515625,1.428558349609375,-1.172698974609375,1.021277546882629,-0.8688688278198242,0.0623251609504222,21.08013916015625,86.60971069335938,-35.9410400390625
268955,-0.6100921630859375,1.659942626953125,-1.18701171875,0.7496311068534851,-0.3715261518955231,-0.1621428281068802,21.126708984375,86.52642822265625,-36.14872741699219
268956,-0.68609619140625,1.892623901367188,-0.8340301513671875,0.0030559774022549,0.2374567687511444,-0.4520028829574585,20.92350769042969,86.42845153808594,-36.35212707519531
268957,-0.77288818359375,2.240280151367188,-0.6433258056640625,-0.5574747323989868,0.0900321528315544,-1.203761577606201,20.69596862792969,86.23812866210938,-36.296875
268958,-0.77288818359375,2.240280151367188,-0.6433258056640625,-0.5574747323989868,0.0900321528315544,-1.203761577606201,20.69596862792969,86.23812866210938,-36.296875
268959,-0.84393310546875,2.68109130859375,-0.44970703125,-0.1825330555438995,-0.2481528222560883,-2.112934350967407,20.62649536132812,86.04074096679688,-36.47198486328125
268960,-0.923675537109375,2.940048217773438,-0.08050537109375,1.159279584884644,0.8444622755050659,-1.831030011177063,19.75521850585938,85.01966857910156,-36.49214172363281
268961,-1.39337158203125,2.7364501953125,-0.44329833984375,0.6481603980064392,0.8482162952423096,-0.4248825907707214,19.01017761230469,84.3043212890625,-36.81141662597656
268962,-1.39337158203125,2.7364501953125,-0.44329833984375,0.6481603980064392,0.8482162952423096,-0.4248825907707214,19.01017761230469,84.3043212890625,-36.81141662597656
268963,-1.559127807617188,2.953765869140625,-0.3474884033203125,0.5052005648612976,-0.5051049590110779,1.830865979194641,18.02572631835938,83.11019897460938,-38.74978637695312
268964,-1.183059692382812,2.821685791015625,0.240692138671875,1.239751219749451,-0.3209942579269409,1.379296898841858,18.08805847167969,83.1815185546875,-39.34230041503906
268965,-1.292449951171875,2.672348022460938,0.4109344482421875,1.500099778175354,0.5327664613723755,0.7388271689414978,18.42544555664062,83.72567749023438,-39.54592895507812
268966,-1.292449951171875,2.672348022460938,0.4109344482421875,1.500099778175354,0.5327664613723755,0.7388271689414978,18.42544555664062,83.72567749023438,-39.54592895507812
268967,-1.458663940429688,2.624588012695312,0.2924652099609375,1.326077103614807,0.9786919951438904,0.0706912130117416,18.61715698242188,84.18106079101562,-39.81831359863281
268968,-1.464630126953125,2.270004272460938,0.3648681640625,0.708168625831604,0.9951159954071044,-1.172831416130066,19.05876159667969,84.16801452636719,-41.24024963378906
268969,-1.419113159179688,1.789535522460938,0.2960205078125,0.6920820474624634,0.6929603815078735,-1.377167940139771,19.24339294433594,83.95619201660156,-42.11550903320312
268970,-1.419113159179688,1.789535522460938,0.2960205078125,0.6920820474624634,0.6929603815078735,-1.377167940139771,19.24339294433594,83.95619201660156,-42.11550903320312
268971,-1.411895751953125,0.5965728759765625,0.306488037109375,0.6799183487892151,0.2835680544376373,-0.149121567606926,19.35006713867188,83.2408447265625,-43.45404052734375
268972,-1.379074096679688,0.1053466796875,0.2752838134765625,0.6799183487892151,0.2835680544376373,-0.149121567606926,19.27529907226562,82.86578369140625,-44.03733825683594
268973,-1.205978393554688,-0.1304473876953125,0.2183380126953125,0.6095632314682007,0.1082436516880989,0.3153281211853027,19.21853637695312,82.5528564453125,-44.56428527832031
268974,-0.9792938232421876,-0.1918487548828125,0.166900634765625,0.6180198192596436,-0.2193275541067123,0.5782838463783264,19.33680725097656,82.3756103515625,-45.01322937011719
268975,-0.823455810546875,-0.139129638671875,0.191802978515625,0.6231410503387451,-0.4080570042133331,0.7156851291656494,19.54411315917969,82.19375610351562,-45.25518798828125
268976,-0.779632568359375,-0.01416015625,0.20721435546875,0.5590337514877319,-0.2565601468086243,0.7399632930755615,19.74017333984375,82.1727294921875,-45.31915283203125
268977,-0.8213043212890625,0.344207763671875,0.1682891845703125,0.5034956336021423,0.1669229418039322,0.5143365859985352,19.76484680175781,82.21286010742188,-45.34225463867188
268978,-0.8213043212890625,0.344207763671875,0.1682891845703125,0.5034956336021423,0.1669229418039322,0.5143365859985352,19.76484680175781,82.21286010742188,-45.34225463867188
268979,-0.7958526611328125,0.678680419921875,0.0984344482421875,0.6517887115478516,0.547683596611023,0.144297793507576,19.865478515625,82.35832214355469,-45.50714111328125
268980,-0.5156402587890625,0.6404571533203125,0.0447235107421875,1.18703031539917,0.9548274278640748,-0.1253901422023773,20.42964172363281,82.26173400878906,-45.77963256835938
268981,-0.342132568359375,0.55572509765625,-0.07684326171875,1.25348174571991,0.7302632927894592,-0.0757967606186866,20.84140014648438,81.98176574707031,-46.2977294921875
268982,-0.342132568359375,0.55572509765625,-0.07684326171875,1.25348174571991,0.7302632927894592,-0.0757967606186866,20.84140014648438,81.98176574707031,-46.2977294921875
268983,-0.2077789306640625,0.4734649658203125,-0.1540374755859375,1.078227639198303,-0.2334295362234116,0.1372678428888321,21.19705200195312,81.48570251464844,-46.75357055664062
268984,-0.0234375,0.315093994140625,-0.020843505859375,0.901244342327118,-0.5424094796180725,0.2479341775178909,21.78190612792969,80.17343139648438,-48.16217041015625
268985,0.0411834716796875,0.21112060546875,-0.0186614990234375,0.7693600654602051,-0.8025675415992737,0.3593472540378571,21.8056640625,79.84236145019531,-48.35392761230469
268986,0.0411834716796875,0.21112060546875,-0.0186614990234375,0.7693600654602051,-0.8025675415992737,0.3593472540378571,21.8056640625,79.84236145019531,-48.35392761230469
268987,0.0925445556640625,0.0069580078125,0.0016937255859375,0.5580142736434937,-1.266267895698547,0.6094492077827454,21.54330444335938,79.50126647949219,-48.16212463378906
268988,0.0422515869140625,0.0372161865234375,0.0545654296875,0.3975228667259216,-1.217678189277649,0.5700117945671082,21.47642517089844,79.46725463867188,-47.85725402832031
268989,-0.0049285888671875,0.1363677978515625,0.084014892578125,0.209339901804924,-1.04692804813385,0.3666307330131531,21.13078308105469,79.58457946777344,-47.44039916992188
268990,-0.0049285888671875,0.1363677978515625,0.084014892578125,0.209339901804924,-1.04692804813385,0.3666307330131531,21.13078308105469,79.58457946777344,-47.44039916992188
268991,-0.2354888916015625,0.404998779296875,0.243927001953125,-0.1403816044330597,-0.4481018781661987,0.0082185147330164,20.58586120605469,79.69358825683594,-46.90132141113281
268992,-0.3867950439453125,0.645782470703125,0.33563232421875,-0.1750993728637695,-0.2049342393875122,-0.0961486399173736,20.32023620605469,79.88052368164062,-46.77635192871094
268993,-0.623260498046875,0.929931640625,0.415313720703125,-0.1072321832180023,-0.0809574350714683,-0.2782526612281799,20.31535339355469,79.85429382324219,-46.784423828125
268994,-0.623260498046875,0.929931640625,0.415313720703125,-0.1072321832180023,-0.0809574350714683,-0.2782526612281799,20.31535339355469,79.85429382324219,-46.784423828125
268995,-1.209609985351562,1.092437744140625,0.4962158203125,-0.0298439152538776,-0.1574897617101669,-0.657655656337738,20.0689697265625,79.89805603027344,-47.1685791015625
268996,-1.484909057617188,0.859222412109375,0.431396484375,-0.3536914885044098,-0.2134084105491638,-0.5257615447044373,19.98899841308594,79.70068359375,-47.23953247070312
268997,-1.60675048828125,0.599822998046875,0.0673675537109375,-0.8102238774299622,-0.5617067217826843,-0.2582563161849976,19.83256530761719,79.71418762207031,-47.48196411132812
268998,-1.60675048828125,0.599822998046875,0.0673675537109375,-0.8102238774299622,-0.5617067217826843,-0.2582563161849976,19.83256530761719,79.71418762207031,-47.48196411132812
268999,-1.409103393554688,0.4636688232421875,-0.2750244140625,-1.07483983039856,-1.494547605514526,-0.4042457342147827,19.42376708984375,79.89828491210938,-47.34498596191406
269000,-0.71771240234375,0.3785552978515625,0.143157958984375,-1.010678648948669,-1.502562642097473,-0.458128958940506,18.03079223632812,80.59034729003906,-45.93589782714844
269001,-0.5223388671875,0.3297576904296875,0.1746673583984375,-0.5320793390274048,-0.889219343662262,-0.4712833762168884,17.30192565917969,80.73591613769531,-44.99128723144531
269002,-0.3748626708984375,0.2576141357421875,0.116455078125,-0.0830810368061065,-0.4342060387134552,-0.4057264626026154,16.86544799804688,80.927734375,-44.38017272949219
269003,-0.3748626708984375,0.2576141357421875,0.116455078125,-0.0830810368061065,-0.4342060387134552,-0.4057264626026154,16.86544799804688,80.927734375,-44.38017272949219
269004,-0.143951416015625,0.1260833740234375,-0.0579071044921875,0.1605305522680283,-0.4468997418880463,-0.1775974184274673,16.54940795898438,80.58770751953125,-43.78311157226562
269005,-0.0680389404296875,0.076080322265625,-0.0905303955078125,0.0493345260620117,-0.7022082209587097,-0.0798410326242446,16.53506469726562,80.46334838867188,-43.54142761230469
269006,-0.0680389404296875,0.076080322265625,-0.0905303955078125,0.0493345260620117,-0.7022082209587097,-0.0798410326242446,16.53506469726562,80.46334838867188,-43.54142761230469
269007,0.00714111328125,0.0434417724609375,-0.160186767578125,-0.1145185902714729,-1.420234203338623,0.1502164006233215,16.52633666992188,80.31634521484375,-43.33535766601562
269008,0.0763092041015625,0.005828857421875,-0.255889892578125,-0.0324261151254177,-1.765694379806519,0.3880587816238403,16.49736022949219,80.21632385253906,-42.78062438964844
269009,0.17523193359375,-0.0579986572265625,-0.2470245361328125,0.0961465090513229,-1.960861563682556,0.654526948928833,16.22105407714844,80.20242309570312,-41.43470764160156
269010,0.1987457275390625,-0.0707855224609375,-0.20806884765625,0.2802225947380066,-2.008939743041992,0.8974139094352722,16.05471801757812,80.2843017578125,-40.73721313476562
269011,0.1987457275390625,-0.0707855224609375,-0.20806884765625,0.2802225947380066,-2.008939743041992,0.8974139094352722,16.05471801757812,80.2843017578125,-40.73721313476562
269012,0.290252685546875,-0.022979736328125,-0.2641754150390625,0.5505430102348328,-1.961970210075378,1.347258806228638,15.85629272460938,80.40377807617188,-38.93994140625
269013,0.38824462890625,0.0577850341796875,-0.442779541015625,0.4000789523124695,-1.999176144599915,1.490647196769714,15.70803833007812,80.67408752441406,-38.18006896972656
269014,0.38824462890625,0.0577850341796875,-0.442779541015625,0.4000789523124695,-1.999176144599915,1.490647196769714,15.70803833007812,80.67408752441406,-38.18006896972656
269015,0.3124847412109375,0.310699462890625,-0.388916015625,0.388457715511322,-1.489153861999512,1.505697250366211,15.71722412109375,81.29974365234375,-36.51702880859375
269016,0.1959228515625,0.45281982421875,-0.3985443115234375,1.250879287719727,-1.104702949523926,1.092233180999756,15.84825134277344,81.60655212402344,-35.84152221679688
269017,0.0906524658203125,0.6338653564453125,-0.48065185546875,1.250879287719727,-1.104702949523926,1.092233180999756,16.07743835449219,81.89598083496094,-35.15713500976562
269018,0.0906524658203125,0.6338653564453125,-0.48065185546875,1.250879287719727,-1.104702949523926,1.092233180999756,16.07743835449219,81.89598083496094,-35.15713500976562
269019,-0.29443359375,1.411407470703125,-1.115997314453125,2.199873208999634,-0.929416298866272,0.0007398261222988,16.20606994628906,82.07658386230469,-34.71926879882812
269020,-0.4675140380859375,1.786834716796875,-1.421707153320312,2.199873208999634,-0.929416298866272,0.0007398261222988,16.08941650390625,81.94706726074219,-34.91062927246094
269021,-0.503448486328125,2.030776977539062,-1.195770263671875,1.436595916748047,0.163667231798172,0.0173097476363182,15.73117065429688,81.49198913574219,-34.99514770507812
269022,-0.503448486328125,2.030776977539062,-1.195770263671875,1.436595916748047,0.163667231798172,0.0173097476363182,15.73117065429688,81.49198913574219,-34.99514770507812
269023,-0.3831787109375,2.1414794921875,-0.7429656982421875,-0.1668566316366196,0.7630678415298462,-0.0696962550282478,15.62474060058594,81.066162109375,-35.36114501953125
269024,-0.724578857421875,2.554763793945312,-0.174896240234375,-0.9581568837165833,-0.8480601906776428,-1.344981551170349,15.64486694335938,80.67890930175781,-35.70236206054688
269025,-1.020172119140625,3.072921752929688,-0.055938720703125,0.670067548751831,-1.612684607505798,-2.006084442138672,15.62286376953125,80.58465576171875,-35.43136596679688
269026,-1.020172119140625,3.072921752929688,-0.055938720703125,0.670067548751831,-1.612684607505798,-2.006084442138672,15.62286376953125,80.58465576171875,-35.43136596679688
269027,-1.054290771484375,2.897323608398438,0.3262786865234375,1.967067003250122,-1.229758262634277,-2.076207876205444,15.14138793945312,80.1859130859375,-35.16545104980469
269028,-0.8790130615234375,1.501541137695312,-0.14959716796875,1.625806093215942,-0.0376754738390445,-0.849393904209137,13.30564880371094,78.3966064453125,-35.73188781738281
269029,-0.9538421630859376,0.83782958984375,-0.5336456298828125,0.8289397954940796,0.4038327038288116,0.1210494562983513,12.52584838867188,77.65106201171875,-36.44590759277344
269030,-0.9538421630859376,0.83782958984375,-0.5336456298828125,0.8289397954940796,0.4038327038288116,0.1210494562983513,12.52584838867188,77.65106201171875,-36.44590759277344
269031,-0.57440185546875,2.001174926757812,-0.60601806640625,0.5133013725280762,-0.2910566031932831,1.120718598365784,12.13525390625,77.21768188476562,-37.940673828125
269032,-0.68719482421875,2.517013549804688,-0.1613922119140625,0.8558757901191711,-0.2724789381027222,0.6600192189216614,12.37771606445312,77.55805969238281,-38.04788208007812
269033,-1.051132202148438,2.662582397460938,0.0683135986328125,1.007138848304749,0.3551815450191498,0.2839313149452209,12.47372436523438,77.83880615234375,-38.06178283691406
269034,-1.3560791015625,2.736495971679688,0.25054931640625,1.080371260643005,1.073064565658569,-0.1438967138528824,12.43643188476562,78.01451110839844,-38.36116027832031
269035,-1.3560791015625,2.736495971679688,0.25054931640625,1.080371260643005,1.073064565658569,-0.1438967138528824,12.43643188476562,78.01451110839844,-38.36116027832031
269036,-1.782989501953125,2.53778076171875,0.0456390380859375,0.9186717867851256,1.837418437004089,-1.310878396034241,12.55921936035156,77.64045715332031,-39.62458801269531
269037,-1.756576538085938,1.925628662109375,-0.199951171875,0.6729861497879028,1.192761659622192,-1.645053267478943,12.75791931152344,77.33378601074219,-40.71649169921875
269038,-1.756576538085938,1.925628662109375,-0.199951171875,0.6729861497879028,1.192761659622192,-1.645053267478943,12.75791931152344,77.33378601074219,-40.71649169921875
269039,-1.644912719726562,0.3971099853515625,0.0948486328125,0.062197595834732,0.2253207415342331,0.1320198178291321,12.74528503417969,76.36936950683594,-42.7899169921875
269040,-1.552093505859375,-0.0495147705078125,0.2370147705078125,0.062197595834732,0.2253207415342331,0.1320198178291321,12.63783264160156,76.07565307617188,-43.39166259765625
269041,-1.27099609375,-0.0752105712890625,0.243316650390625,0.1827354580163956,0.1474493741989136,0.6063882112503052,12.669921875,76.0662841796875,-43.81809997558594
269042,-1.27099609375,-0.0752105712890625,0.243316650390625,0.1827354580163956,0.1474493741989136,0.6063882112503052,12.669921875,76.0662841796875,-43.81809997558594
269043,-1.099639892578125,0.015777587890625,0.3092193603515625,0.4733236134052277,-0.0303959883749485,0.6826872229576111,12.77410888671875,76.22686767578125,-43.8443603515625
269044,-1.0584716796875,0.350128173828125,0.312713623046875,0.7371789813041687,0.1640706956386566,0.3754362165927887,13.0233154296875,76.54293823242188,-43.95831298828125
269045,-0.9486846923828124,0.5487213134765625,0.179168701171875,0.8316934704780579,0.2359925508499146,0.0839356482028961,13.02723693847656,76.58743286132812,-44.00834655761719
269046,-0.9486846923828124,0.5487213134765625,0.179168701171875,0.8316934704780579,0.2359925508499146,0.0839356482028961,13.02723693847656,76.58743286132812,-44.00834655761719
269047,-0.8245391845703125,0.6368560791015625,0.1159820556640625,1.228421449661255,0.4338252246379852,-0.1726671159267426,13.0029296875,76.53767395019531,-44.16532897949219
269048,-0.49560546875,0.4508209228515625,-0.0154876708984375,1.349417090415955,-0.0305826757103204,-0.1058947443962097,13.43630981445312,75.66398620605469,-44.84979248046875
269049,-0.370452880859375,0.3525848388671875,-0.0455780029296875,1.349417090415955,-0.0305826757103204,-0.1058947443962097,13.65126037597656,75.19540405273438,-45.22468566894531
269050,-0.370452880859375,0.3525848388671875,-0.0455780029296875,1.349417090415955,-0.0305826757103204,-0.1058947443962097,13.65126037597656,75.19540405273438,-45.22468566894531
269051,-0.0799102783203125,0.2197113037109375,-0.02410888671875,1.056939601898193,-0.6154293417930603,0.3169215023517609,14.38333129882812,73.95091247558594,-45.91587829589844
269052,-0.0341949462890625,0.2561492919921875,0.0618743896484375,1.056939601898193,-0.6154293417930603,0.3169215023517609,14.58918762207031,73.30856323242188,-45.98667907714844
269053,-0.029449462890625,0.3177642822265625,0.1615753173828125,0.8467427492141724,-0.505756676197052,0.3054315447807312,14.79216003417969,73.00413513183594,-46.01618957519531
269054,-0.029449462890625,0.3177642822265625,0.1615753173828125,0.8467427492141724,-0.505756676197052,0.3054315447807312,14.79216003417969,73.00413513183594,-46.01618957519531
269055,0.023406982421875,0.3949432373046875,0.255157470703125,-0.0030533140525221,-0.8037627935409546,0.4348947405815125,14.85661315917969,72.55485534667969,-46.314208984375
269056,-0.0641326904296875,0.5482330322265625,0.3218536376953125,-0.0030533140525221,-0.8037627935409546,0.4348947405815125,14.8404541015625,72.38136291503906,-46.16554260253906
269057,-0.2489471435546875,0.720611572265625,0.41619873046875,-0.2494803965091705,-0.8770614862442017,0.3740385770797729,14.73446655273438,72.56900024414062,-45.92257690429688
269058,-0.476287841796875,0.809234619140625,0.5276947021484375,-0.4307774901390076,-0.8223809599876404,0.2646215260028839,14.45344543457031,72.74879455566406,-45.59233093261719
269059,-0.476287841796875,0.809234619140625,0.5276947021484375,-0.4307774901390076,-0.8223809599876404,0.2646215260028839,14.45344543457031,72.74879455566406,-45.59233093261719
269060,-0.9051971435546876,0.8551025390625,0.626556396484375,-0.6413493752479553,-1.128532886505127,-0.2834623456001282,13.97630310058594,73.37156677246094,-44.98703002929688
269061,-1.129791259765625,0.7360076904296875,0.658966064453125,-0.6413493752479553,-1.128532886505127,-0.2834623456001282,13.67982482910156,73.56636047363281,-44.74612426757812
269062,-1.287994384765625,0.4630126953125,0.6298675537109375,-0.9003537893295288,-1.137147903442383,-0.1965932250022888,13.33052062988281,73.77154541015625,-44.40512084960938
269063,-1.20269775390625,0.214569091796875,0.4890899658203125,-0.9003537893295288,-1.137147903442383,-0.1965932250022888,13.00076293945312,74.00927734375,-44.11985778808594
269064,-0.90789794921875,0.132232666015625,0.272430419921875,-0.922389566898346,-1.352743864059448,-0.1890692561864853,12.55874633789062,74.16712951660156,-43.65737915039062
269065,-0.6823883056640625,0.10406494140625,0.086822509765625,-0.9213640093803406,-1.662984609603882,-0.2376104295253754,12.10115051269531,74.45111083984375,-43.11436462402344
269066,-0.6823883056640625,0.10406494140625,0.086822509765625,-0.9213640093803406,-1.662984609603882,-0.2376104295253754,12.10115051269531,74.45111083984375,-43.11436462402344
269067,-0.5019073486328125,0.0502471923828125,-0.1535186767578125,-0.9239981174468994,-2.29935884475708,-0.1693512052297592,11.56710815429688,74.61019897460938,-42.42356872558594
269068,-0.1750335693359375,-0.037139892578125,-0.270050048828125,-0.8435565233230591,-2.222922086715698,-0.0598353706300258,10.41244506835938,74.9959716796875,-40.55937194824219
269069,-0.0175628662109375,-0.0633087158203125,-0.274688720703125,-0.5193393230438232,-1.93382728099823,0.1344097405672073,9.86883544921875,75.01155090332031,-39.25126647949219
269070,0.0821075439453125,-0.050048828125,-0.1583709716796875,0.0747496038675308,-0.8036748766899109,0.6254790425300598,9.556137084960938,75.0721435546875,-38.08488464355469
269071,0.0821075439453125,-0.050048828125,-0.1583709716796875,0.0747496038675308,-0.8036748766899109,0.6254790425300598,9.556137084960938,75.0721435546875,-38.08488464355469
269072,0.1553497314453125,-0.0092926025390625,-0.13519287109375,0.1505279839038849,-0.5130419731140137,0.8552662134170532,9.389907836914062,75.13523864746094,-36.244384765625
269073,0.196990966796875,-0.0114898681640625,-0.224578857421875,0.1915800869464874,-1.021131277084351,1.389055848121643,9.723373413085938,75.4102783203125,-35.76084899902344
269074,0.196990966796875,-0.0114898681640625,-0.224578857421875,0.1915800869464874,-1.021131277084351,1.389055848121643,9.723373413085938,75.4102783203125,-35.76084899902344
269075,0.2392120361328125,-0.0149993896484375,-0.3075714111328125,0.1915800869464874,-1.021131277084351,1.389055848121643,10.03187561035156,75.67153930664062,-35.38270568847656
269076,0.317230224609375,0.0450286865234375,-0.2979736328125,0.0709519386291503,-1.888253331184387,2.00905704498291,10.55062866210938,76.42446899414062,-34.2169189453125
269077,0.3972320556640625,0.1399078369140625,-0.3650665283203125,0.0709519386291503,-1.888253331184387,2.00905704498291,10.59855651855469,77.06219482421875,-33.3897705078125
269078,0.3899993896484375,0.2550048828125,-0.38043212890625,-0.190357431769371,-1.033647894859314,1.696561932563782,10.76304626464844,77.55413818359375,-32.45565795898438
269079,0.3899993896484375,0.2550048828125,-0.38043212890625,-0.190357431769371,-1.033647894859314,1.696561932563782,10.76304626464844,77.55413818359375,-32.45565795898438
269080,0.12835693359375,0.44293212890625,-0.26312255859375,-0.0158908162266016,-0.7825459241867065,1.398173928260803,11.12193298339844,78.97438049316406,-30.752197265625
269081,-0.002655029296875,0.5987091064453125,-0.2740478515625,0.1339396983385086,-0.643828272819519,1.018243074417114,11.41987609863281,79.52835083007812,-29.99365234375
269082,-0.002655029296875,0.5987091064453125,-0.2740478515625,0.1339396983385086,-0.643828272819519,1.018243074417114,11.41987609863281,79.52835083007812,-29.99365234375
269083,-0.3570556640625,0.984710693359375,-0.471160888671875,0.4499815404415131,-0.5870387554168701,-0.3914697766304016,11.91094970703125,80.39378356933594,-29.14987182617188
269084,-0.4927978515625,1.056106567382812,-0.480255126953125,0.4499815404415131,-0.5870387554168701,-0.3914697766304016,11.90841674804688,80.46636962890625,-28.88142395019531
269085,-0.5581512451171875,1.055068969726562,-0.4771881103515625,0.3193385899066925,-0.4515951573848724,-0.662516713142395,11.72125244140625,80.38282775878906,-28.72885131835938
269086,-0.5581512451171875,1.055068969726562,-0.4771881103515625,0.3193385899066925,-0.4515951573848724,-0.662516713142395,11.72125244140625,80.38282775878906,-28.72885131835938
269087,-0.592926025390625,1.101181030273438,-0.5178375244140625,0.2480018138885498,-0.4337610304355621,-0.7777439951896667,11.4222412109375,80.12773132324219,-28.60968017578125
269088,-0.5743408203125,1.501449584960938,-0.22003173828125,0.4928592443466187,-0.1002328619360924,-0.7113614678382874,11.00335693359375,79.54847717285156,-28.36738586425781
269089,-0.631683349609375,1.801193237304688,-0.0175323486328125,0.5336551070213318,0.3626871109008789,-0.7211443185806274,10.68380737304688,79.11802673339844,-28.43081665039062
269090,-0.631683349609375,1.801193237304688,-0.0175323486328125,0.5336551070213318,0.3626871109008789,-0.7211443185806274,10.68380737304688,79.11802673339844,-28.43081665039062
269091,-0.7120819091796875,2.091049194335938,0.041290283203125,0.8368269801139832,0.6193047761917114,-0.8916143178939819,10.43994140625,78.72125244140625,-28.42901611328125
269092,-0.764801025390625,2.603805541992188,-0.060546875,1.027742385864258,0.2449951022863388,-0.6178293824195862,10.08963012695312,77.89009094238281,-29.4232177734375
269093,-0.81134033203125,2.900619506835938,-0.0608673095703125,0.8824237585067749,-0.2535606324672699,-0.0867617949843406,10.05757141113281,77.31510925292969,-29.98344421386719
269094,-0.81134033203125,2.900619506835938,-0.0608673095703125,0.8824237585067749,-0.2535606324672699,-0.0867617949843406,10.05757141113281,77.31510925292969,-29.98344421386719
269095,-0.9593353271484376,3.28790283203125,0.043304443359375,1.034068703651428,-0.2626345455646515,1.344972491264343,9.713043212890623,76.69552612304688,-30.94131469726562
269096,-1.056884765625,3.199813842773438,0.0274200439453125,1.619319319725037,0.5586808323860168,1.262352705001831,9.560302734375,76.77787780761719,-31.11549377441406
269097,-1.143997192382812,3.027328491210938,0.0089263916015625,1.964400053024292,1.037305235862732,0.736416220664978,9.661209106445312,77.12135314941406,-31.40756225585938
269098,-1.336227416992188,2.789627075195312,0.188507080078125,1.87212872505188,1.443324327468872,-0.1723185032606125,9.775405883789062,77.38388061523438,-31.98545837402344
269099,-1.336227416992188,2.789627075195312,0.188507080078125,1.87212872505188,1.443324327468872,-0.1723185032606125,9.775405883789062,77.38388061523438,-31.98545837402344
269100,-1.913406372070312,2.058578491210938,0.26849365234375,0.6542809009552002,2.803248882293701,-2.028074741363525,9.953384399414062,77.71731567382812,-34.17146301269531
269101,-2.1207275390625,1.659500122070312,-0.0675506591796875,0.4480070769786835,2.307006359100342,-2.478398323059082,10.04869079589844,77.18809509277344,-35.55865478515625
269102,-2.471511840820312,0.7605438232421875,-0.0432281494140625,0.4664140343666077,1.464910387992859,-1.926830887794495,10.21272277832031,76.62213134765625,-36.99961853027344
269103,-2.471511840820312,0.7605438232421875,-0.0432281494140625,0.4664140343666077,1.464910387992859,-1.926830887794495,10.21272277832031,76.62213134765625,-36.99961853027344
269104,-1.779953002929688,0.1822357177734375,-0.1154327392578125,0.2401524186134338,-0.077634073793888,0.6194725632667542,10.5615234375,75.52914428710938,-39.67039489746094
269105,-1.201690673828125,0.3845672607421875,0.114410400390625,0.4134719967842102,-0.9977620840072632,0.7873534560203552,10.84934997558594,75.33546447753906,-40.26800537109375
269106,-1.201690673828125,0.3845672607421875,0.114410400390625,0.4134719967842102,-0.9977620840072632,0.7873534560203552,10.84934997558594,75.33546447753906,-40.26800537109375
269107,-0.6171417236328125,0.3642425537109375,0.412933349609375,0.1065546721220016,-0.2934116423130035,0.8029606342315674,11.08152770996094,75.45466613769531,-40.27096557617188
269108,-0.45538330078125,0.3451995849609375,0.1867218017578125,0.1065546721220016,-0.2934116423130035,0.8029606342315674,10.86012268066406,75.74765014648438,-39.82882690429688
269109,-0.3917999267578125,0.458526611328125,0.0555419921875,0.2358324974775314,0.2947978079319,0.624262809753418,10.79170227050781,75.81391906738281,-39.47538757324219
269110,-0.441986083984375,0.6906280517578125,0.0767669677734375,0.4819911420345306,1.090117573738098,0.256649374961853,10.79672241210938,76.07884216308594,-39.23171997070312
269111,-0.441986083984375,0.6906280517578125,0.0767669677734375,0.4819911420345306,1.090117573738098,0.256649374961853,10.79672241210938,76.07884216308594,-39.23171997070312
269112,-0.5471038818359375,0.6907501220703125,-0.095794677734375,0.6839650273323059,1.52970564365387,-0.1368553191423416,11.51119995117188,76.25048828125,-39.57438659667969
269113,-0.436248779296875,0.6070709228515625,-0.1912384033203125,0.5291773080825806,1.136149525642395,-0.1932112723588943,12.14947509765625,76.03448486328125,-40.32345581054688
269114,-0.436248779296875,0.6070709228515625,-0.1912384033203125,0.5291773080825806,1.136149525642395,-0.1932112723588943,12.14947509765625,76.03448486328125,-40.32345581054688
269115,-0.1840362548828125,0.4822998046875,-0.32733154296875,0.2310918122529984,-0.5833092331886292,0.053498912602663,13.39949035644531,75.37265014648438,-41.66551208496094
269116,-0.0736846923828125,0.4542999267578125,-0.2813873291015625,0.2310918122529984,-0.5833092331886292,0.053498912602663,13.6573486328125,75.24867248535156,-41.97856140136719
269117,0.01708984375,0.4061279296875,-0.2176361083984375,0.318560928106308,-0.7781234383583069,0.2261572331190109,13.71745300292969,74.99868774414062,-41.99275207519531
269118,0.01708984375,0.4061279296875,-0.2176361083984375,0.318560928106308,-0.7781234383583069,0.2261572331190109,13.71745300292969,74.99868774414062,-41.99275207519531
269119,0.024993896484375,0.351287841796875,-0.1376495361328125,0.3829090297222137,-0.7658774256706238,0.3473401069641113,13.62698364257812,74.82142639160156,-41.86839294433594
269120,-0.1159210205078125,0.27117919921875,0.007415771484375,0.3119738698005676,-0.3961231112480164,0.1595060378313065,13.16218566894531,74.79649353027344,-41.49124145507812
269121,-0.227752685546875,0.2141265869140625,0.0416259765625,0.271189421415329,-0.2797964811325073,-0.0295941103249788,13.00303649902344,74.75457763671875,-41.15629577636719
269122,-0.227752685546875,0.2141265869140625,0.0416259765625,0.271189421415329,-0.2797964811325073,-0.0295941103249788,13.00303649902344,74.75457763671875,-41.15629577636719
269123,-0.37115478515625,0.1709136962890625,0.11773681640625,0.2413300573825836,-0.0481339730322361,0.0950671285390853,12.91073608398438,74.70718383789062,-41.06629943847656
269124,-0.534271240234375,0.3251495361328125,0.3296661376953125,0.1676041781902313,0.1523418724536896,0.1494278311729431,12.63786315917969,74.77278137207031,-41.17811584472656
269125,-0.61102294921875,0.39605712890625,0.3767852783203125,0.0550576597452163,0.2940137684345245,0.1742437034845352,12.57296752929688,74.73237609863281,-41.13005065917969
269126,-0.61102294921875,0.39605712890625,0.3767852783203125,0.0550576597452163,0.2940137684345245,0.1742437034845352,12.57296752929688,74.73237609863281,-41.13005065917969
269127,-0.7767181396484375,0.4190673828125,0.498321533203125,-0.5027108192443848,0.5464628338813782,0.0500621013343334,12.68278503417969,74.83209228515625,-41.47000122070312
269128,-0.8658905029296875,0.4215240478515625,0.4681854248046875,-0.5027108192443848,0.5464628338813782,0.0500621013343334,12.71578979492188,74.98550415039062,-41.77944946289062
269129,-0.9245147705078124,0.41778564453125,0.3533477783203125,-0.7356148958206177,0.268570750951767,-0.1081584244966507,12.83464050292969,75.21427917480469,-41.91535949707031
269130,-0.9245147705078124,0.41778564453125,0.3533477783203125,-0.7356148958206177,0.268570750951767,-0.1081584244966507,12.83464050292969,75.21427917480469,-41.91535949707031
269131,-0.7414093017578125,0.3301239013671875,0.14715576171875,-1.060880899429321,-1.451230764389038,-0.5429341197013855,12.89851379394531,75.74327087402344,-42.14384460449219
269132,-0.5761871337890625,0.3493499755859375,0.20904541015625,-1.060880899429321,-1.451230764389038,-0.5429341197013855,12.77261352539062,75.90664672851562,-41.87863159179688
269133,-0.4331207275390625,0.377685546875,0.2560577392578125,-1.074126839637756,-1.339262366294861,-0.629497230052948,12.44522094726562,76.15742492675781,-41.44497680664062
269134,-0.1577301025390625,0.3605804443359375,0.056121826171875,-0.9768688082695008,-1.301673293113708,-0.6320030093193054,11.51182556152344,76.41180419921875,-39.98092651367188
269135,-0.1577301025390625,0.3605804443359375,0.056121826171875,-0.9768688082695008,-1.301673293113708,-0.6320030093193054,11.51182556152344,76.41180419921875,-39.98092651367188
269136,-0.0501556396484375,0.3078460693359375,-0.050384521484375,-0.6529378294944763,-1.617611527442932,-0.2748041450977325,11.03150939941406,76.42503356933594,-39.11663818359375
269137,0.0664520263671875,0.231597900390625,-0.130706787109375,-0.6529378294944763,-1.617611527442932,-0.2748041450977325,10.696044921875,76.21286010742188,-38.23381042480469
269138,0.16064453125,0.1267852783203125,-0.1578826904296875,-0.1011370047926903,-1.7918701171875,0.5490713715553284,10.31243896484375,76.1689453125,-37.47242736816406
269139,0.16064453125,0.1267852783203125,-0.1578826904296875,-0.1011370047926903,-1.7918701171875,0.5490713715553284,10.31243896484375,76.1689453125,-37.47242736816406
269140,0.1870880126953125,0.0157623291015625,-0.0894927978515625,0.2062343955039978,-1.492351531982422,0.922383725643158,9.557083129882812,76.22520446777344,-35.75875854492188
269141,0.1555938720703125,0.0128936767578125,-0.0959625244140625,0.4217163622379303,-1.119046449661255,1.147322058677673,9.320968627929688,76.27864074707031,-34.8353271484375
269142,0.1391448974609375,0.009796142578125,-0.1909027099609375,0.541922390460968,-0.9279678463935852,1.261407017707825,9.289810180664062,76.41754150390625,-33.98307800292969
269143,0.146728515625,0.0192718505859375,-0.3044281005859375,0.6402955651283264,-1.321048259735107,1.307876229286194,9.329742431640623,76.7801513671875,-33.53321838378906
269144,0.1420440673828125,0.0617523193359375,-0.326629638671875,0.6402955651283264,-1.321048259735107,1.307876229286194,9.579391479492188,77.13410949707031,-32.98350524902344
269145,0.1319122314453125,0.118865966796875,-0.299224853515625,0.5573396682739258,-1.512460350990295,1.21820867061615,9.7281494140625,77.50413513183594,-32.48898315429688
269146,0.1319122314453125,0.118865966796875,-0.299224853515625,0.5573396682739258,-1.512460350990295,1.21820867061615,9.7281494140625,77.50413513183594,-32.48898315429688
269147,0.1244964599609375,0.1886749267578125,-0.2594757080078125,0.2463463991880417,-1.565194129943848,1.012661099433899,9.82373046875,77.89578247070312,-31.9530029296875
269148,0.0972442626953125,0.2725677490234375,-0.1956634521484375,-0.1726964116096497,-1.39160418510437,0.7336217761039734,9.891891479492188,78.25076293945312,-31.52944946289062
269149,-0.00390625,0.519256591796875,-0.2487335205078125,-0.3727051317691803,-1.416016340255737,0.4402255713939667,9.997039794921877,78.75791931152344,-30.04200744628906
269150,-0.0969390869140625,0.7473907470703125,-0.3584747314453125,-0.1833695620298386,-1.548382878303528,0.3305203914642334,9.952484130859377,79.03950500488281,-29.28109741210938
269151,-0.0969390869140625,0.7473907470703125,-0.3584747314453125,-0.1833695620298386,-1.548382878303528,0.3305203914642334,9.952484130859377,79.03950500488281,-29.28109741210938
269152,-0.39801025390625,1.232467651367188,-0.580291748046875,0.4699840247631073,-1.344584703445435,0.0481579415500164,9.606735229492188,79.46783447265625,-26.726806640625
269153,-0.55657958984375,1.3817138671875,-0.6075286865234375,0.5229809284210205,-0.6567118167877197,0.0290870442986488,9.465591430664062,79.31666564941406,-25.97727966308594
269154,-0.628662109375,1.689529418945312,-0.196258544921875,-0.1075171381235123,0.5042461156845093,0.2217089533805847,9.391204833984377,79.29124450683594,-25.79753112792969
269155,-0.628662109375,1.689529418945312,-0.196258544921875,-0.1075171381235123,0.5042461156845093,0.2217089533805847,9.391204833984377,79.29124450683594,-25.79753112792969
269156,-0.8057708740234375,1.869277954101562,0.074981689453125,-0.1917095184326172,0.8755514621734619,-0.0528799928724765,9.536453247070312,79.26957702636719,-25.84739685058594
269157,-1.026046752929688,2.158905029296875,-0.131683349609375,0.3024333715438843,0.8447642922401428,-0.7309311628341675,9.659652709960938,79.40568542480469,-26.14204406738281
269158,-1.026046752929688,2.158905029296875,-0.131683349609375,0.3024333715438843,0.8447642922401428,-0.7309311628341675,9.659652709960938,79.40568542480469,-26.14204406738281
269159,-1.01177978515625,2.114044189453125,-0.193603515625,1.580163955688477,0.2412064969539642,-1.205154895782471,9.524322509765623,78.79257202148438,-27.33224487304688
269160,-1.21478271484375,1.615646362304688,-0.1622314453125,1.030558586120605,1.092424988746643,-0.3099234998226166,9.133270263671877,78.16780090332031,-28.084716796875
269161,-1.139389038085938,1.568695068359375,-0.4667816162109375,0.0357116572558879,1.719249129295349,1.040459156036377,8.939743041992188,77.63874816894531,-29.04708862304688
269162,-0.7273406982421875,2.478790283203125,-0.2867431640625,0.3716883361339569,0.5973411798477173,1.116516709327698,9.599685668945312,77.97950744628906,-30.49296569824219
269163,-0.7273406982421875,2.478790283203125,-0.2867431640625,0.3716883361339569,0.5973411798477173,1.116516709327698,9.599685668945312,77.97950744628906,-30.49296569824219
269164,-1.127822875976562,2.643997192382812,-0.3858489990234375,0.974827229976654,0.8409266471862793,0.8047952651977539,9.853546142578123,78.509033203125,-30.89382934570312
269165,-1.545928955078125,2.812118530273438,-0.4285125732421875,1.203181862831116,1.726778745651245,0.3321608901023865,9.987579345703123,78.88421630859375,-31.35606384277344
269166,-1.881881713867188,2.852737426757812,-0.3032989501953125,0.8317704200744629,2.702978610992432,-0.1583832502365112,10.08515930175781,79.07759094238281,-32.23564147949219
269167,-1.881881713867188,2.852737426757812,-0.3032989501953125,0.8317704200744629,2.702978610992432,-0.1583832502365112,10.08515930175781,79.07759094238281,-32.23564147949219
269168,-2.031341552734375,2.27191162109375,-0.154327392578125,0.1191471666097641,3.050979137420654,-1.039167881011963,10.63618469238281,78.91970825195312,-34.77720642089844
269169,-1.83587646484375,1.564117431640625,-0.142303466796875,0.2918534278869629,2.56783390045166,-1.139787673950195,11.19209289550781,78.8494873046875,-36.07986450195312
269170,-1.609207153320312,0.79339599609375,-0.1866912841796875,0.3720334768295288,1.77803361415863,-0.7978103756904602,11.5933837890625,78.50050354003906,-37.41441345214844
269171,-1.609207153320312,0.79339599609375,-0.1866912841796875,0.3720334768295288,1.77803361415863,-0.7978103756904602,11.5933837890625,78.50050354003906,-37.41441345214844
269172,-1.209579467773438,0.3297119140625,-0.1470947265625,-0.1609300225973129,0.4650907218456268,0.6455896496772766,12.30278015136719,77.9910888671875,-39.48135375976562
269173,-0.9135589599609376,0.56988525390625,-0.1487884521484375,-0.2323165982961655,0.0127501497045159,0.746429979801178,12.52082824707031,78.03402709960938,-39.86347961425781
269174,-0.9135589599609376,0.56988525390625,-0.1487884521484375,-0.2323165982961655,0.0127501497045159,0.746429979801178,12.52082824707031,78.03402709960938,-39.86347961425781
269175,-0.6774444580078125,0.6530303955078125,-0.049285888671875,0.0356839597225189,-0.013447898440063,0.4614422023296356,12.85749816894531,78.67428588867188,-39.90434265136719
269176,-0.6157684326171875,0.7413482666015625,0.017303466796875,0.2530863285064697,0.3438681662082672,0.3345915675163269,13.03868103027344,78.89910888671875,-39.83193969726562
269177,-0.5675201416015625,0.9306640625,0.0821990966796875,0.4292128682136536,0.6765470504760742,0.1491378247737885,13.27957153320312,78.96025085449219,-39.73550415039062
269178,-0.5675201416015625,0.9306640625,0.0821990966796875,0.4292128682136536,0.6765470504760742,0.1491378247737885,13.27957153320312,78.96025085449219,-39.73550415039062
269179,-0.587860107421875,1.105010986328125,0.12188720703125,0.4901808798313141,0.8656938076019287,-0.1000315248966217,13.64547729492188,78.84951782226562,-39.88650512695312
269180,-0.5875396728515625,0.922393798828125,0.0461273193359375,0.6375804543495178,0.6428255438804626,-0.4077621698379517,14.1134033203125,78.57936096191406,-40.84730529785156
269181,-0.5325164794921875,0.7427215576171875,0.088653564453125,0.7466928362846375,0.4630877673625946,-0.4728256165981293,14.29899597167969,78.36758422851562,-41.35490417480469
269182,-0.5325164794921875,0.7427215576171875,0.088653564453125,0.7466928362846375,0.4630877673625946,-0.4728256165981293,14.29899597167969,78.36758422851562,-41.35490417480469
269183,-0.485107421875,0.538421630859375,0.1219329833984375,0.8662474751472473,0.3789715468883514,-0.4743281602859497,14.42520141601562,77.93865966796875,-41.74436950683594
269184,-0.3394927978515625,0.2306060791015625,0.1158447265625,1.010727405548096,0.1849109977483749,-0.2997885942459106,14.54948425292969,77.18206787109375,-42.47732543945312
269185,-0.2822265625,0.1038665771484375,0.1278228759765625,0.9366809129714966,0.0955923050642013,-0.1511074900627136,14.64828491210938,76.78489685058594,-42.78781127929688
269186,-0.2777252197265625,0.0140228271484375,0.1669158935546875,0.8151344656944275,0.0907384231686592,-0.0756699964404106,14.74832153320312,76.45649719238281,-43.14515686035156
269187,-0.2777252197265625,0.0140228271484375,0.1669158935546875,0.8151344656944275,0.0907384231686592,-0.0756699964404106,14.74832153320312,76.45649719238281,-43.14515686035156
269188,-0.3619232177734375,-0.0936737060546875,0.172515869140625,0.4009838998317719,0.1485055834054947,-0.104208692908287,14.9267578125,75.88763427734375,-43.582275390625
269189,-0.453704833984375,-0.0839080810546875,0.166229248046875,0.1565576493740082,0.0701159685850143,-0.1538425534963608,15.0115966796875,75.69090270996094,-43.81008911132812
269190,-0.5368499755859375,0.010345458984375,0.202362060546875,-0.0644229352474212,-0.0380528420209884,-0.1792512536048889,15.01553344726562,75.540283203125,-43.99586486816406
269191,-0.5368499755859375,0.010345458984375,0.202362060546875,-0.0644229352474212,-0.0380528420209884,-0.1792512536048889,15.01553344726562,75.540283203125,-43.99586486816406
269192,-0.517791748046875,0.1714324951171875,0.30230712890625,-0.4078607261180878,-0.1583835184574127,-0.1539781093597412,14.76385498046875,75.52737426757812,-44.12547302246094
269193,-0.5612945556640625,0.3628082275390625,0.374420166015625,-0.6045492887496948,-0.1020898818969727,-0.1612272411584854,14.56063842773438,75.65397644042969,-44.03422546386719
269194,-0.5612945556640625,0.3628082275390625,0.374420166015625,-0.6045492887496948,-0.1020898818969727,-0.1612272411584854,14.56063842773438,75.65397644042969,-44.03422546386719
269195,-0.6998291015625,0.62359619140625,0.4145050048828125,-0.935395896434784,-0.1733946949243546,-0.4280951619148254,14.1561279296875,76.08415222167969,-43.79899597167969
269196,-0.76678466796875,0.5620880126953125,0.4299163818359375,-0.99113667011261,-0.3916575312614441,-0.6265464425086975,13.92802429199219,76.23905944824219,-43.67584228515625
269197,-0.79571533203125,0.456695556640625,0.4299163818359375,-1.033092141151428,-0.6558359265327454,-0.806197464466095,13.68231201171875,76.49357604980469,-43.45193481445312
269198,-0.787139892578125,0.3477783203125,0.39068603515625,-1.047963500022888,-0.9576684832572936,-0.8965420126914978,13.33465576171875,76.54617309570312,-43.050048828125
269199,-0.787139892578125,0.3477783203125,0.39068603515625,-1.047963500022888,-0.9576684832572936,-0.8965420126914978,13.33465576171875,76.54617309570312,-43.050048828125
269200,-0.6031951904296875,0.210784912109375,0.2014312744140625,-1.152350306510925,-1.608216166496277,-0.9263278245925904,12.59504699707031,76.55230712890625,-42.06544494628906
269201,-0.5050811767578125,0.28521728515625,0.05731201171875,-1.383252501487732,-1.763362884521484,-0.7776699066162109,12.13682556152344,76.31475830078125,-41.13261413574219
269202,-0.3463897705078125,0.3582611083984375,-0.2184906005859375,-1.648678302764893,-1.866213798522949,-0.6818222403526306,11.75498962402344,76.13072204589844,-40.22425842285156
269203,-0.3463897705078125,0.3582611083984375,-0.2184906005859375,-1.648678302764893,-1.866213798522949,-0.6818222403526306,11.75498962402344,76.13072204589844,-40.22425842285156
269204,-0.0241851806640625,0.239593505859375,-0.34844970703125,-1.227872490882874,-1.937158823013306,-0.1593827307224274,10.75477600097656,76.32443237304688,-37.96858215332031
269205,0.079193115234375,0.19317626953125,-0.1048126220703125,-0.7040324807167053,-1.462295889854431,0.2658647000789642,10.23408508300781,76.28901672363281,-36.74716186523438
269206,0.079193115234375,0.19317626953125,-0.1048126220703125,-0.7040324807167053,-1.462295889854431,0.2658647000789642,10.23408508300781,76.28901672363281,-36.74716186523438
269207,0.067901611328125,0.1938018798828125,-0.1330108642578125,-0.2374338656663895,-0.6947745084762573,0.7040606737136841,9.610183715820312,76.71257019042969,-34.73626708984375
269208,0.0915985107421875,0.1611785888671875,-0.32550048828125,-0.1274405121803284,-0.9375549554824828,0.7752909064292908,9.56439208984375,76.96820068359375,-33.95970153808594
269209,0.1228790283203125,0.1190185546875,-0.4084320068359375,-0.0259690154343843,-1.423096656799316,0.8541271686553955,9.649169921875,77.25157165527344,-33.40728759765625
269210,0.20458984375,0.1529541015625,-0.258636474609375,-0.2155895531177521,-1.726388812065125,0.9762429594993592,9.802383422851562,77.85162353515625,-32.03895568847656
269211,0.20458984375,0.1529541015625,-0.258636474609375,-0.2155895531177521,-1.726388812065125,0.9762429594993592,9.802383422851562,77.85162353515625,-32.03895568847656
269212,0.2501373291015625,0.2413177490234375,-0.3023834228515625,-0.5412254333496094,-1.31533682346344,0.9309673309326172,9.732147216796877,78.16439819335938,-31.249755859375
269213,0.21136474609375,0.3503265380859375,-0.251007080078125,-0.5350295901298523,-0.9464211463928224,0.8897604942321777,9.837814331054688,78.45597839355469,-30.37762451171875
269214,0.1446685791015625,0.464996337890625,-0.1888580322265625,-0.3253653049468994,-0.7445207834243774,0.8649172186851501,9.88848876953125,78.83642578125,-29.51614379882812
269215,0.1040191650390625,0.584564208984375,-0.2167816162109375,-0.1264777779579163,-0.7114759683609009,0.8339454531669617,10.02616882324219,79.27577209472656,-28.91102600097656
269216,0.0780792236328125,0.70135498046875,-0.307647705078125,0.0369790568947792,-0.8254973888397217,0.7689619064331055,10.3033447265625,79.52534484863281,-28.3211669921875
269217,0.046478271484375,0.803466796875,-0.415313720703125,0.165257140994072,-0.994936227798462,0.6208161115646362,10.44129943847656,79.80477905273438,-27.75115966796875
269218,-0.0300750732421875,0.860626220703125,-0.4381866455078125,0.2686660885810852,-0.8698696494102478,0.2488590925931931,10.52244567871094,80.08270263671875,-27.43270874023438
269219,-0.0300750732421875,0.860626220703125,-0.4381866455078125,0.2686660885810852,-0.8698696494102478,0.2488590925931931,10.52244567871094,80.08270263671875,-27.43270874023438
269220,-0.26519775390625,0.8061981201171875,-0.400970458984375,0.2946300506591797,-0.7105084657669067,0.2007847726345062,10.47811889648438,80.48136901855469,-26.6922607421875
269221,-0.3083343505859375,0.8805084228515625,-0.3282318115234375,0.3260883688926697,-0.5074123740196228,0.1724497973918915,10.49517822265625,80.34503173828125,-26.31816101074219
269222,-0.329986572265625,1.015640258789062,-0.297271728515625,0.3576611876487732,-0.3022943437099457,0.1571755111217499,10.50416564941406,80.34712219238281,-26.07774353027344
269223,-0.3439178466796875,1.182449340820312,-0.2649078369140625,0.3646482825279236,-0.1433699429035187,0.1968209147453308,10.59283447265625,80.282958984375,-25.86849975585938
269224,-0.3807525634765625,1.376541137695312,-0.1472930908203125,0.3035210072994232,0.0723841860890388,0.2517680525779724,10.64152526855469,80.32437133789062,-25.87715148925781
269225,-0.46600341796875,1.588653564453125,0.0511016845703125,0.160423755645752,0.4672207236289978,0.2401835769414902,10.68740844726562,80.38169860839844,-25.83822631835938
269226,-0.609222412109375,1.860244750976562,0.1711273193359375,-0.0324476882815361,0.9802616238594056,0.1044992431998253,10.76382446289062,80.38020324707031,-26.0374755859375
269227,-0.609222412109375,1.860244750976562,0.1711273193359375,-0.0324476882815361,0.9802616238594056,0.1044992431998253,10.76382446289062,80.38020324707031,-26.0374755859375
269228,-1.115020751953125,2.909194946289062,0.2096099853515625,-0.0832080692052841,1.113006949424744,-0.8068816065788269,10.73629760742188,80.56341552734375,-26.68655395507812
269229,-1.410446166992188,3.447052001953125,0.185455322265625,0.206596851348877,1.0158451795578,-1.552687883377075,10.56784057617188,80.40757751464844,-27.10848999023438
269230,-1.917892456054688,3.5472412109375,0.2859954833984375,0.4762046337127686,1.418634176254272,-1.792356967926025,10.20773315429688,80.14222717285156,-27.83833312988281
269231,-1.917892456054688,3.5472412109375,0.2859954833984375,0.4762046337127686,1.418634176254272,-1.792356967926025,10.20773315429688,80.14222717285156,-27.83833312988281
269232,-2.423233032226562,3.05194091796875,-0.2144317626953125,0.1797764152288437,3.03605842590332,-0.0545884110033512,9.108230590820312,79.07014465332031,-30.0179443359375
269233,-2.064102172851562,2.347991943359375,0.2227783203125,0.3951539695262909,2.318743944168091,-0.2289697974920273,9.077423095703123,78.89877319335938,-31.53474426269531
269234,-1.945510864257812,1.738906860351562,0.5719757080078125,0.2825664579868317,2.04465651512146,-0.3609954714775085,9.33355712890625,78.95144653320312,-32.93753051757812
269235,-1.945510864257812,1.738906860351562,0.5719757080078125,0.2825664579868317,2.04465651512146,-0.3609954714775085,9.33355712890625,78.95144653320312,-32.93753051757812
269236,-1.933944702148438,1.101165771484375,0.2369232177734375,-0.0889732837677002,1.451974868774414,-0.3210355341434479,9.888015747070312,79.11557006835938,-35.09841918945312
269237,-1.795440673828125,0.7609100341796875,0.0825958251953125,-0.0415487736463546,0.8459006547927856,-0.2251241952180862,10.16958618164062,78.95820617675781,-35.94132995605469
269238,-1.438812255859375,0.58306884765625,0.058624267578125,0.0254286602139473,0.6510978937149048,-0.006605704780668,10.30191040039062,78.98802185058594,-36.6112060546875
269239,-1.438812255859375,0.58306884765625,0.058624267578125,0.0254286602139473,0.6510978937149048,-0.006605704780668,10.30191040039062,78.98802185058594,-36.6112060546875
269240,-0.83575439453125,0.6248931884765625,-0.020263671875,0.0484410338103771,0.7862160205841064,0.3201873302459717,10.75347900390625,79.11227416992188,-37.37600708007812
269241,-0.713775634765625,0.57183837890625,-0.0637054443359375,0.1161756068468094,0.6969245076179504,0.4257579743862152,11.1845703125,79.1363525390625,-37.58256530761719
269242,-0.6337127685546875,0.517547607421875,-0.098052978515625,0.201716348528862,0.5231636166572571,0.480247288942337,11.64677429199219,79.05960083007812,-37.57569885253906
269243,-0.5608367919921875,0.47900390625,-0.1446380615234375,0.2670402228832245,0.2947991490364075,0.4746003448963165,12.03764343261719,79.21673583984375,-37.93299865722656
269244,-0.509368896484375,0.468597412109375,-0.164154052734375,0.2988351583480835,0.1022137179970741,0.3998195827007294,12.31294250488281,79.31573486328125,-38.17808532714844
269245,-0.5155792236328125,0.5015869140625,-0.1196746826171875,0.3007007241249084,0.09268519282341,0.2358785718679428,12.69073486328125,79.41734313964844,-38.28640747070312
269246,-0.587371826171875,0.5643157958984375,-0.0828704833984375,0.5316292643547058,0.4440757036209106,-0.2041161209344864,12.84588623046875,79.42971801757812,-38.27653503417969
269247,-0.587371826171875,0.5643157958984375,-0.0828704833984375,0.5316292643547058,0.4440757036209106,-0.2041161209344864,12.84588623046875,79.42971801757812,-38.27653503417969
269248,-0.6868438720703125,0.5182647705078125,-0.16558837890625,0.9236755967140198,0.5467634797096252,-0.4858114421367645,13.17819213867188,79.2646484375,-38.51911926269531
269249,-0.615447998046875,0.4561309814453125,-0.1935577392578125,0.9236755967140198,0.5467634797096252,-0.4858114421367645,13.41995239257812,79.042236328125,-38.59112548828125
269250,-0.5370635986328125,0.40240478515625,-0.2158355712890625,0.9461002349853516,0.5287173390388489,-0.5461767911911011,13.64593505859375,78.74134826660156,-38.93026733398438
269251,-0.467742919921875,0.3452301025390625,-0.2254638671875,0.9044702053070068,0.4306299388408661,-0.5465304255485535,13.74966430664062,78.33428955078125,-39.22483825683594
269252,-0.4274444580078125,0.3020172119140625,-0.188201904296875,0.6942341327667236,0.0763799920678138,-0.5031494498252869,13.79377746582031,77.84642028808594,-39.54428100585938
269253,-0.4080963134765625,0.24420166015625,-0.1286163330078125,0.6942341327667236,0.0763799920678138,-0.5031494498252869,13.90312194824219,77.41993713378906,-39.88607788085938
269254,-0.38507080078125,0.0965118408203125,-0.0649261474609375,0.4702487289905548,-0.1400303393602371,-0.4881627559661865,13.78036499023438,76.59454345703125,-40.87199401855469
269255,-0.38507080078125,0.0965118408203125,-0.0649261474609375,0.4702487289905548,-0.1400303393602371,-0.4881627559661865,13.78036499023438,76.59454345703125,-40.87199401855469
269256,-0.345367431640625,0.04150390625,-0.0655670166015625,0.3527093231678009,-0.3047676384449005,-0.3593725562095642,13.61651611328125,76.41787719726562,-41.24674987792969
269257,-0.3057098388671875,0.031036376953125,-0.0117340087890625,0.3527093231678009,-0.3047676384449005,-0.3593725562095642,13.55345153808594,76.17738342285156,-41.31295776367188
269258,-0.2680816650390625,0.09429931640625,0.065185546875,0.2874727845191956,-0.3570894300937653,-0.2780545353889465,13.43319702148438,75.82325744628906,-41.2647705078125
269259,-0.2680816650390625,0.09429931640625,0.065185546875,0.2874727845191956,-0.3570894300937653,-0.2780545353889465,13.43319702148438,75.82325744628906,-41.2647705078125
269260,-0.2372894287109375,0.3094329833984375,0.2655487060546875,0.1221722513437271,-0.1910221576690674,0.009809753857553,12.98736572265625,75.48190307617188,-41.27349853515625
269261,-0.279449462890625,0.4935455322265625,0.2844085693359375,-0.0037329527549445,-0.0151904048398137,0.1157910451292992,12.77091979980469,75.41915893554688,-41.20228576660156
269262,-0.3167724609375,0.6475830078125,0.2354583740234375,-0.0839721336960792,0.0084022730588912,0.1541951596736908,12.60496520996094,75.39768981933594,-41.13241577148438
269263,-0.3167724609375,0.6475830078125,0.2354583740234375,-0.0839721336960792,0.0084022730588912,0.1541951596736908,12.60496520996094,75.39768981933594,-41.13241577148438
269264,-0.5686187744140625,0.9971923828125,0.2591400146484375,-0.1148336380720139,-0.4085856378078461,0.050434410572052,12.19845581054688,75.56794738769531,-41.40718078613281
269265,-0.70550537109375,1.107162475585938,0.30401611328125,-0.0977262929081916,-0.6996443867683411,-0.2071478515863419,12.12942504882812,75.76109313964844,-41.46697998046875
269266,-0.7537078857421875,0.9282379150390624,0.3118133544921875,-0.2058413177728653,-1.371276021003723,-0.5935757160186768,12.02015686035156,75.92601013183594,-41.37631225585938
269267,-0.709381103515625,0.635223388671875,0.323577880859375,-0.3845745623111725,-1.532116055488586,-0.6341029405593872,11.776611328125,76.00271606445312,-41.32333374023438
269268,-0.6067047119140625,0.419525146484375,0.282440185546875,-0.3845745623111725,-1.532116055488586,-0.6341029405593872,11.5631103515625,75.97747802734375,-41.01185607910156
269269,-0.480010986328125,0.2490997314453125,0.2015380859375,-0.4736421406269073,-1.672116279602051,-0.6031343340873718,11.14395141601562,75.77622985839844,-40.47038269042969
269270,-0.370635986328125,0.144317626953125,0.16162109375,-0.4375560283660889,-1.815449953079224,-0.4885286688804626,10.66279602050781,75.74710083007812,-39.75990295410156
269271,-0.370635986328125,0.144317626953125,0.16162109375,-0.4375560283660889,-1.815449953079224,-0.4885286688804626,10.66279602050781,75.74710083007812,-39.75990295410156
269272,-0.202545166015625,0.012451171875,0.05413818359375,-0.4044649302959442,-1.8221595287323,-0.4016648828983307,9.699554443359377,75.52978515625,-38.35064697265625
269273,-0.1235504150390625,-0.0403289794921875,-0.0356903076171875,-0.3754258155822754,-1.817549586296082,-0.3017278909683228,9.25482177734375,75.40711975097656,-37.51522827148438
269274,-0.0435638427734375,-0.07806396484375,-0.1786041259765625,-0.2818663120269775,-1.889701366424561,-0.1795543134212494,8.919708251953125,75.306396484375,-36.53858947753906
269275,-0.0435638427734375,-0.07806396484375,-0.1786041259765625,-0.2818663120269775,-1.889701366424561,-0.1795543134212494,8.919708251953125,75.306396484375,-36.53858947753906
269276,0.057464599609375,-0.0259552001953125,-0.23724365234375,0.0886196121573448,-1.735213756561279,0.2139735370874405,8.157394409179688,74.99861145019531,-34.62387084960938
269277,0.06451416015625,0.043792724609375,-0.1953887939453125,0.2007477432489395,-1.338025331497192,0.3420801162719727,7.816497802734375,74.94493103027344,-33.63046264648438
269278,0.0736236572265625,0.108917236328125,-0.1578216552734375,0.2738933265209198,-0.971480131149292,0.4192073941230774,7.650070190429688,74.99295043945312,-32.88836669921875
269279,0.0736236572265625,0.108917236328125,-0.1578216552734375,0.2738933265209198,-0.971480131149292,0.4192073941230774,7.650070190429688,74.99295043945312,-32.88836669921875
269280,0.08111572265625,0.164398193359375,-0.0815582275390625,0.2124142646789551,-0.6418388485908508,0.3883506655693054,7.535110473632812,75.34532165527344,-31.64491271972656
269281,0.1147918701171875,0.1450958251953125,-0.093780517578125,0.1311393827199936,-0.8029038906097412,0.4702788293361664,7.753982543945312,75.32839965820312,-31.17100524902344
269282,0.163360595703125,0.134246826171875,-0.11737060546875,0.0696057081222534,-1.146931052207947,0.6708444356918335,8.050827026367188,75.33543395996094,-30.83905029296875
269283,0.163360595703125,0.134246826171875,-0.11737060546875,0.0696057081222534,-1.146931052207947,0.6708444356918335,8.050827026367188,75.33543395996094,-30.83905029296875
269284,0.124237060546875,0.3614654541015625,-0.2278900146484375,0.2332188785076141,-1.975786924362183,1.291757702827454,8.261199951171875,75.447265625,-29.77462768554688
269285,-0.00323486328125,0.60723876953125,-0.364105224609375,0.6535096168518066,-2.151064157485962,1.218590021133423,8.264328002929688,75.67556762695312,-28.853759765625
269286,-0.10906982421875,0.8566436767578125,-0.4424285888671875,1.125540256500244,-1.831960320472717,0.9454520344734192,8.32000732421875,76.04331970214844,-27.77410888671875
269287,-0.10906982421875,0.8566436767578125,-0.4424285888671875,1.125540256500244,-1.831960320472717,0.9454520344734192,8.32000732421875,76.04331970214844,-27.77410888671875
269288,-0.391265869140625,1.193115234375,-0.709991455078125,0.7598155736923218,0.6226209402084351,0.878002941608429,8.269622802734375,76.55763244628906,-26.15475463867188
269289,-0.4491729736328125,1.421798706054688,-0.72076416015625,0.102817989885807,1.160772800445557,1.123137831687927,8.254867553710938,76.59501647949219,-25.84687805175781
269290,-0.5479278564453125,1.684494018554688,-0.49859619140625,-0.6692627668380737,0.8349569439888,0.964000642299652,8.413009643554688,76.92294311523438,-26.05180358886719
269291,-0.5479278564453125,1.684494018554688,-0.49859619140625,-0.6692627668380737,0.8349569439888,0.964000642299652,8.413009643554688,76.92294311523438,-26.05180358886719
269292,-0.859405517578125,2.178329467773438,-0.275604248046875,-0.7693350315093994,-0.2117364853620529,-0.6289025545120239,9.148574829101562,77.61827087402344,-26.63067626953125
269293,-0.897613525390625,2.323410034179688,-0.0771331787109375,0.2775469124317169,-0.1871033161878586,-1.122502207756042,9.497833251953123,77.87625122070312,-26.58049011230469
269294,-0.8871307373046875,2.254852294921875,0.0420989990234375,1.07707691192627,0.4628693759441376,-1.053382515907288,9.531539916992188,77.94544982910156,-26.49929809570312
269295,-0.8871307373046875,2.254852294921875,0.0420989990234375,1.07707691192627,0.4628693759441376,-1.053382515907288,9.531539916992188,77.94544982910156,-26.49929809570312
269296,-0.838592529296875,1.690155029296875,-0.350830078125,0.4100325405597687,1.365759253501892,0.7104206085205078,8.909637451171875,77.13330078125,-27.16532897949219
269297,-0.466766357421875,1.803863525390625,-0.4293365478515625,-0.0185790099203586,1.0445237159729,1.273789167404175,8.655654907226562,76.64373779296875,-27.93754577636719
269298,-0.4095306396484375,1.958206176757812,-0.285888671875,0.3715392053127289,0.3004887104034424,1.162521958351135,8.7701416015625,76.74330139160156,-28.83021545410156
269299,-0.6407012939453125,2.081390380859375,-0.125885009765625,0.3715392053127289,0.3004887104034424,1.162521958351135,8.986495971679688,77.26507568359375,-29.54579162597656
269300,-0.91766357421875,2.303802490234375,-0.113128662109375,0.5438920855522156,0.4971104264259338,1.0409175157547,9.159393310546877,77.79429626464844,-29.82698059082031
269301,-1.25653076171875,2.585525512695312,-0.0373077392578125,0.3246158957481384,0.9011748433113098,0.7314574122428894,9.383987426757812,78.25189208984375,-30.10787963867188
269302,-1.559051513671875,2.795791625976562,0.209564208984375,-0.0273487996309995,1.503417253494263,0.1475985050201416,9.469589233398438,78.63307189941406,-30.30361938476562
269303,-1.559051513671875,2.795791625976562,0.209564208984375,-0.0273487996309995,1.503417253494263,0.1475985050201416,9.469589233398438,78.63307189941406,-30.30361938476562
269304,-1.956695556640625,2.829925537109375,0.3409881591796875,-0.2414461821317673,2.562865257263184,-1.527891993522644,9.721099853515623,79.37934875488281,-31.69483947753906
269305,-2.165115356445312,2.163787841796875,0.171112060546875,-0.2130638062953949,2.235714912414551,-2.057232618331909,9.653106689453123,79.392578125,-32.63441467285156
269306,-2.156707763671875,1.045562744140625,0.1298980712890625,-0.3903208673000336,1.78048300743103,-1.603087186813354,9.620697021484377,79.2176513671875,-33.64100646972656
269307,-1.764572143554688,0.4218292236328125,0.066009521484375,-0.5184756517410278,1.132463216781616,-0.6371008157730103,9.538864135742188,78.83119201660156,-34.90119934082031
269308,-1.230255126953125,0.489288330078125,0.0802154541015625,-0.5167264938354492,0.4080982804298401,-0.136154904961586,9.483291625976562,78.38728332519531,-35.98249816894531
269309,-0.93682861328125,0.6310882568359375,0.124603271484375,-0.4614890515804291,-0.1414253115653992,0.0779661685228347,9.3509521484375,78.15374755859375,-36.46080017089844
269310,-0.76763916015625,0.652587890625,0.0517425537109375,-0.3107394874095917,-0.3558941781520844,0.1767998039722443,9.345245361328123,78.20303344726562,-36.61390686035156
269311,-0.651123046875,0.636566162109375,-0.1314239501953125,0.0440175235271453,-0.3878678381443024,0.224113255739212,9.297698974609377,78.33819580078125,-36.53280639648438
269312,-0.59039306640625,0.6591644287109375,-0.19232177734375,0.4419249594211578,-0.1391730755567551,0.1906807273626328,9.228622436523438,78.49868774414062,-36.31169128417969
269313,-0.5691680908203125,0.7423095703125,-0.16839599609375,0.610670268535614,0.32352215051651,0.050617903470993,9.192520141601562,78.59324645996094,-36.23170471191406
269314,-0.6107330322265625,0.772979736328125,-0.1678009033203125,0.6734505891799927,0.5589429140090942,-0.1615532040596008,9.296920776367188,78.57307434082031,-35.97401428222656
269315,-0.6107330322265625,0.772979736328125,-0.1678009033203125,0.6734505891799927,0.5589429140090942,-0.1615532040596008,9.296920776367188,78.57307434082031,-35.97401428222656
269316,-0.5749359130859375,0.668701171875,-0.06201171875,0.961980640888214,0.3231777846813202,-0.3466261327266693,9.730270385742188,78.48170471191406,-36.37782287597656
269317,-0.500732421875,0.61505126953125,-0.0390167236328125,1.031761884689331,0.1736234575510025,-0.3820477724075317,10.01678466796875,78.19369506835938,-36.73809814453125
269318,-0.41015625,0.48162841796875,-0.0022430419921875,1.081731557846069,0.0784460753202438,-0.4177263975143433,10.32835388183594,76.94746398925781,-37.78564453125
269319,-0.41015625,0.48162841796875,-0.0022430419921875,1.081731557846069,0.0784460753202438,-0.4177263975143433,10.32835388183594,76.94746398925781,-37.78564453125
269320,-0.3828277587890625,0.4042510986328125,-0.0109100341796875,1.09773576259613,0.0369289889931678,-0.4307745695114136,10.34709167480469,76.5250244140625,-38.00051879882812
269321,-0.3634796142578125,0.3113250732421875,-0.0046234130859375,1.079670310020447,-0.0168077424168586,-0.4298374056816101,10.34559631347656,76.15037536621094,-38.28218078613281
269322,-0.3741455078125,0.2393035888671875,0.0645904541015625,1.00322151184082,-0.0078043933026492,-0.4494939148426056,10.28237915039062,75.70603942871094,-38.57632446289062
269323,-0.3741455078125,0.2393035888671875,0.0645904541015625,1.00322151184082,-0.0078043933026492,-0.4494939148426056,10.28237915039062,75.70603942871094,-38.57632446289062
269324,-0.357940673828125,0.0393524169921875,0.0015411376953125,0.8763307332992554,-0.0304202232509851,-0.6008338928222656,10.31480407714844,74.96354675292969,-38.93449401855469
269325,-0.3274078369140625,-0.050018310546875,0.024749755859375,0.8896193504333496,-0.1261829733848572,-0.5562443137168884,10.32809448242188,74.59503173828125,-39.204833984375
269326,-0.29681396484375,-0.0295562744140625,0.069427490234375,0.8565969467163086,-0.15525883436203,-0.5809592604637146,10.30825805664062,74.19488525390625,-39.41567993164062
269327,-0.29681396484375,-0.0295562744140625,0.069427490234375,0.8565969467163086,-0.15525883436203,-0.5809592604637146,10.30825805664062,74.19488525390625,-39.41567993164062
269328,-0.1924285888671875,0.0453643798828125,0.1938323974609375,0.6656177043914795,0.0338208153843879,-0.4781751036643982,10.11189270019531,73.37763977050781,-39.68328857421875
269329,-0.1856842041015625,0.1740264892578125,0.2898101806640625,0.5513010025024414,0.1429134756326675,-0.3710534274578094,10.06488037109375,73.01858520507812,-39.72517395019531
269330,-0.2301025390625,0.370361328125,0.382293701171875,0.4098924398422241,0.2468883395195007,-0.2687385082244873,9.930038452148438,72.87217712402344,-40.18740844726562
269331,-0.2301025390625,0.370361328125,0.382293701171875,0.4098924398422241,0.2468883395195007,-0.2687385082244873,9.930038452148438,72.87217712402344,-40.18740844726562
269332,-0.5608062744140625,0.833984375,0.533843994140625,0.0870283767580986,0.0008349010022357,-0.2915341258049011,9.86334228515625,72.61164855957031,-40.52284240722656
269333,-0.7816619873046875,1.02044677734375,0.6157989501953125,-0.0774369984865188,-0.2902081310749054,-0.5173088908195496,9.789657592773438,72.45382690429688,-40.68901062011719
269334,-0.958099365234375,0.969482421875,0.6650543212890625,-0.187414363026619,-0.7050500512123108,-0.7718557119369507,9.675338745117188,72.37284851074219,-40.8592529296875
269335,-1.06463623046875,0.7588348388671875,0.71124267578125,-0.4128911793231964,-1.55227267742157,-0.8534978628158569,9.569580078125,72.03150939941406,-40.77110290527344
269336,-0.988616943359375,0.513153076171875,0.70965576171875,-0.4128911793231964,-1.55227267742157,-0.8534978628158569,9.433700561523438,71.68058776855469,-40.40652465820312
269337,-0.826141357421875,0.31890869140625,0.697845458984375,-0.506368100643158,-1.890379667282104,-0.7322499752044678,9.226028442382812,71.58200073242188,-39.967529296875
269338,-0.6531219482421875,0.210418701171875,0.626312255859375,-0.5998847484588623,-1.981396079063416,-0.5612438917160034,8.738510131835938,71.40948486328125,-39.03927612304688
269339,-0.6531219482421875,0.210418701171875,0.626312255859375,-0.5998847484588623,-1.981396079063416,-0.5612438917160034,8.738510131835938,71.40948486328125,-39.03927612304688
269340,-0.392669677734375,0.1361846923828125,0.3016204833984375,-0.734922468662262,-1.768060684204102,-0.3352738618850708,7.62005615234375,71.35238647460938,-37.54881286621094
269341,-0.302398681640625,0.0862579345703125,0.146881103515625,-0.7532897591590881,-1.660519242286682,-0.2804673314094543,7.073028564453125,71.34028625488281,-36.58790588378906
269342,-0.20416259765625,0.01776123046875,-0.142364501953125,-0.7102653384208679,-1.738849282264709,-0.2148462533950806,6.580947875976562,71.20820617675781,-35.66374206542969
269343,-0.20416259765625,0.01776123046875,-0.142364501953125,-0.7102653384208679,-1.738849282264709,-0.2148462533950806,6.580947875976562,71.20820617675781,-35.66374206542969
269344,0.033782958984375,-0.1262664794921875,-0.5602874755859375,-0.1377647966146469,-2.880098819732666,0.2497325986623764,5.812393188476562,71.35502624511719,-33.68276977539062
269345,0.060699462890625,-0.0951995849609375,-0.305511474609375,-0.0347659699618816,-2.500632762908936,0.4882639646530151,5.513870239257812,71.33235168457031,-32.31155395507812
269346,0.07818603515625,-0.023834228515625,-0.2153472900390625,0.023829698562622,-1.799234867095947,0.6391645073890686,5.300567626953125,71.40998840332031,-31.02244567871094
269347,0.07818603515625,-0.023834228515625,-0.2153472900390625,0.023829698562622,-1.799234867095947,0.6391645073890686,5.300567626953125,71.40998840332031,-31.02244567871094
269348,0.1389312744140625,0.0413970947265625,-0.2100830078125,0.2484239190816879,-0.9589883089065552,0.8247674107551575,5.294525146484375,71.84112548828125,-28.82696533203125
269349,0.1728057861328125,0.0364532470703125,-0.29644775390625,0.3540539443492889,-0.936811625957489,0.9926352500915528,5.588134765625,72.02989196777344,-28.12435913085938
269350,0.2142181396484375,0.0672149658203125,-0.3941802978515625,0.4132275283336639,-1.544447302818298,1.345439076423645,5.764068603515625,72.19209289550781,-27.29576110839844
269351,0.2142181396484375,0.0672149658203125,-0.3941802978515625,0.4132275283336639,-1.544447302818298,1.345439076423645,5.764068603515625,72.19209289550781,-27.29576110839844
269352,0.263946533203125,0.3017425537109375,-0.495819091796875,0.2628737092018127,-1.569637894630432,1.345337390899658,6.125259399414062,73.14474487304688,-25.81480407714844
269353,0.199676513671875,0.495330810546875,-0.4871063232421875,-0.0033651704434305,-1.078771948814392,1.100015759468079,6.275238037109375,73.49034118652344,-25.01286315917969
269354,0.043701171875,0.647186279296875,-0.456787109375,0.0560960248112678,-0.5514692664146423,0.7731731534004211,6.383926391601562,74.04534912109375,-24.40312194824219
269355,0.043701171875,0.647186279296875,-0.456787109375,0.0560960248112678,-0.5514692664146423,0.7731731534004211,6.383926391601562,74.04534912109375,-24.40312194824219
269356,-0.2578125,0.9088592529296876,-0.75592041015625,1.222244143486023,-0.1926725059747696,-0.0038778288289904,6.628097534179688,74.49012756347656,-23.61412048339844
269357,-0.4016876220703125,1.03271484375,-1.00103759765625,1.222244143486023,-0.1926725059747696,-0.0038778288289904,6.71112060546875,74.61766052246094,-23.51028442382812
269358,-0.5038604736328125,1.218460083007812,-1.0338134765625,1.045851826667786,0.7229257225990295,0.2362229228019714,6.622543334960938,74.58700561523438,-23.45632934570312
269359,-0.5038604736328125,1.218460083007812,-1.0338134765625,1.045851826667786,0.7229257225990295,0.2362229228019714,6.622543334960938,74.58700561523438,-23.45632934570312
269360,-0.5980987548828125,1.431686401367188,-0.212371826171875,0.0893503874540329,1.375139951705933,0.2703745067119598,6.627716064453125,74.36412048339844,-23.89036560058594
269361,-0.8607940673828125,1.79083251953125,-0.1898651123046875,-0.7256083488464355,1.461601376533508,-0.4214556217193604,6.704666137695312,74.29653930664062,-24.26795959472656
269362,-1.135665893554688,2.440414428710938,-0.3756256103515625,-0.7428725361824036,0.6683269143104553,-1.662679314613342,6.751617431640625,74.25633239746094,-24.85433959960938
269363,-1.135665893554688,2.440414428710938,-0.3756256103515625,-0.7428725361824036,0.6683269143104553,-1.662679314613342,6.751617431640625,74.25633239746094,-24.85433959960938
269364,-1.720794677734375,2.820159912109375,0.4166107177734375,-0.0798586159944534,1.211803555488586,-2.174004077911377,6.23175048828125,73.43363952636719,-25.78549194335938
269365,-2.114120483398438,2.8927001953125,-0.0549468994140625,-0.4441782534122467,2.442252159118652,-0.1161348596215248,5.666519165039062,72.47483825683594,-26.33824157714844
269366,-1.749908447265625,2.981781005859375,-0.32489013671875,-0.0001701759902061,1.555279731750488,1.344922184944153,5.3935546875,71.78166198730469,-27.49189758300781
269367,-1.094940185546875,2.588836669921875,0.06005859375,0.7269670963287354,0.467203676700592,1.309749841690063,5.599136352539062,71.71614074707031,-28.62399291992188
269368,-0.8589324951171875,2.250961303710938,0.1517486572265625,0.9576466083526612,0.2681347727775574,1.15783429145813,5.834426879882812,72.19613647460938,-29.5177001953125
269369,-0.9424896240234376,2.286468505859375,0.0598907470703125,1.04972517490387,0.5194128155708313,0.8965404033660889,5.845733642578125,72.78256225585938,-29.87527465820312
269370,-1.296707153320312,2.350128173828125,0.023101806640625,1.214963912963867,0.8042634725570679,0.3663977086544037,5.918914794921875,73.11904907226562,-30.28656005859375
269371,-1.296707153320312,2.350128173828125,0.023101806640625,1.214963912963867,0.8042634725570679,0.3663977086544037,5.918914794921875,73.11904907226562,-30.28656005859375
269372,-1.6317138671875,2.103042602539062,0.18121337890625,1.132767558097839,0.884055495262146,-0.6109781265258789,6.2357177734375,73.57965087890625,-31.63554382324219
269373,-1.54193115234375,1.67431640625,0.097930908203125,0.8250422477722168,0.679858386516571,-0.8609980940818787,6.397109985351562,73.3592529296875,-32.34910583496094
269374,-1.224807739257812,0.70306396484375,0.192657470703125,0.4669661223888397,0.0502392016351223,-0.6057205200195312,6.580764770507812,72.61326599121094,-33.45439147949219
269375,-1.224807739257812,0.70306396484375,0.192657470703125,0.4669661223888397,0.0502392016351223,-0.6057205200195312,6.580764770507812,72.61326599121094,-33.45439147949219
269376,-1.069717407226562,0.38458251953125,0.2281494140625,0.3478469252586365,-0.0365031510591507,-0.2848003208637238,6.676727294921875,72.32780456542969,-33.84332275390625
269377,-0.9336090087890624,0.1952972412109375,0.1489715576171875,0.3584851920604706,-0.2315988689661026,-0.0064094299450516,6.674346923828125,72.10713195800781,-34.0390625
269378,-0.85784912109375,0.077178955078125,0.07757568359375,0.465153306722641,-0.422111302614212,0.238984078168869,6.622146606445312,72.12846374511719,-34.24870300292969
269379,-0.85784912109375,0.077178955078125,0.07757568359375,0.465153306722641,-0.422111302614212,0.238984078168869,6.622146606445312,72.12846374511719,-34.24870300292969
269380,-0.8805084228515625,0.223480224609375,-0.013671875,0.7715752720832825,-0.2847997844219208,0.2754398286342621,6.618011474609375,72.16119384765625,-34.11941528320312
269381,-0.963104248046875,0.6002197265625,-0.0208587646484375,0.7278648018836975,0.2043787091970444,-0.0153201008215546,6.643524169921875,72.17170715332031,-33.94415283203125
269382,-0.96478271484375,0.8721771240234375,-0.04302978515625,0.861411452293396,0.8156405091285706,-0.4268994033336639,6.792343139648438,72.09649658203125,-33.95053100585938
269383,-0.96478271484375,0.8721771240234375,-0.04302978515625,0.861411452293396,0.8156405091285706,-0.4268994033336639,6.792343139648438,72.09649658203125,-33.95053100585938
269384,-0.763275146484375,0.7221221923828125,0.0772552490234375,1.050314545631409,0.9196539521217346,-0.5167206525802612,7.16156005859375,71.59454345703125,-34.49052429199219
269385,-0.6199951171875,0.584320068359375,0.028167724609375,1.156679272651672,0.8556523323059082,-0.48790442943573,7.417724609375,71.24501037597656,-34.98272705078125
269386,-0.476531982421875,0.405120849609375,-0.0609588623046875,1.200619101524353,0.3412651717662811,-0.2024987787008286,7.516891479492188,70.75358581542969,-35.57720947265625
269387,-0.476531982421875,0.405120849609375,-0.0609588623046875,1.200619101524353,0.3412651717662811,-0.2024987787008286,7.516891479492188,70.75358581542969,-35.57720947265625
269388,-0.260589599609375,0.2257843017578125,-0.0962371826171875,1.132781744003296,0.0713740512728691,-0.1041532978415489,7.616012573242188,69.98387145996094,-36.51861572265625
269389,-0.19390869140625,0.1829986572265625,-0.060943603515625,1.003542423248291,-0.1571392863988876,-0.0544248931109905,7.628890991210938,69.67156982421875,-36.83815002441406
269390,-0.1490631103515625,0.1463470458984375,-0.0039825439453125,0.6523378491401672,-0.4437694549560547,-0.1124083027243614,7.715713500976562,69.47140502929688,-37.07514953613281
269391,-0.1266632080078125,0.1293792724609375,0.009674072265625,0.6523378491401672,-0.4437694549560547,-0.1124083027243614,7.677459716796875,69.19354248046875,-37.18360900878906
269392,-0.099151611328125,0.11566162109375,-0.0342559814453125,0.5097455382347107,-0.6209557056427002,-0.179939940571785,7.626754760742188,68.94245910644531,-37.02867126464844
269393,-0.07440185546875,0.119140625,-0.0677490234375,0.4061610996723175,-0.9073943495750428,-0.2036575227975845,7.507614135742188,68.77850341796875,-36.98953247070312
269394,-0.086578369140625,0.1892852783203125,-0.0082244873046875,0.2867574691772461,-1.125326156616211,-0.2237497419118881,7.341934204101562,68.68037414550781,-36.79290771484375
269395,-0.086578369140625,0.1892852783203125,-0.0082244873046875,0.2867574691772461,-1.125326156616211,-0.2237497419118881,7.341934204101562,68.68037414550781,-36.79290771484375
269396,-0.2326202392578125,0.4019622802734375,0.215484619140625,0.0342367999255657,-1.100520372390747,-0.2445016205310822,6.936721801757812,68.41024780273438,-36.09796142578125
269397,-0.2879638671875,0.4664306640625,0.3503570556640625,0.0178154818713665,-0.8935807943344116,-0.158958226442337,6.616714477539062,68.32688903808594,-35.69058227539062
269398,-0.3887176513671875,0.574066162109375,0.445770263671875,0.1263030767440796,-0.3918753564357758,-0.2228101789951324,6.359405517578125,68.2432861328125,-35.2840576171875
269399,-0.3887176513671875,0.574066162109375,0.445770263671875,0.1263030767440796,-0.3918753564357758,-0.2228101789951324,6.359405517578125,68.2432861328125,-35.2840576171875
269400,-0.7021942138671875,0.728973388671875,0.51513671875,0.160626158118248,-0.2976844012737274,-0.3546933829784393,6.036590576171875,68.305908203125,-34.81752014160156
269401,-0.8563232421875,0.745513916015625,0.4977264404296875,0.136114165186882,-0.3959324359893799,-0.5156660079956055,5.921951293945312,68.21240234375,-34.56881713867188
269402,-0.9700775146484376,0.6598968505859375,0.4703369140625,0.0228605754673481,-0.6107392907142639,-0.659909725189209,5.8382568359375,68.04391479492188,-34.52781677246094
269403,-0.9700775146484376,0.6598968505859375,0.4703369140625,0.0228605754673481,-0.6107392907142639,-0.659909725189209,5.8382568359375,68.04391479492188,-34.52781677246094
269404,-0.886383056640625,0.3065032958984375,0.3648223876953125,-0.4459889233112335,-1.153697609901428,-0.8935134410858154,5.456741333007812,67.90576171875,-34.40155029296875
269405,-0.79559326171875,0.1460113525390625,0.332977294921875,-0.6611523628234863,-1.453371405601501,-0.9568926692008972,5.164215087890625,67.66007995605469,-34.00755310058594
269406,-0.7320709228515625,0.0077972412109375,0.292022705078125,-0.8895514607429504,-1.500018239021301,-0.8935206532478333,4.780868530273438,67.37728881835938,-33.6480712890625
269407,-0.7320709228515625,0.0077972412109375,0.292022705078125,-0.8895514607429504,-1.500018239021301,-0.8935206532478333,4.780868530273438,67.37728881835938,-33.6480712890625
269408,-0.4666290283203125,-0.082550048828125,-0.392242431640625,-0.7573185563087463,-2.316998958587646,-0.6559062004089355,3.6795654296875,67.12176513671875,-32.21980285644531
269409,-0.2996063232421875,-0.009124755859375,-0.3086700439453125,-0.4489719271659851,-2.470939874649048,-0.4657546579837799,3.154296875,66.96577453613281,-31.00534057617188
269410,-0.17108154296875,0.124298095703125,-0.14654541015625,0.2634036839008331,-1.421012997627258,-0.2408842444419861,2.661117553710938,66.80659484863281,-29.95916748046875
269411,-0.17108154296875,0.124298095703125,-0.14654541015625,0.2634036839008331,-1.421012997627258,-0.2408842444419861,2.661117553710938,66.80659484863281,-29.95916748046875
269412,-0.053924560546875,0.20257568359375,-0.01226806640625,0.589888870716095,-1.017510175704956,-0.0807758048176765,2.092208862304688,66.30551147460938,-27.82331848144531
269413,-0.04425048828125,0.2559814453125,-0.05438232421875,0.589888870716095,-1.017510175704956,-0.0807758048176765,2.155380249023438,66.0711669921875,-27.03543090820312
269414,-0.01922607421875,0.306793212890625,-0.163848876953125,0.5455656051635742,-1.175304412841797,-0.0709354281425476,2.207855224609375,65.83511352539062,-26.52786254882812
269415,-0.01922607421875,0.306793212890625,-0.163848876953125,0.5455656051635742,-1.175304412841797,-0.0709354281425476,2.207855224609375,65.83511352539062,-26.52786254882812
269416,0.15643310546875,0.25079345703125,-0.3454437255859375,0.4469876289367676,-2.172791242599487,0.4807985723018646,2.413711547851562,65.41860961914062,-25.40615844726562
269417,0.1905975341796875,0.290802001953125,-0.291259765625,0.5432726144790649,-2.468055725097656,1.003021001815796,2.4677734375,65.3538818359375,-24.53239440917969
269418,0.128753662109375,0.430145263671875,-0.1952972412109375,0.7459514141082764,-2.327631711959839,1.414038181304932,2.371551513671875,65.50433349609375,-23.45249938964844
269419,0.128753662109375,0.430145263671875,-0.1952972412109375,0.7459514141082764,-2.327631711959839,1.414038181304932,2.371551513671875,65.50433349609375,-23.45249938964844
269420,0.0102081298828125,0.6999969482421875,-0.2162017822265625,1.02827787399292,-1.290005087852478,1.379572868347168,2.428970336914062,66.17060852050781,-20.95387268066406
269421,-0.005096435546875,0.775482177734375,-0.3684539794921875,0.9761156439781188,-0.7167072296142578,1.102169990539551,2.537155151367188,66.60389709472656,-19.94038391113281
269422,-0.10064697265625,0.866485595703125,-0.6269073486328125,0.9482480883598328,-0.4393555223941803,0.7700487375259399,2.685211181640625,67.14535522460938,-19.1009521484375
269423,-0.3157958984375,1.0166015625,-1.022293090820312,1.118262410163879,-0.5149850249290466,0.4646864533424377,2.855804443359375,67.61888122558594,-18.52601623535156
269424,-0.541229248046875,1.2789306640625,-1.25921630859375,1.380509495735168,-0.3311843276023865,0.3689663112163544,3.015380859375,67.88700866699219,-18.15538024902344
269425,-0.6990966796875,1.52734375,-1.110061645507812,1.268302798271179,0.5450420379638672,0.477558046579361,3.030319213867188,67.967041015625,-17.93603515625
269426,-1.127960205078125,2.023086547851562,-0.6875762939453125,0.4974531829357147,-0.2721782624721527,-2.105411767959595,2.930648803710938,68.31111145019531,-18.14469909667969
269427,-1.127960205078125,2.023086547851562,-0.6875762939453125,0.4974531829357147,-0.2721782624721527,-2.105411767959595,2.930648803710938,68.31111145019531,-18.14469909667969
269428,-1.321823120117188,2.391143798828125,-0.62652587890625,0.4974531829357147,-0.2721782624721527,-2.105411767959595,2.939910888671875,68.36814880371094,-18.5364990234375
269429,-1.471527099609375,2.208465576171875,-0.143402099609375,1.176751255989075,0.2530365288257599,-2.511908769607544,2.934555053710938,68.07405090332031,-19.06016540527344
269430,-1.622039794921875,1.558059692382812,-0.24053955078125,1.047385811805725,2.247357368469238,0.3079735338687897,2.679290771484375,67.19126892089844,-19.46357727050781
269431,-1.622039794921875,1.558059692382812,-0.24053955078125,1.047385811805725,2.247357368469238,0.3079735338687897,2.679290771484375,67.19126892089844,-19.46357727050781
269432,-0.7625732421875,1.040725708007812,-0.3065338134765625,0.92777019739151,1.535591721534729,1.121817946434021,2.378250122070312,65.42642211914062,-21.31600952148438
269433,-0.5347747802734375,1.1522216796875,-0.243316650390625,0.7193722724914551,0.76741623878479,1.515942335128784,2.6334228515625,65.32553100585938,-22.65200805664062
269434,-0.4124298095703125,1.345138549804688,-0.306427001953125,0.4000121057033539,0.1658070832490921,1.786579728126526,2.890335083007812,65.6861572265625,-23.76884460449219
269435,-0.4395599365234375,1.728164672851562,-0.3874664306640625,0.2362431585788727,-0.3635883331298828,1.808919668197632,3.04046630859375,66.36395263671875,-24.37239074707031
269436,-0.7649688720703125,2.199234008789062,-0.264984130859375,0.3048501908779144,-0.5975710153579712,1.540247678756714,3.181106567382812,67.16438293457031,-24.65138244628906
269437,-1.30609130859375,2.52923583984375,0.052520751953125,0.5040229558944702,-0.1656291782855988,1.047081470489502,3.099472045898438,68.16897583007812,-24.54647827148438
269438,-1.698501586914062,2.635848999023438,0.336334228515625,0.7302078604698181,0.666172444820404,0.4032992720603943,2.951126098632812,68.97160339355469,-24.48434448242188
269439,-1.698501586914062,2.635848999023438,0.336334228515625,0.7302078604698181,0.666172444820404,0.4032992720603943,2.951126098632812,68.97160339355469,-24.48434448242188
269440,-1.847427368164062,2.541259765625,0.61480712890625,1.067507028579712,1.880191683769226,-1.024895906448364,2.649154663085938,69.98028564453125,-25.12652587890625
269441,-1.663192749023438,2.124160766601562,0.415069580078125,1.07351541519165,1.608564734458923,-1.229052782058716,2.699630737304688,69.95736694335938,-25.84121704101562
269442,-1.489913940429688,1.60009765625,0.373748779296875,1.008413672447205,1.036066055297852,-0.7910030484199524,2.726287841796875,69.55462646484375,-27.14039611816406
269443,-1.489913940429688,1.60009765625,0.373748779296875,1.008413672447205,1.036066055297852,-0.7910030484199524,2.726287841796875,69.55462646484375,-27.14039611816406
269444,-1.294937133789062,0.9035186767578124,0.3516845703125,0.4758118093013763,0.2617916762828827,0.027899807319045,2.840591430664062,68.59944152832031,-29.31320190429688
269445,-1.1361083984375,0.5782470703125,0.2083892822265625,0.2514753639698029,-0.3093962073326111,0.0997162088751792,2.977127075195312,68.43403625488281,-30.04011535644531
269446,-1.07965087890625,0.258148193359375,0.0341796875,0.1781580150127411,-1.066903114318848,0.2467940747737885,3.013137817382812,68.35272216796875,-30.2635498046875
269447,-1.07965087890625,0.258148193359375,0.0341796875,0.1781580150127411,-1.066903114318848,0.2467940747737885,3.013137817382812,68.35272216796875,-30.2635498046875
269448,-1.0570068359375,0.07293701171875,-0.12945556640625,0.2619879245758057,-1.791036009788513,0.4087339639663696,3.106552124023438,68.58717346191406,-30.38099670410156
269449,-1.0570068359375,0.07293701171875,-0.12945556640625,0.2619879245758057,-1.791036009788513,0.4087339639663696,3.106552124023438,68.58717346191406,-30.38099670410156
269450,-1.061767578125,0.0852813720703125,-0.1667633056640625,0.4569659531116486,-2.022412300109863,0.4355312287807465,3.026840209960938,68.74647521972656,-29.98115539550781
269451,-1.061767578125,0.0852813720703125,-0.1667633056640625,0.4569659531116486,-2.022412300109863,0.4355312287807465,3.026840209960938,68.74647521972656,-29.98115539550781
269452,-1.061767578125,0.0852813720703125,-0.1667633056640625,0.4569659531116486,-2.022412300109863,0.4355312287807465,3.026840209960938,68.74647521972656,-29.98115539550781
269453,-0.4125823974609375,0.509765625,-0.17938232421875,1.91608202457428,0.9458317756652832,-0.1314557641744614,3.626296997070312,68.20664978027344,-28.20530700683594
269454,-0.1683807373046875,0.318939208984375,-0.22186279296875,1.417873620986938,-0.1922400146722794,0.1476935893297195,4.41607666015625,67.33198547363281,-29.72282409667969
269455,-0.1683807373046875,0.318939208984375,-0.22186279296875,1.417873620986938,-0.1922400146722794,0.1476935893297195,4.41607666015625,67.33198547363281,-29.72282409667969
269456,-0.0798187255859375,0.2131195068359375,-0.2641143798828125,1.212552189826965,-0.6117081046104431,0.2842903137207031,4.479248046875,67.01695251464844,-30.45195007324219
269457,-0.0219573974609375,0.107757568359375,-0.2755279541015625,1.063129901885986,-0.926950216293335,0.4303588271141052,4.503570556640625,66.77664184570312,-30.78863525390625
269458,-0.011871337890625,0.053985595703125,-0.2398681640625,0.7292845249176025,-1.049547791481018,0.528170108795166,4.345504760742188,66.818603515625,-30.92738342285156
269459,-0.011871337890625,0.053985595703125,-0.2398681640625,0.7292845249176025,-1.049547791481018,0.528170108795166,4.345504760742188,66.818603515625,-30.92738342285156
269460,-0.065032958984375,0.1084747314453125,-0.14898681640625,0.4947727024555206,-0.898542046546936,0.3848185241222382,4.323837280273438,67.04974365234375,-30.07249450683594
269461,-0.1300811767578125,0.228790283203125,-0.1245574951171875,0.2164255082607269,-0.6688776612281799,0.1138690412044525,4.258926391601562,67.18162536621094,-29.76820373535156
269462,-0.233245849609375,0.375518798828125,-0.0656890869140625,-0.0614401921629905,-0.5003395080566406,-0.1204992532730103,4.122085571289062,67.25401306152344,-29.37980651855469
269463,-0.233245849609375,0.375518798828125,-0.0656890869140625,-0.0614401921629905,-0.5003395080566406,-0.1204992532730103,4.122085571289062,67.25401306152344,-29.37980651855469
269464,-0.4169921875,0.6735076904296875,0.30242919921875,-0.3507031500339508,-0.0690871924161911,-0.2296371906995773,3.953155517578125,67.33778381347656,-28.8143310546875
269465,-0.57574462890625,0.840789794921875,0.3905029296875,-0.2463205605745316,0.1397949159145355,-0.2463732957839966,3.928253173828125,67.37654113769531,-28.63041687011719
269466,-0.7790985107421875,0.9650726318359376,0.4454803466796875,-0.0094725973904132,0.2188362032175064,-0.2575143575668335,3.871917724609375,67.37702941894531,-28.61116027832031
269467,-0.7790985107421875,0.9650726318359376,0.4454803466796875,-0.0094725973904132,0.2188362032175064,-0.2575143575668335,3.871917724609375,67.37702941894531,-28.61116027832031
269468,-1.155929565429688,0.9302520751953124,0.4950103759765625,0.426257848739624,0.2156039327383041,-0.2734011709690094,3.8865966796875,67.37783813476562,-29.02755737304688
269469,-1.165298461914062,0.7711334228515625,0.4256134033203125,0.3957614600658417,0.1187753826379776,-0.269137978553772,3.903518676757812,67.34370422363281,-29.46640014648438
