time_idx,accelerometerAccelerationX(G),accelerometerAccelerationY(G),accelerometerAccelerationZ(G),gyroRotationX(rad/s),gyroRotationY(rad/s),gyroRotationZ(rad/s),magnetometerX(µT),magnetometerY(µT),magnetometerZ(µT)
196310,0.3404998779296875,0.7225189208984375,-0.2794189453125,-2.252864599227905,-2.63132119178772,-0.4772813320159912,65.77867126464844,97.55291748046876,-30.23922729492188
196311,0.480621337890625,0.587738037109375,-0.4192962646484375,-1.718634009361267,-3.238158226013184,-0.1193029582500458,64.84564208984375,97.9656219482422,-29.43919372558594
196312,0.480621337890625,0.587738037109375,-0.4192962646484375,-1.718634009361267,-3.238158226013184,-0.1193029582500458,64.84564208984375,97.9656219482422,-29.43919372558594
196313,0.525299072265625,0.0112457275390625,-0.1683349609375,-0.2573657631874084,-1.848964810371399,1.18476414680481,63.2816162109375,98.5341339111328,-28.81854248046875
196314,0.49188232421875,-0.169952392578125,-0.1899871826171875,-0.2573657631874084,-1.848964810371399,1.18476414680481,62.88471984863281,98.64231872558594,-28.72734069824219
196315,0.4410552978515625,-0.2886810302734375,-0.4940338134765625,-0.9745600819587708,0.3914902806282043,1.055993437767029,62.64320373535156,98.41842651367188,-28.51504516601562
196316,0.4410552978515625,-0.2886810302734375,-0.4940338134765625,-0.9745600819587708,0.3914902806282043,1.055993437767029,62.64320373535156,98.41842651367188,-28.51504516601562
196317,0.3056182861328125,-0.25714111328125,-0.8553009033203125,-1.319113492965698,0.775486946105957,0.8850634694099426,62.83743286132812,98.3502197265625,-28.11004638671875
196318,0.196807861328125,-0.0908966064453125,-0.419677734375,-1.295868039131165,0.2792755961418152,0.4262447953224182,63.85787963867188,98.20474243164062,-26.50723266601562
196319,0.185760498046875,0.00054931640625,-0.3378753662109375,-1.205171227455139,0.3439789414405823,0.0948372930288314,64.21260070800781,98.15347290039062,-25.70162963867188
196320,0.185760498046875,0.00054931640625,-0.3378753662109375,-1.205171227455139,0.3439789414405823,0.0948372930288314,64.21260070800781,98.15347290039062,-25.70162963867188
196321,0.21429443359375,0.150115966796875,-0.401641845703125,-1.069778442382812,0.4228684306144714,-0.224766805768013,64.46839904785156,98.3081512451172,-25.14508056640625
196322,0.1874542236328125,0.28607177734375,-0.426361083984375,-0.6675535440444946,0.5571263432502747,-0.4496893882751465,64.48695373535156,98.36666870117188,-24.49368286132812
196323,0.2372589111328125,0.5362396240234375,-0.3153533935546875,-0.374858558177948,0.697263240814209,-0.4314089119434357,64.21760559082031,98.67764282226562,-23.29901123046875
196324,0.2729949951171875,0.7290191650390625,-0.2984161376953125,-0.0620937310159206,0.7668649554252625,-0.3875589072704315,64.05087280273438,98.88719177246094,-22.9339599609375
196325,0.2729949951171875,0.7290191650390625,-0.2984161376953125,-0.0620937310159206,0.7668649554252625,-0.3875589072704315,64.05087280273438,98.88719177246094,-22.9339599609375
196326,0.1599578857421875,1.13800048828125,-0.1102447509765625,0.2394429445266724,0.7498372197151184,-0.6455941796302795,63.63945007324219,99.20687866210938,-22.74090576171875
196327,0.0536956787109375,1.356094360351562,-0.00665283203125,0.1910911351442337,0.8222440481185913,-1.218048095703125,63.40812683105469,99.31480407714844,-22.71244812011719
196328,-0.0208587646484375,1.551666259765625,-0.07940673828125,0.1774821132421494,0.8562512993812561,-2.000609636306763,63.07952880859375,99.5194854736328,-22.99964904785156
196329,-0.0208587646484375,1.551666259765625,-0.07940673828125,0.1774821132421494,0.8562512993812561,-2.000609636306763,63.07952880859375,99.5194854736328,-22.99964904785156
196330,-0.09332275390625,1.66162109375,-0.5628814697265625,0.730510413646698,-0.7610712647438049,-2.727532386779785,61.44551086425781,100.3043212890625,-23.43641662597656
196331,-0.22674560546875,1.760482788085938,-0.4546966552734375,1.095619440078735,-1.168666481971741,-2.528540134429932,60.27656555175781,100.6426849365234,-23.71397399902344
196332,-0.48748779296875,1.90118408203125,-0.6449432373046875,1.503742456436157,0.0001006674865493,-1.443293690681458,58.75544738769531,101.0334777832031,-24.245849609375
196333,-0.48748779296875,1.90118408203125,-0.6449432373046875,1.503742456436157,0.0001006674865493,-1.443293690681458,58.75544738769531,101.0334777832031,-24.245849609375
196334,-0.3572998046875,2.13775634765625,-1.055404663085938,1.515706181526184,0.2706203162670135,-0.5671702027320862,56.2215576171875,101.4574737548828,-26.10052490234375
196335,0.3975372314453125,2.037429809570312,-0.8307342529296875,1.588945746421814,-0.1146701201796532,0.1723206341266632,55.46942138671875,101.4325714111328,-27.00077819824219
196336,0.3975372314453125,2.037429809570312,-0.8307342529296875,1.588945746421814,-0.1146701201796532,0.1723206341266632,55.46942138671875,101.4325714111328,-27.00077819824219
196337,0.790496826171875,1.799179077148438,-0.4647064208984375,2.091975688934326,-0.9080753326416016,1.735666513442993,55.23191833496094,101.1465759277344,-27.69596862792969
196338,0.95050048828125,1.661239624023438,-0.2682647705078125,2.156729459762573,-1.520001292228699,2.825441837310791,55.29591369628906,100.8841247558594,-28.44393920898438
196339,1.154541015625,1.790573120117188,-0.3970184326171875,2.073487997055054,-2.064409732818604,3.752935647964478,55.65625,100.4618530273438,-29.11647033691406
196340,1.354690551757812,2.312881469726562,-0.4712371826171875,2.073487997055054,-2.064409732818604,3.752935647964478,56.250244140625,100.0096588134766,-29.97816467285156
196341,1.560150146484375,3.11553955078125,-0.5118408203125,2.002381324768066,-2.177573919296265,4.188643932342529,57.18807983398438,99.49064636230467,-30.94709777832031
196342,1.67474365234375,3.930709838867188,-0.502410888671875,1.966339707374573,-1.7284836769104,3.953627109527588,58.52783203125,98.89857482910156,-31.76089477539062
196343,1.538742065429688,4.375106811523438,-0.37158203125,1.944408774375916,-0.7494569420814514,2.882366180419922,59.91078186035156,97.9976806640625,-32.63096618652344
196344,1.042236328125,4.03240966796875,-0.1683807373046875,2.143206357955933,0.1454115211963654,1.343076825141907,61.3380126953125,97.14411926269533,-33.49620056152344
196345,0.2996826171875,3.17138671875,-0.05230712890625,2.566021203994751,0.4707041382789612,0.5326921343803406,62.62680053710938,96.25968933105467,-34.42617797851562
196346,-0.2354583740234375,2.132431030273438,0.261688232421875,2.73753547668457,0.7365121245384216,-1.040633916854858,64.04194641113281,95.09254455566406,-36.86012268066406
196347,-0.319854736328125,1.553848266601562,0.3199005126953125,2.388842582702637,0.9247832298278807,-1.698121190071106,64.37295532226562,94.4091796875,-38.06243896484375
196348,-0.3645477294921875,1.06768798828125,0.3405609130859375,2.105046510696411,0.9787457585334778,-2.008560180664062,64.40243530273438,93.80477905273438,-39.31388854980469
196349,-0.3645477294921875,1.06768798828125,0.3405609130859375,2.105046510696411,0.9787457585334778,-2.008560180664062,64.40243530273438,93.80477905273438,-39.31388854980469
196350,-0.4063262939453125,0.7625885009765625,0.4971771240234375,1.919792652130127,1.284335494041443,-2.159021377563477,64.24034118652344,93.36195373535156,-40.60299682617188
196351,-0.5946807861328125,0.3061370849609375,0.617523193359375,1.472797870635986,2.83045482635498,-1.792953491210938,63.82154846191406,92.9580535888672,-42.58660888671875
196352,-0.5946807861328125,0.3061370849609375,0.617523193359375,1.472797870635986,2.83045482635498,-1.792953491210938,63.82154846191406,92.9580535888672,-42.58660888671875
196353,-0.9955291748046876,-0.0847015380859375,0.48944091796875,1.178645610809326,3.848191738128662,0.8168240189552307,63.64207458496094,92.80772399902344,-43.34320068359375
196354,-1.116104125976562,-0.2391204833984375,0.355804443359375,1.178645610809326,3.848191738128662,0.8168240189552307,63.99208068847656,92.7628173828125,-44.02435302734375
196355,-0.4367218017578125,0.1720428466796875,0.1807708740234375,1.012151122093201,3.061072111129761,1.51633095741272,65.919677734375,92.28976440429688,-44.00642395019531
196356,-0.2638397216796875,0.302337646484375,0.2937469482421875,0.2669848203659058,2.204725742340088,1.001810312271118,67.32801818847656,91.92149353027344,-43.8111572265625
196357,-0.2638397216796875,0.302337646484375,0.2937469482421875,0.2669848203659058,2.204725742340088,1.001810312271118,67.32801818847656,91.92149353027344,-43.8111572265625
196358,-0.0985565185546875,0.522003173828125,0.5736236572265625,-1.042744159698486,1.590596437454224,0.2991020083427429,69.94052124023438,91.2969970703125,-43.11122131347656
196359,-0.0985565185546875,0.522003173828125,0.5736236572265625,-1.042744159698486,1.590596437454224,0.2991020083427429,69.94052124023438,91.2969970703125,-43.11122131347656
196360,-0.106658935546875,0.6870880126953125,0.784393310546875,-1.042744159698486,1.590596437454224,0.2991020083427429,70.91412353515625,91.01193237304688,-42.72999572753906
196361,-0.2540130615234375,0.9344329833984376,1.112442016601562,-1.948486328125,0.7994665503501892,-1.042139887809753,72.31718444824219,90.78155517578124,-41.35310363769531
196362,-0.4094390869140625,0.8666839599609375,1.339767456054688,-1.948486328125,0.7994665503501892,-1.042139887809753,72.74201965332031,91.18269348144533,-40.52833557128906
196363,-0.5419158935546875,0.66888427734375,1.440658569335938,-1.793561220169067,0.9860708117485046,-1.192235946655273,72.88240051269531,91.61822509765624,-39.46125793457031
196364,-0.5419158935546875,0.66888427734375,1.440658569335938,-1.793561220169067,0.9860708117485046,-1.192235946655273,72.88240051269531,91.61822509765624,-39.46125793457031
196365,-0.6137542724609375,0.4866943359375,1.3426513671875,-1.645056128501892,1.477553486824036,-1.154859066009521,72.86189270019531,92.23556518554688,-38.35923767089844
196366,-0.51824951171875,0.43048095703125,0.93170166015625,-1.771660685539246,1.275522589683533,-1.096397638320923,72.67202758789062,92.88702392578124,-37.53443908691406
196367,-0.37786865234375,0.453948974609375,0.428680419921875,-1.771660685539246,1.275522589683533,-1.096397638320923,72.67100524902344,93.49676513671876,-36.53305053710938
196368,-0.2924652099609375,0.5009918212890625,0.148162841796875,-2.255823850631714,-0.1402244865894318,-1.162057042121887,72.53311157226562,93.94346618652344,-35.49468994140625
196369,-0.182403564453125,0.5695343017578125,-0.0658111572265625,-2.486241102218628,-1.062933683395386,-1.174933075904846,72.22752380371094,94.5233154296875,-34.68464660644531
196370,-0.073516845703125,0.627349853515625,-0.4205169677734375,-2.381529092788696,-4.133833885192871,-1.101835489273071,71.83987426757812,94.98744201660156,-33.79916381835938
196371,0.5923309326171875,0.6300811767578125,-2.006195068359375,-1.115190982818604,-8.217672348022461,-0.5753277540206909,70.40338134765625,96.05451965332033,-32.12149047851562
196372,0.5923309326171875,0.6300811767578125,-2.006195068359375,-1.115190982818604,-8.217672348022461,-0.5753277540206909,70.40338134765625,96.05451965332033,-32.12149047851562
196373,0.3029632568359375,-0.012603759765625,0.3042449951171875,0.3744154274463654,1.795081853866577,0.0094819189980626,67.17715454101562,96.82054138183594,-32.47688293457031
196374,0.1451873779296875,-0.1997528076171875,-0.85467529296875,0.3744154274463654,1.795081853866577,0.0094819189980626,65.26675415039062,97.32835388183594,-33.37033081054688
196375,0.0710906982421875,-0.1578369140625,-0.6382904052734375,0.4508177638053894,2.107242107391357,-0.0578409284353256,64.3330078125,97.50234985351562,-33.60150146484375
196376,0.0710906982421875,-0.1578369140625,-0.6382904052734375,0.4508177638053894,2.107242107391357,-0.0578409284353256,64.3330078125,97.50234985351562,-33.60150146484375
196377,0.0656585693359375,-0.1507568359375,-0.616302490234375,0.202296644449234,2.054832696914673,-0.1882447451353073,64.33139038085938,97.32803344726562,-33.48863220214844
196378,0.075927734375,-0.1424713134765625,-0.762603759765625,-0.5416566133499146,0.4533757269382477,-0.4162992238998413,64.77853393554688,97.2451171875,-33.39047241210938
196379,0.130889892578125,-0.152679443359375,-0.825408935546875,-0.5416566133499146,0.4533757269382477,-0.4162992238998413,65.12733459472656,96.9730987548828,-32.99609375
196380,0.2227783203125,-0.14874267578125,-0.7757568359375,-0.8143762946128845,-0.3848451375961304,-0.3848257064819336,65.35299682617188,97.0130615234375,-32.71435546875
196381,0.3053131103515625,-0.0745086669921875,-0.6996002197265625,-0.9256330132484436,-0.8474162817001343,-0.2468651831150055,65.35693359375,97.10040283203124,-32.24226379394531
196382,0.384246826171875,0.1800079345703125,-0.353607177734375,-0.5947845578193665,-0.8496389389038086,0.1471114158630371,64.85340881347656,97.37322998046876,-31.350830078125
196383,0.4918060302734375,0.39764404296875,-0.230133056640625,-0.3622716665267944,-0.4427526593208313,0.381240040063858,64.52552795410156,97.55070495605467,-31.00450134277344
196384,0.4918060302734375,0.39764404296875,-0.230133056640625,-0.3622716665267944,-0.4427526593208313,0.381240040063858,64.52552795410156,97.55070495605467,-31.00450134277344
196385,0.6942596435546875,1.002182006835938,-0.5437774658203125,-0.1329993307590485,-0.2380583733320236,0.7885870337486267,64.28262329101562,97.63706970214844,-30.1776123046875
196386,0.6942596435546875,1.002182006835938,-0.5437774658203125,-0.1329993307590485,-0.2380583733320236,0.7885870337486267,64.28262329101562,97.63706970214844,-30.1776123046875
196387,0.62286376953125,1.424880981445312,-0.815216064453125,0.6800094246864319,-1.509180068969727,-0.3544014990329742,64.68763732910156,97.30355834960938,-29.74310302734375
196388,0.4487762451171875,1.568008422851562,-0.93896484375,0.6800094246864319,-1.509180068969727,-0.3544014990329742,64.77256774902344,97.25332641601562,-29.62092590332031
196389,0.4487762451171875,1.568008422851562,-0.93896484375,0.6800094246864319,-1.509180068969727,-0.3544014990329742,64.77256774902344,97.25332641601562,-29.62092590332031
196390,0.1859893798828125,1.687362670898438,-0.9151458740234376,0.9234111309051514,-0.777507483959198,-0.9667823314666748,64.79566955566406,97.08013916015624,-29.61717224121094
196391,0.0868988037109375,1.921524047851562,-0.75885009765625,0.7997667193412781,-0.4934456646442413,-1.157974600791931,64.47325134277344,97.07878112792967,-29.95059204101562
196392,0.171356201171875,2.040481567382812,-0.661346435546875,0.7513864040374756,-0.8212059736251831,-1.008604049682617,63.4603271484375,97.2943115234375,-31.14567565917969
196393,0.171356201171875,2.040481567382812,-0.661346435546875,0.7513864040374756,-0.8212059736251831,-1.008604049682617,63.4603271484375,97.2943115234375,-31.14567565917969
196394,0.0650634765625,1.894210815429688,-0.382293701171875,0.969755232334137,-0.4879992306232452,-0.5707420706748962,62.82234191894531,97.31916809082033,-31.75851440429688
196395,-0.0850982666015625,1.856552124023438,-0.322174072265625,0.969755232334137,-0.4879992306232452,-0.5707420706748962,62.22659301757812,97.47720336914062,-32.38571166992188
196396,-0.2164154052734375,2.024734497070312,-0.3909759521484375,1.028847813606262,-0.2133453041315079,-0.5538086295127869,61.76904296875,97.69662475585938,-32.93748474121094
196397,-0.341888427734375,2.9068603515625,-0.0560455322265625,0.6952080726623535,0.5536216497421265,-1.099956870079041,61.04966735839844,98.0630340576172,-34.28402709960938
196398,-0.3156585693359375,3.31439208984375,0.09893798828125,0.3252095282077789,1.0855553150177,-1.326139211654663,60.65373229980469,98.17803955078124,-34.88807678222656
196399,-0.3156585693359375,3.31439208984375,0.09893798828125,0.3252095282077789,1.0855553150177,-1.326139211654663,60.65373229980469,98.17803955078124,-34.88807678222656
196400,-0.2799072265625,3.665939331054688,0.2802581787109375,-0.0351787582039833,1.504215478897095,-1.196895956993103,60.30894470214844,98.2754364013672,-35.39134216308594
196401,-0.3205108642578125,3.837173461914062,0.5041351318359375,-0.2824934720993042,1.763307452201843,-0.7240272164344788,60.02775573730469,98.45246887207033,-35.69580078125
196402,-0.61383056640625,3.459671020507812,0.8217315673828125,-0.0251378435641527,1.554503679275513,0.1543131470680237,59.87532043457031,98.85670471191406,-35.97488403320312
196403,-0.6058197021484375,2.668777465820312,0.541259765625,0.4673482775688171,1.009266376495361,0.5377933979034424,60.29319763183594,99.00709533691406,-35.8297119140625
196404,-0.4444732666015625,1.94970703125,0.2416534423828125,1.354787111282349,-0.6775526404380798,1.152183651924133,60.89903259277344,98.88372802734376,-35.62796020507812
196405,-0.4444732666015625,1.94970703125,0.2416534423828125,1.354787111282349,-0.6775526404380798,1.152183651924133,60.89903259277344,98.88372802734376,-35.62796020507812
196406,-0.07464599609375,1.229583740234375,0.307769775390625,1.432207822799683,-0.9235986471176147,1.330536007881165,62.20539855957031,98.06828308105467,-35.83547973632812
196407,-0.07464599609375,1.229583740234375,0.307769775390625,1.432207822799683,-0.9235986471176147,1.330536007881165,62.20539855957031,98.06828308105467,-35.83547973632812
196408,0.05194091796875,0.8364410400390625,0.288421630859375,1.015741586685181,-0.601326048374176,1.420076608657837,62.94903564453125,97.02790832519533,-36.98257446289062
196409,0.05194091796875,0.8364410400390625,0.288421630859375,1.015741586685181,-0.601326048374176,1.420076608657837,62.94903564453125,97.02790832519533,-36.98257446289062
196410,0.098236083984375,0.533599853515625,0.1295623779296875,0.3634234964847565,-0.5544381737709045,1.278621673583984,63.59284973144531,95.89100646972656,-38.36286926269531
196411,0.09423828125,0.4139862060546875,0.177978515625,0.090488351881504,-0.5891876220703125,1.111122965812683,64.05157470703125,95.2810516357422,-38.6488037109375
196412,0.09423828125,0.4139862060546875,0.177978515625,0.090488351881504,-0.5891876220703125,1.111122965812683,64.05157470703125,95.2810516357422,-38.6488037109375
196413,0.091033935546875,0.295867919921875,0.297210693359375,-0.1502113342285156,-0.4240559339523315,0.8818027377128601,64.67997741699219,94.75306701660156,-38.72404479980469
196414,0.054229736328125,0.06597900390625,0.4196319580078125,-0.6784064769744873,0.23593370616436,0.4152384698390961,65.70195007324219,93.88035583496094,-38.495361328125
196415,-0.005279541015625,-0.005645751953125,0.4699554443359375,-0.9395155310630798,0.742913007736206,0.2502894699573517,66.01690673828125,93.775634765625,-38.04818725585938
196416,-0.005279541015625,-0.005645751953125,0.4699554443359375,-0.9395155310630798,0.742913007736206,0.2502894699573517,66.01690673828125,93.775634765625,-38.04818725585938
196417,-0.071502685546875,-0.0203857421875,0.4458160400390625,-1.166986584663391,1.321642637252808,0.1428274661302567,66.26472473144531,93.89761352539062,-37.65872192382812
196418,-0.149444580078125,0.0796661376953125,0.3306427001953125,-1.515551209449768,1.849146723747253,-0.0621022544801235,66.94944763183594,94.16438293457033,-36.203125
196419,-0.149444580078125,0.0796661376953125,0.3306427001953125,-1.515551209449768,1.849146723747253,-0.0621022544801235,66.94944763183594,94.16438293457033,-36.203125
196420,-0.248748779296875,0.3959503173828125,0.4525146484375,-1.743846654891968,2.273195266723633,-0.3829915821552277,67.76254272460938,94.99986267089844,-34.59884643554688
196421,-0.248748779296875,0.3959503173828125,0.4525146484375,-1.743846654891968,2.273195266723633,-0.3829915821552277,67.76254272460938,94.99986267089844,-34.59884643554688
196422,-0.2756195068359375,0.577545166015625,0.4911956787109375,-1.812803864479065,2.447723150253296,-0.4977509379386902,68.18905639648438,95.29899597167967,-33.51911926269531
196423,-0.239044189453125,0.8272705078125,0.4553375244140625,-2.018140077590942,2.093717098236084,-0.4756136834621429,68.6734619140625,96.06169128417967,-31.21261596679688
196424,-0.239044189453125,0.8272705078125,0.4553375244140625,-2.018140077590942,2.093717098236084,-0.4756136834621429,68.6734619140625,96.06169128417967,-31.21261596679688
196425,-0.170501708984375,0.8720855712890625,0.44561767578125,-2.121843576431274,1.48238730430603,-0.6265914440155029,68.84182739257812,96.33763122558594,-30.05718994140625
196426,-0.03094482421875,0.75665283203125,0.59002685546875,-2.364233255386353,0.2561905086040497,-0.964082419872284,68.7005615234375,97.13796997070312,-27.68292236328125
196427,0.013458251953125,0.6986846923828125,0.6665496826171875,-2.454415559768677,-0.1519232243299484,-1.073240280151367,68.44400024414062,97.58447265625,-26.51068115234375
196428,0.013458251953125,0.6986846923828125,0.6665496826171875,-2.454415559768677,-0.1519232243299484,-1.073240280151367,68.44400024414062,97.58447265625,-26.51068115234375
196429,-0.0153350830078125,0.61798095703125,0.73663330078125,-2.585444688796997,-0.5996586680412292,-1.342508792877197,67.42280578613281,98.31272888183594,-24.28076171875
196430,-0.0926055908203125,0.5246734619140625,0.717193603515625,-2.63295578956604,-0.6372398734092712,-1.492441058158875,66.82400512695312,98.66358947753906,-23.12744140625
196431,-0.1562347412109375,0.3858642578125,0.5931396484375,-2.644845247268677,-0.5643240809440613,-1.53393018245697,66.25996398925781,98.89022827148438,-22.05863952636719
196432,-0.169097900390625,0.30987548828125,0.4173126220703125,-2.614930152893066,-0.4681762456893921,-1.503954648971558,65.55747985839844,99.10862731933594,-20.69064331054688
196433,-0.169097900390625,0.30987548828125,0.4173126220703125,-2.614930152893066,-0.4681762456893921,-1.503954648971558,65.55747985839844,99.10862731933594,-20.69064331054688
196434,-0.1275787353515625,0.35247802734375,-0.105072021484375,-2.46026086807251,-0.3486799597740173,-1.492922306060791,64.0762939453125,99.56681823730467,-18.37748718261719
196435,-0.020477294921875,0.3795928955078125,-0.884490966796875,-1.74237585067749,-1.280758142471313,-1.443151235580444,63.28187561035156,99.73670959472656,-17.26278686523438
196436,-0.020477294921875,0.3795928955078125,-0.884490966796875,-1.74237585067749,-1.280758142471313,-1.443151235580444,63.28187561035156,99.73670959472656,-17.26278686523438
196437,0.1356201171875,0.364776611328125,-1.388519287109375,-0.0932732224464416,-3.316433191299438,-1.176746487617493,62.47174072265625,100.0642242431641,-16.45167541503906
196438,0.0490264892578125,0.35906982421875,0.10101318359375,2.263214111328125,-1.497105836868286,-0.5164708495140076,60.40644836425781,101.1429901123047,-16.75802612304688
196439,0.1135711669921875,0.1467132568359375,-0.6932220458984375,1.942947506904602,2.395978212356567,-0.4317846894264221,59.52645874023438,101.5549926757812,-17.9385986328125
196440,0.1135711669921875,0.1467132568359375,-0.6932220458984375,1.942947506904602,2.395978212356567,-0.4317846894264221,59.52645874023438,101.5549926757812,-17.9385986328125
196441,0.2481536865234375,0.1695404052734375,-1.258468627929688,1.016308546066284,2.010989427566528,-0.38400599360466,58.99461364746094,101.7754058837891,-18.98123168945312
196442,0.2030487060546875,0.211273193359375,-0.5399169921875,0.0855146348476409,0.9087153077125548,-0.2989723086357117,58.97154235839844,101.7274780273438,-19.66108703613281
196443,0.0657958984375,0.2376708984375,-0.0872650146484375,-1.149768114089966,-0.422153115272522,-0.4328470230102539,59.06813049316406,101.4373474121094,-19.17396545410156
196444,0.06683349609375,0.2176361083984375,-0.1337432861328125,-1.149768114089966,-0.422153115272522,-0.4328470230102539,59.04541015625,101.1993560791016,-18.47862243652344
196445,0.06683349609375,0.2176361083984375,-0.1337432861328125,-1.149768114089966,-0.422153115272522,-0.4328470230102539,59.04541015625,101.1993560791016,-18.47862243652344
196446,0.041717529296875,0.363555908203125,-0.08404541015625,-0.8888241648674011,-0.6067922115325928,-0.4426469206809998,58.68008422851562,101.351806640625,-17.87277221679688
196447,0.0101165771484375,0.4922332763671875,-0.052947998046875,-0.6789177656173706,-0.390845000743866,-0.3890830278396606,58.38894653320312,101.5072326660156,-17.67964172363281
196448,0.0101165771484375,0.4922332763671875,-0.052947998046875,-0.6789177656173706,-0.390845000743866,-0.3890830278396606,58.38894653320312,101.5072326660156,-17.67964172363281
196449,-0.1102142333984375,0.9173126220703124,-0.0691375732421875,-0.2804367244243622,0.2741162478923798,-0.4328281283378601,57.94448852539062,101.4466552734375,-17.12239074707031
196450,-0.1336669921875,1.081893920898438,-0.0709075927734375,-0.1128386706113815,0.4599361717700958,-0.5124475955963135,57.74160766601562,101.5125732421875,-16.9013671875
196451,-0.12884521484375,1.143798828125,-0.13616943359375,0.1228404343128204,0.3075868487358093,-0.5151118040084839,57.71731567382812,101.4852447509766,-16.76875305175781
196452,-0.11895751953125,1.14788818359375,-0.15264892578125,0.4476331770420074,-0.1329974681138992,-0.4197463989257812,57.51754760742188,101.5233764648438,-16.66664123535156
196453,-0.11895751953125,1.14788818359375,-0.15264892578125,0.4476331770420074,-0.1329974681138992,-0.4197463989257812,57.51754760742188,101.5233764648438,-16.66664123535156
196454,-0.1208038330078125,1.048095703125,0.111297607421875,1.12834906578064,-0.2803429663181305,-0.1153867766261101,57.11953735351562,101.4547882080078,-16.93980407714844
196455,-0.15765380859375,1.073699951171875,0.180206298828125,1.372903227806091,0.080299898982048,-0.0183238796889782,56.90821838378906,101.4695434570312,-17.30659484863281
196456,-0.259185791015625,1.241622924804688,0.3062744140625,1.460707068443298,0.5805675387382507,-0.0532874576747417,56.84368896484375,101.5620269775391,-17.95335388183594
196457,-0.259185791015625,1.241622924804688,0.3062744140625,1.460707068443298,0.5805675387382507,-0.0532874576747417,56.84368896484375,101.5620269775391,-17.95335388183594
196458,-0.6107025146484375,1.954940795898438,0.6547393798828125,1.064107298851013,2.225955486297607,-0.9702058434486388,56.84439086914062,101.9064483642578,-19.47486877441406
196459,-1.08795166015625,2.458587646484375,0.812469482421875,0.7306219935417175,3.021479368209839,-1.676683902740479,56.60824584960938,102.0369262695312,-20.27494812011719
196460,-1.08795166015625,2.458587646484375,0.812469482421875,0.7306219935417175,3.021479368209839,-1.676683902740479,56.60824584960938,102.0369262695312,-20.27494812011719
196461,-1.830856323242188,2.9342041015625,0.8797760009765625,0.4511195123195648,3.872976303100586,-1.604342818260193,56.38955688476562,101.9788055419922,-20.81181335449219
196462,-1.89447021484375,3.827926635742188,0.6374359130859375,0.3221870958805084,4.215125560760498,0.2213086783885956,56.18305969238281,102.1228179931641,-21.34822082519531
196463,-1.408432006835938,3.980087280273438,0.3811492919921875,1.260470151901245,0.650786817073822,0.5872613787651062,56.66813659667969,102.3442687988281,-21.46249389648438
196464,-1.408432006835938,3.980087280273438,0.3811492919921875,1.260470151901245,0.650786817073822,0.5872613787651062,56.66813659667969,102.3442687988281,-21.46249389648438
196465,-0.645782470703125,2.055099487304688,0.7617950439453125,1.28327214717865,0.1176400780677795,-0.0852392613887786,57.09359741210938,102.9688720703125,-22.13697814941406
196466,-0.147369384765625,1.67694091796875,0.3889923095703125,1.62305212020874,0.0019808590877801,-0.2820974588394165,56.97355651855469,103.0455780029297,-22.7452392578125
196467,0.21832275390625,1.582778930664062,0.2200469970703125,1.785048127174377,-1.04704737663269,0.2619858086109161,56.68487548828125,102.8661804199219,-23.49627685546875
196468,0.21832275390625,1.582778930664062,0.2200469970703125,1.785048127174377,-1.04704737663269,0.2619858086109161,56.68487548828125,102.8661804199219,-23.49627685546875
196469,0.3910369873046875,1.84552001953125,0.166839599609375,1.105461359024048,-4.746071338653564,1.257330536842346,56.74760437011719,101.982421875,-25.35751342773438
196470,0.676727294921875,1.763916015625,0.3422088623046875,0.6712412238121033,-7.012307643890381,1.446314573287964,57.21531677246094,101.123046875,-26.10501098632812
196471,1.09356689453125,1.55010986328125,1.029281616210938,0.923291563987732,-4.757955551147461,2.803280353546143,57.40414428710938,100.3304595947266,-26.71604919433594
196472,1.124496459960938,1.3095703125,1.463088989257812,0.923291563987732,-4.757955551147461,2.803280353546143,57.00286865234375,100.0816802978516,-27.25236511230469
196473,1.124496459960938,1.3095703125,1.463088989257812,0.923291563987732,-4.757955551147461,2.803280353546143,57.00286865234375,100.0816802978516,-27.25236511230469
196474,0.63720703125,0.750518798828125,-1.638442993164062,2.330073356628418,0.5724624395370483,2.318592548370361,57.23771667480469,100.072021484375,-27.76486206054688
196475,0.389129638671875,0.6107330322265625,-1.418319702148438,2.922487258911133,-0.890181839466095,1.188875555992126,58.4176025390625,99.61221313476562,-28.23744201660156
196476,0.389129638671875,0.6107330322265625,-1.418319702148438,2.922487258911133,-0.890181839466095,1.188875555992126,58.4176025390625,99.61221313476562,-28.23744201660156
196477,0.168182373046875,0.6502532958984375,0.71710205078125,2.156605005264282,0.3487840890884399,0.5085538029670715,60.09492492675781,98.2134246826172,-30.41162109375
196478,0.116485595703125,0.602264404296875,0.7704620361328125,1.363219380378723,1.562789559364319,0.580852210521698,60.53010559082031,97.51133728027344,-31.76504516601562
196479,0.03900146484375,0.5070037841796875,0.64306640625,0.6094028949737549,2.454039573669434,0.5258243680000305,61.00566101074219,96.92347717285156,-32.71574401855469
196480,0.03900146484375,0.5070037841796875,0.64306640625,0.6094028949737549,2.454039573669434,0.5258243680000305,61.00566101074219,96.92347717285156,-32.71574401855469
196481,-0.003021240234375,0.42022705078125,0.496612548828125,-0.0211340468376874,2.851335048675537,0.4485090672969818,61.83163452148438,96.47190856933594,-33.27778625488281
196482,-0.1696014404296875,0.3861541748046875,0.3158416748046875,-0.7643589377403259,2.450688600540161,0.2171658724546432,63.76153564453125,95.9561767578125,-33.08671569824219
196483,-0.277435302734375,0.42327880859375,0.3412933349609375,-0.8353934288024902,1.94199812412262,-0.0207130014896392,64.55744934082031,95.77268981933594,-32.39216613769531
196484,-0.277435302734375,0.42327880859375,0.3412933349609375,-0.8353934288024902,1.94199812412262,-0.0207130014896392,64.55744934082031,95.77268981933594,-32.39216613769531
196485,-0.464935302734375,0.472991943359375,0.5205535888671875,-0.4822124540805817,1.273566484451294,-0.8149712085723877,65.64889526367188,96.28703308105467,-31.20997619628906
196486,-0.5471954345703125,0.5204925537109375,0.6427154541015625,-0.4822124540805817,1.273566484451294,-0.8149712085723877,65.80513000488281,96.5633544921875,-30.89289855957031
196487,-0.645660400390625,0.5866546630859375,0.76568603515625,-0.5615168809890747,1.577149271965027,-1.098656177520752,65.84410095214844,97.02586364746094,-30.61691284179688
196488,-0.8314666748046875,0.6187591552734375,0.845703125,-0.7573811411857605,2.095963001251221,-1.29774534702301,65.74514770507812,97.28421020507812,-30.3692626953125
196489,-1.143081665039062,0.506805419921875,0.874267578125,-1.040238976478577,2.799143552780151,-0.9633199572563172,65.64019775390625,97.694580078125,-30.14579772949219
196490,-1.142044067382812,0.472015380859375,0.757080078125,-1.395825862884521,3.457905769348145,-0.0879207998514175,65.60395812988281,97.97366333007812,-29.62814331054688
196491,-0.720123291015625,0.7104644775390625,0.4176177978515625,-1.665309548377991,3.15581226348877,0.0997103452682495,65.62168884277344,98.28898620605467,-28.91558837890625
196492,-0.720123291015625,0.7104644775390625,0.4176177978515625,-1.665309548377991,3.15581226348877,0.0997103452682495,65.62168884277344,98.28898620605467,-28.91558837890625
196493,-0.5338592529296875,0.79144287109375,0.264556884765625,-1.706445813179016,1.316404461860657,-0.368691474199295,65.84217834472656,98.61572265625,-27.84007263183594
196494,-0.346588134765625,0.599700927734375,0.29693603515625,-1.618158221244812,0.7106517553329468,-0.5004905462265015,66.273193359375,99.34829711914062,-25.44500732421875
196495,-0.254241943359375,0.50592041015625,0.2646484375,-1.513458728790283,0.204782173037529,-0.6154325604438782,66.24392700195312,99.63768005371094,-24.37083435058594
196496,-0.254241943359375,0.50592041015625,0.2646484375,-1.513458728790283,0.204782173037529,-0.6154325604438782,66.24392700195312,99.63768005371094,-24.37083435058594
196497,-0.13385009765625,0.350677490234375,0.14068603515625,-1.404436349868774,-0.9068194031715392,-0.9915856719017028,65.73731994628906,99.89207458496094,-22.48883056640625
196498,-0.088775634765625,0.3073272705078125,0.068695068359375,-1.404436349868774,-0.9068194031715392,-0.9915856719017028,65.28741455078125,100.1108245849609,-21.79594421386719
196499,-0.0385589599609375,0.2596282958984375,-0.0381011962890625,-1.468257188796997,-1.102617979049683,-1.041336417198181,64.74949645996094,100.3110198974609,-21.12489318847656
196500,-0.0385589599609375,0.2596282958984375,-0.0381011962890625,-1.468257188796997,-1.102617979049683,-1.041336417198181,64.74949645996094,100.3110198974609,-21.12489318847656
196501,0.177398681640625,0.1579742431640625,-0.768310546875,-0.9813644886016846,-2.077255964279175,-0.7383262515068054,63.41262817382812,100.5878448486328,-20.02301025390625
196502,0.177398681640625,0.1579742431640625,-0.768310546875,-0.9813644886016846,-2.077255964279175,-0.7383262515068054,63.41262817382812,100.5878448486328,-20.02301025390625
196503,0.282440185546875,0.20965576171875,-0.9383544921875,-0.046170424669981,-3.211290121078491,-0.2664490044116974,62.75067138671875,100.8069458007812,-19.52204895019531
196504,0.33331298828125,0.2626495361328125,0.0436859130859375,0.9051157832145692,0.7056655287742615,0.6080324053764343,61.44381713867188,101.1390228271484,-19.63032531738281
196505,0.33331298828125,0.2626495361328125,0.0436859130859375,0.9051157832145692,0.7056655287742615,0.6080324053764343,61.44381713867188,101.1390228271484,-19.63032531738281
196506,0.3687591552734375,0.167816162109375,-0.4890899658203125,0.1028084009885788,0.1606133729219437,0.7563143372535706,61.02236938476562,101.0888366699219,-20.53457641601562
196507,0.3687591552734375,0.167816162109375,-0.4890899658203125,0.1028084009885788,0.1606133729219437,0.7563143372535706,61.02236938476562,101.0888366699219,-20.53457641601562
196508,0.203033447265625,0.1183929443359375,-0.12139892578125,-0.2483490854501724,-0.0313459374010562,0.7100136280059814,61.70932006835938,100.6623229980469,-20.66172790527344
196509,0.203033447265625,0.1183929443359375,-0.12139892578125,-0.2483490854501724,-0.0313459374010562,0.7100136280059814,61.70932006835938,100.6623229980469,-20.66172790527344
196510,0.1595306396484375,0.109954833984375,-0.0622711181640625,-0.4641732573509216,-0.0809331983327865,0.6148908734321594,62.06971740722656,100.5127258300781,-20.76358032226562
196511,0.1488037109375,0.1429901123046875,-0.2496185302734375,-0.4795469045639038,-0.3994243741035461,0.3667660057544708,62.75553894042969,100.2147827148438,-20.28375244140625
196512,0.1488037109375,0.1429901123046875,-0.2496185302734375,-0.4795469045639038,-0.3994243741035461,0.3667660057544708,62.75553894042969,100.2147827148438,-20.28375244140625
196513,0.172393798828125,0.231414794921875,-0.360931396484375,-0.3057351410388947,-0.744260311126709,0.1667213439941406,62.98855590820312,100.1957702636719,-19.828857421875
196514,0.16888427734375,0.515045166015625,-0.3946685791015625,0.2523177266120911,-0.7911969423294067,-0.1728383600711823,63.25743103027344,100.0256500244141,-19.28172302246094
196515,0.1116943359375,0.657470703125,-0.3257904052734375,0.5996506810188293,-0.1510582268238068,-0.2177501618862152,63.144775390625,100.1581878662109,-19.25840759277344
196516,0.1116943359375,0.657470703125,-0.3257904052734375,0.5996506810188293,-0.1510582268238068,-0.2177501618862152,63.144775390625,100.1581878662109,-19.25840759277344
196517,0.0862884521484375,0.81146240234375,-0.240447998046875,0.8103490471839905,0.5814388990402222,-0.2950763702392578,63.07505798339844,100.2009887695312,-19.41954040527344
196518,0.096343994140625,1.279541015625,-0.17999267578125,0.5557220578193665,0.5726624727249146,-0.8952924609184265,62.58993530273438,100.4126129150391,-19.93392944335938
196519,0.1341400146484375,1.552291870117188,-0.1526031494140625,0.4231898784637451,0.0574334636330604,-1.181376338005066,62.37321472167969,100.3581085205078,-20.14456176757812
196520,0.1175079345703125,1.757858276367188,-0.0568695068359375,0.7430046200752258,-0.3571336269378662,-1.150696992874146,62.01141357421875,100.521484375,-20.42091369628906
196521,0.1175079345703125,1.757858276367188,-0.0568695068359375,0.7430046200752258,-0.3571336269378662,-1.150696992874146,62.01141357421875,100.521484375,-20.42091369628906
196522,-0.220306396484375,2.351318359375,0.397064208984375,1.028986573219299,0.1743611544370651,-1.294807553291321,60.85556030273438,101.0249633789062,-21.4019775390625
196523,-0.450408935546875,2.83056640625,0.6251678466796875,1.144790649414062,1.309112548828125,-1.758589863777161,60.28546142578125,101.2454376220703,-21.86604309082031
196524,-0.450408935546875,2.83056640625,0.6251678466796875,1.144790649414062,1.309112548828125,-1.758589863777161,60.28546142578125,101.2454376220703,-21.86604309082031
196525,-0.72723388671875,3.351104736328125,0.5380706787109375,1.119425177574158,2.306711673736572,-2.454853296279907,59.52073669433594,101.7321472167969,-22.47137451171875
196526,-1.335281372070312,3.61102294921875,0.28814697265625,1.211404085159302,2.559360027313232,-2.669952869415283,58.71673583984375,102.0598602294922,-23.18536376953125
196527,-1.890396118164062,3.44439697265625,-0.1118927001953125,1.420233726501465,2.074173450469971,-1.35907256603241,57.99736022949219,102.433837890625,-24.0567626953125
196528,-1.372390747070312,3.170211791992188,-0.522796630859375,1.555646896362305,0.6271603107452393,-0.4319519400596619,57.18489074707031,102.6509246826172,-24.67066955566406
196529,-0.22174072265625,2.645523071289062,-0.6343231201171875,0.8976940512657166,-1.363755464553833,0.7157314419746399,56.42628479003906,102.5846252441406,-25.85798645019531
196530,-0.22174072265625,2.645523071289062,-0.6343231201171875,0.8976940512657166,-1.363755464553833,0.7157314419746399,56.42628479003906,102.5846252441406,-25.85798645019531
196531,0.0147705078125,2.627883911132812,-0.374359130859375,0.6513042449951172,-1.405853986740112,1.181623816490173,56.34919738769531,102.3345336914062,-26.51986694335938
196532,0.2462921142578125,2.510360717773438,0.07855224609375,0.877024233341217,-1.012345790863037,1.477628231048584,56.37962341308594,102.0062866210938,-27.21746826171875
196533,0.38275146484375,2.341552734375,0.2781982421875,1.343342065811157,-0.3703040182590485,1.63818621635437,56.60758972167969,101.8003082275391,-27.74441528320312
196534,0.3444671630859375,2.202896118164062,0.100616455078125,1.733166337013245,-0.0559498183429241,1.588605880737305,57.06773376464844,101.5121917724609,-28.27713012695312
196535,0.2273406982421875,2.127960205078125,-0.0075836181640625,1.935608386993408,-0.2284496873617172,1.322202444076538,57.71229553222656,101.2684173583984,-28.78744506835938
196536,0.15234375,1.999755859375,0.124542236328125,1.970308303833008,-0.4916283190250397,1.054541230201721,58.52615356445312,100.7805480957031,-29.54931640625
196537,0.1216888427734375,1.761337280273438,0.22821044921875,1.918684005737305,-0.6232603788375854,0.8770833611488342,59.38429260253906,100.1416015625,-30.39547729492188
196538,0.0801544189453125,1.15228271484375,0.053863525390625,1.883414626121521,-1.418958067893982,0.8533090353012085,60.47537231445312,98.88363647460938,-32.62127685546875
196539,0.0558319091796875,0.892425537109375,0.145660400390625,2.026611328125,-1.771721124649048,0.937854826450348,60.88833618164062,98.33021545410156,-33.69013977050781
196540,0.0258331298828125,0.6861419677734375,0.3427581787109375,2.481388092041016,-1.070105314254761,1.107873678207397,61.16587829589844,97.80818176269533,-34.70864868164062
196541,0.0258331298828125,0.6861419677734375,0.3427581787109375,2.481388092041016,-1.070105314254761,1.107873678207397,61.16587829589844,97.80818176269533,-34.70864868164062
196542,-0.0020751953125,0.50543212890625,0.4132232666015625,2.434815168380737,-0.2230035215616226,1.217943429946899,61.32687377929688,97.20469665527344,-35.69453430175781
196543,-0.059814453125,0.3485107421875,0.399627685546875,2.434815168380737,-0.2230035215616226,1.217943429946899,61.30023193359375,96.74844360351562,-36.94822692871094
196544,-0.172088623046875,0.2896575927734375,0.5747528076171875,1.187774896621704,2.847443342208862,1.365510225296021,61.71011352539062,95.63973999023438,-39.29873657226562
196545,-0.172088623046875,0.2896575927734375,0.5747528076171875,1.187774896621704,2.847443342208862,1.365510225296021,61.71011352539062,95.63973999023438,-39.29873657226562
196546,-0.163055419921875,0.3259735107421875,0.587127685546875,0.6571850776672363,3.432088136672974,1.28481912612915,62.24139404296875,95.02073669433594,-40.27323913574219
196547,-0.21319580078125,0.3634185791015625,0.4167938232421875,0.2043113261461258,3.543977022171021,1.134752750396729,64.54521179199219,93.9380340576172,-41.00804138183594
196548,-0.260650634765625,0.3792877197265625,0.368743896484375,-0.1300165951251984,3.219673156738281,0.9367581009864808,66.04562377929688,93.34323120117188,-40.82498168945312
196549,-0.260650634765625,0.3792877197265625,0.368743896484375,-0.1300165951251984,3.219673156738281,0.9367581009864808,66.04562377929688,93.34323120117188,-40.82498168945312
196550,-0.367706298828125,0.491851806640625,0.54010009765625,-0.9701150059700012,1.832938671112061,-0.0179371889680624,68.91105651855469,92.68199157714844,-39.79112243652344
196551,-0.367706298828125,0.491851806640625,0.54010009765625,-0.9701150059700012,1.832938671112061,-0.0179371889680624,68.91105651855469,92.68199157714844,-39.79112243652344
196552,-0.5419921875,0.62640380859375,0.901947021484375,-1.655084609985352,2.013003826141357,-0.5577351450920105,70.95938110351562,92.6930694580078,-38.21430969238281
196553,-0.5419921875,0.62640380859375,0.901947021484375,-1.655084609985352,2.013003826141357,-0.5577351450920105,70.95938110351562,92.6930694580078,-38.21430969238281
196554,-0.634246826171875,0.6915130615234375,1.005477905273438,-1.932246088981628,2.165519714355469,-0.7071933746337891,71.84806823730469,93.26524353027344,-36.5040283203125
196555,-0.6437225341796875,0.6993865966796875,0.8936004638671875,-2.178124189376831,2.134732961654663,-0.800964891910553,72.1124267578125,93.77244567871094,-35.48759460449219
196556,-0.5879058837890625,0.7196197509765625,0.6978607177734375,-2.373372316360474,1.768794059753418,-0.8771200776100159,72.27682495117188,94.20677185058594,-34.29464721679688
196557,-0.5879058837890625,0.7196197509765625,0.6978607177734375,-2.373372316360474,1.768794059753418,-0.8771200776100159,72.27682495117188,94.20677185058594,-34.29464721679688
196558,-0.48291015625,0.725860595703125,0.5106964111328125,-2.492842435836792,1.171742677688599,-0.9736194610595704,72.29319763183594,94.88589477539062,-32.98661804199219
196559,-0.3330230712890625,0.6964263916015625,0.3450927734375,-2.55586314201355,0.5340269207954407,-1.051660418510437,72.26731872558594,95.40696716308594,-31.5550537109375
196560,-0.0616912841796875,0.6038360595703125,0.0330810546875,-2.431005954742432,-0.7961347103118896,-1.199207067489624,71.45526123046875,96.77847290039062,-27.91421508789062
196561,-0.0616912841796875,0.6038360595703125,0.0330810546875,-2.431005954742432,-0.7961347103118896,-1.199207067489624,71.45526123046875,96.77847290039062,-27.91421508789062
196562,-0.0616912841796875,0.6038360595703125,0.0330810546875,-2.431005954742432,-0.7961347103118896,-1.199207067489624,71.45526123046875,96.77847290039062,-27.91421508789062
196563,-0.025787353515625,0.5813140869140625,-0.020965576171875,-2.42615532875061,-1.104509830474854,-1.243270635604858,70.88333129882812,97.30181884765624,-26.76641845703125
196564,0.2258148193359375,0.4278717041015625,-1.115631103515625,-2.064050436019897,-2.614941596984863,-1.172944068908691,69.57594299316406,98.16114807128906,-24.96846008300781
196565,0.2258148193359375,0.4278717041015625,-1.115631103515625,-2.064050436019897,-2.614941596984863,-1.172944068908691,69.57594299316406,98.16114807128906,-24.96846008300781
196566,0.3293914794921875,0.29693603515625,-1.216445922851562,-0.8902446627616882,-4.6270432472229,-0.8190160393714905,68.692626953125,98.53334045410156,-24.16365051269531
196567,0.1023406982421875,0.03521728515625,0.09796142578125,0.9461204409599304,-0.2290142774581909,-0.3062187731266022,66.64395141601562,99.41970825195312,-23.46388244628906
196568,0.1959991455078125,-0.0560150146484375,-0.51934814453125,1.120531439781189,1.32176947593689,-0.0863191783428192,65.6497802734375,99.64755249023438,-23.90789794921875
196569,0.1959991455078125,-0.0560150146484375,-0.51934814453125,1.120531439781189,1.32176947593689,-0.0863191783428192,65.6497802734375,99.64755249023438,-23.90789794921875
196570,0.2066497802734375,-0.024200439453125,-0.6010284423828125,0.9564314484596252,1.090222001075745,0.081019751727581,65.02029418945312,99.70207214355467,-24.46800231933594
196571,0.1692657470703125,-0.0131378173828125,-0.3663787841796875,0.1369549185037613,0.0214461702853441,0.1827005743980408,65.02409362792969,99.4656982421875,-25.11640930175781
196572,0.16693115234375,-0.0244293212890625,-0.3237457275390625,-0.2232533246278763,-0.4384535253047943,0.2262006402015686,65.30892944335938,99.11392211914062,-25.14387512207031
196573,0.178985595703125,-0.025970458984375,-0.2819366455078125,-0.4586498737335205,-0.8017486333847046,0.2982274293899536,65.3521728515625,98.98733520507812,-24.98324584960938
196574,0.2140960693359375,-0.016082763671875,-0.23638916015625,-0.5134193897247314,-0.9277957677841188,0.5196213126182556,65.386962890625,99.08128356933594,-24.82122802734375
196575,0.2637939453125,0.01312255859375,-0.2103118896484375,-0.5134193897247314,-0.9277957677841188,0.5196213126182556,65.36665344238281,99.0303955078125,-24.52603149414062
196576,0.3231048583984375,0.08203125,-0.200347900390625,-0.4096586108207703,-0.7152441143989563,0.6555253863334656,65.42935180664062,98.98294067382812,-24.22366333007812
196577,0.3231048583984375,0.08203125,-0.200347900390625,-0.4096586108207703,-0.7152441143989563,0.6555253863334656,65.42935180664062,98.98294067382812,-24.22366333007812
196578,0.3717803955078125,0.203460693359375,-0.27569580078125,-0.2708099186420441,-0.479730635881424,0.7689515352249146,65.53562927246094,98.9375,-23.92149353027344
196579,0.4361572265625,0.558135986328125,-0.62841796875,0.1532042026519775,-0.7171072363853455,0.6369373202323914,66.03752136230469,98.517333984375,-23.25234985351562
196580,0.436370849609375,0.729034423828125,-0.592742919921875,0.4500925838947296,-0.7522756457328796,0.4126512110233307,66.28892517089844,98.31710815429688,-23.18408203125
196581,0.436370849609375,0.729034423828125,-0.592742919921875,0.4500925838947296,-0.7522756457328796,0.4126512110233307,66.28892517089844,98.31710815429688,-23.18408203125
196582,0.156158447265625,0.98773193359375,-0.4894561767578125,0.917914628982544,-0.0574185512959957,-0.1254327595233917,66.61085510253906,98.08732604980467,-23.58128356933594
196583,0.156158447265625,0.98773193359375,-0.4894561767578125,0.917914628982544,-0.0574185512959957,-0.1254327595233917,66.61085510253906,98.08732604980467,-23.58128356933594
196584,0.1034698486328125,1.331634521484375,-0.5748138427734375,0.9404119849205016,-0.6815961003303528,-0.8876680731773376,66.3837890625,98.1373291015625,-24.4229736328125
196585,0.16107177734375,1.590652465820312,-0.3798980712890625,0.8765432238578796,-0.937406837940216,-1.270055890083313,66.02716064453125,98.2640380859375,-24.99122619628906
196586,0.1611328125,1.904647827148438,-0.1042938232421875,0.7766422033309937,-0.5779272317886353,-1.436308026313782,65.28852844238281,98.58677673339844,-25.62019348144531
196587,0.0313262939453125,2.354537963867188,0.0980072021484375,0.5955922603607178,0.284747302532196,-1.630246639251709,64.57026672363281,98.92323303222656,-26.31355285644531
196588,-0.1003265380859375,2.827880859375,0.18505859375,0.3632000386714935,1.239615201950073,-2.009217023849487,63.80496215820312,99.35574340820312,-26.91767883300781
196589,-0.1003265380859375,2.827880859375,0.18505859375,0.3632000386714935,1.239615201950073,-2.009217023849487,63.80496215820312,99.35574340820312,-26.91767883300781
196590,-0.508270263671875,3.910064697265625,0.175018310546875,0.1185863018035889,1.994009137153625,-3.39407205581665,62.17709350585938,100.2376708984375,-27.44895935058594
196591,-0.9997406005859376,4.221405029296875,0.1466522216796875,0.3733496069908142,1.497313857078552,-4.134291172027588,61.25675964355469,100.8263092041016,-27.6710205078125
196592,-2.44122314453125,3.66571044921875,0.3231048583984375,0.6664824485778809,1.579928517341614,-3.064365386962891,60.08589172363281,101.4542083740234,-28.1693115234375
196593,-3.040557861328125,2.91485595703125,-0.095062255859375,0.8540992140769958,1.936198472976685,-0.1281854063272476,58.93231201171875,101.9890441894531,-28.74620056152344
196594,-1.522857666015625,2.794113159179688,-0.4229736328125,1.233346343040466,-0.0872283801436424,0.3042861223220825,58.54568481445312,102.0198059082031,-29.18403625488281
196595,-0.61260986328125,2.473403930664062,0.26318359375,1.315521717071533,-0.7601399421691895,0.5382994413375854,58.61647033691406,101.7356567382812,-29.62528991699219
196596,-0.2301788330078125,2.1470947265625,0.436431884765625,1.23949670791626,-0.6152455806732178,0.8316341042518616,58.76239013671875,101.3376159667969,-30.25373840332031
196597,-0.0298919677734375,2.036666870117188,0.5657501220703125,1.053697466850281,-0.5067252516746521,1.077922463417053,58.77357482910156,100.9061126708984,-30.80520629882812
196598,0.04315185546875,1.981109619140625,0.5655517578125,1.009814262390137,-0.2568773329257965,1.090128779411316,59.0770263671875,100.6287994384766,-31.45265197753906
196599,0.1168365478515625,1.791580200195312,0.36285400390625,1.014713883399963,-0.4523240625858307,1.080292940139771,59.52568054199219,100.1201782226562,-31.91201782226562
196600,0.1584014892578125,1.453018188476562,0.1986083984375,1.094921708106995,-0.9143545627593994,1.072215795516968,59.971435546875,99.59254455566406,-32.27476501464844
196601,0.1584014892578125,1.453018188476562,0.1986083984375,1.094921708106995,-0.9143545627593994,1.072215795516968,59.971435546875,99.59254455566406,-32.27476501464844
196602,0.3619537353515625,0.8570404052734375,-0.0012054443359375,1.419732451438904,-1.801092147827148,1.193432211875916,60.62442016601562,98.69500732421876,-33.44612121582031
196603,0.4768829345703125,0.69012451171875,-0.1455078125,1.699120759963989,-2.1440749168396,1.385608315467834,60.72511291503906,98.30245971679688,-33.98428344726562
196604,0.5315399169921875,0.6580047607421875,-0.27960205078125,1.699120759963989,-2.1440749168396,1.385608315467834,60.75248718261719,97.96385192871094,-34.76136779785156
196605,0.5315399169921875,0.6580047607421875,-0.27960205078125,1.699120759963989,-2.1440749168396,1.385608315467834,60.75248718261719,97.96385192871094,-34.76136779785156
196606,0.568145751953125,0.6052093505859375,-0.2079925537109375,1.247273087501526,-0.7103531956672668,1.013567686080933,60.8741455078125,97.0260772705078,-36.02125549316406
196607,0.49407958984375,0.5889892578125,-0.2276458740234375,0.7514356374740601,-0.0315403491258621,0.8714606165885925,61.07485961914062,96.57038879394533,-36.6685791015625
196608,0.0163421630859375,0.5906829833984375,0.076873779296875,0.3879205584526062,0.4316275715827942,0.8763884902000427,61.74972534179688,95.97607421875,-37.9173583984375
196609,0.0163421630859375,0.5906829833984375,0.076873779296875,0.3879205584526062,0.4316275715827942,0.8763884902000427,61.74972534179688,95.97607421875,-37.9173583984375
196610,-0.063995361328125,0.5913543701171875,0.1344146728515625,0.4071834683418274,0.6283661723136902,0.9409206509590148,62.23715209960938,95.71185302734376,-38.33929443359375
196611,-0.1203460693359375,0.5504608154296875,0.1717071533203125,0.4810070991516113,0.7698594331741333,0.96474289894104,62.9302978515625,95.30123901367188,-38.39741516113281
196612,-0.17291259765625,0.50396728515625,0.224212646484375,0.5537830591201782,0.9330102801322936,0.9612008929252625,63.57048034667969,95.07298278808594,-38.4830322265625
196613,-0.2035369873046875,0.4524383544921875,0.25360107421875,0.5639355182647705,1.078830599784851,0.9210143089294434,64.20761108398438,94.68644714355467,-38.63284301757812
196614,-0.212493896484375,0.42828369140625,0.3412933349609375,0.4764954447746277,1.250298976898193,0.8644562363624573,64.88475036621094,94.3724365234375,-38.80133056640625
196615,-0.206939697265625,0.44525146484375,0.498077392578125,0.26842400431633,1.629698991775513,0.7606152892112732,65.70829772949219,94.1005859375,-38.90895080566406
196616,-0.1964569091796875,0.4735107421875,0.6130218505859375,-0.0770396590232849,2.18174934387207,0.6180557608604431,66.35775756835938,93.92379760742188,-39.00564575195312
196617,-0.207916259765625,0.5475921630859375,0.710784912109375,-0.5827633142471313,2.845169305801392,0.4276490807533264,67.24131774902344,93.70295715332033,-38.85029602050781
196618,-0.2462158203125,0.669158935546875,0.7911834716796875,-1.211214184761047,3.585144996643066,0.1654108017683029,68.00082397460938,93.57803344726562,-38.23538208007812
196619,-0.290557861328125,0.8171234130859375,0.801849365234375,-1.866421580314636,4.269985675811768,-0.1750727444887161,68.91586303710938,93.72055053710938,-37.4736328125
196620,-0.345001220703125,0.914886474609375,0.6823272705078125,-2.296243667602539,4.523057460784912,-0.4837722778320312,69.80284118652344,93.92127990722656,-36.22721862792969
196621,-0.4357757568359375,0.9382476806640624,0.53765869140625,-2.36264181137085,4.190342903137207,-0.6567781567573547,70.65809631347656,94.25473022460938,-34.66458129882812
196622,-0.5367584228515625,0.8935699462890625,0.441314697265625,-2.174750089645386,3.46700119972229,-0.6918831467628479,71.50807189941406,94.7240753173828,-32.75767517089844
196623,-0.580810546875,0.805206298828125,0.4017486572265625,-1.920419812202454,2.635941505432129,-0.6006871461868286,71.93690490722656,95.32032775878906,-30.82925415039062
196624,-0.5546417236328125,0.7109527587890625,0.413848876953125,-1.77863609790802,1.529655575752258,-0.4562889635562897,72.23512268066406,95.78158569335938,-29.12745666503906
196625,-0.5546417236328125,0.7109527587890625,0.413848876953125,-1.77863609790802,1.529655575752258,-0.4562889635562897,72.23512268066406,95.78158569335938,-29.12745666503906
196626,-0.34539794921875,0.5950469970703125,0.3406524658203125,-1.842564940452576,1.111446619033813,-0.5475538969039917,72.35551452636719,96.52815246582033,-26.67585754394531
196627,-0.2313385009765625,0.5141754150390625,0.22930908203125,-1.940179109573364,0.6614493131637573,-0.6392989754676819,72.32870483398438,96.91763305664062,-25.55250549316406
196628,-0.1455841064453125,0.46734619140625,0.118011474609375,-2.035428762435913,0.1953897327184677,-0.7237774133682251,72.0516357421875,97.13038635253906,-24.48155212402344
196629,-0.0861663818359375,0.4259033203125,0.033905029296875,-2.108342409133911,-0.2211728692054749,-0.8086220026016235,71.84565734863281,97.33154296875,-23.49371337890625
196630,-0.0413055419921875,0.362548828125,-0.0346832275390625,-2.156141519546509,-1.014391660690308,-0.9132272005081176,71.51522827148438,97.54646301269533,-22.438720703125
196631,0.021728515625,0.272796630859375,-0.2402191162109375,-2.156141519546509,-1.014391660690308,-0.9132272005081176,71.0592041015625,97.72470092773438,-21.62503051757812
196632,0.1328277587890625,0.158172607421875,-0.6653594970703125,-2.02132248878479,-2.124912977218628,-0.8506703972816467,70.53990173339844,97.89097595214844,-20.720458984375
196633,0.1328277587890625,0.158172607421875,-0.6653594970703125,-2.02132248878479,-2.124912977218628,-0.8506703972816467,70.53990173339844,97.89097595214844,-20.720458984375
196634,0.26898193359375,0.0240631103515625,-0.4899749755859375,-0.9706695079803468,-4.450027942657471,-0.4532092809677124,69.30014038085938,98.4259033203125,-19.39999389648438
196635,0.261871337890625,0.0269775390625,-0.076873779296875,-0.4323082864284515,-4.10897970199585,-0.2031437903642654,68.57179260253906,98.81256103515624,-19.27703857421875
196636,0.301361083984375,-0.0111846923828125,0.2090301513671875,0.0858592465519905,0.2837970852851868,0.2221435904502869,67.8905029296875,99.01138305664062,-19.50157165527344
196637,0.301361083984375,-0.0111846923828125,0.2090301513671875,0.0858592465519905,0.2837970852851868,0.2221435904502869,67.8905029296875,99.01138305664062,-19.50157165527344
196638,0.252838134765625,0.09234619140625,-0.349151611328125,0.1761870086193085,0.985673725605011,0.2950255274772644,67.053955078125,99.30055236816406,-19.90237426757812
196639,0.1577606201171875,0.1600341796875,-0.281341552734375,0.1233981028199196,0.8470159769058228,0.2055811136960983,67.12611389160156,99.06843566894533,-19.790771484375
196640,0.1096954345703125,0.16253662109375,-0.155609130859375,-0.0724134817719459,0.6605454087257385,0.0434028692543506,67.40257263183594,98.91656494140624,-19.44320678710938
196641,0.1096954345703125,0.16253662109375,-0.155609130859375,-0.0724134817719459,0.6605454087257385,0.0434028692543506,67.40257263183594,98.91656494140624,-19.44320678710938
196642,0.048614501953125,0.160125732421875,-0.220123291015625,-0.4646065533161163,0.3371774852275848,-0.3711320161819458,67.63154602050781,98.70892333984376,-19.04719543457031
196643,0.00775146484375,0.1881103515625,-0.406158447265625,-0.5016447305679321,-0.1853685230016708,-0.558209240436554,67.67106628417969,98.56681823730467,-18.78782653808594
196644,-0.0142364501953125,0.255828857421875,-0.5562286376953125,-0.4040036499500275,-0.9114522337913512,-0.6576812267303467,67.48286437988281,98.7076416015625,-18.36822509765625
196645,-0.0142364501953125,0.255828857421875,-0.5562286376953125,-0.4040036499500275,-0.9114522337913512,-0.6576812267303467,67.48286437988281,98.7076416015625,-18.36822509765625
196646,0.03009033203125,0.535736083984375,-0.6231231689453125,-0.0192589163780212,-1.387287974357605,-0.6934173703193665,66.87228393554688,98.9852294921875,-18.02288818359375
196647,0.07196044921875,0.7674102783203125,-0.5672454833984375,0.431272566318512,-0.8274273872375488,-0.6215754151344299,66.39471435546875,99.2037353515625,-18.26390075683594
196648,0.078277587890625,1.018234252929688,-0.3696441650390625,0.9828502535820008,0.2084365636110306,-0.5094286203384399,65.9139404296875,99.44392395019533,-18.48855590820312
196649,0.078277587890625,1.018234252929688,-0.3696441650390625,0.9828502535820008,0.2084365636110306,-0.5094286203384399,65.9139404296875,99.44392395019533,-18.48855590820312
196650,0.0457305908203125,1.197036743164062,-0.2498016357421875,1.032099604606628,1.025751948356628,-0.5695114135742188,65.51876831054688,99.64085388183594,-18.82855224609375
196651,-0.031402587890625,1.386993408203125,-0.210968017578125,0.7301862835884094,0.555067241191864,-0.7961528301239014,65.03388977050781,99.80374145507812,-19.51777648925781
196652,-0.0311126708984375,1.480941772460938,-0.1346588134765625,0.5761243104934692,0.0193201676011085,-0.9510390758514404,64.89154052734375,99.81185913085938,-19.85639953613281
196653,-0.0311126708984375,1.480941772460938,-0.1346588134765625,0.5761243104934692,0.0193201676011085,-0.9510390758514404,64.89154052734375,99.81185913085938,-19.85639953613281
196654,-0.1982879638671875,2.112762451171875,0.273773193359375,0.8796114921569824,0.1412386149168015,-1.331039905548096,63.95010375976562,100.3034057617188,-20.64665222167969
196655,-0.38714599609375,2.750625610351562,0.4873046875,1.116550803184509,1.005951523780823,-1.825833678245544,63.27772521972656,100.5852661132812,-20.92878723144531
196656,-0.8226165771484375,3.679534912109375,0.5790863037109375,0.9729890823364258,2.36629843711853,-2.552135467529297,62.50520324707031,101.1463775634766,-21.51309204101562
196657,-0.8226165771484375,3.679534912109375,0.5790863037109375,0.9729890823364258,2.36629843711853,-2.552135467529297,62.50520324707031,101.1463775634766,-21.51309204101562
196658,-2.460601806640625,4.782730102539062,-0.1652374267578125,-0.5897599458694458,1.881407141685486,-1.024789690971375,60.61927795410156,102.1189575195312,-22.91770935058594
196659,-1.80877685546875,4.22650146484375,-0.04083251953125,-0.0650999099016189,-0.3267605304718018,-0.2676905691623688,59.90634155273438,102.6453857421875,-23.09024047851562
196660,-0.8449249267578125,2.961624145507812,0.594757080078125,0.7444707155227661,-0.6202073097229004,0.20599764585495,59.67654418945312,102.7377014160156,-23.03715515136719
196661,-0.8449249267578125,2.961624145507812,0.594757080078125,0.7444707155227661,-0.6202073097229004,0.20599764585495,59.67654418945312,102.7377014160156,-23.03715515136719
196662,-0.10382080078125,2.326873779296875,-0.0949859619140625,1.554712414741516,0.4542881548404694,0.8965646028518677,59.61886596679688,102.4895324707031,-23.122314453125
196663,0.0925750732421875,2.22760009765625,0.063446044921875,1.535764575004578,0.0590137839317321,0.8753810524940491,59.89048767089844,102.2446441650391,-23.6982421875
196664,0.1803741455078125,2.062545776367188,0.4575653076171875,1.392785549163818,-0.3696118593215942,0.9983237385749816,60.31369018554688,101.8199157714844,-24.29257202148438
196665,0.1803741455078125,2.062545776367188,0.4575653076171875,1.392785549163818,-0.3696118593215942,0.9983237385749816,60.31369018554688,101.8199157714844,-24.29257202148438
196666,0.160430908203125,1.507308959960938,0.469696044921875,1.5018550157547,-0.0051899682730436,1.165096998214722,61.48493957519531,100.8740386962891,-25.7041015625
196667,0.221588134765625,1.154754638671875,0.0947418212890625,1.6085125207901,-0.4999837279319763,1.299691557884216,62.08549499511719,100.2786560058594,-26.27313232421875
196668,0.3535614013671875,0.775360107421875,-0.07373046875,1.895472645759583,-2.517890214920044,1.278297305107117,63.27339172363281,99.30705261230467,-27.70831298828125
196669,0.3535614013671875,0.775360107421875,-0.07373046875,1.895472645759583,-2.517890214920044,1.278297305107117,63.27339172363281,99.30705261230467,-27.70831298828125
196670,0.4019927978515625,0.70745849609375,0.078826904296875,1.895472645759583,-2.517890214920044,1.278297305107117,63.69686889648438,98.73078918457033,-28.49000549316406
196671,0.4153289794921875,0.7068328857421875,0.086456298828125,1.874529004096985,-2.156007289886475,1.169545292854309,63.90660095214844,98.46896362304688,-29.44819641113281
196672,0.3788299560546875,0.71026611328125,-0.02764892578125,1.407224416732788,-0.3830302059650421,0.7163626551628113,63.96803283691406,97.99966430664062,-30.61212158203125
196673,0.3788299560546875,0.71026611328125,-0.02764892578125,1.407224416732788,-0.3830302059650421,0.7163626551628113,63.96803283691406,97.99966430664062,-30.61212158203125
196674,-0.1475982666015625,0.588287353515625,-0.0653076171875,0.9548673629760742,0.781022310256958,0.7638151049613953,64.05448913574219,97.38156127929688,-32.72715759277344
196675,-0.2859954833984375,0.7247772216796875,-0.0062713623046875,0.5594736933708191,1.233922958374023,0.9040278792381288,64.29237365722656,97.12350463867188,-33.445556640625
196676,-0.3406829833984375,0.7819976806640625,0.1569061279296875,0.2758765816688538,1.507280707359314,0.8961582183837891,64.76171875,96.81048583984376,-33.82281494140625
196677,-0.3406829833984375,0.7819976806640625,0.1569061279296875,0.2758765816688538,1.507280707359314,0.8961582183837891,64.76171875,96.81048583984376,-33.82281494140625
196678,-0.4709930419921875,0.654693603515625,0.2660980224609375,0.0286617390811443,1.829405188560486,0.7437697649002075,66.22109985351562,96.09893798828124,-34.04817199707031
196679,-0.49554443359375,0.53692626953125,0.252044677734375,-0.0681739971041679,1.835113167762756,0.6483460068702698,67.10447692871094,95.78912353515624,-33.93853759765625
196680,-0.4812774658203125,0.4332427978515625,0.2353515625,-0.1679549217224121,1.745372414588928,0.57591313123703,67.8583984375,95.4871826171875,-33.66009521484375
196681,-0.4812774658203125,0.4332427978515625,0.2353515625,-0.1679549217224121,1.745372414588928,0.57591313123703,67.8583984375,95.4871826171875,-33.66009521484375
196682,-0.3801727294921875,0.3034515380859375,0.3618011474609375,-0.3304689824581146,1.762502312660217,0.4920781254768372,69.37074279785156,94.98678588867188,-32.97837829589844
196683,-0.3190460205078125,0.3367767333984375,0.46063232421875,-0.5126696825027466,2.003748893737793,0.3180402815341949,70.02325439453125,94.96324157714844,-32.56875610351562
196684,-0.313690185546875,0.4064788818359375,0.5530853271484375,-0.8033446669578552,2.351774454116821,0.0643467679619789,70.62274169921875,94.97979736328124,-32.14396667480469
196685,-0.3426513671875,0.488525390625,0.6302337646484375,-1.144513726234436,2.694136381149292,-0.1793282181024551,71.13381958007812,95.03996276855467,-31.65470886230469
196686,-0.363555908203125,0.5784912109375,0.719268798828125,-1.43584680557251,2.994289398193359,-0.3594449758529663,71.5711669921875,95.0781707763672,-30.791259765625
196687,-0.361053466796875,0.6367950439453125,0.746917724609375,-1.596543431282043,3.169976234436035,-0.4525525569915771,71.93643188476562,95.25274658203124,-29.76042175292969
196688,-0.34320068359375,0.6537017822265625,0.68048095703125,-1.65597939491272,2.673009872436523,-0.4050574898719788,72.35307312011719,95.55378723144533,-28.6097412109375
196689,-0.34320068359375,0.6537017822265625,0.68048095703125,-1.65597939491272,2.673009872436523,-0.4050574898719788,72.35307312011719,95.55378723144533,-28.6097412109375
196690,-0.2981719970703125,0.689727783203125,0.4748077392578125,-1.668680548667908,2.075188875198364,-0.3873253464698792,72.74435424804688,96.17381286621094,-25.76228332519531
196691,-0.281585693359375,0.6732025146484375,0.436859130859375,-1.698844075202942,1.498367428779602,-0.4393592476844788,72.8455810546875,96.48171997070312,-24.53672790527344
196692,-0.263885498046875,0.6213226318359375,0.3968505859375,-1.827184200286865,0.4823855459690094,-0.759868323802948,72.80972290039062,96.8996124267578,-23.30197143554688
196693,-0.263885498046875,0.6213226318359375,0.3968505859375,-1.827184200286865,0.4823855459690094,-0.759868323802948,72.80972290039062,96.8996124267578,-23.30197143554688
196694,-0.200531005859375,0.451568603515625,0.2733154296875,-1.903214454650879,-0.0181728787720203,-0.9449878334999084,72.70701599121094,97.27775573730467,-21.24913024902344
196695,-0.154022216796875,0.3375091552734375,0.2253570556640625,-1.943749904632568,-0.393388569355011,-1.060705661773682,72.5113525390625,97.45846557617188,-20.29536437988281
196696,-0.117401123046875,0.262969970703125,0.1724853515625,-1.954883575439453,-0.604604959487915,-1.107518196105957,72.22494506835938,97.6339874267578,-19.33299255371094
196697,-0.117401123046875,0.262969970703125,0.1724853515625,-1.954883575439453,-0.604604959487915,-1.107518196105957,72.22494506835938,97.6339874267578,-19.33299255371094
196698,-0.0838165283203125,0.222686767578125,0.0689697265625,-1.942942976951599,-0.755396842956543,-1.131969213485718,71.68934631347656,97.78050231933594,-18.44541931152344
196699,-0.031494140625,0.1999664306640625,-0.224517822265625,-1.827309012413025,-0.9927380084991456,-1.101673007011414,71.06756591796875,98.1035614013672,-17.79246520996094
196700,0.111846923828125,0.2267608642578125,-0.741302490234375,-0.6647010445594788,-3.162162303924561,-0.8248901963233948,69.82260131835938,98.50285339355467,-16.37205505371094
196701,0.111846923828125,0.2267608642578125,-0.741302490234375,-0.6647010445594788,-3.162162303924561,-0.8248901963233948,69.82260131835938,98.50285339355467,-16.37205505371094
196702,0.026031494140625,0.1492156982421875,-0.001922607421875,0.00187300122343,0.6982326507568359,0.0683782547712326,68.31004333496094,98.9774169921875,-15.91580200195312
196703,0.026031494140625,0.1492156982421875,-0.001922607421875,0.00187300122343,0.6982326507568359,0.0683782547712326,68.31004333496094,98.9774169921875,-15.91580200195312
196704,0.2088470458984375,0.1399993896484375,-0.4271697998046875,-0.2200261056423187,0.3679721653461456,0.4021042883396149,67.318603515625,99.45059204101562,-16.64723205566406
196705,0.1997528076171875,0.13714599609375,-0.2770233154296875,-0.2200261056423187,0.3679721653461456,0.4021042883396149,67.204345703125,99.5786590576172,-16.45123291015625
196706,0.2012786865234375,0.1440887451171875,-0.2049407958984375,-0.4229320883750916,0.0762918442487716,0.5018119812011719,67.28228759765625,99.5,-16.10578918457031
196707,0.2023162841796875,0.1832122802734375,-0.200286865234375,-0.5410520434379578,-0.2034601867198944,0.5539385676383972,67.42729187011719,99.38412475585938,-15.62960815429688
196708,0.2029876708984375,0.2491912841796875,-0.1984100341796875,-0.4495098888874054,-0.5390448570251465,0.4673432111740112,67.49081420898438,99.27427673339844,-15.34257507324219
196709,0.2029876708984375,0.2491912841796875,-0.1984100341796875,-0.4495098888874054,-0.5390448570251465,0.4673432111740112,67.49081420898438,99.27427673339844,-15.34257507324219
196710,0.20751953125,0.3155059814453125,-0.1462554931640625,-0.4495098888874054,-0.5390448570251465,0.4673432111740112,67.71980285644531,99.12889099121094,-15.02618408203125
196711,0.217254638671875,0.38720703125,-0.15826416015625,-0.3311294615268707,-0.4893896579742432,0.3375412821769714,67.9205322265625,99.00698852539062,-14.69509887695312
196712,0.2185821533203125,0.5643157958984375,-0.3733673095703125,0.0435245744884014,-0.5346897840499878,-0.0269341450184583,68.2987060546875,98.7259521484375,-14.23281860351562
196713,0.2185821533203125,0.5643157958984375,-0.3733673095703125,0.0435245744884014,-0.5346897840499878,-0.0269341450184583,68.2987060546875,98.7259521484375,-14.23281860351562
196714,0.0725250244140625,0.688720703125,-0.43096923828125,0.5421426296234131,-0.3819676041603088,-0.2551063299179077,68.3514404296875,98.70095825195312,-14.05113220214844
196715,0.029937744140625,0.8106689453125,-0.3580169677734375,0.6586434245109558,-0.1253592520952225,-0.3160865902900696,68.2274169921875,98.90965270996094,-14.0650634765625
196716,0.024017333984375,0.9588470458984376,-0.2606353759765625,0.4945583343505859,-0.0001483380765421,-0.4940944015979767,68.14590454101562,98.95611572265624,-14.22225952148438
196717,0.024017333984375,0.9588470458984376,-0.2606353759765625,0.4945583343505859,-0.0001483380765421,-0.4940944015979767,68.14590454101562,98.95611572265624,-14.22225952148438
196718,0.0072174072265625,1.34271240234375,-0.239349365234375,0.4228276908397675,-0.2536900639533997,-0.5745839476585388,67.69033813476562,99.20449829101562,-15.02577209472656
196719,-0.0191192626953125,1.6197509765625,-0.13214111328125,0.5227636098861694,-0.3911091685295105,-0.6222675442695618,67.48158264160156,99.30946350097656,-15.32527160644531
196720,-0.1092681884765625,1.995773315429688,0.0903167724609375,0.909532070159912,0.7794966101646423,-1.026811361312866,67.32463073730469,99.45451354980467,-15.55567932128906
196721,-0.1092681884765625,1.995773315429688,0.0903167724609375,0.909532070159912,0.7794966101646423,-1.026811361312866,67.32463073730469,99.45451354980467,-15.55567932128906
196722,-0.2757720947265625,2.464019775390625,0.2678375244140625,0.8977611660957336,1.658645749092102,-1.613419413566589,66.85980224609375,99.7064208984375,-15.88999938964844
196723,-0.4947967529296875,3.033447265625,0.3900909423828125,0.8977611660957336,1.658645749092102,-1.613419413566589,66.35568237304688,100.0617980957031,-16.25492858886719
196724,-2.012481689453125,3.92095947265625,0.40252685546875,-0.0261130928993225,2.112409353256226,-2.318693399429321,65.25105285644531,101.0430450439453,-17.19558715820312
196725,-2.012481689453125,3.92095947265625,0.40252685546875,-0.0261130928993225,2.112409353256226,-2.318693399429321,65.25105285644531,101.0430450439453,-17.19558715820312
196726,-1.718276977539062,3.282516479492188,-0.05621337890625,0.1657349020242691,0.3833609819412231,-0.0280209816992282,63.7646484375,102.0063323974609,-17.83035278320312
196727,-1.718276977539062,3.282516479492188,-0.05621337890625,0.1657349020242691,0.3833609819412231,-0.0280209816992282,63.7646484375,102.0063323974609,-17.83035278320312
196728,-0.1910552978515625,2.444442749023438,-0.0405426025390625,1.222211956977844,0.8714787364006042,1.087065815925598,63.13151550292969,102.1682586669922,-17.57597351074219
196729,-0.1910552978515625,2.444442749023438,-0.0405426025390625,1.222211956977844,0.8714787364006042,1.087065815925598,63.13151550292969,102.1682586669922,-17.57597351074219
196730,-0.1910552978515625,2.444442749023438,-0.0405426025390625,1.222211956977844,0.8714787364006042,1.087065815925598,63.13151550292969,102.1682586669922,-17.57597351074219
196731,-0.091339111328125,2.358062744140625,0.1122283935546875,1.434390544891357,0.4817354679107666,0.8642349243164062,63.81626892089844,101.5045166015625,-18.17987060546875
196732,0.2073822021484375,2.08984375,0.5181427001953125,1.908167719841003,-0.2768401205539703,1.416500449180603,64.91598510742188,100.6636962890625,-19.6337890625
196733,0.2073822021484375,2.08984375,0.5181427001953125,1.908167719841003,-0.2768401205539703,1.416500449180603,64.91598510742188,100.6636962890625,-19.6337890625
196734,0.22576904296875,1.643218994140625,0.35931396484375,1.565440654754639,-0.1523581147193909,1.321344971656799,66.16944885253906,99.71751403808594,-21.44635009765625
196735,0.2717742919921875,1.309814453125,0.2044830322265625,1.434194803237915,-0.5961952209472656,1.194609045982361,66.77397155761719,99.29049682617188,-22.02040100097656
196736,0.3462982177734375,1.021957397460938,0.127838134765625,1.417742848396301,-1.025506615638733,1.11044704914093,67.3416748046875,98.86888122558594,-22.81147766113281
196737,0.3462982177734375,1.021957397460938,0.127838134765625,1.417742848396301,-1.025506615638733,1.11044704914093,67.3416748046875,98.86888122558594,-22.81147766113281
196738,0.463775634765625,0.694366455078125,0.0077362060546875,1.607022285461426,-1.488710999488831,1.037353754043579,68.01889038085938,98.01936340332033,-24.21484375
196739,0.4599761962890625,0.6080780029296875,-0.01678466796875,1.688561797142029,-1.449118614196777,0.948541820049286,68.3594970703125,97.72257995605467,-25.06219482421875
196740,0.4130859375,0.5658721923828125,0.00067138671875,1.676522493362427,-1.125844359397888,0.81830233335495,68.614990234375,97.36846923828124,-26.08767700195312
196741,0.2856597900390625,0.541534423828125,0.0360870361328125,1.514848947525024,-0.5055689215660095,0.7147336006164551,68.8052978515625,97.01235961914062,-27.02641296386719
196742,0.04595947265625,0.522186279296875,0.0189056396484375,1.241804361343384,0.0800815224647522,0.857531726360321,69.12971496582031,96.66300964355467,-27.82972717285156
196743,-0.12933349609375,0.60345458984375,0.0652313232421875,0.9114950895309448,0.4002773761749268,1.056678175926208,69.31071472167969,96.33799743652344,-28.638671875
196744,-0.202606201171875,0.657073974609375,0.2009124755859375,0.5752984285354614,0.6891390085220337,1.134792327880859,69.90560913085938,95.79954528808594,-29.23469543457031
196745,-0.202606201171875,0.657073974609375,0.2009124755859375,0.5752984285354614,0.6891390085220337,1.134792327880859,69.90560913085938,95.79954528808594,-29.23469543457031
196746,-0.29376220703125,0.5898284912109375,0.2896575927734375,0.2340836077928543,1.327192187309265,1.059525847434998,71.22828674316406,95.01310729980467,-29.62982177734375
196747,-0.3207550048828125,0.5210418701171875,0.2748565673828125,0.2011789083480835,1.492313742637634,0.959896206855774,71.9605712890625,94.83840942382812,-29.37576293945312
196748,-0.316650390625,0.4393310546875,0.2854766845703125,0.1716985255479813,1.578015923500061,0.8274960517883301,72.67372131347656,94.61434936523438,-29.17637634277344
196749,-0.316650390625,0.4393310546875,0.2854766845703125,0.1716985255479813,1.578015923500061,0.8274960517883301,72.67372131347656,94.61434936523438,-29.17637634277344
196750,-0.273101806640625,0.3841400146484375,0.4397125244140625,-0.0718225240707397,1.971105694770813,0.5473294258117676,74.03816223144531,93.9739227294922,-28.5792236328125
196751,-0.2483978271484375,0.4371795654296875,0.5930938720703125,-0.3593733608722687,2.498050451278687,0.3575243055820465,74.55598449707031,93.80470275878906,-28.07467651367188
196752,-0.241241455078125,0.5296478271484375,0.696807861328125,-1.218108534812927,3.598719120025635,-0.1459699869155884,75.13862609863281,93.65525817871094,-27.41831970214844
196753,-0.241241455078125,0.5296478271484375,0.696807861328125,-1.218108534812927,3.598719120025635,-0.1459699869155884,75.13862609863281,93.65525817871094,-27.41831970214844
196754,-0.3673858642578125,0.747344970703125,0.7211456298828125,-1.553434371948242,3.758149385452271,-0.4208846390247345,76.21061706542969,93.68167114257812,-25.32086181640625
196755,-0.3673858642578125,0.747344970703125,0.7211456298828125,-1.553434371948242,3.758149385452271,-0.4208846390247345,76.21061706542969,93.68167114257812,-25.32086181640625
196756,-0.4879150390625,0.8194427490234375,0.6960601806640625,-1.765174865722656,3.42788553237915,-0.6697796583175659,76.91293334960938,94.05599975585938,-22.30717468261719
196757,-0.4879150390625,0.8194427490234375,0.6960601806640625,-1.765174865722656,3.42788553237915,-0.6697796583175659,76.91293334960938,94.05599975585938,-22.30717468261719
196758,-0.4645233154296875,0.8353729248046875,0.482452392578125,-1.740726470947266,2.558877468109131,-0.5758124589920044,76.85386657714844,94.67984008789062,-19.18357849121094
196759,-0.4645233154296875,0.8353729248046875,0.482452392578125,-1.740726470947266,2.558877468109131,-0.5758124589920044,76.85386657714844,94.67984008789062,-19.18357849121094
196760,-0.319244384765625,0.71337890625,0.2952423095703125,-1.683996319770813,1.407624483108521,-0.7076572775840759,76.45419311523438,95.25880432128906,-16.29762268066406
196761,-0.319244384765625,0.71337890625,0.2952423095703125,-1.683996319770813,1.407624483108521,-0.7076572775840759,76.45419311523438,95.25880432128906,-16.29762268066406
196762,-0.1725006103515625,0.5033721923828125,0.147003173828125,-1.7434983253479,0.3702339828014374,-0.9313516616821288,75.87350463867188,95.76377868652344,-14.14051818847656
196763,-0.120452880859375,0.4112091064453125,0.0989227294921875,-1.809217929840088,-0.0549511313438415,-1.000358700752258,75.46089172363281,96.00823974609376,-13.33787536621094
196764,-0.067108154296875,0.333251953125,0.0692596435546875,-1.861914992332458,-0.4070926606655121,-1.031174659729004,75.04537963867188,96.1319580078125,-12.52890014648438
196765,-0.067108154296875,0.333251953125,0.0692596435546875,-1.861914992332458,-0.4070926606655121,-1.031174659729004,75.04537963867188,96.1319580078125,-12.52890014648438
196766,0.036468505859375,0.239501953125,-0.0323333740234375,-1.856151342391968,-0.8873623609542847,-0.956831693649292,73.97836303710938,96.3323974609375,-10.96043395996094
196767,0.036468505859375,0.239501953125,-0.0323333740234375,-1.856151342391968,-0.8873623609542847,-0.956831693649292,73.97836303710938,96.3323974609375,-10.96043395996094
196768,0.1435394287109375,0.202606201171875,-0.1328887939453125,-1.414780616760254,-1.177485823631287,-0.2820093035697937,73.08343505859375,96.55291748046876,-9.76708984375
196769,0.179046630859375,0.1981964111328125,-0.19146728515625,-1.414780616760254,-1.177485823631287,-0.2820093035697937,72.58950805664062,96.66862487792967,-9.186477661132812
196770,0.19921875,0.1959075927734375,-0.29681396484375,-1.00659441947937,-1.272186756134033,-0.0518243163824081,72.31454467773438,96.72296142578124,-8.68231201171875
196771,0.18096923828125,0.2041473388671875,-0.3092193603515625,-0.485808253288269,-1.387408971786499,0.0685415118932724,72.0946044921875,96.58502197265624,-8.084152221679688
196772,0.133636474609375,0.2071380615234375,-0.200225830078125,-0.0103194825351238,-1.237926483154297,0.0447850488126277,72.00302124023438,96.71937561035156,-7.952346801757812
196773,0.133636474609375,0.2071380615234375,-0.200225830078125,-0.0103194825351238,-1.237926483154297,0.0447850488126277,72.00302124023438,96.71937561035156,-7.952346801757812
196774,0.0652618408203125,0.1362762451171875,-0.1071929931640625,0.5051742196083069,-0.214476078748703,-0.1711501777172089,71.78518676757812,96.66387939453124,-8.44464111328125
196775,0.057220458984375,0.1120452880859375,-0.1912689208984375,0.5243313908576965,0.4269467890262604,-0.2827802896499634,71.57107543945312,96.7796630859375,-8.695297241210938
196776,0.0565643310546875,0.1333160400390625,-0.4134063720703125,0.4140235483646393,0.8320207595825195,-0.3722089827060699,71.37504577636719,97.01235961914062,-8.73486328125
196777,0.0565643310546875,0.1333160400390625,-0.4134063720703125,0.4140235483646393,0.8320207595825195,-0.3722089827060699,71.37504577636719,97.01235961914062,-8.73486328125
196778,0.0586700439453125,0.2976226806640625,-0.583587646484375,-0.2654889225959778,0.4402948319911957,-0.2746683061122894,70.72776794433594,97.50094604492188,-8.885452270507812
196779,0.09625244140625,0.3683624267578125,-0.3657684326171875,-0.4439454972743988,0.3025649189949036,-0.1961798965930939,70.54765319824219,97.55853271484376,-8.854766845703125
196780,0.15631103515625,0.4254608154296875,-0.3480224609375,-0.4665083289146423,0.2641786634922028,-0.0467848144471645,70.42869567871094,97.61415100097656,-8.704116821289062
196781,0.15631103515625,0.4254608154296875,-0.3480224609375,-0.4665083289146423,0.2641786634922028,-0.0467848144471645,70.42869567871094,97.61415100097656,-8.704116821289062
196782,0.2098388671875,0.71490478515625,-0.4474945068359375,-0.1865355223417282,0.0307722929865121,0.3623960316181183,70.16781616210938,97.50526428222656,-7.786483764648438
196783,0.165557861328125,0.9138946533203124,-0.300872802734375,0.1417161226272583,0.4088388979434967,0.4626960158348083,70.24433898925781,97.3232421875,-7.530731201171875
196784,0.06787109375,1.137771606445312,-0.2555999755859375,0.4979301691055298,0.8930729627609253,0.4084444940090179,70.30268859863281,97.26579284667967,-7.362747192382812
196785,0.06787109375,1.137771606445312,-0.2555999755859375,0.4979301691055298,0.8930729627609253,0.4084444940090179,70.30268859863281,97.26579284667967,-7.362747192382812
196786,0.0140838623046875,1.696701049804688,-0.5081939697265625,1.059901356697083,0.3032299280166626,-0.0676075369119644,70.42092895507812,97.2043914794922,-7.163650512695312
196787,0.05535888671875,2.0670166015625,-0.3385467529296875,1.438005805015564,0.0341992489993572,-0.3534515500068665,70.32421875,97.26625061035156,-7.408355712890625
196788,0.055877685546875,2.439132690429688,-0.058197021484375,1.472744822502136,0.5795549750328064,-0.5151512026786804,70.0987548828125,97.42643737792967,-7.8734130859375
196789,0.055877685546875,2.439132690429688,-0.058197021484375,1.472744822502136,0.5795549750328064,-0.5151512026786804,70.0987548828125,97.42643737792967,-7.8734130859375
196790,-0.0869293212890625,3.15234375,-0.062164306640625,1.442141890525818,0.972506821155548,-0.7366492748260498,69.34930419921875,98.28643798828124,-9.12298583984375
196791,-0.216094970703125,3.420806884765625,-0.204010009765625,1.381196260452271,1.031000256538391,-1.001309156417847,69.032470703125,98.7474365234375,-9.827239990234377
196792,-0.3778533935546875,3.416854858398438,-0.3499298095703125,1.322571039199829,0.6360443830490112,-1.282772541046143,68.53770446777344,99.18243408203124,-10.55194091796875
196793,-0.5352630615234375,2.988906860351562,-0.323333740234375,1.231750845909119,0.1740258634090424,-1.346493124961853,68.04582214355469,99.70863342285156,-11.34671020507812
196794,-0.76214599609375,2.486526489257812,-0.239471435546875,1.028229951858521,0.1124538406729698,-1.053524732589722,67.43583679199219,100.1641387939453,-12.2017822265625
196795,-0.99163818359375,2.211074829101562,-0.20343017578125,0.823161780834198,0.4851022362709045,-0.2031041085720062,66.85087585449219,100.5572357177734,-12.86271667480469
196796,-0.7642364501953125,2.438278198242188,-0.1977691650390625,0.7927269339561462,0.5169930458068848,0.6251621246337891,66.58627319335938,100.9723510742188,-13.46807861328125
196797,-0.476409912109375,2.743988037109375,0.0648040771484375,1.059558033943176,0.3277618885040283,0.7480041980743408,66.62947082519531,101.0013580322266,-13.96710205078125
196798,-0.431854248046875,2.682327270507812,0.3094482421875,1.528991103172302,0.2292962968349457,0.7232077717781067,66.9124755859375,101.0144500732422,-14.25506591796875
196799,-0.3764190673828125,2.47772216796875,0.4373016357421875,1.901311635971069,0.3624942898750305,0.8575003147125244,67.34622192382812,100.5975494384766,-14.61953735351562
196800,-0.2657470703125,2.257583618164062,0.46136474609375,2.044189214706421,0.525937557220459,1.065029263496399,67.875,100.3710632324219,-15.30917358398438
196801,-0.2657470703125,2.257583618164062,0.46136474609375,2.044189214706421,0.525937557220459,1.065029263496399,67.875,100.3710632324219,-15.30917358398438
196802,-0.042724609375,1.650299072265625,0.4397125244140625,1.901687741279602,0.3385103940963745,1.070997357368469,68.99258422851562,99.5286865234375,-17.045166015625
196803,0.04241943359375,1.366348266601562,0.4217987060546875,1.84107494354248,-0.1089914664626122,1.098176598548889,69.59906005859375,99.1159210205078,-17.74615478515625
196804,0.1075439453125,1.223068237304688,0.36138916015625,1.84107494354248,-0.1089914664626122,1.098176598548889,70.14527893066406,98.77352905273438,-18.52775573730469
196805,0.1075439453125,1.223068237304688,0.36138916015625,1.84107494354248,-0.1089914664626122,1.098176598548889,70.14527893066406,98.77352905273438,-18.52775573730469
196806,0.035064697265625,1.1436767578125,0.1535186767578125,2.014189958572388,-0.1692500114440918,1.008129239082336,71.01899719238281,98.17662048339844,-19.94187927246094
196807,-0.07476806640625,1.111495971679688,0.156982421875,1.876400709152222,0.1749795377254486,0.994348168373108,71.44085693359375,97.8303680419922,-20.7669677734375
196808,-0.197845458984375,1.094680786132812,0.256591796875,1.591089606285095,0.7379326224327087,0.9879409074783324,71.72682189941406,97.5697021484375,-21.83760070800781
196809,-0.197845458984375,1.094680786132812,0.256591796875,1.591089606285095,0.7379326224327087,0.9879409074783324,71.72682189941406,97.5697021484375,-21.83760070800781
196810,-0.4171905517578125,1.026657104492188,0.3773651123046875,1.11586606502533,1.740578174591064,1.013740301132202,72.62153625488281,96.73747253417967,-23.44422912597656
196811,-0.47076416015625,0.913421630859375,0.3509979248046875,0.9081674814224244,2.073009252548218,0.9745725989341736,73.2279052734375,96.45811462402344,-23.63520812988281
196812,-0.4728851318359375,0.7415313720703125,0.241058349609375,0.5184956192970276,2.244573593139648,0.8218520283699036,73.91571044921875,96.05657958984376,-23.63890075683594
196813,-0.4728851318359375,0.7415313720703125,0.241058349609375,0.5184956192970276,2.244573593139648,0.8218520283699036,73.91571044921875,96.05657958984376,-23.63890075683594
196814,-0.35992431640625,0.473846435546875,0.1109161376953125,0.4462797343730927,2.113108396530151,0.7135133147239685,75.2366943359375,95.19851684570312,-23.39204406738281
196815,-0.2839813232421875,0.366363525390625,0.1834716796875,0.4830713272094727,2.054511070251465,0.625760018825531,75.93148803710938,94.7929229736328,-23.16989135742188
196816,-0.201904296875,0.27532958984375,0.2808074951171875,0.5380959510803223,2.146088361740112,0.5384672284126282,76.40875244140625,94.497802734375,-22.64389038085938
196817,-0.201904296875,0.27532958984375,0.2808074951171875,0.5380959510803223,2.146088361740112,0.5384672284126282,76.40875244140625,94.497802734375,-22.64389038085938
196818,-0.0739898681640625,0.1579742431640625,0.39532470703125,0.476916491985321,2.609518051147461,0.4079800248146057,77.3734130859375,94.08236694335938,-21.74745178222656
196819,-0.0468902587890625,0.14581298828125,0.4173736572265625,0.2582691013813019,2.757569551467896,0.2945837080478668,77.82054138183594,93.85118103027344,-21.30001831054688
196820,-0.0506439208984375,0.196380615234375,0.4237518310546875,-0.1357871294021606,2.696675300598145,0.0924276709556579,78.17955017089844,93.68521118164062,-20.75932312011719
196821,-0.0506439208984375,0.196380615234375,0.4237518310546875,-0.1357871294021606,2.696675300598145,0.0924276709556579,78.17955017089844,93.68521118164062,-20.75932312011719
196822,-0.1226959228515625,0.457550048828125,0.485443115234375,-1.148697018623352,2.014895439147949,-0.5090086460113525,78.71903991699219,93.33766174316406,-19.21360778808594
196823,-0.2158660888671875,0.5482940673828125,0.5703277587890625,-1.516518950462341,1.704422235488892,-0.7062013149261475,78.85011291503906,93.27809143066406,-18.19412231445312
196824,-0.276214599609375,0.5980072021484375,0.6275634765625,-1.739713191986084,1.529487490653992,-0.8196431994438171,78.69389343261719,93.49468994140624,-17.23468017578125
196825,-0.276214599609375,0.5980072021484375,0.6275634765625,-1.739713191986084,1.529487490653992,-0.8196431994438171,78.69389343261719,93.49468994140624,-17.23468017578125
196826,-0.26531982421875,0.6127166748046875,0.4804840087890625,-1.73502790927887,1.04465663433075,-0.9842010140419006,78.29486083984375,93.96849060058594,-15.06263732910156
196827,-0.207672119140625,0.5547637939453125,0.311370849609375,-1.605139136314392,0.5453274846076965,-1.084956645965576,78.04925537109375,94.23258972167967,-13.88723754882812
196828,-0.1231231689453125,0.481658935546875,0.164093017578125,-1.490552306175232,-0.0255250670015811,-1.151442408561707,77.62580871582031,94.42625427246094,-12.88166809082031
196829,-0.1231231689453125,0.481658935546875,0.164093017578125,-1.490552306175232,-0.0255250670015811,-1.151442408561707,77.62580871582031,94.42625427246094,-12.88166809082031
196830,-0.0319976806640625,0.3938446044921875,-0.1046295166015625,-1.600929141044617,-2.046225070953369,-1.356144785881042,76.703125,94.81826782226562,-11.41065979003906
196831,0.016143798828125,0.426513671875,-0.447052001953125,-1.600929141044617,-2.046225070953369,-1.356144785881042,76.22694396972656,95.0466766357422,-10.95787048339844
196832,0.067962646484375,0.4026947021484375,-0.4857940673828125,-1.629595994949341,-3.059083700180054,-1.442574143409729,75.68263244628906,95.18824768066406,-10.687744140625
196833,0.067962646484375,0.4026947021484375,-0.4857940673828125,-1.629595994949341,-3.059083700180054,-1.442574143409729,75.68263244628906,95.18824768066406,-10.687744140625
196834,0.195098876953125,0.2135009765625,-0.382781982421875,-1.157284617424011,-3.79266095161438,-1.147211194038391,74.49685668945312,95.63819885253906,-10.54350280761719
196835,0.2298126220703125,0.1080322265625,-0.3253326416015625,-0.5739940404891968,-3.508601903915405,-0.8122513294219971,73.75144958496094,95.99569702148438,-10.59552001953125
196836,0.19256591796875,0.0236053466796875,-0.1415863037109375,-0.1527269631624222,-1.983651518821716,-0.5199267864227295,73.09635925292969,96.37461853027344,-11.08653259277344
196837,0.19256591796875,0.0236053466796875,-0.1415863037109375,-0.1527269631624222,-1.983651518821716,-0.5199267864227295,73.09635925292969,96.37461853027344,-11.08653259277344
196838,0.1676177978515625,-0.0873565673828125,-0.3160247802734375,-0.0282225832343101,0.434699535369873,-0.1398583054542542,72.23698425292969,97.1734619140625,-11.77728271484375
196839,0.1404876708984375,-0.0644989013671875,-0.2942047119140625,-0.1051418632268906,0.4342758059501648,0.0090960264205932,72.0531005859375,97.15541076660156,-11.66276550292969
196840,0.1117401123046875,-0.047821044921875,-0.258209228515625,-0.2117945402860641,0.1390849202871323,0.1040390506386757,71.9716796875,97.22975158691406,-11.74443054199219
196841,0.1117401123046875,-0.047821044921875,-0.258209228515625,-0.2117945402860641,0.1390849202871323,0.1040390506386757,71.9716796875,97.22975158691406,-11.74443054199219
196842,0.0782012939453125,-0.0060882568359375,-0.2156524658203125,-0.3056246340274811,-0.2405617386102676,0.1250884085893631,71.95042419433594,97.2081298828125,-11.6259765625
196843,0.0315399169921875,0.111480712890625,-0.0730438232421875,-0.4176190793514252,-0.5899767279624939,-0.1144117936491966,72.08245849609375,97.11286926269533,-10.78329467773438
196844,0.039581298828125,0.1937408447265625,-0.0960540771484375,-0.4166781902313232,-0.5275442600250244,-0.3019068539142609,72.17398071289062,96.95407104492188,-10.609619140625
196845,0.039581298828125,0.1937408447265625,-0.0960540771484375,-0.4166781902313232,-0.5275442600250244,-0.3019068539142609,72.17398071289062,96.95407104492188,-10.609619140625
196846,0.090606689453125,0.4430999755859375,-0.541168212890625,-0.045161884278059,-0.9340624809265136,-0.611944854259491,71.93960571289062,97.06370544433594,-10.33137512207031
196847,0.1272430419921875,0.617156982421875,-0.7279815673828125,0.4416311979293823,-1.26531708240509,-0.5979012250900269,71.7274169921875,97.12409973144533,-10.17805480957031
196848,0.10888671875,0.7909088134765625,-0.803192138671875,0.9972403645515442,-1.03508198261261,-0.3856619298458099,71.40863037109375,97.45451354980467,-10.36152648925781
196849,0.10888671875,0.7909088134765625,-0.803192138671875,0.9972403645515442,-1.03508198261261,-0.3856619298458099,71.40863037109375,97.45451354980467,-10.36152648925781
196850,0.0751953125,1.007919311523438,-0.9003143310546875,1.488352298736572,1.006438374519348,0.586912214756012,70.75929260253906,97.89266967773438,-11.14894104003906
196851,0.0652618408203125,1.271102905273438,-0.8780364990234375,1.064805269241333,1.46601665019989,0.8406789898872375,70.6800537109375,97.99470520019533,-11.53695678710938
196852,-0.010894775390625,1.70709228515625,-0.70440673828125,0.2916174829006195,1.420918107032776,0.5339201092720032,70.71697998046875,97.91690063476562,-11.84526062011719
196853,-0.010894775390625,1.70709228515625,-0.70440673828125,0.2916174829006195,1.420918107032776,0.5339201092720032,70.71697998046875,97.91690063476562,-11.84526062011719
196854,-0.121307373046875,2.728851318359375,-0.708343505859375,-0.5000606775283813,-0.1789111644029617,-1.506328344345093,71.14393615722656,97.6903076171875,-12.00930786132812
196855,-0.0373992919921875,3.117355346679688,-0.3214263916015625,-0.0799494236707687,-0.6174347400665283,-1.956444144248962,71.12332153320312,97.657958984375,-11.8243408203125
196856,-0.65814208984375,3.584381103515625,-0.1123199462890625,1.040723443031311,1.86638617515564,-1.945125937461853,69.82829284667969,98.34161376953124,-11.75877380371094
196857,-0.65814208984375,3.584381103515625,-0.1123199462890625,1.040723443031311,1.86638617515564,-1.945125937461853,69.82829284667969,98.34161376953124,-11.75877380371094
196858,-1.25299072265625,3.179275512695312,-0.246124267578125,1.053336381912231,2.692457675933838,-1.482840657234192,68.94581604003906,98.95370483398438,-12.04618835449219
196859,-1.25299072265625,3.179275512695312,-0.246124267578125,1.053336381912231,2.692457675933838,-1.482840657234192,68.94581604003906,98.95370483398438,-12.04618835449219
196860,-1.310012817382812,2.645172119140625,-0.636016845703125,0.6795138120651245,1.177467346191406,-0.0685236677527427,67.45645141601562,100.0172271728516,-12.89193725585938
196861,-1.310012817382812,2.645172119140625,-0.636016845703125,0.6795138120651245,1.177467346191406,-0.0685236677527427,67.45645141601562,100.0172271728516,-12.89193725585938
196862,-0.60137939453125,2.675216674804688,-0.02874755859375,0.7250269651412964,0.866866946220398,0.2788923382759094,67.04978942871094,100.2653045654297,-13.13055419921875
196863,-0.3847503662109375,2.66015625,-0.106109619140625,0.7640875577926636,1.311092019081116,0.5281863212585449,67.04380798339844,100.1845703125,-13.25221252441406
196864,-0.30194091796875,2.542160034179688,-0.001220703125,0.8349350690841675,1.163756966590881,0.769520103931427,67.0538330078125,100.0393218994141,-13.53001403808594
196865,-0.30194091796875,2.542160034179688,-0.001220703125,0.8349350690841675,1.163756966590881,0.769520103931427,67.0538330078125,100.0393218994141,-13.53001403808594
196866,-0.230438232421875,2.40863037109375,0.2378997802734375,0.8878380060195923,1.021340608596802,0.9030089378356934,67.17192077636719,99.97213745117188,-13.9847412109375
196867,-0.047271728515625,1.777923583984375,0.2369232177734375,1.219924092292786,0.8274675607681274,0.9731720685958862,67.98727416992188,99.51544189453124,-14.43675231933594
196868,-0.0066986083984375,1.393844604492188,0.23333740234375,1.828301072120667,0.1569163799285889,1.007045388221741,68.44857788085938,99.15029907226562,-14.72076416015625
196869,-0.0066986083984375,1.393844604492188,0.23333740234375,1.828301072120667,0.1569163799285889,1.007045388221741,68.44857788085938,99.15029907226562,-14.72076416015625
196870,0.142364501953125,0.8919525146484375,0.1129608154296875,1.868073225021362,-0.3447190225124359,0.974531888961792,69.54167175292969,98.63258361816406,-15.50283813476562
196871,0.2375335693359375,0.752685546875,0.0726470947265625,1.709090828895569,-1.045976758003235,0.9664137363433838,70.03564453125,98.25973510742188,-16.23040771484375
196872,0.2932586669921875,0.6849822998046875,0.2025299072265625,1.444602131843567,-1.523012518882751,0.9716188907623292,70.41313171386719,97.82014465332033,-17.17665100097656
196873,0.2932586669921875,0.6849822998046875,0.2025299072265625,1.444602131843567,-1.523012518882751,0.9716188907623292,70.41313171386719,97.82014465332033,-17.17665100097656
196874,0.50201416015625,0.6028900146484375,0.1861724853515625,0.8105418682098389,-1.859376430511475,1.157253503799438,71.22842407226562,97.07154846191406,-19.03987121582031
196875,0.49658203125,0.71533203125,0.11285400390625,0.5511273145675659,-1.524890899658203,1.140527963638306,71.50184631347656,96.7067413330078,-19.75703430175781
196876,0.353851318359375,0.7861175537109375,0.0417022705078125,0.1252103745937347,-0.3929177224636078,0.754570484161377,71.74906921386719,96.493896484375,-20.283203125
196877,0.353851318359375,0.7861175537109375,0.0417022705078125,0.1252103745937347,-0.3929177224636078,0.754570484161377,71.74906921386719,96.493896484375,-20.283203125
196878,-0.1540374755859375,0.662750244140625,-0.0084381103515625,-9.853696246864274e-05,0.8557553887367249,0.8754345774650574,72.35545349121094,96.13539123535156,-21.19786071777344
196879,-0.191436767578125,0.610107421875,0.0946502685546875,0.343100368976593,1.001508831977844,0.8560616970062256,72.73295593261719,95.88760375976562,-21.17770385742188
196880,-0.2286224365234375,0.5221099853515625,0.1267547607421875,0.343100368976593,1.001508831977844,0.8560616970062256,73.19354248046875,95.51644897460938,-20.92007446289062
196881,-0.2286224365234375,0.5221099853515625,0.1267547607421875,0.343100368976593,1.001508831977844,0.8560616970062256,73.19354248046875,95.51644897460938,-20.92007446289062
196882,-0.26129150390625,0.390777587890625,0.227783203125,0.3199010491371155,0.9166864156723022,0.6589882969856262,74.36720275878906,94.81045532226562,-20.54397583007812
196883,-0.2618560791015625,0.3427886962890625,0.2523345947265625,0.1341380923986435,0.9720886945724488,0.5320841073989868,74.86683654785156,94.51318359375,-20.57876586914062
196884,-0.2605743408203125,0.3132781982421875,0.295013427734375,-0.1272615492343903,1.144920587539673,0.3903115689754486,75.26593017578125,94.16334533691406,-20.59223937988281
196885,-0.2605743408203125,0.3132781982421875,0.295013427734375,-0.1272615492343903,1.144920587539673,0.3903115689754486,75.26593017578125,94.16334533691406,-20.59223937988281
196886,-0.2687530517578125,0.3370819091796875,0.3738250732421875,-0.4351080656051636,1.520594358444214,0.2262986451387405,75.56201171875,94.0034637451172,-20.6292724609375
196887,-0.27886962890625,0.416900634765625,0.425750732421875,-0.7876860499382019,2.024736166000366,0.0500860698521137,75.88336181640625,93.87765502929688,-20.39283752441406
196888,-0.2991790771484375,0.552093505859375,0.4119415283203125,-1.557430386543274,2.668454885482788,-0.3685143887996674,76.05242919921875,93.86842346191406,-19.82855224609375
196889,-0.2991790771484375,0.552093505859375,0.4119415283203125,-1.557430386543274,2.668454885482788,-0.3685143887996674,76.05242919921875,93.86842346191406,-19.82855224609375
196890,-0.3340606689453125,0.9170379638671876,0.4432220458984375,-1.786397576332092,2.596019268035889,-0.6418934464454651,76.20039367675781,94.0452880859375,-15.47697448730469
196891,-0.3167724609375,0.9204864501953124,0.3947296142578125,-1.65713894367218,2.342260837554932,-0.6489796042442322,76.13859558105469,94.14265441894533,-14.12773132324219
196892,-0.2498321533203125,0.9040985107421876,0.3168487548828125,-1.518656730651855,1.911139011383057,-0.633526086807251,75.84080505371094,94.26268005371094,-12.74491882324219
196893,-0.2498321533203125,0.9040985107421876,0.3168487548828125,-1.518656730651855,1.911139011383057,-0.633526086807251,75.84080505371094,94.26268005371094,-12.74491882324219
196894,-0.0879364013671875,0.823486328125,0.2589874267578125,-1.341885685920715,0.9780219197273254,-0.6210257411003113,75.246337890625,94.4303741455078,-10.47111511230469
196895,-0.025543212890625,0.789154052734375,0.234222412109375,-1.298151969909668,0.6181742548942566,-0.6285518407821655,74.90867614746094,94.5213623046875,-9.62841796875
196896,0.019775390625,0.714141845703125,0.2191009521484375,-1.310137271881104,0.3532379567623138,-0.6569083333015442,74.55830383300781,94.6249542236328,-9.059310913085938
196897,0.019775390625,0.714141845703125,0.2191009521484375,-1.310137271881104,0.3532379567623138,-0.6569083333015442,74.55830383300781,94.6249542236328,-9.059310913085938
196898,0.0569610595703125,0.5937042236328125,0.044158935546875,-1.275911092758179,0.0195638481527566,-0.7244263887405396,73.83139038085938,94.75648498535156,-7.815841674804688
196899,0.0601959228515625,0.509857177734375,-0.079986572265625,-1.172760248184204,-0.2199952155351639,-0.7600350379943848,73.40298461914062,94.85287475585938,-7.334579467773438
196900,0.0769195556640625,0.4093170166015625,-0.0922088623046875,-1.041231513023376,-0.4112264215946198,-0.763160228729248,73.01678466796875,94.99064636230467,-6.896652221679688
196901,0.0769195556640625,0.4093170166015625,-0.0922088623046875,-1.041231513023376,-0.4112264215946198,-0.763160228729248,73.01678466796875,94.99064636230467,-6.896652221679688
196902,0.1265716552734375,0.239013671875,-0.0218658447265625,-0.7719451785087585,-0.2558389604091644,-0.4748653173446655,72.36363220214844,95.15292358398438,-6.18450927734375
196903,0.131500244140625,0.1829833984375,-0.0555419921875,-0.7719451785087585,-0.2558389604091644,-0.4748653173446655,72.10453796386719,95.18760681152344,-5.740234375
196904,0.12603759765625,0.1331787109375,-0.10076904296875,-0.7242775559425354,-0.3248947262763977,-0.3827031552791595,71.94381713867188,95.26921081542967,-5.354400634765625
196905,0.12603759765625,0.1331787109375,-0.10076904296875,-0.7242775559425354,-0.3248947262763977,-0.3827031552791595,71.94381713867188,95.26921081542967,-5.354400634765625
196906,0.0968780517578125,0.0321044921875,-0.1142425537109375,-0.6798304319381714,-0.6167804002761841,-0.2976814806461334,71.70552062988281,95.17623901367188,-4.46551513671875
196907,0.0968780517578125,0.0321044921875,-0.1142425537109375,-0.6798304319381714,-0.6167804002761841,-0.2976814806461334,71.70552062988281,95.17623901367188,-4.46551513671875
196908,0.0417327880859375,-0.0065765380859375,-0.106964111328125,-0.7242322564125061,-0.7512995600700378,-0.4478544890880585,71.46601867675781,95.1840362548828,-4.10430908203125
196909,0.0417327880859375,-0.0065765380859375,-0.106964111328125,-0.7242322564125061,-0.7512995600700378,-0.4478544890880585,71.46601867675781,95.1840362548828,-4.10430908203125
196910,-0.024932861328125,0.0592803955078125,-0.1169281005859375,-0.7205309867858887,-0.7022342681884766,-0.6044595241546631,71.24154663085938,95.36260986328124,-3.876754760742188
196911,-0.024932861328125,0.0592803955078125,-0.1169281005859375,-0.7205309867858887,-0.7022342681884766,-0.6044595241546631,71.24154663085938,95.36260986328124,-3.876754760742188
196912,-0.07781982421875,0.25103759765625,-0.1143646240234375,-0.5821105241775513,-0.3884231150150299,-0.9572367668151855,70.69754028320312,95.760498046875,-3.405319213867188
196913,-0.07781982421875,0.25103759765625,-0.1143646240234375,-0.5821105241775513,-0.3884231150150299,-0.9572367668151855,70.69754028320312,95.760498046875,-3.405319213867188
196914,-0.0483551025390625,0.3258514404296875,-0.1449432373046875,-0.4862010776996613,-0.1179798990488052,-1.052772283554077,70.376708984375,95.78483581542967,-3.194198608398438
196915,-0.0067596435546875,0.4629058837890625,-0.47332763671875,-0.2373393177986145,0.0892814099788665,-0.6223591566085815,69.35356140136719,96.16705322265624,-2.67041015625
196916,-0.01251220703125,0.559844970703125,-0.6083526611328125,-0.046683881431818,0.0978061854839325,-0.2883159518241882,68.91032409667969,96.34222412109376,-2.55731201171875
196917,0.0196380615234375,0.6426544189453125,-0.6236419677734375,0.1600887328386307,0.268531858921051,-0.0337827317416667,68.58334350585938,96.58888244628906,-2.402633666992188
196918,0.0364532470703125,0.7668304443359375,-0.642059326171875,0.3717567920684814,0.4550157189369202,0.1146123334765434,68.44967651367188,96.67689514160156,-2.182205200195312
196919,0.0214691162109375,0.958038330078125,-0.692779541015625,0.5285868644714355,0.4150014519691467,0.176168367266655,68.33888244628906,96.71148681640624,-2.203125
196920,-0.003021240234375,1.214187622070312,-0.7532806396484375,0.6123936176300049,0.1652736514806747,0.1486989259719849,68.24093627929688,96.63362121582033,-2.131057739257812
196921,-0.003021240234375,1.214187622070312,-0.7532806396484375,0.6123936176300049,0.1652736514806747,0.1486989259719849,68.24093627929688,96.63362121582033,-2.131057739257812
196922,-0.0177459716796875,2.022842407226562,-0.560791015625,0.8908953070640564,0.6738362312316895,-0.614861011505127,68.23176574707031,96.83892822265624,-2.340667724609375
196923,-0.0177459716796875,2.022842407226562,-0.560791015625,0.8908953070640564,0.6738362312316895,-0.614861011505127,68.23176574707031,96.83892822265624,-2.340667724609375
196924,-0.113494873046875,2.845443725585938,-0.1687469482421875,0.9260522127151488,1.078507542610168,-1.102717280387878,67.3785400390625,97.47422790527344,-2.969573974609375
196925,-0.113494873046875,2.845443725585938,-0.1687469482421875,0.9260522127151488,1.078507542610168,-1.102717280387878,67.3785400390625,97.47422790527344,-2.969573974609375
196926,-0.554656982421875,3.678756713867188,-0.02532958984375,1.039353251457214,0.8701106309890747,-2.498852252960205,66.14544677734375,98.55084228515624,-3.653778076171875
196927,-1.380661010742188,3.729660034179688,-0.06964111328125,0.885331928730011,1.05530309677124,-2.501080513000488,65.28335571289062,99.2185516357422,-4.095184326171875
196928,-1.733108520507812,3.032211303710938,-0.7164764404296875,0.3869013786315918,0.3825172781944275,0.0651981756091117,63.38563537597656,100.4000396728516,-5.115097045898438
196929,-1.733108520507812,3.032211303710938,-0.7164764404296875,0.3869013786315918,0.3825172781944275,0.0651981756091117,63.38563537597656,100.4000396728516,-5.115097045898438
196930,-0.8264007568359375,2.80609130859375,-0.0636444091796875,0.3918463289737701,0.2185674905776978,0.2473413497209549,62.98069763183594,100.5630340576172,-5.31646728515625
196931,-0.662322998046875,2.667861938476562,0.1648712158203125,0.7173455953598022,0.9475564360618592,0.4401099979877472,62.91537475585938,100.5970306396484,-5.340423583984375
196932,-0.606292724609375,2.660812377929688,0.1367645263671875,1.228212118148804,1.064873695373535,0.6979484558105469,63.03607177734375,100.6779174804688,-5.692108154296875
196933,-0.606292724609375,2.660812377929688,0.1367645263671875,1.228212118148804,1.064873695373535,0.6979484558105469,63.03607177734375,100.6779174804688,-5.692108154296875
196934,-0.2735443115234375,2.45916748046875,0.539337158203125,2.075138807296753,0.9136602282524108,0.7855347990989685,63.50637817382812,100.3153533935547,-6.641189575195312
196935,-0.1896514892578125,2.247482299804688,0.63543701171875,2.001573801040649,1.074847221374512,0.700466513633728,64.00363159179688,100.1101226806641,-7.37060546875
196936,-0.0804443359375,1.760513305664062,0.5684967041015625,1.809021711349487,1.257526755332947,0.6687706112861633,64.48207092285156,99.82048034667967,-8.293731689453125
196937,-0.0804443359375,1.760513305664062,0.5684967041015625,1.809021711349487,1.257526755332947,0.6687706112861633,64.48207092285156,99.82048034667967,-8.293731689453125
196938,0.1236724853515625,0.9172210693359376,0.1257781982421875,1.586832761764526,0.2479626685380936,0.9981796741485596,65.19329833984375,99.45614624023438,-9.821258544921877
196939,0.2025909423828125,0.6844024658203125,0.0605621337890625,1.63051426410675,-0.5585842132568359,1.0703125,65.67256164550781,99.263916015625,-10.27313232421875
196940,0.262664794921875,0.558746337890625,0.148651123046875,1.670027852058411,-1.06698477268219,1.122133255004883,66.00947570800781,99.09713745117188,-10.93533325195312
196941,0.262664794921875,0.558746337890625,0.148651123046875,1.670027852058411,-1.06698477268219,1.122133255004883,66.00947570800781,99.09713745117188,-10.93533325195312
196942,0.330596923828125,0.58642578125,0.0362396240234375,1.445070385932922,-1.265591144561768,1.090141773223877,66.89353942871094,98.88694763183594,-12.3822021484375
196943,0.3018646240234375,0.7105255126953125,0.08935546875,1.188029527664185,-1.170929551124573,0.8721165657043457,67.34307861328125,98.67318725585938,-13.00953674316406
196944,0.1377410888671875,0.8626556396484375,0.2855682373046875,0.7861235737800598,-0.3797571957111359,0.4882516860961914,67.68867492675781,98.51466369628906,-13.70307922363281
196945,-0.19122314453125,0.8485107421875,0.27734375,0.3302631378173828,0.6057032346725464,0.4834848940372467,67.98605346679688,98.44224548339844,-14.31669616699219
196946,-0.3445892333984375,0.8455963134765625,0.2171173095703125,0.0434425473213195,1.257831692695618,0.5315203666687012,68.20504760742188,98.3141632080078,-14.83116149902344
196947,-0.4056396484375,0.7594451904296875,0.208282470703125,-0.0079221054911613,1.526177406311035,0.4909670650959015,68.5140380859375,98.18276977539062,-15.00643920898438
196948,-0.435028076171875,0.58697509765625,0.220001220703125,0.1117539629340172,1.51304304599762,0.4549001455307007,68.862548828125,97.99722290039062,-14.85905456542969
196949,-0.427032470703125,0.4193572998046875,0.21429443359375,0.2755932211875916,1.339203000068665,0.4377187490463257,69.33782958984375,97.7469482421875,-14.53526306152344
196950,-0.3742523193359375,0.2889251708984375,0.165435791015625,0.3635523915290833,0.8369923830032349,0.4706346094608307,69.64311218261719,97.5380859375,-14.38533020019531
196951,-0.28515625,0.2145843505859375,0.157623291015625,0.3635523915290833,0.8369923830032349,0.4706346094608307,69.90510559082031,97.316650390625,-14.30931091308594
196952,-0.1816864013671875,0.209259033203125,0.2103729248046875,-0.0086115980520844,1.065112590789795,0.3149779140949249,70.13273620605469,97.28515625,-14.37629699707031
196953,-0.1816864013671875,0.209259033203125,0.2103729248046875,-0.0086115980520844,1.065112590789795,0.3149779140949249,70.13273620605469,97.28515625,-14.37629699707031
196954,-0.113067626953125,0.364776611328125,0.4235076904296875,-0.3211655020713806,1.350497722625732,0.1726825535297394,70.57771301269531,97.04348754882812,-14.24406433105469
196955,-0.1337890625,0.50091552734375,0.5549163818359375,-0.6723083257675171,1.697964906692505,0.0424726270139217,70.75076293945312,96.94297790527344,-13.97018432617188
196956,-0.1407623291015625,0.648956298828125,0.6387786865234375,-1.244988918304443,2.330584526062012,-0.1992997825145721,70.74819946289062,96.73812866210938,-13.53099060058594
196957,-0.1407623291015625,0.648956298828125,0.6387786865234375,-1.244988918304443,2.330584526062012,-0.1992997825145721,70.74819946289062,96.73812866210938,-13.53099060058594
196958,-0.1321563720703125,0.8456573486328125,0.5991668701171875,-1.374973058700562,2.383495569229126,-0.2733297944068909,70.81361389160156,96.8779296875,-11.87454223632812
196959,-0.145050048828125,0.86065673828125,0.535369873046875,-1.403657078742981,2.200587749481201,-0.3612998723983765,70.69863891601562,96.86184692382812,-10.80111694335938
196960,-0.1686248779296875,0.8004608154296875,0.4520416259765625,-1.380905985832214,1.797939777374268,-0.4874010980129242,70.52311706542969,96.86553955078124,-9.789901733398438
196961,-0.1686248779296875,0.8004608154296875,0.4520416259765625,-1.380905985832214,1.797939777374268,-0.4874010980129242,70.52311706542969,96.86553955078124,-9.789901733398438
196962,-0.2636871337890625,0.559539794921875,0.346405029296875,-1.402691721916199,0.7345837354660034,-0.7942060232162476,70.25065612792969,96.85569763183594,-7.705276489257812
196963,-0.290252685546875,0.435272216796875,0.320465087890625,-1.557775616645813,0.347880482673645,-0.9027599096298218,69.95819091796875,96.93067932128906,-6.779129028320312
196964,-0.2796630859375,0.354644775390625,0.3046722412109375,-1.779190540313721,0.093870036303997,-0.991216003894806,69.74369812011719,96.9160614013672,-6.0550537109375
196965,-0.2796630859375,0.354644775390625,0.3046722412109375,-1.779190540313721,0.093870036303997,-0.991216003894806,69.74369812011719,96.9160614013672,-6.0550537109375
196966,-0.2164764404296875,0.2375946044921875,0.1483154296875,-2.122263193130493,-0.0150516536086797,-1.096425771713257,68.82148742675781,96.99162292480467,-4.37152099609375
196967,-0.2164764404296875,0.2375946044921875,0.1483154296875,-2.122263193130493,-0.0150516536086797,-1.096425771713257,68.82148742675781,96.99162292480467,-4.37152099609375
196968,-0.182220458984375,0.137420654296875,-0.381622314453125,-1.952808141708374,-0.9210036396980286,-1.105350017547607,67.78451538085938,96.926513671875,-2.720535278320312
196969,-0.1205291748046875,0.096099853515625,-0.4525146484375,-1.659503817558289,-1.558354616165161,-1.041163563728333,67.20204162597656,96.90530395507812,-1.902130126953125
196970,-0.047088623046875,0.094024658203125,-0.3913116455078125,-1.293228626251221,-1.856704473495483,-0.9122384190559388,66.68034362792969,97.01016235351562,-1.107467651367188
196971,-0.0482635498046875,0.07684326171875,-0.2523193359375,-1.052103638648987,-1.324342608451843,-0.7149852514266968,66.25834655761719,96.91200256347656,-0.6693115234375
196972,-0.0081024169921875,0.061553955078125,-0.3307952880859375,-0.5721234083175659,0.0177036300301551,-0.1358731389045715,65.94996643066406,96.84846496582033,-0.3522796630859375
196973,-0.0081024169921875,0.061553955078125,-0.3307952880859375,-0.5721234083175659,0.0177036300301551,-0.1358731389045715,65.94996643066406,96.84846496582033,-0.3522796630859375
196974,0.139190673828125,0.161285400390625,-0.3223114013671875,0.0020311928819864,0.3910101056098938,0.2480452209711075,65.3758544921875,96.91612243652344,0.27716064453125
196975,0.1630706787109375,0.164306640625,-0.19647216796875,0.0020311928819864,0.3910101056098938,0.2480452209711075,65.21963500976562,96.83750915527344,0.4023895263671875
196976,0.1839141845703125,0.162567138671875,-0.155120849609375,0.0359641276299953,0.5723000168800354,0.4145021140575409,65.12358093261719,96.89210510253906,0.7127838134765625
196977,0.1839141845703125,0.162567138671875,-0.155120849609375,0.0359641276299953,0.5723000168800354,0.4145021140575409,65.12358093261719,96.89210510253906,0.7127838134765625
196978,0.2418670654296875,0.1581268310546875,-0.295684814453125,-0.2597740590572357,0.3898955583572388,0.6489103436470032,65.05262756347656,96.82740783691406,1.1724853515625
196979,0.2664337158203125,0.20623779296875,-0.4073028564453125,-0.710258424282074,-0.4829602539539337,0.5266262292861938,65.1790771484375,96.779296875,1.423828125
196980,0.30865478515625,0.4611968994140625,-0.51690673828125,-0.83937668800354,-0.6948818564414978,0.2278906852006912,65.57145690917969,96.4085693359375,2.11541748046875
196981,0.30865478515625,0.4611968994140625,-0.51690673828125,-0.83937668800354,-0.6948818564414978,0.2278906852006912,65.57145690917969,96.4085693359375,2.11541748046875
196982,0.3074493408203125,0.626220703125,-0.4861602783203125,-0.7765077352523804,-0.5783752202987671,-0.1027580723166466,65.81764221191406,96.162841796875,2.677444458007812
196983,0.219207763671875,0.7785491943359375,-0.5037384033203125,-0.4825749099254608,-0.2974290251731873,-0.3797497153282166,65.95066833496094,96.03103637695312,3.147567749023438
196984,0.13189697265625,0.875946044921875,-0.592620849609375,0.0153866792097687,-0.1871701627969742,-0.5140880942344666,65.93205261230469,95.97625732421876,3.473922729492188
196985,0.13189697265625,0.875946044921875,-0.592620849609375,0.0153866792097687,-0.1871701627969742,-0.5140880942344666,65.93205261230469,95.97625732421876,3.473922729492188
196986,0.1429290771484375,1.3155517578125,-0.7806243896484375,1.186003088951111,-0.3775654137134552,-0.3210123777389526,65.47637939453125,96.11073303222656,3.83782958984375
196987,0.1429290771484375,1.3155517578125,-0.7806243896484375,1.186003088951111,-0.3775654137134552,-0.3210123777389526,65.47637939453125,96.11073303222656,3.83782958984375
196988,0.13177490234375,1.696701049804688,-0.7819366455078125,1.460961103439331,0.2269045263528824,0.1245786771178246,65.20970153808594,96.3109893798828,3.713027954101562
196989,0.068115234375,2.154434204101562,-0.54876708984375,1.134285807609558,0.6448250412940979,-0.2067009806632996,65.03733825683594,96.56668090820312,3.20751953125
196990,-0.116851806640625,2.961288452148438,-0.2894744873046875,0.8884963393211365,0.5594800710678101,-0.7785077691078186,64.69868469238281,97.1750030517578,1.965667724609375
196991,-0.208648681640625,3.17510986328125,-0.33087158203125,0.9284772872924804,0.0701428651809692,-1.186544299125671,64.43376159667969,97.46861267089844,1.417388916015625
196992,-0.413421630859375,3.257354736328125,-0.178497314453125,1.124268412590027,0.0672070011496543,-1.577036619186401,64.07252502441406,97.97845458984376,0.89569091796875
196993,-0.413421630859375,3.257354736328125,-0.178497314453125,1.124268412590027,0.0672070011496543,-1.577036619186401,64.07252502441406,97.97845458984376,0.89569091796875
196994,-0.8629608154296875,2.797943115234375,-0.18505859375,1.1945481300354,1.164547562599182,-1.940149068832397,62.80789184570312,99.28721618652344,-0.49566650390625
196995,-1.325973510742188,2.546127319335938,-0.282989501953125,0.9231277704238892,1.453503251075745,-1.231101632118225,61.97325134277344,99.96006774902344,-1.254867553710938
196996,-1.266616821289062,2.62579345703125,-0.4320831298828125,0.7440038323402405,1.030704379081726,-0.2370413094758987,61.04141235351562,100.5712890625,-2.155059814453125
196997,-1.266616821289062,2.62579345703125,-0.4320831298828125,0.7440038323402405,1.030704379081726,-0.2370413094758987,61.04141235351562,100.5712890625,-2.155059814453125
196998,-0.5647735595703125,2.62750244140625,0.21038818359375,0.9505511522293092,-0.3987897336483002,0.0841026231646537,60.11454772949219,101.1513977050781,-3.009078979492188
196999,-0.3278656005859375,2.447189331054688,0.2665863037109375,1.274897813796997,-0.0929246172308921,0.4034446775913239,60.17694091796875,101.1517791748047,-3.292938232421875
197000,-0.1773834228515625,2.4378662109375,0.2733001708984375,1.509155035018921,0.0530080907046794,0.8266153931617737,60.3135986328125,101.0848693847656,-3.87396240234375
197001,-0.1773834228515625,2.4378662109375,0.2733001708984375,1.509155035018921,0.0530080907046794,0.8266153931617737,60.3135986328125,101.0848693847656,-3.87396240234375
197002,-0.085540771484375,2.296951293945312,0.4444732666015625,1.447206497192383,0.1496555358171463,0.8216826319694519,61.03627014160156,100.86572265625,-5.246810913085938
