time_idx,accelerometerAccelerationX(G),accelerometerAccelerationY(G),accelerometerAccelerationZ(G),gyroRotationX(rad/s),gyroRotationY(rad/s),gyroRotationZ(rad/s),magnetometerX(µT),magnetometerY(µT),magnetometerZ(µT)
126105,-0.76837158203125,1.614517211914062,-0.3851318359375,0.3511777222156525,0.6639004945755005,-0.0850578993558883,15.81631469726562,78.51235961914062,8.780807495117188
126106,-0.9113922119140624,1.841690063476562,0.010650634765625,-0.0566749982535839,1.444152116775513,-0.123050294816494,15.80068969726562,78.5643310546875,8.511260986328125
126107,-1.478729248046875,2.506362915039062,-0.0104827880859375,-1.070199847221375,3.085546255111694,-0.8034725189208984,14.88668823242188,78.16001892089844,7.237457275390625
126108,-1.478729248046875,2.506362915039062,-0.0104827880859375,-1.070199847221375,3.085546255111694,-0.8034725189208984,14.88668823242188,78.16001892089844,7.237457275390625
126109,-2.13275146484375,2.553009033203125,0.02362060546875,-1.091458201408386,2.555849075317383,-0.5631011724472046,14.11656188964844,77.76577758789062,6.201095581054688
126110,-2.829742431640625,2.632675170898438,0.4214935302734375,-0.8373955488204956,2.106319427490234,0.455470860004425,13.28793334960938,77.33584594726562,4.943923950195312
126111,-3.215744018554688,3.987655639648438,0.385833740234375,0.4706748425960541,2.060818433761597,1.198542833328247,12.15838623046875,76.62957763671875,2.945693969726562
126112,-3.215744018554688,3.987655639648438,0.385833740234375,0.4706748425960541,2.060818433761597,1.198542833328247,12.15838623046875,76.62957763671875,2.945693969726562
126113,-2.720062255859375,3.680694580078125,0.1107635498046875,0.8387018442153931,2.239855766296387,0.6364350318908691,11.94119262695312,76.86341857910156,1.991348266601562
126114,-2.395965576171875,2.830902099609375,-0.2205047607421875,0.6841719150543213,2.505225658416748,0.3468945622444153,11.84629821777344,77.18008422851562,0.94256591796875
126115,-1.851028442382812,1.37933349609375,-0.4494476318359375,0.4658395946025848,1.252958178520203,0.250715047121048,11.43768310546875,78.23519897460938,-1.33349609375
126116,-1.851028442382812,1.37933349609375,-0.4494476318359375,0.4658395946025848,1.252958178520203,0.250715047121048,11.43768310546875,78.23519897460938,-1.33349609375
126117,-1.549560546875,0.99639892578125,-0.294464111328125,0.5374032855033875,0.9662669897079468,0.45126011967659,11.38005065917969,78.65875244140625,-2.139556884765625
126118,-1.3101806640625,0.754852294921875,-0.2569427490234375,0.7361757755279541,0.9737603664398192,0.5436292290687561,11.38862609863281,79.06678771972656,-2.804061889648438
126119,-0.944793701171875,0.3859710693359375,-0.3451995849609375,0.4027306735515594,0.2570003569126129,0.6079293489456177,12.00906372070312,79.80763244628906,-3.584625244140625
126120,-0.944793701171875,0.3859710693359375,-0.3451995849609375,0.4027306735515594,0.2570003569126129,0.6079293489456177,12.00906372070312,79.80763244628906,-3.584625244140625
126121,-0.8519439697265625,0.284332275390625,-0.2342987060546875,0.2151810228824615,-0.3406792879104614,0.6153817176818848,12.37165832519531,80.14215087890625,-3.720611572265625
126122,-0.78887939453125,0.260009765625,0.0314483642578125,0.1345913708209991,-0.5326436758041382,0.6242481470108032,12.93594360351562,80.3909912109375,-3.717147827148438
126123,-0.6767425537109375,0.2830810546875,0.1890106201171875,0.2299445122480392,-0.0663081854581832,0.6112955808639526,13.46029663085938,80.55941772460938,-3.64141845703125
126124,-0.5283203125,0.368072509765625,0.130340576171875,0.4090274572372437,0.7312374711036682,0.6434820294380188,13.98577880859375,80.70668029785156,-3.562896728515625
126125,-0.5341644287109375,0.5533599853515625,-0.0070648193359375,0.6362906694412231,1.673365831375122,0.4956150650978088,14.31155395507812,81.00871276855469,-3.63507080078125
126126,-0.5608673095703125,0.5716552734375,-0.0862884521484375,0.746195375919342,1.986181855201721,0.2001192420721054,14.54435729980469,81.237548828125,-3.927459716796875
126127,-0.5985260009765625,0.3798065185546875,0.03741455078125,0.2908174693584442,1.370088458061218,0.0910359025001525,14.37596130371094,81.6480712890625,-5.29766845703125
126128,-0.5985260009765625,0.3798065185546875,0.03741455078125,0.2908174693584442,1.370088458061218,0.0910359025001525,14.37596130371094,81.6480712890625,-5.29766845703125
126129,-0.5583953857421875,0.2922210693359375,0.04364013671875,0.1031152009963989,0.9845623970031738,0.05170713737607,14.30119323730469,81.802978515625,-6.001266479492188
126130,-0.5140838623046875,0.2219390869140625,0.088470458984375,0.0839178040623664,0.6611936688423157,0.0144591005519032,14.28173828125,81.70428466796875,-6.540908813476562
126131,-0.4617156982421875,0.123504638671875,0.135101318359375,0.170695573091507,0.4283095300197601,-0.038493063300848,14.13365173339844,81.92680358886719,-7.410171508789062
126132,-0.4617156982421875,0.123504638671875,0.135101318359375,0.170695573091507,0.4283095300197601,-0.038493063300848,14.13365173339844,81.92680358886719,-7.410171508789062
126133,-0.4466552734375,0.092010498046875,0.1168212890625,0.2728546857833862,0.3741501569747925,-0.088157020509243,14.04948425292969,81.97676086425781,-7.586227416992188
126134,-0.450714111328125,0.0771484375,0.11114501953125,0.3075815141201019,0.3449853658676147,-0.1873704195022583,14.03034973144531,82.06211853027344,-7.777496337890625
126135,-0.468353271484375,0.05810546875,0.06951904296875,0.2575676143169403,0.2123285084962845,-0.305628627538681,13.96983337402344,82.12394714355469,-7.947540283203125
126136,-0.502716064453125,0.0970458984375,0.08502197265625,0.0864384844899177,-0.0357058010995388,-0.4306107759475708,13.94302368164062,82.142578125,-8.250900268554688
126137,-0.520416259765625,0.1964111328125,0.2285919189453125,-0.2632859647274017,-0.2006630599498749,-0.5695633292198181,13.79512023925781,82.05117797851562,-8.200027465820312
126138,-0.5341339111328125,0.2713623046875,0.380523681640625,-0.6576353907585144,-0.2438126653432846,-0.6560385823249817,13.62602233886719,81.78131103515625,-8.053192138671875
126139,-0.5784454345703125,0.3719940185546875,0.4746856689453125,-0.9262407422065736,-0.2807717323303223,-0.7506484389305115,13.08094787597656,81.40631103515625,-7.941574096679688
126140,-0.5784454345703125,0.3719940185546875,0.4746856689453125,-0.9262407422065736,-0.2807717323303223,-0.7506484389305115,13.08094787597656,81.40631103515625,-7.941574096679688
126141,-0.57373046875,0.3280029296875,0.454315185546875,-0.7979182004928589,-0.316991001367569,-0.825556755065918,12.591552734375,81.30538940429688,-7.728195190429688
126142,-0.5524444580078125,0.2335052490234375,0.409393310546875,-0.6035897731781006,-0.3049207627773285,-0.91415536403656,12.08169555664062,81.09407043457031,-7.378555297851562
126143,-0.4558563232421875,-0.0100860595703125,0.1282196044921875,-0.189671665430069,-0.4588120579719543,-1.009738326072693,11.09255981445312,80.61509704589844,-6.968902587890625
126144,-0.4558563232421875,-0.0100860595703125,0.1282196044921875,-0.189671665430069,-0.4588120579719543,-1.009738326072693,11.09255981445312,80.61509704589844,-6.968902587890625
126145,-0.3723297119140625,-0.06658935546875,0.0271453857421875,0.0037374801468104,-0.7634856700897217,-0.961849331855774,10.59478759765625,80.36170959472656,-6.703887939453125
126146,-0.279510498046875,-0.0438079833984375,0.01531982421875,0.0985236465930938,-1.052617311477661,-0.8706483244895935,10.30044555664062,79.95622253417969,-6.410354614257812
126147,-0.1723480224609375,0.0783843994140625,0.0151214599609375,-0.0217542983591556,-1.443771839141846,-0.7158656716346741,10.06437683105469,79.2418212890625,-5.787750244140625
126148,-0.1723480224609375,0.0783843994140625,0.0151214599609375,-0.0217542983591556,-1.443771839141846,-0.7158656716346741,10.06437683105469,79.2418212890625,-5.787750244140625
126149,-0.1280517578125,0.0946197509765625,-0.0259246826171875,-0.1689797043800354,-1.646906018257141,-0.7050274014472961,10.27708435058594,79.01567077636719,-5.4169921875
126150,-0.0733184814453125,0.0666961669921875,-0.1030731201171875,-0.3142615258693695,-1.903866410255432,-0.6631369590759277,10.53350830078125,78.61970520019531,-4.605636596679688
126151,0.0268096923828125,0.048309326171875,-0.20361328125,-0.6087008714675903,-2.089826107025146,-0.4196947515010834,11.30317687988281,77.64370727539062,-2.684219360351562
126152,0.0268096923828125,0.048309326171875,-0.20361328125,-0.6087008714675903,-2.089826107025146,-0.4196947515010834,11.30317687988281,77.64370727539062,-2.684219360351562
126153,0.11102294921875,0.0579071044921875,-0.31103515625,-0.7625058889389038,-1.952894926071167,-0.0849455147981643,11.7861328125,77.12130737304688,-1.361618041992188
126154,0.1710052490234375,0.0823516845703125,-0.2611846923828125,-0.6976115703582764,-1.795488834381104,0.487526535987854,12.23757934570312,76.69790649414062,-0.0063018798828125
126155,0.13726806640625,0.14495849609375,-0.03680419921875,-0.4764775931835175,-1.241487383842468,0.9836124181747437,12.58445739746094,76.49668884277344,1.17230224609375
126156,0.0698394775390625,0.200592041015625,0.0955352783203125,-0.3183532059192657,-0.5061537623405457,1.225488662719727,12.669189453125,76.41627502441406,2.1856689453125
126157,0.0186309814453125,0.2264404296875,0.0744171142578125,-0.2241342961788177,0.0703724324703216,1.239177942276001,12.82969665527344,76.57289123535156,2.90606689453125
126158,0.0005035400390625,0.2407684326171875,-0.04034423828125,-0.1405659019947052,0.2571308612823486,1.133474946022034,13.18995666503906,76.95611572265625,3.361007690429688
126159,0.014404296875,0.2952728271484375,-0.2061614990234375,-0.0945006757974624,-0.4801170825958252,0.9558141231536864,13.80613708496094,77.779296875,3.347671508789062
126160,0.014404296875,0.2952728271484375,-0.2061614990234375,-0.0945006757974624,-0.4801170825958252,0.9558141231536864,13.80613708496094,77.779296875,3.347671508789062
126161,-0.0140838623046875,0.357940673828125,-0.1952362060546875,-0.1273403763771057,-0.9950366020202636,0.8217596411705017,14.04031372070312,78.13667297363281,3.559890747070312
126162,-0.0465545654296875,0.4088134765625,-0.149627685546875,-0.1694143265485764,-1.294554352760315,0.5768364071846008,14.46400451660156,78.44725036621094,3.7242431640625
126163,-0.144439697265625,0.3638153076171875,-0.13787841796875,-0.222756639122963,-0.9930205941200256,0.0383585728704929,15.04385375976562,78.92692565917969,4.58843994140625
126164,-0.144439697265625,0.3638153076171875,-0.13787841796875,-0.222756639122963,-0.9930205941200256,0.0383585728704929,15.04385375976562,78.92692565917969,4.58843994140625
126165,-0.2214813232421875,0.31610107421875,-0.228973388671875,-0.2852200269699097,-0.5347406268119812,0.010734137147665,15.19526672363281,79.12635803222656,5.209732055664062
126166,-0.3231353759765625,0.3748626708984375,-0.3745269775390625,-0.411287397146225,0.0119256349280476,0.0950950905680656,15.33670043945312,79.0526123046875,5.808868408203125
126167,-0.49102783203125,0.7711639404296875,-0.70977783203125,0.0434228405356407,0.590644896030426,0.108609564602375,15.50416564941406,78.92257690429688,6.332168579101562
126168,-0.49102783203125,0.7711639404296875,-0.70977783203125,0.0434228405356407,0.590644896030426,0.108609564602375,15.50416564941406,78.92257690429688,6.332168579101562
126169,-0.569183349609375,1.09576416015625,-0.8842926025390625,0.5382347106933594,0.7143042683601379,0.1438543796539307,15.42265319824219,78.80889892578125,6.406082153320312
126170,-0.6696929931640625,1.413742065429688,-0.815704345703125,0.556118369102478,1.099493026733398,0.3825790584087372,15.41485595703125,78.79515075683594,6.429824829101562
126171,-0.9767608642578124,2.303756713867188,-0.5288238525390625,-1.118476510047913,1.992783188819885,0.4614174365997314,15.08299255371094,78.6480712890625,5.881561279296875
126172,-0.9767608642578124,2.303756713867188,-0.5288238525390625,-1.118476510047913,1.992783188819885,0.4614174365997314,15.08299255371094,78.6480712890625,5.881561279296875
126173,-1.052780151367188,2.77972412109375,-0.2806549072265625,-1.692591428756714,2.097276926040649,-0.02155695669353,14.797607421875,78.54545593261719,5.519561767578125
126174,-1.245223999023438,3.338226318359375,0.1607208251953125,-2.035123825073242,2.57404351234436,-0.5569474101066589,14.39585876464844,78.53260803222656,5.03729248046875
126175,-2.583724975585938,5.391860961914062,0.3506317138671875,-1.145899057388306,2.216052293777466,-1.522158980369568,13.19216918945312,77.50804138183594,3.944076538085938
126176,-2.583724975585938,5.391860961914062,0.3506317138671875,-1.145899057388306,2.216052293777466,-1.522158980369568,13.19216918945312,77.50804138183594,3.944076538085938
126177,-3.755477905273438,5.301284790039062,0.61248779296875,0.3599800169467926,0.8005377054214478,-1.255338549613953,12.31959533691406,76.80955505371094,2.747543334960938
126178,-4.214065551757812,3.700088500976562,1.093307495117188,0.518394947052002,2.210098505020142,0.1536260396242142,11.48381042480469,76.04611206054688,1.47509765625
126179,-3.147979736328125,2.55047607421875,0.1162109375,0.4982974231243134,3.227280378341675,0.4822220504283905,10.82379150390625,75.56716918945312,0.3070526123046875
126180,-2.357421875,1.616180419921875,-1.054367065429688,0.9555895924568176,1.146176099777222,0.4308744370937347,10.36177062988281,75.57405090332031,-0.8705596923828125
126181,-2.142166137695312,1.27410888671875,-0.5141143798828125,0.7640462517738342,-0.3238028287887573,0.1488328874111176,10.17433166503906,76.04678344726562,-2.118408203125
126182,-1.822845458984375,1.078536987304688,-0.1584320068359375,0.3988398015499115,-0.4955101311206818,-0.0273216348141431,10.06526184082031,76.64466857910156,-3.019485473632812
126183,-1.409332275390625,0.5840606689453125,-0.00225830078125,0.6103898882865906,0.1942083537578583,-0.0059686764143407,10.3017578125,77.3692626953125,-3.16375732421875
126184,-1.409332275390625,0.5840606689453125,-0.00225830078125,0.6103898882865906,0.1942083537578583,-0.0059686764143407,10.3017578125,77.3692626953125,-3.16375732421875
126185,-1.202957153320312,0.411285400390625,0.1698455810546875,0.8919464349746704,0.7053422331809998,0.2065489143133163,10.7435302734375,77.35386657714844,-2.951614379882812
126186,-0.9732208251953124,0.3706817626953125,0.3080291748046875,0.8796319961547852,1.162952899932861,0.4095084071159363,11.27316284179688,77.37052917480469,-2.8177490234375
126187,-0.4803466796875,0.397735595703125,-0.04913330078125,0.659308135509491,1.221121191978455,0.7952142953872681,12.00242614746094,77.84992980957031,-3.600631713867188
126188,-0.4803466796875,0.397735595703125,-0.04913330078125,0.659308135509491,1.221121191978455,0.7952142953872681,12.00242614746094,77.84992980957031,-3.600631713867188
126189,-0.2693939208984375,0.4199066162109375,-0.2038116455078125,0.8607214093208313,0.9178004264831544,1.051959753036499,12.36140441894531,78.01991271972656,-4.175994873046875
126190,-0.1255950927734375,0.4078216552734375,-0.2517852783203125,1.170990347862244,0.7490654587745667,1.308775663375854,12.52384948730469,78.32508850097656,-4.81964111328125
126191,-0.1186981201171875,0.34326171875,-0.0303955078125,0.9954925179481506,0.7348324656486511,1.202651023864746,12.85400390625,79.36346435546875,-5.959854125976562
126192,-0.1186981201171875,0.34326171875,-0.0303955078125,0.9954925179481506,0.7348324656486511,1.202651023864746,12.85400390625,79.36346435546875,-5.959854125976562
126193,-0.1118011474609375,0.227020263671875,0.0232696533203125,0.4987144470214844,0.738661527633667,0.8933414220809937,13.01397705078125,80.06770324707031,-6.514328002929688
126194,-0.081878662109375,0.126983642578125,0.0207977294921875,0.1250015944242477,0.6645942330360413,0.576297402381897,13.22853088378906,80.5863037109375,-6.915679931640625
126195,-0.076080322265625,0.0117034912109375,0.166961669921875,-0.2821755111217499,0.7510756254196167,0.0252004284411668,13.73898315429688,81.05690002441406,-7.195327758789062
126196,-0.076080322265625,0.0117034912109375,0.166961669921875,-0.2821755111217499,0.7510756254196167,0.0252004284411668,13.73898315429688,81.05690002441406,-7.195327758789062
126197,-0.0954742431640625,-0.0699920654296875,0.1701202392578125,-0.4078380763530731,0.8505345582962036,-0.1192156076431274,13.90214538574219,81.16850280761719,-7.218093872070312
126198,-0.1373748779296875,-0.161163330078125,0.1701202392578125,-0.5455693006515503,0.8970485329627991,-0.1631074249744415,13.9769287109375,81.16319274902344,-7.281280517578125
126199,-0.3338775634765625,-0.31402587890625,0.3246002197265625,-1.212389945983887,0.9222079515457152,-0.1302437633275986,13.88368225097656,81.16134643554688,-7.631240844726562
126200,-0.3338775634765625,-0.31402587890625,0.3246002197265625,-1.212389945983887,0.9222079515457152,-0.1302437633275986,13.88368225097656,81.16134643554688,-7.631240844726562
126201,-0.4816131591796875,-0.3603668212890625,0.3968353271484375,-1.671821713447571,0.8910630941390991,-0.0888582319021225,13.85888671875,80.98233032226562,-7.8699951171875
126202,-0.6407623291015625,-0.3525543212890625,0.4583282470703125,-2.067655801773071,0.797382116317749,-0.0229519214481115,13.68916320800781,81.01885986328125,-7.972808837890625
126203,-0.923614501953125,-0.1432952880859375,0.5354461669921875,-2.354656219482422,0.4176939129829407,-0.0699407383799552,13.49571228027344,80.98646545410156,-7.650115966796875
126204,-0.923614501953125,-0.1432952880859375,0.5354461669921875,-2.354656219482422,0.4176939129829407,-0.0699407383799552,13.49571228027344,80.98646545410156,-7.650115966796875
126205,-1.062957763671875,0.01556396484375,0.4463958740234375,-2.294507741928101,0.2061001658439636,-0.2780862152576447,13.22428894042969,81.10075378417969,-7.617965698242188
126206,-1.169662475585938,0.15350341796875,0.2566986083984375,-2.095521926879883,-0.2278872281312943,-0.5619552135467529,12.92463684082031,81.11601257324219,-7.325363159179688
126207,-1.04278564453125,0.3254241943359375,0.1835784912109375,-1.702801704406738,-0.7383379936218262,-1.021375775337219,11.88833618164062,80.93170166015625,-6.357192993164062
126208,-1.04278564453125,0.3254241943359375,0.1835784912109375,-1.702801704406738,-0.7383379936218262,-1.021375775337219,11.88833618164062,80.93170166015625,-6.357192993164062
126209,-0.7811431884765625,0.3538818359375,0.110260009765625,-1.507628321647644,-0.7107564210891724,-0.9957069158554076,11.46475219726562,80.56759643554688,-5.541854858398438
126210,-0.5672454833984375,0.3909912109375,0.0332183837890625,-1.282788515090942,-0.6514376997947693,-0.9643407464027404,10.95545959472656,80.05648803710938,-4.589630126953125
126211,-0.2334442138671875,0.3565826416015625,-0.025360107421875,-0.8026575446128845,-0.560080349445343,-0.9805293083190918,10.46087646484375,78.8035888671875,-2.832611083984375
126212,-0.2334442138671875,0.3565826416015625,-0.025360107421875,-0.8026575446128845,-0.560080349445343,-0.9805293083190918,10.46087646484375,78.8035888671875,-2.832611083984375
126213,-0.127960205078125,0.254791259765625,-0.0362396240234375,-0.6045250296592712,-0.5305637121200562,-0.9677530527114868,10.30714416503906,77.66230773925781,-1.606292724609375
126214,-0.0515594482421875,0.1671295166015625,-0.08697509765625,-0.4570434391498566,-0.5680016279220581,-0.9159055948257446,10.30714416503906,77.66230773925781,-1.606292724609375
126215,0.0383148193359375,0.057098388671875,-0.1658477783203125,-0.0990536138415336,-0.9235224723815918,-0.7282379269599915,10.572021484375,76.39662170410156,-1.172119140625
126216,0.0383148193359375,0.057098388671875,-0.1658477783203125,-0.0990536138415336,-0.9235224723815918,-0.7282379269599915,10.572021484375,76.39662170410156,-1.172119140625
126217,0.07177734375,0.032958984375,-0.1687164306640625,0.099950835108757,-1.038333177566528,-0.6175942420959473,10.82890319824219,75.94746398925781,-0.8217620849609375
126218,0.1044769287109375,0.029632568359375,-0.201080322265625,0.2871390879154205,-1.122954607009888,-0.4686830639839172,11.06391906738281,75.56477355957031,-0.376251220703125
126219,0.2408599853515625,0.1896514892578125,-0.4730072021484375,0.4517549276351929,-2.334270000457764,0.4774366021156311,11.561279296875,74.95379638671875,0.6642608642578125
126220,0.2408599853515625,0.1896514892578125,-0.4730072021484375,0.4517549276351929,-2.334270000457764,0.4774366021156311,11.561279296875,74.95379638671875,0.6642608642578125
126221,0.20416259765625,0.3697052001953125,-0.401336669921875,0.7152531743049622,-2.791752338409424,1.251766920089722,11.71469116210938,74.99095153808594,1.43017578125
126222,-0.0261077880859375,0.5713348388671875,-0.21392822265625,0.9737784266471864,-2.476028919219971,1.429125785827637,11.81436157226562,75.39323425292969,2.34515380859375
126223,-0.11572265625,0.536651611328125,-0.230621337890625,0.5098257064819336,-0.7402700781822205,0.4255225360393524,12.5283203125,76.60926818847656,3.903976440429688
126224,-0.11572265625,0.536651611328125,-0.230621337890625,0.5098257064819336,-0.7402700781822205,0.4255225360393524,12.5283203125,76.60926818847656,3.903976440429688
126225,-0.1909637451171875,0.404571533203125,-0.607452392578125,-0.5480484366416931,-0.2193965315818787,-0.230880081653595,12.750244140625,77.09019470214844,4.154296875
126226,-0.318206787109375,0.3198699951171875,-0.43328857421875,-0.9862774610519408,-0.1977916359901428,-0.4171673953533173,12.84817504882812,77.20120239257812,4.316497802734375
126227,-0.29541015625,0.3291778564453125,-0.088653564453125,-1.111114263534546,0.408361941576004,-0.7036593556404114,12.80230712890625,76.83123779296875,4.684066772460938
126228,-0.29541015625,0.3291778564453125,-0.088653564453125,-1.111114263534546,0.408361941576004,-0.7036593556404114,12.80230712890625,76.83123779296875,4.684066772460938
126229,-0.3298187255859375,0.3294677734375,-0.19232177734375,-1.113944292068481,0.4768714904785156,-0.7877086997032166,12.59877014160156,76.47116088867188,4.667648315429688
126230,-0.384918212890625,0.373046875,-0.3038787841796875,-0.9866034388542176,0.3469552993774414,-0.8416523933410645,12.41355895996094,75.97479248046875,4.7230224609375
126231,-0.5469512939453125,0.5937957763671875,-0.4546966552734375,-0.3421584069728851,-0.0227599069476127,-0.8620556592941284,11.82255554199219,74.93704223632812,4.631439208984375
126232,-0.5469512939453125,0.5937957763671875,-0.4546966552734375,-0.3421584069728851,-0.0227599069476127,-0.8620556592941284,11.82255554199219,74.93704223632812,4.631439208984375
126233,-0.645538330078125,0.7434844970703125,-0.4086761474609375,-0.0534142218530178,-0.0438888929784297,-0.7624520659446716,11.47419738769531,74.48397827148438,4.544342041015625
126234,-0.777679443359375,0.8881072998046875,-0.33636474609375,0.0611661523580551,0.1625833213329315,-0.5996666550636292,11.2857666015625,74.03569030761719,4.547393798828125
126235,-1.170730590820312,1.113906860351562,-0.525909423828125,0.1267291754484177,0.7204298377037048,-0.2241643965244293,10.76895141601562,73.44493103027344,3.95843505859375
126236,-1.170730590820312,1.113906860351562,-0.525909423828125,0.1267291754484177,0.7204298377037048,-0.2241643965244293,10.76895141601562,73.44493103027344,3.95843505859375
126237,-1.441864013671875,1.193984985351562,-0.619110107421875,0.5023534297943115,0.6339337825775146,0.0260363947600126,10.54496765136719,73.40213012695312,3.539627075195312
126238,-1.617874145507812,1.269363403320312,-0.39984130859375,0.8811540007591248,0.8074536323547363,0.3069876432418823,10.245849609375,73.2528076171875,3.06268310546875
126239,-1.835784912109375,1.59002685546875,-0.4259490966796875,1.131454944610596,1.364463925361633,0.272079199552536,9.838623046875,73.51094055175781,2.169570922851562
126240,-1.835784912109375,1.59002685546875,-0.4259490966796875,1.131454944610596,1.364463925361633,0.272079199552536,9.838623046875,73.51094055175781,2.169570922851562
126241,-1.873153686523438,1.973037719726562,-0.615936279296875,1.279278993606567,1.083101749420166,0.1078455075621605,9.581924438476562,73.86109924316406,1.427032470703125
126242,-1.68878173828125,2.60076904296875,-0.5912322998046875,1.518739819526672,0.8936689496040344,0.2417939901351929,9.402938842773438,74.17965698242188,0.685333251953125
126243,-1.459869384765625,3.463882446289062,0.1345062255859375,1.263951420783997,1.443754196166992,0.6810073256492615,8.887451171875,74.53292846679688,-0.8990478515625
126244,-1.459869384765625,3.463882446289062,0.1345062255859375,1.263951420783997,1.443754196166992,0.6810073256492615,8.887451171875,74.53292846679688,-0.8990478515625
126245,-1.82379150390625,4.075363159179688,0.182342529296875,1.175398349761963,1.232282757759094,0.574803352355957,8.659286499023438,74.83500671386719,-1.78558349609375
126246,-2.267440795898438,4.315902709960938,-0.0486602783203125,1.687583684921265,0.538343071937561,0.7972436547279358,8.588119506835938,75.14842224121094,-2.737991333007812
126247,-2.216079711914062,2.423995971679688,0.01202392578125,2.207409620285034,0.3295640647411346,1.673050761222839,8.941436767578125,76.06060791015625,-4.717987060546875
126248,-1.602981567382812,1.540206909179688,-0.0018310546875,2.235095262527466,0.2910901606082916,1.645255923271179,9.614471435546877,76.87326049804688,-5.448867797851562
126249,-1.602981567382812,1.540206909179688,-0.0018310546875,2.235095262527466,0.2910901606082916,1.645255923271179,9.614471435546877,76.87326049804688,-5.448867797851562
126250,-1.303543090820312,0.8747711181640625,0.1348876953125,1.930307626724243,0.4367083609104156,1.601341485977173,10.32859802246094,77.77738952636719,-6.134536743164062
126251,-0.9335784912109376,0.09149169921875,0.2857208251953125,1.316560626029968,0.9027199745178224,1.374846220016479,11.61833190917969,79.69668579101562,-7.602813720703125
126252,-0.9335784912109376,0.09149169921875,0.2857208251953125,1.316560626029968,0.9027199745178224,1.374846220016479,11.61833190917969,79.69668579101562,-7.602813720703125
126253,-0.753021240234375,-0.158477783203125,0.2035064697265625,1.190189003944397,1.074466228485107,1.297796726226807,12.09774780273438,80.45864868164062,-8.149398803710938
126254,-0.5734405517578125,-0.257598876953125,0.1348419189453125,1.052522778511047,1.152440667152405,1.257835149765015,12.62153625488281,81.20060729980469,-8.74560546875
126255,-0.4201202392578125,-0.24005126953125,0.1698150634765625,0.7900615930557251,1.324917554855347,1.12777578830719,13.06895446777344,81.68692016601562,-9.591094970703123
126256,-0.26251220703125,-0.2085418701171875,0.217315673828125,0.4311833679676056,1.553875923156738,0.9558042287826538,13.4915771484375,82.12995910644531,-10.3348388671875
126257,-0.12664794921875,-0.1698455810546875,0.2394561767578125,0.0304809436202049,1.701623320579529,0.8307245969772339,13.82571411132812,82.60964965820312,-10.96330261230469
126258,-0.044677734375,-0.097320556640625,0.3033294677734375,-0.3554688990116119,1.773360371589661,0.7225459814071655,14.12638854980469,83.04946899414062,-11.45191955566406
126259,0.030242919921875,0.0567779541015625,0.420562744140625,-0.9657338261604308,1.831073760986328,0.4840367138385773,14.48631286621094,83.67381286621094,-12.35479736328125
126260,0.030242919921875,0.0567779541015625,0.420562744140625,-0.9657338261604308,1.831073760986328,0.4840367138385773,14.48631286621094,83.67381286621094,-12.35479736328125
126261,0.0357208251953125,0.1388702392578125,0.4167327880859375,-1.172938704490662,1.697995781898499,0.4000150561332703,14.59115600585938,83.96395874023438,-12.66801452636719
126262,-0.009185791015625,0.22479248046875,0.4393463134765625,-1.34033465385437,1.477530241012573,0.315797358751297,14.487060546875,84.18728637695312,-12.88325500488281
126263,-0.1236114501953125,0.3079071044921875,0.4862823486328125,-1.466095685958862,1.249762654304504,0.1663540899753571,14.39349365234375,84.31134033203125,-13.18940734863281
126264,-0.2412109375,0.3624725341796875,0.517303466796875,-1.570812821388245,0.9386745095252992,-0.0455536358058452,14.29615783691406,84.3511962890625,-13.37590026855469
126265,-0.3616943359375,0.39276123046875,0.5480194091796875,-1.652194738388062,0.4716791212558746,-0.3183582723140717,14.27346801757812,84.61813354492188,-13.4483642578125
126266,-0.4985504150390625,0.404266357421875,0.6046905517578125,-1.730561256408691,-0.1277473121881485,-0.6055655479431152,14.18553161621094,84.656005859375,-13.28236389160156
126267,-0.72515869140625,0.4779815673828125,0.80999755859375,-1.987910747528076,-1.388046264648438,-0.988667368888855,14.10525512695312,84.22959899902344,-12.38162231445312
126268,-0.72515869140625,0.4779815673828125,0.80999755859375,-1.987910747528076,-1.388046264648438,-0.988667368888855,14.10525512695312,84.22959899902344,-12.38162231445312
126269,-0.7891845703125,0.5377197265625,0.90911865234375,-2.223618745803833,-1.840775847434998,-1.024309277534485,14.05610656738281,83.82646179199219,-11.42909240722656
126270,-0.812286376953125,0.5942840576171875,0.919586181640625,-2.477997541427612,-2.093647003173828,-0.9714412689208984,13.98985290527344,83.33528137207031,-10.38154602050781
126271,-0.7458343505859375,0.6394500732421875,0.668365478515625,-2.719802856445312,-2.372884750366211,-0.6994595527648926,13.52589416503906,82.38555908203125,-7.366104125976562
126272,-0.7458343505859375,0.6394500732421875,0.668365478515625,-2.719802856445312,-2.372884750366211,-0.6994595527648926,13.52589416503906,82.38555908203125,-7.366104125976562
126273,-0.675628662109375,0.6796417236328125,0.510284423828125,-2.692059993743896,-2.427696466445923,-0.6069490313529968,13.31410217285156,81.80874633789062,-5.688888549804688
126274,-0.5886993408203125,0.658538818359375,0.37451171875,-2.581371545791626,-2.376400470733643,-0.6550305485725403,13.10792541503906,81.27922058105469,-3.94427490234375
126275,-0.4989166259765625,0.52899169921875,0.1016082763671875,-2.188359975814819,-1.98628830909729,-0.945024847984314,12.90460205078125,80.27406311035156,-0.926483154296875
126276,-0.4989166259765625,0.52899169921875,0.1016082763671875,-2.188359975814819,-1.98628830909729,-0.945024847984314,12.90460205078125,80.27406311035156,-0.926483154296875
126277,-0.4450531005859375,0.473480224609375,-0.141815185546875,-1.745021343231201,-1.683772087097168,-1.12166702747345,12.79945373535156,79.71469116210938,0.3565216064453125
126278,-0.37408447265625,0.348846435546875,-0.646026611328125,-0.840492844581604,-1.962474584579468,-1.228156685829163,12.70751953125,79.02996826171875,1.57305908203125
126279,-0.326171875,0.2105255126953125,0.044403076171875,-0.0117211043834686,-1.279799103736877,-1.199816942214966,12.78659057617188,77.64059448242188,3.79473876953125
126280,-0.326171875,0.2105255126953125,0.044403076171875,-0.0117211043834686,-1.279799103736877,-1.199816942214966,12.78659057617188,77.64059448242188,3.79473876953125
126281,-0.26776123046875,0.1951141357421875,-0.095184326171875,-0.1452474743127823,-0.5266789793968201,-1.142796516418457,12.97781372070312,76.95504760742188,4.487777709960938
126282,-0.19732666015625,0.27398681640625,-0.438385009765625,-0.0944785699248313,-0.4367562830448151,-1.073053598403931,13.19941711425781,76.29002380371094,4.973388671875
126283,-0.0367431640625,0.401763916015625,-0.5218048095703125,0.1596189588308334,-1.119114875793457,-0.7763572335243225,13.57896423339844,75.02278137207031,5.683074951171875
126284,-0.0367431640625,0.401763916015625,-0.5218048095703125,0.1596189588308334,-1.119114875793457,-0.7763572335243225,13.57896423339844,75.02278137207031,5.683074951171875
126285,-0.0205078125,0.4547271728515625,-0.4431915283203125,0.2362088114023209,-1.09986686706543,-0.5785858631134033,13.62254333496094,74.52423095703125,6.06048583984375
126286,0.0045928955078125,0.431793212890625,-0.4033203125,0.3438599109649658,-0.9025724530220032,-0.3940823376178741,13.5987548828125,74.21342468261719,6.31591796875
126287,0.038848876953125,0.3849029541015625,-0.3887176513671875,0.4225363433361053,-0.6970387101173401,-0.2064075022935867,13.41871643066406,74.09385681152344,6.75592041015625
126288,0.069793701171875,0.3628387451171875,-0.38348388671875,0.4939748346805573,-0.662589430809021,-0.0293064899742603,13.43057250976562,74.19256591796875,6.930618286132812
126289,0.0517120361328125,0.359710693359375,-0.3356475830078125,0.5848437547683716,-0.6236358880996704,0.0427234955132007,13.39132690429688,74.26553344726562,7.227691650390625
126290,0.00506591796875,0.38775634765625,-0.29949951171875,0.6644440293312073,-0.5378807783126831,-0.0441245846450328,13.53280639648438,74.35232543945312,7.503921508789062
126291,-0.153045654296875,0.5204620361328125,-0.438201904296875,0.7676119804382324,-0.5752356052398682,-0.3689082562923431,13.63623046875,74.85630798339844,7.757476806640625
126292,-0.153045654296875,0.5204620361328125,-0.438201904296875,0.7676119804382324,-0.5752356052398682,-0.3689082562923431,13.63623046875,74.85630798339844,7.757476806640625
126293,-0.3259429931640625,0.5577239990234375,-0.43682861328125,0.8639443516731262,-0.5781653523445129,-0.4187668859958649,13.63504028320312,74.93641662597656,7.909103393554688
126294,-0.4759368896484375,0.6221466064453125,-0.3626251220703125,0.8944548964500427,-0.3343601524829865,-0.4354995489120483,13.64285278320312,74.91191101074219,7.914901733398438
126295,-0.700927734375,0.8040618896484375,-0.1977386474609375,0.5602220296859741,0.3786136209964752,-0.5457634329795837,13.36759948730469,74.95135498046875,8.036758422851562
126296,-0.700927734375,0.8040618896484375,-0.1977386474609375,0.5602220296859741,0.3786136209964752,-0.5457634329795837,13.36759948730469,74.95135498046875,8.036758422851562
126297,-0.782379150390625,0.918701171875,-0.0487518310546875,0.323337584733963,0.8276393413543701,-0.6720324754714966,13.21601867675781,74.992919921875,7.848419189453125
126298,-0.8789215087890625,1.060714721679688,0.102813720703125,0.1512728780508041,1.338840365409851,-0.8594593405723572,13.04420471191406,74.94563293457031,7.600601196289062
126299,-1.535919189453125,1.1927490234375,0.3771209716796875,0.2654841244220734,2.05888032913208,-0.9428389072418212,12.19752502441406,74.85978698730469,6.595748901367188
126300,-1.535919189453125,1.1927490234375,0.3771209716796875,0.2654841244220734,2.05888032913208,-0.9428389072418212,12.19752502441406,74.85978698730469,6.595748901367188
126301,-1.995391845703125,1.346176147460938,0.54498291015625,0.4031674265861511,2.33877968788147,-0.6401155591011047,11.51123046875,74.5572509765625,5.768142700195312
126302,-2.383819580078125,1.808441162109375,0.5795440673828125,0.353262722492218,2.621901273727417,-0.5807957649230957,10.67428588867188,74.46867370605469,4.784530639648438
126303,-3.092376708984375,2.5616455078125,0.202667236328125,-0.3231740593910217,1.385298132896423,-0.7168630361557007,9.115829467773438,74.34695434570312,2.1473388671875
126304,-3.092376708984375,2.5616455078125,0.202667236328125,-0.3231740593910217,1.385298132896423,-0.7168630361557007,9.115829467773438,74.34695434570312,2.1473388671875
126305,-2.974441528320312,2.464584350585938,0.2768096923828125,-0.3914548456668854,0.2360599339008331,-0.0711458176374435,8.192169189453125,74.26933288574219,0.8051300048828125
126306,-2.186676025390625,2.2178955078125,0.4772186279296875,0.2548551857471466,-0.1865099519491196,0.3879040479660034,7.422515869140625,73.87046813964844,-0.0264892578125
126307,-1.309951782226562,1.7281494140625,0.6012115478515625,1.329930186271667,0.209171324968338,0.5565945506095886,6.609695434570312,73.77488708496094,-1.248321533203125
126308,-1.309951782226562,1.7281494140625,0.6012115478515625,1.329930186271667,0.209171324968338,0.5565945506095886,6.609695434570312,73.77488708496094,-1.248321533203125
126309,-1.337814331054688,1.700546264648438,0.440704345703125,1.51494026184082,0.6568902730941772,0.4459905326366425,6.787857055664062,74.00932312011719,-1.319534301757812
126310,-1.357650756835938,1.634857177734375,0.1912384033203125,1.620939135551453,0.5190905928611755,0.5746105313301086,6.989089965820312,74.36979675292969,-1.631591796875
126311,-1.055007934570312,1.664077758789062,-0.06951904296875,1.498810291290283,-0.6333087682723999,1.155306220054626,8.069564819335938,75.07258605957031,-2.238296508789062
126312,-1.055007934570312,1.664077758789062,-0.06951904296875,1.498810291290283,-0.6333087682723999,1.155306220054626,8.069564819335938,75.07258605957031,-2.238296508789062
126313,-0.8019256591796875,1.623184204101562,-0.0045013427734375,1.450861096382141,-0.780346155166626,1.463285088539124,8.857101440429688,75.59242248535156,-2.451202392578125
126314,-0.685455322265625,1.507919311523438,0.09027099609375,1.577264904975891,-0.1078415140509605,1.511894702911377,9.566940307617188,76.1416015625,-2.331573486328125
126315,-0.614288330078125,0.9844970703125,-0.13067626953125,1.505824208259583,1.045717358589172,1.02014696598053,10.85873413085938,77.4405517578125,-2.331466674804688
126316,-0.614288330078125,0.9844970703125,-0.13067626953125,1.505824208259583,1.045717358589172,1.02014696598053,10.85873413085938,77.4405517578125,-2.331466674804688
126317,-0.59991455078125,0.7574615478515625,-0.1682586669921875,1.216959118843079,0.7860192060470581,0.808883786201477,11.31706237792969,78.19541931152344,-2.72589111328125
126318,-0.557373046875,0.6000213623046875,-0.1151580810546875,0.9547645449638368,0.2979443371295929,0.7494910359382629,11.87388610839844,78.74624633789062,-3.30560302734375
126319,-0.40338134765625,0.3798980712890625,0.1022491455078125,0.8696004152297974,0.2944697141647339,0.99702388048172,12.90533447265625,79.53068542480469,-4.28350830078125
126320,-0.40338134765625,0.3798980712890625,0.1022491455078125,0.8696004152297974,0.2944697141647339,0.99702388048172,12.90533447265625,79.53068542480469,-4.28350830078125
126321,-0.324676513671875,0.335723876953125,0.1185150146484375,0.853644073009491,0.6576665639877319,1.151162505149841,13.24224853515625,79.94349670410156,-4.596023559570312
126322,-0.2575836181640625,0.311370849609375,0.06500244140625,0.6741976141929626,0.8627307415008545,1.239396572113037,13.60844421386719,80.43276977539062,-4.977584838867188
126323,-0.1628570556640625,0.255859375,0.1014404296875,-0.0167635343968868,0.7653416395187378,1.254582166671753,14.17939758300781,81.40414428710938,-5.825149536132812
126324,-0.1628570556640625,0.255859375,0.1014404296875,-0.0167635343968868,0.7653416395187378,1.254582166671753,14.17939758300781,81.40414428710938,-5.825149536132812
126325,-0.1453399658203125,0.2165679931640625,0.171356201171875,-0.3687551319599152,0.7602595090866089,1.166931986808777,14.46186828613281,81.78616333007812,-6.25762939453125
126326,-0.1435394287109375,0.17486572265625,0.2325286865234375,-0.6570401787757874,0.842357873916626,1.022080779075623,14.77851867675781,82.26454162597656,-6.482559204101562
126327,-0.221893310546875,0.0770721435546875,0.3026123046875,-1.072784423828125,1.127059102058411,0.6456578373908997,15.31214904785156,83.04634094238281,-6.74713134765625
126328,-0.221893310546875,0.0770721435546875,0.3026123046875,-1.072784423828125,1.127059102058411,0.6456578373908997,15.31214904785156,83.04634094238281,-6.74713134765625
126329,-0.317962646484375,0.0554046630859375,0.362335205078125,-1.255977392196655,1.213437914848328,0.4423489272594452,15.60264587402344,83.42338562011719,-6.808685302734375
126330,-0.410888671875,0.047210693359375,0.451904296875,-1.482714653015137,1.250272393226624,0.2768259942531586,15.7130126953125,83.55851745605469,-7.016067504882812
126331,-0.6317291259765625,0.1430511474609375,0.682708740234375,-2.030042409896851,1.380311846733093,0.0272380132228136,15.72610473632812,83.50869750976562,-6.866180419921875
126332,-0.6317291259765625,0.1430511474609375,0.682708740234375,-2.030042409896851,1.380311846733093,0.0272380132228136,15.72610473632812,83.50869750976562,-6.866180419921875
126333,-0.7175140380859375,0.23583984375,0.6795806884765625,-2.310855150222778,1.388741850852966,-0.1109233200550079,15.64692687988281,83.57255554199219,-6.891525268554688
126334,-0.7678680419921875,0.3245391845703125,0.54901123046875,-2.528554201126099,1.086715936660767,-0.2383673042058945,15.35684204101562,83.50643920898438,-6.705307006835938
126335,-0.7471466064453125,0.439300537109375,0.342926025390625,-2.729149103164673,-0.032303612679243,-0.3473233282566071,14.60261535644531,83.23454284667969,-6.249359130859375
126336,-0.7471466064453125,0.439300537109375,0.342926025390625,-2.729149103164673,-0.032303612679243,-0.3473233282566071,14.60261535644531,83.23454284667969,-6.249359130859375
126337,-0.68646240234375,0.490020751953125,0.2910919189453125,-2.634546756744385,-0.5087247490882874,-0.3703176081180573,14.05419921875,82.91908264160156,-5.762725830078125
126338,-0.6369171142578125,0.55401611328125,0.2809906005859375,-2.325145721435547,-0.7630587816238403,-0.4335887134075165,13.55259704589844,82.61329650878906,-4.980056762695312
126339,-0.478668212890625,0.6464385986328125,0.3274078369140625,-1.308941006660461,-0.4274541437625885,-0.7058271765708923,12.72183227539062,81.96015930175781,-3.231094360351562
126340,-0.478668212890625,0.6464385986328125,0.3274078369140625,-1.308941006660461,-0.4274541437625885,-0.7058271765708923,12.72183227539062,81.96015930175781,-3.231094360351562
126341,-0.3475189208984375,0.5969696044921875,0.242218017578125,-0.8622721433639526,-0.2152571827173233,-0.8449781537055969,12.60563659667969,81.53341674804688,-2.397140502929688
126342,-0.2653656005859375,0.4852142333984375,0.091156005859375,-0.5581521987915039,-0.1239360570907593,-0.9648470282554626,12.46029663085938,81.05238342285156,-1.766311645507812
126343,-0.1349945068359375,0.26361083984375,-0.1683807373046875,-0.1704052835702896,-0.3848523497581482,-0.9581291675567628,12.2041015625,80.15147399902344,-1.12841796875
126344,-0.1349945068359375,0.26361083984375,-0.1683807373046875,-0.1704052835702896,-0.3848523497581482,-0.9581291675567628,12.2041015625,80.15147399902344,-1.12841796875
126345,-0.0919036865234375,0.1899566650390625,-0.21478271484375,0.028474785387516,-0.5501190423965454,-0.8537998795509338,12.11354064941406,79.72366333007812,-1.04400634765625
126346,-0.0614013671875,0.1423797607421875,-0.223968505859375,0.2179277986288071,-0.6354222297668457,-0.746211051940918,12.07781982421875,79.12318420410156,-0.916015625
126347,-0.0083160400390625,0.0895538330078125,-0.1974029541015625,0.40059694647789,-0.5832887291908264,-0.5308502912521362,12.01539611816406,78.35049438476562,-0.6283721923828125
126348,-0.0083160400390625,0.0895538330078125,-0.1974029541015625,0.40059694647789,-0.5832887291908264,-0.5308502912521362,12.01539611816406,78.35049438476562,-0.6283721923828125
126349,0.0157012939453125,0.08270263671875,-0.186065673828125,0.3501899540424347,-0.5848179459571838,-0.3900750577449799,12.06564331054688,78.11775207519531,-0.5590972900390625
126350,0.0244140625,0.097503662109375,-0.16741943359375,0.2672551274299622,-0.586614727973938,-0.2684463560581207,12.13301086425781,77.87733459472656,-0.3417205810546875
126351,0.051544189453125,0.1111297607421875,-0.1166839599609375,0.135795921087265,-0.6935233473777771,-0.0705093219876289,12.1922607421875,77.65596008300781,0.0409698486328125
126352,0.051544189453125,0.1111297607421875,-0.1166839599609375,0.135795921087265,-0.6935233473777771,-0.0705093219876289,12.1922607421875,77.65596008300781,0.0409698486328125
126353,0.06634521484375,0.114593505859375,-0.09600830078125,0.1197791323065758,-0.7094591856002808,0.0791315734386444,12.21275329589844,77.572509765625,0.342559814453125
126354,0.0702056884765625,0.1316986083984375,-0.109222412109375,0.1771470755338669,-0.6854084730148315,0.2344250231981277,12.25541687011719,77.49996948242188,0.6851806640625
126355,0.0505218505859375,0.27117919921875,-0.220367431640625,0.3625885844230652,-0.8794364929199219,0.4257861971855164,12.43922424316406,77.64569091796875,1.257537841796875
126356,0.0505218505859375,0.27117919921875,-0.220367431640625,0.3625885844230652,-0.8794364929199219,0.4257861971855164,12.43922424316406,77.64569091796875,1.257537841796875
126357,0.0176849365234375,0.4241180419921875,-0.2914276123046875,0.4730210900306702,-1.204286813735962,0.3963108658790588,12.53341674804688,77.74430847167969,1.634521484375
126358,-0.0181732177734375,0.594818115234375,-0.31329345703125,0.6354262232780457,-1.493105530738831,0.2603596746921539,12.66043090820312,77.89237976074219,2.095489501953125
126359,-0.1720428466796875,0.9334564208984376,-0.4170989990234375,1.445582151412964,-1.420681118965149,-0.1606999337673187,13.03593444824219,78.39775085449219,3.1678466796875
126360,-0.1720428466796875,0.9334564208984376,-0.4170989990234375,1.445582151412964,-1.420681118965149,-0.1606999337673187,13.03593444824219,78.39775085449219,3.1678466796875
126361,-0.3636016845703125,1.08917236328125,-0.4837799072265625,2.18008017539978,-0.6536627411842346,-0.4164416790008545,13.19503784179688,78.50621032714844,3.807952880859375
126362,-0.5774383544921875,1.221664428710938,-0.78729248046875,2.660220623016357,0.1749941855669022,-0.607457160949707,13.33502197265625,78.67147827148438,4.296340942382812
126363,-0.79058837890625,1.372467041015625,-1.00628662109375,2.30286979675293,0.6302647590637207,-0.5601186752319336,13.22029113769531,78.80757141113281,4.255905151367188
126364,-1.0489501953125,1.682418823242188,-0.7586669921875,1.165901780128479,1.010450482368469,-0.606029748916626,12.79971313476562,79.13203430175781,3.771530151367188
126365,-1.274703979492188,2.136428833007812,-0.3854217529296875,-0.0214802585542202,1.354905605316162,-1.317269563674927,12.38059997558594,79.47801208496094,2.943191528320312
126366,-1.458831787109375,2.586761474609375,-0.1585693359375,-0.6639279127120972,1.801813840866089,-2.524036169052124,11.74513244628906,79.5784912109375,2.131988525390625
126367,-3.070236206054688,2.309738159179688,-0.0444488525390625,-0.7692660689353943,2.89119553565979,-3.590460538864136,9.96875,78.88713073730469,0.618316650390625
126368,-3.070236206054688,2.309738159179688,-0.0444488525390625,-0.7692660689353943,2.89119553565979,-3.590460538864136,9.96875,78.88713073730469,0.618316650390625
126369,-4.151153564453125,1.90118408203125,-0.26983642578125,-0.6145073771476746,2.581151962280273,-1.595328330993652,8.59027099609375,77.84573364257812,-0.4748687744140625
126370,-4.198287963867188,2.02813720703125,-0.5596466064453125,-0.0800218656659126,0.4754112660884857,-0.2079710364341736,7.147872924804688,76.66439819335938,-1.710647583007812
126371,-3.012115478515625,1.97894287109375,-0.1911773681640625,0.4383816123008728,-0.8875293135643005,0.1620371043682098,6.048858642578125,75.78173828125,-2.8240966796875
126372,-1.790145874023438,1.711837768554688,-0.1690826416015625,0.6060880422592163,-0.6213216185569763,0.5173142552375793,5.603363037109375,75.35000610351562,-3.817428588867188
126373,-1.354080200195312,1.649383544921875,-0.3479766845703125,0.7676697373390198,-0.1175370141863823,0.9596500992774964,5.569961547851562,75.12420654296875,-4.071701049804688
126374,-1.26947021484375,1.778518676757812,-0.104827880859375,0.8743884563446045,0.2426888048648834,1.091053366661072,6.227737426757812,75.3502197265625,-4.050704956054688
126375,-1.221969604492188,1.830307006835938,0.2824554443359375,0.9190542101860046,0.7174113988876343,1.111728072166443,7.162246704101562,76.29875183105469,-4.7176513671875
126376,-1.221969604492188,1.830307006835938,0.2824554443359375,0.9190542101860046,0.7174113988876343,1.111728072166443,7.162246704101562,76.29875183105469,-4.7176513671875
126377,-1.07257080078125,1.826950073242188,0.24371337890625,1.033570647239685,0.6702672839164734,1.125701189041138,7.785751342773438,76.70126342773438,-5.198348999023438
126378,-0.9055328369140624,1.711868286132812,0.301910400390625,1.192267060279846,0.4530535042285919,1.000355243682861,8.4908447265625,77.23855590820312,-5.681076049804688
126379,-0.500823974609375,1.145339965820312,0.4546661376953125,1.248558640480042,0.5837345719337463,0.9728031754493712,9.69775390625,78.07273864746094,-6.780746459960938
126380,-0.500823974609375,1.145339965820312,0.4546661376953125,1.248558640480042,0.5837345719337463,0.9728031754493712,9.69775390625,78.07273864746094,-6.780746459960938
126381,-0.25018310546875,0.8783416748046875,0.2669830322265625,1.127461433410645,0.508234977722168,1.171520829200745,10.20570373535156,78.4541015625,-7.248687744140625
126382,-0.04364013671875,0.6478729248046875,0.047210693359375,1.099529147148132,0.212455540895462,1.475210428237915,10.63259887695312,78.84431457519531,-7.677825927734375
126383,0.077362060546875,0.333770751953125,0.0647735595703125,1.453258514404297,0.1581976264715195,1.910467863082886,11.53265380859375,80.09083557128906,-8.161117553710938
126384,0.077362060546875,0.333770751953125,0.0647735595703125,1.453258514404297,0.1581976264715195,1.910467863082886,11.53265380859375,80.09083557128906,-8.161117553710938
126385,0.0165557861328125,0.2711944580078125,0.17559814453125,1.442743539810181,0.7433649301528931,1.816254854202271,12.11009216308594,80.67611694335938,-8.289474487304688
126386,-0.0618438720703125,0.2395477294921875,0.174346923828125,1.191268920898438,1.325338125228882,1.533770442008972,12.74937438964844,81.455810546875,-8.728286743164062
126387,-0.304656982421875,0.2095489501953125,0.26971435546875,0.3923105299472809,1.537524700164795,1.022354006767273,13.81101989746094,82.918212890625,-10.26322937011719
126388,-0.304656982421875,0.2095489501953125,0.26971435546875,0.3923105299472809,1.537524700164795,1.022354006767273,13.81101989746094,82.918212890625,-10.26322937011719
126389,-0.3905792236328125,0.181060791015625,0.421722412109375,-0.0298609603196382,1.566190600395203,0.9226287007331848,14.299072265625,83.40626525878906,-10.95228576660156
126390,-0.4520721435546875,0.1255645751953125,0.4979705810546875,-0.4631668627262115,1.624611020088196,0.79827481508255,14.75407409667969,83.93714904785156,-11.59788513183594
126391,-0.519500732421875,-0.0338134765625,0.3925018310546875,-1.304059147834778,1.462697863578796,0.6009577512741089,15.37974548339844,84.54193115234375,-12.66084289550781
126392,-0.519500732421875,-0.0338134765625,0.3925018310546875,-1.304059147834778,1.462697863578796,0.6009577512741089,15.37974548339844,84.54193115234375,-12.66084289550781
126393,-0.5213775634765625,-0.0887451171875,0.3362579345703125,-1.639639854431152,1.220661520957947,0.5169163942337036,15.536376953125,84.65640258789062,-12.70120239257812
126394,-0.542022705078125,-0.06427001953125,0.355804443359375,-1.905159115791321,0.9744394421577454,0.4033620953559875,15.60763549804688,84.75546264648438,-12.83946228027344
126395,-0.5792694091796875,0.0328216552734375,0.424835205078125,-2.117146015167236,0.7387909889221191,0.2430139780044556,15.63436889648438,84.90266418457031,-12.73887634277344
126396,-0.6396484375,0.1858367919921875,0.512420654296875,-2.305530786514282,0.534454882144928,0.0647419765591621,15.41230773925781,85.17001342773438,-12.4912109375
126397,-0.706329345703125,0.3772125244140625,0.587921142578125,-2.48996376991272,0.3704715371131897,-0.124902255833149,15.34442138671875,85.28079223632812,-12.09762573242188
126398,-0.7327117919921875,0.5263214111328125,0.63385009765625,-2.680777788162231,0.2625203132629395,-0.3330325484275818,15.07655334472656,85.17112731933594,-11.41798400878906
126399,-0.7247161865234375,0.6490478515625,0.6407012939453125,-3.005974054336548,0.2595210373401642,-0.590046763420105,14.21446228027344,84.97190856933594,-9.840042114257812
126400,-0.7247161865234375,0.6490478515625,0.6407012939453125,-3.005974054336548,0.2595210373401642,-0.590046763420105,14.21446228027344,84.97190856933594,-9.840042114257812
126401,-0.71527099609375,0.6412353515625,0.4990081787109375,-3.012902498245239,0.1676371991634369,-0.6353489756584167,13.88967895507812,84.72265625,-9.042388916015623
126402,-0.7100067138671875,0.5919647216796875,0.30853271484375,-2.801847696304321,-0.1645279675722122,-0.7003533244132996,13.45486450195312,84.26371765136719,-8.138671875
126403,-0.5885772705078125,0.46295166015625,0.10455322265625,-1.909059882164001,-0.9543395042419434,-0.968926966190338,12.79078674316406,83.27117919921875,-6.382919311523438
126404,-0.5885772705078125,0.46295166015625,0.10455322265625,-1.909059882164001,-0.9543395042419434,-0.968926966190338,12.79078674316406,83.27117919921875,-6.382919311523438
126405,-0.4698486328125,0.447601318359375,0.0965728759765625,-1.424309730529785,-1.022670865058899,-1.077676653862,12.48399353027344,82.75602722167969,-5.577850341796875
126406,-0.3747711181640625,0.45062255859375,0.0808258056640625,-1.053878664970398,-0.8579900860786438,-1.164522528648376,12.27224731445312,82.18037414550781,-4.71417236328125
126407,-0.206787109375,0.4249420166015625,-0.1371307373046875,-0.5667648911476135,-0.6102465987205505,-1.206477761268616,12.00212097167969,80.78971862792969,-2.967697143554688
126408,-0.206787109375,0.4249420166015625,-0.1371307373046875,-0.5667648911476135,-0.6102465987205505,-1.206477761268616,12.00212097167969,80.78971862792969,-2.967697143554688
126409,-0.1199493408203125,0.376007080078125,-0.22247314453125,-0.3559783399105072,-0.62477707862854,-1.113800048828125,11.93771362304688,80.06013488769531,-2.318984985351562
126410,-0.04345703125,0.3135833740234375,-0.2420501708984375,-0.1525384038686752,-0.5913786292076111,-0.9374465346336364,11.91281127929688,79.19981384277344,-1.755111694335938
126411,0.07733154296875,0.1758270263671875,-0.3060150146484375,0.2149237543344498,-0.4034782350063324,-0.4500803351402283,11.88291931152344,78.23080444335938,-1.201950073242188
126412,0.07733154296875,0.1758270263671875,-0.3060150146484375,0.2149237543344498,-0.4034782350063324,-0.4500803351402283,11.88291931152344,78.23080444335938,-1.201950073242188
126413,0.1146392822265625,0.1175079345703125,-0.376983642578125,0.3349108695983887,-0.4784446060657501,-0.1255491375923157,11.82968139648438,77.93955993652344,-1.083404541015625
126414,0.10906982421875,0.081787109375,-0.4257049560546875,0.4308983981609344,-0.6148783564567566,0.0797068104147911,11.82003784179688,77.8414306640625,-0.963531494140625
126415,0.1439361572265625,0.0599517822265625,-0.3658447265625,0.380273848772049,-1.010485887527466,0.2939703762531281,11.92425537109375,77.8931884765625,-0.4687042236328125
126416,0.1439361572265625,0.0599517822265625,-0.3658447265625,0.380273848772049,-1.010485887527466,0.2939703762531281,11.92425537109375,77.8931884765625,-0.4687042236328125
126417,0.1657257080078125,0.0743255615234375,-0.3081817626953125,0.2859534621238708,-1.13861346244812,0.3937669992446899,12.05426025390625,78.07954406738281,-0.18597412109375
126418,0.1613006591796875,0.13421630859375,-0.256622314453125,0.2201818972826004,-1.121564507484436,0.4419387876987457,12.16484069824219,78.29168701171875,0.338287353515625
126419,0.0888671875,0.3453216552734375,-0.2405548095703125,0.1711437851190567,-0.9057804942131042,0.186682790517807,12.495361328125,78.666748046875,1.381622314453125
126420,0.0888671875,0.3453216552734375,-0.2405548095703125,0.1711437851190567,-0.9057804942131042,0.186682790517807,12.495361328125,78.666748046875,1.381622314453125
126421,0.04718017578125,0.4808349609375,-0.2920989990234375,0.1477646976709366,-0.881518542766571,-0.0603040866553783,12.75233459472656,78.75776672363281,1.965972900390625
126422,-0.017333984375,0.594482421875,-0.4016876220703125,0.2373102903366089,-0.97804057598114,-0.3004154860973358,12.95393371582031,78.82991027832031,2.417221069335938
126423,-0.10870361328125,0.6514434814453125,-0.444976806640625,0.506349503993988,-1.024506568908691,-0.4547536671161652,13.03219604492188,78.85203552246094,2.896102905273438
126424,-0.19195556640625,0.7260284423828125,-0.38043212890625,0.8468098640441895,-0.7541619539260864,-0.5017169117927551,13.06608581542969,78.76896667480469,3.310073852539062
126425,-0.29058837890625,0.830535888671875,-0.2936248779296875,1.028097629547119,-0.170189842581749,-0.5246296525001526,13.05223083496094,78.64164733886719,3.717926025390625
126426,-0.4016876220703125,0.9434967041015624,-0.3032379150390625,0.9916785955429076,0.3780916333198547,-0.5762148499488831,12.90621948242188,78.63800048828125,3.997543334960938
126427,-0.650909423828125,1.301284790039062,-0.423065185546875,0.9543190002441406,0.6299363970756531,-1.002390623092651,12.37492370605469,78.59982299804688,3.442291259765625
126428,-0.650909423828125,1.301284790039062,-0.423065185546875,0.9543190002441406,0.6299363970756531,-1.002390623092651,12.37492370605469,78.59982299804688,3.442291259765625
126429,-0.82208251953125,1.560989379882812,-0.2245941162109375,0.8548555374145508,0.6728391051292419,-1.411577582359314,11.96096801757812,78.41470336914062,2.76702880859375
126430,-1.06744384765625,1.854690551757812,0.1242218017578125,0.425473541021347,1.134117007255554,-2.042567014694214,11.33682250976562,78.44354248046875,2.008544921875
126431,-2.71173095703125,2.487777709960938,0.3368072509765625,-0.7798798084259033,3.149057149887085,-3.930261373519897,9.402847290039062,77.42454528808594,0.128936767578125
126432,-2.71173095703125,2.487777709960938,0.3368072509765625,-0.7798798084259033,3.149057149887085,-3.930261373519897,9.402847290039062,77.42454528808594,0.128936767578125
126433,-4.33306884765625,2.55291748046875,0.01361083984375,-0.7683358192443848,3.869758129119873,-2.909923791885376,7.940338134765625,76.46794128417969,-1.089553833007812
126434,-4.906326293945312,2.503433227539062,-0.469268798828125,-0.2481285780668259,2.69173264503479,-1.080602407455444,6.4503173828125,75.14981079101562,-2.567596435546875
126435,-2.678436279296875,1.340225219726562,-0.2168731689453125,0.5714461803436279,-1.546574592590332,0.0990227237343788,4.776931762695312,73.66497802734375,-5.713394165039062
126436,-2.678436279296875,1.340225219726562,-0.2168731689453125,0.5714461803436279,-1.546574592590332,0.0990227237343788,4.776931762695312,73.66497802734375,-5.713394165039062
126437,-1.637298583984375,1.180328369140625,-0.04913330078125,0.89301598072052,-1.812206506729126,0.874565064907074,4.577743530273438,73.4234619140625,-6.212890625
126438,-1.193450927734375,1.435882568359375,-0.104339599609375,1.428291320800781,-0.9883861541748048,1.363862872123718,4.62554931640625,73.43046569824219,-5.850753784179688
126439,-0.9002532958984375,1.704940795898438,-0.1059722900390625,1.38261604309082,0.2031102329492569,1.220271110534668,5.627426147460938,74.243408203125,-5.058731079101562
126440,-0.9002532958984375,1.704940795898438,-0.1059722900390625,1.38261604309082,0.2031102329492569,1.220271110534668,5.627426147460938,74.243408203125,-5.058731079101562
126441,-0.9031829833984376,1.659500122070312,0.1121673583984375,1.044238805770874,0.0578196235001087,0.9791402220726012,6.498458862304688,74.95903015136719,-5.137985229492188
126442,-0.8430328369140625,1.616470336914062,0.3009796142578125,0.9516936540603638,-0.1192773953080177,0.9410764575004578,7.237716674804688,75.40965270996094,-5.256851196289062
126443,-0.4762115478515625,1.49285888671875,0.392822265625,1.063055872917175,-0.1242492496967316,0.947943150997162,8.544586181640625,76.18208312988281,-5.76104736328125
126444,-0.4762115478515625,1.49285888671875,0.392822265625,1.063055872917175,-0.1242492496967316,0.947943150997162,8.544586181640625,76.18208312988281,-5.76104736328125
126445,-0.29876708984375,1.340972900390625,0.385040283203125,1.184755921363831,-0.1288176327943802,1.104497909545898,9.129318237304688,76.562255859375,-5.761917114257812
126446,-0.1595916748046875,1.1409912109375,0.2833404541015625,1.291940450668335,0.0585421398282051,1.316014409065247,9.644851684570312,76.9210205078125,-5.818756103515625
126447,-0.103851318359375,0.940582275390625,0.1051483154296875,1.550618886947632,0.3636245429515839,1.470406293869019,10.07675170898438,77.42756652832031,-5.967254638671875
126448,-0.177642822265625,0.733612060546875,0.011322021484375,1.805137753486633,0.6591371297836304,1.381455898284912,10.45205688476562,78.04078674316406,-6.149139404296875
126449,-0.2868194580078125,0.500946044921875,-0.0173492431640625,1.78075110912323,0.9054462909698486,1.149956107139587,10.9215087890625,78.639892578125,-6.652130126953125
126450,-0.3648834228515625,0.3072509765625,-0.048553466796875,1.473839402198792,0.9879187941551208,0.9705603122711182,11.35931396484375,79.47604370117188,-7.247833251953125
126451,-0.4161834716796875,0.1686553955078125,-0.0135650634765625,1.021771311759949,0.967442274093628,0.9523242712020874,11.82107543945312,80.0018310546875,-7.965301513671875
126452,-0.440887451171875,0.101470947265625,0.0821533203125,0.554257333278656,0.9454306960105896,1.023771047592163,12.09153747558594,80.54119873046875,-8.876358032226562
126453,-0.4266510009765625,0.091400146484375,0.193756103515625,0.1632222086191177,1.05102264881134,1.07811176776886,12.38716125488281,81.036865234375,-9.7176513671875
126454,-0.3989715576171875,0.0992584228515625,0.2709503173828125,-0.1432929784059525,1.225290894508362,1.062318205833435,12.76547241210938,81.33549499511719,-10.2437744140625
126455,-0.372406005859375,0.08734130859375,0.3161773681640625,-0.3837343454360962,1.426041841506958,0.9826648831367492,13.12252807617188,81.72920227050781,-10.6580810546875
126456,-0.3510894775390625,0.0635833740234375,0.3250579833984375,-0.5693433284759521,1.583053827285767,0.9016416668891908,13.4307861328125,82.1766357421875,-11.18251037597656
126457,-0.3401641845703125,0.0527496337890625,0.3597412109375,-0.7802209854125977,1.750265717506409,0.8123035430908203,13.67106628417969,82.49049377441406,-11.59642028808594
126458,-0.3344879150390625,0.0537567138671875,0.388031005859375,-1.035937666893005,1.914203763008118,0.7123361825942993,13.92526245117188,82.70132446289062,-11.98930358886719
126459,-0.3766021728515625,0.1033935546875,0.4476165771484375,-1.625821232795715,1.99813437461853,0.4085446298122406,14.19670104980469,83.40768432617188,-12.84823608398438
126460,-0.3766021728515625,0.1033935546875,0.4476165771484375,-1.625821232795715,1.99813437461853,0.4085446298122406,14.19670104980469,83.40768432617188,-12.84823608398438
126461,-0.4547576904296875,0.1592254638671875,0.493255615234375,-1.906720757484436,1.877100110054016,0.1688848882913589,14.45309448242188,83.58578491210938,-13.16839599609375
126462,-0.5842132568359375,0.2422332763671875,0.5166778564453125,-2.202584981918335,1.616494536399841,-0.0673361644148826,14.48072814941406,83.67835998535156,-13.35227966308594
126463,-0.860626220703125,0.5233001708984375,0.44451904296875,-2.834725379943848,0.7087289690971375,-0.3975849151611328,14.22708129882812,83.77679443359375,-13.3402099609375
126464,-0.860626220703125,0.5233001708984375,0.44451904296875,-2.834725379943848,0.7087289690971375,-0.3975849151611328,14.22708129882812,83.77679443359375,-13.3402099609375
126465,-0.907806396484375,0.6437835693359375,0.358245849609375,-3.057902097702026,0.0826115235686302,-0.5717287659645081,13.859375,83.69442749023438,-13.04864501953125
126466,-0.8811798095703125,0.702239990234375,0.323028564453125,-3.15832781791687,-0.4722647368907928,-0.6895136833190918,13.35650634765625,83.61099243164062,-12.36973571777344
126467,-0.7954254150390625,0.711883544921875,0.28375244140625,-3.070456981658936,-0.8725290894508362,-0.7295750975608826,12.82133483886719,83.59271240234375,-11.46963500976562
126468,-0.6825408935546875,0.7113494873046875,0.2124176025390625,-2.680052280426025,-1.166905045509338,-0.7292901277542114,12.23500061035156,83.36265563964844,-10.53004455566406
126469,-0.566619873046875,0.6778564453125,0.2624969482421875,-2.004069805145264,-1.188112020492554,-0.7991603016853333,11.72103881835938,83.02137756347656,-9.27838134765625
126470,-0.417144775390625,0.5616302490234375,0.35479736328125,-1.241010904312134,-0.7432088851928711,-0.9287923574447632,11.43534851074219,82.55975341796875,-7.814727783203125
126471,-0.22406005859375,0.2360992431640625,0.08172607421875,-0.2993361055850983,0.1414854973554611,-0.9300629496574402,11.192626953125,81.60250854492188,-5.948272705078125
126472,-0.22406005859375,0.2360992431640625,0.08172607421875,-0.2993361055850983,0.1414854973554611,-0.9300629496574402,11.192626953125,81.60250854492188,-5.948272705078125
126473,-0.17950439453125,0.1650848388671875,-0.1248321533203125,-0.0350959338247776,0.0706723034381866,-0.8689870834350586,11.11898803710938,81.09474182128906,-5.492889404296875
126474,-0.14105224609375,0.13848876953125,-0.25103759765625,0.144844263792038,-0.2263343334197998,-0.8142707943916321,11.16207885742188,80.46961975097656,-5.259963989257812
126475,-0.04620361328125,0.132659912109375,-0.3027801513671875,0.3962245583534241,-0.7219198346138,-0.6895526051521301,11.12657165527344,79.80059814453125,-5.520675659179688
126476,-0.04620361328125,0.132659912109375,-0.3027801513671875,0.3962245583534241,-0.7219198346138,-0.6895526051521301,11.12657165527344,79.80059814453125,-5.520675659179688
126477,0.0211334228515625,0.1300048828125,-0.291717529296875,0.4478507339954376,-0.8090856671333313,-0.4968574345111847,11.1568603515625,79.45817565917969,-5.624771118164062
126478,0.0159759521484375,0.1190032958984375,-0.2737274169921875,0.4924866557121277,-0.6161526441574097,-0.3386968374252319,11.14216613769531,79.03140258789062,-5.445205688476562
126479,0.0114593505859375,0.0802459716796875,-0.3242950439453125,0.4692226052284241,-0.4311447441577911,-0.2459240108728409,11.11213684082031,78.83360290527344,-5.2493896484375
126480,0.02581787109375,0.0540771484375,-0.364288330078125,0.3598644435405731,-0.4464448690414429,-0.1910013854503632,10.99179077148438,78.71403503417969,-4.968353271484375
126481,0.0572357177734375,0.0366363525390625,-0.3774566650390625,0.1964824348688126,-0.6381698250770569,-0.1482222229242325,10.98504638671875,78.71702575683594,-4.756546020507812
126482,0.09222412109375,0.0164642333984375,-0.378509521484375,0.0593717135488987,-0.8549753427505493,-0.0730105638504028,11.05422973632812,78.66375732421875,-4.428390502929688
126483,0.1102447509765625,0.0937042236328125,-0.3494415283203125,-0.0035878105554729,-1.055191874504089,0.0995716005563736,10.8912353515625,78.57687377929688,-4.02008056640625
126484,0.1102447509765625,0.0937042236328125,-0.3494415283203125,-0.0035878105554729,-1.055191874504089,0.0995716005563736,10.8912353515625,78.57687377929688,-4.02008056640625
126485,0.08062744140625,0.236541748046875,-0.37786865234375,0.0234794933348894,-1.082614660263062,0.1262226551771164,10.7828369140625,78.62127685546875,-3.572982788085938
126486,0.022369384765625,0.4184417724609375,-0.441070556640625,0.126982182264328,-1.112288951873779,0.0749802365899086,10.86848449707031,78.559814453125,-3.048934936523438
126487,-0.1672515869140625,0.726043701171875,-0.5295562744140625,0.5539026260375977,-0.8368333578109741,-0.1051069796085358,10.91075134277344,78.60758972167969,-2.043243408203125
126488,-0.1672515869140625,0.726043701171875,-0.5295562744140625,0.5539026260375977,-0.8368333578109741,-0.1051069796085358,10.91075134277344,78.60758972167969,-2.043243408203125
126489,-0.290435791015625,0.8498992919921875,-0.6262664794921875,0.867988646030426,-0.3484250903129578,-0.1204310730099678,10.96937561035156,78.60183715820312,-1.370071411132812
126490,-0.4453277587890625,0.984619140625,-0.7714996337890625,1.156228184700012,0.369098424911499,-0.0916194021701812,10.97584533691406,78.50051879882812,-0.8404998779296875
126491,-0.718292236328125,1.38818359375,-0.894561767578125,0.9088721871376038,1.121368408203125,-0.1178360879421234,10.52352905273438,78.79862976074219,-0.9900360107421876
126492,-0.718292236328125,1.38818359375,-0.894561767578125,0.9088721871376038,1.121368408203125,-0.1178360879421234,10.52352905273438,78.79862976074219,-0.9900360107421876
126493,-0.869415283203125,1.719650268554688,-0.6828155517578125,0.2618736922740936,0.9891257286071776,-0.3989596366882324,10.36915588378906,78.97784423828125,-1.659454345703125
126494,-1.003952026367188,2.063751220703125,-0.3294525146484375,-0.1848561316728592,1.015407681465149,-1.00934898853302,10.00923156738281,78.96232604980469,-2.18212890625
126495,-1.708847045898438,2.543960571289062,0.282257080078125,-0.1877121031284332,2.425935506820679,-2.97684645652771,9.051055908203123,78.78269958496094,-3.321670532226562
126496,-1.708847045898438,2.543960571289062,0.282257080078125,-0.1877121031284332,2.425935506820679,-2.97684645652771,9.051055908203123,78.78269958496094,-3.321670532226562
126497,-3.003219604492188,2.20086669921875,0.3229827880859375,-0.093768835067749,2.924102306365967,-2.907024621963501,8.27960205078125,78.30316162109375,-4.151580810546875
126498,-4.330490112304688,2.09051513671875,-0.095733642578125,-0.3130138516426086,2.884658336639404,-1.437117338180542,7.225143432617188,77.53868103027344,-5.263504028320312
126499,-4.74261474609375,2.176483154296875,-0.63824462890625,-0.1315785348415375,0.8926585912704468,-0.2010636031627655,6.039871215820312,76.71009826660156,-6.90557861328125
126500,-4.74261474609375,2.176483154296875,-0.63824462890625,-0.1315785348415375,0.8926585912704468,-0.2010636031627655,6.039871215820312,76.71009826660156,-6.90557861328125
126501,-2.0928955078125,1.358673095703125,0.0331573486328125,0.4979432225227356,-0.7927460670471191,0.3651100695133209,4.832794189453125,75.88572692871094,-9.700271606445312
126502,-1.42462158203125,1.273193359375,-0.174713134765625,0.4466997385025024,-0.1867294013500214,0.8906760811805725,4.822540283203125,75.77265930175781,-9.778488159179688
126503,-1.242034912109375,1.370849609375,-0.1727447509765625,0.4534077048301697,0.1650994718074799,1.140313386917114,4.98291015625,75.65187072753906,-9.659988403320312
126504,-1.264816284179688,1.485671997070312,0.0598602294921875,0.3671827912330627,0.23589988052845,1.145135283470154,5.166519165039062,75.70309448242188,-9.558181762695312
126505,-1.350936889648438,1.65753173828125,0.304656982421875,0.29487344622612,0.4194425344467163,1.141276597976685,5.4720458984375,76.06452941894531,-9.632797241210938
126506,-1.29412841796875,1.829132080078125,0.331787109375,0.4004459381103516,0.544609785079956,1.029698491096497,5.978363037109375,76.40385437011719,-9.921279907226562
126507,-1.085922241210938,1.797744750976562,0.3135833740234375,0.6327977180480957,0.5193864703178406,0.7117942571640015,6.609848022460938,76.66978454589844,-9.688095092773438
126508,-0.8494415283203125,1.530242919921875,0.3493194580078125,0.9057442545890808,0.4246676564216614,0.519446611404419,7.3045654296875,77.01113891601562,-9.958984375
126509,-0.5890655517578125,1.231719970703125,0.38818359375,1.073487997055054,0.301108717918396,0.6015591025352478,7.925247192382812,77.13264465332031,-10.37162780761719
126510,-0.3101654052734375,1.033493041992188,0.37835693359375,1.03153121471405,0.2706943452358246,0.8995745182037354,8.350296020507812,77.29179382324219,-10.74140930175781
126511,0.09429931640625,0.71783447265625,-0.024261474609375,0.9075635075569152,0.3410774171352386,1.686478495597839,8.930130004882812,77.76271057128906,-11.23884582519531
126512,0.09429931640625,0.71783447265625,-0.024261474609375,0.9075635075569152,0.3410774171352386,1.686478495597839,8.930130004882812,77.76271057128906,-11.23884582519531
126513,0.1085662841796875,0.6238861083984375,-0.1785736083984375,1.059094667434692,0.4361722469329834,1.864227652549744,9.231216430664062,78.17822265625,-11.55807495117188
126514,-0.0337371826171875,0.53955078125,-0.157379150390625,1.160754203796387,0.8701026439666748,1.67505955696106,9.631576538085938,78.70314025878906,-11.64759826660156
126515,-0.247344970703125,0.3885955810546875,-0.113861083984375,1.067476749420166,1.479277610778809,1.292596340179443,10.1402587890625,79.50430297851562,-11.93794250488281
126516,-0.4243316650390625,0.268280029296875,-0.08447265625,0.8797518014907837,1.901097297668457,1.219871044158936,10.70439147949219,80.22526550292969,-12.35150146484375
126517,-0.497528076171875,0.308380126953125,-0.002899169921875,0.6187500357627869,2.05229377746582,1.240504741668701,11.22972106933594,80.773681640625,-13.14595031738281
126518,-0.5212860107421875,0.3096160888671875,0.144744873046875,0.3242451846599579,2.120367288589478,1.179984331130981,11.783447265625,81.28363037109375,-14.05314636230469
126519,-0.5207366943359375,0.2644805908203125,0.2970428466796875,0.0362307094037532,2.262948513031006,1.084473252296448,12.22537231445312,81.7138671875,-15.06340026855469
126520,-0.4986114501953125,0.194671630859375,0.3960418701171875,-0.2165930271148682,2.470223903656006,1.022339344024658,12.69528198242188,82.32160949707031,-16.03195190429688
126521,-0.44970703125,0.1366424560546875,0.4116363525390625,-0.4548705816268921,2.64728569984436,0.980968177318573,13.22781372070312,82.62701416015625,-16.73175048828125
126522,-0.3840484619140625,0.106781005859375,0.38018798828125,-0.7202609777450562,2.717158079147339,0.9284855127334596,13.7276611328125,82.89688110351562,-17.30706787109375
126523,-0.3177490234375,0.089691162109375,0.3497467041015625,-1.017239093780518,2.650198936462402,0.830261766910553,14.18040466308594,83.29606628417969,-18.23846435546875
126524,-0.273712158203125,0.0793609619140625,0.334442138671875,-1.324045896530151,2.436667919158936,0.69770348072052,14.53900146484375,83.69319152832031,-19.27580261230469
126525,-0.24114990234375,0.0890960693359375,0.349090576171875,-1.631412267684937,2.170101404190063,0.5199811458587646,14.90147399902344,84.00784301757812,-20.06288146972656
126526,-0.229034423828125,0.1323394775390625,0.3542633056640625,-1.93694019317627,1.829267024993896,0.2884317934513092,15.27055358886719,84.38658142089844,-20.59538269042969
126527,-0.292236328125,0.2540435791015625,0.3606109619140625,-2.234546899795532,1.400233387947083,-0.0202043373137712,15.47232055664062,84.77265930175781,-20.90275573730469
126528,-0.4584503173828125,0.45989990234375,0.3885650634765625,-2.490328311920166,0.8817899227142334,-0.3259866237640381,15.59368896484375,85.46604919433594,-21.07719421386719
126529,-0.5859832763671875,0.6033172607421875,0.4588470458984375,-2.683654308319092,0.421219140291214,-0.5664788484573364,15.59368896484375,85.46604919433594,-21.07719421386719
126530,-0.6201324462890625,0.684814453125,0.4768218994140625,-2.797070026397705,0.0455056987702846,-0.778037965297699,15.33404541015625,85.61256408691406,-20.68800354003906
126531,-0.5864105224609375,0.797607421875,0.151947021484375,-2.652739763259888,-1.016722440719604,-1.042837142944336,13.8536376953125,85.45037841796875,-18.29893493652344
126532,-0.5864105224609375,0.797607421875,0.151947021484375,-2.652739763259888,-1.016722440719604,-1.042837142944336,13.8536376953125,85.45037841796875,-18.29893493652344
126533,-0.5405426025390625,0.80279541015625,0.1086273193359375,-2.347301721572876,-1.520641326904297,-1.145453810691833,13.28387451171875,85.23370361328125,-17.09576416015625
126534,-0.5018768310546875,0.789398193359375,0.1792449951171875,-1.927664160728455,-1.733570337295532,-1.257479190826416,12.78961181640625,84.88275146484375,-15.87954711914062
126535,-0.3505401611328125,0.6370697021484375,0.2143707275390625,-1.04099428653717,-1.405184745788574,-1.481935739517212,12.08818054199219,83.99598693847656,-13.3182373046875
126536,-0.3505401611328125,0.6370697021484375,0.2143707275390625,-1.04099428653717,-1.405184745788574,-1.481935739517212,12.08818054199219,83.99598693847656,-13.3182373046875
126537,-0.249114990234375,0.547393798828125,0.0575103759765625,-0.7394405007362366,-1.232178568840027,-1.480670928955078,11.85002136230469,83.34928894042969,-12.40567016601562
126538,-0.17303466796875,0.4536285400390625,-0.0476837158203125,-0.4812451899051666,-1.067086338996887,-1.367009401321411,11.60675048828125,82.67608642578125,-11.63835144042969
126539,-0.16436767578125,0.3642578125,-0.1052093505859375,-0.2305133640766144,-0.7796646356582642,-1.203202843666077,11.31700134277344,82.02874755859375,-11.01304626464844
126540,-0.1738739013671875,0.2767486572265625,-0.1473541259765625,0.0037731665652245,-0.3927438259124756,-1.066993355751038,11.07942199707031,81.29621887207031,-10.45037841796875
126541,-0.159210205078125,0.1909637451171875,-0.187774658203125,0.1422474235296249,-0.1032933667302132,-0.86148601770401,10.84732055664062,80.91055297851562,-10.13604736328125
126542,-0.167205810546875,0.11944580078125,-0.2272186279296875,0.178144708275795,0.1064042001962662,-0.7167828679084778,10.57080078125,80.46331787109375,-10.00984191894531
126543,-0.1100616455078125,0.06719970703125,-0.271636962890625,0.1131899356842041,0.0927174165844917,-0.6062265634536743,10.43778991699219,80.10908508300781,-9.940597534179688
126544,-0.052581787109375,0.0370941162109375,-0.2798614501953125,-0.0114787565544247,-0.1089595034718513,-0.5139663815498352,10.27232360839844,79.9561767578125,-10.03593444824219
126545,-0.0124359130859375,0.011505126953125,-0.258087158203125,-0.1404830813407898,-0.3584758639335632,-0.4423430562019348,10.1435546875,79.76626586914062,-10.01762390136719
126546,0.02239990234375,-0.0091400146484375,-0.231719970703125,-0.2266573756933212,-0.5427064299583435,-0.3867234885692596,10.01121520996094,79.61296081542969,-9.83612060546875
126547,0.0558319091796875,-0.0243377685546875,-0.207794189453125,-0.2577553689479828,-0.6767270565032959,-0.3315499722957611,10.10639953613281,79.37008666992188,-9.491012573242188
126548,0.0771026611328125,-0.033233642578125,-0.1638641357421875,-0.2762643396854401,-0.7561020255088806,-0.2684450447559357,10.05830383300781,79.24246215820312,-9.1148681640625
126549,0.0772857666015625,-0.032623291015625,-0.11651611328125,-0.3340466916561127,-0.7820199131965637,-0.2159757018089294,9.958343505859377,79.13836669921875,-8.599563598632812
126550,0.0605621337890625,-0.0111083984375,-0.0902557373046875,-0.4360726475715637,-0.7595244646072388,-0.1963519304990768,9.910812377929688,79.09721374511719,-7.962310791015625
126551,0.02398681640625,0.03582763671875,-0.0878448486328125,-0.5467317700386047,-0.7104656100273132,-0.2673933506011963,9.847091674804688,78.89395141601562,-7.390655517578125
126552,-0.025360107421875,0.104217529296875,-0.12945556640625,-0.6166485548019409,-0.6671351790428162,-0.358271062374115,9.871414184570312,78.69723510742188,-6.763580322265625
126553,-0.1071929931640625,0.1738433837890625,-0.271087646484375,-0.4853717684745789,-0.64922034740448,-0.3721064627170563,9.663833618164062,78.42196655273438,-6.094039916992188
126554,-0.21600341796875,0.280914306640625,-0.5097198486328125,0.0815529152750968,-0.7134829759597778,-0.3952493071556091,9.542205810546877,78.22366333007812,-5.6610107421875
126555,-0.3401031494140625,0.4799041748046875,-0.549957275390625,0.8337148427963257,-0.6867056488990784,-0.4654673039913177,9.270721435546877,78.14201354980469,-5.259262084960938
126556,-0.4539794921875,0.6822967529296875,-0.4222869873046875,1.298078179359436,-0.2997976243495941,-0.4671842455863953,9.020660400390623,78.03857421875,-5.2667236328125
126557,-0.6060333251953125,0.868438720703125,-0.3631439208984375,1.323601722717285,0.5092666745185852,-0.3227924406528473,8.699859619140625,77.79190063476562,-5.210769653320312
126558,-0.7899322509765625,1.065261840820312,-0.6066436767578125,1.06543242931366,1.470861434936523,-0.0923994407057762,8.180389404296875,77.60113525390625,-5.62261962890625
126559,-0.8340606689453125,1.343368530273438,-0.93896484375,0.7602803111076355,1.562218308448792,0.1272050887346268,7.825241088867188,77.57633972167969,-6.334732055664062
126560,-0.82891845703125,1.64691162109375,-0.643280029296875,0.3059822916984558,1.16141676902771,0.1609641164541245,7.584274291992188,77.63761901855469,-7.208908081054688
126561,-0.921966552734375,1.964447021484375,-0.09844970703125,-0.317471444606781,1.343925356864929,-0.2011600136756897,7.390884399414062,77.70620727539062,-7.861785888671875
126562,-1.228530883789062,2.337127685546875,0.033905029296875,-0.6244955658912659,1.87396228313446,-1.070654630661011,7.130355834960938,77.76374816894531,-8.37811279296875
126563,-1.954849243164062,2.770675659179688,0.0447235107421875,-0.2125309109687805,2.518400192260742,-2.336046934127808,6.671051025390625,77.79667663574219,-9.0423583984375
126564,-3.164413452148438,2.718490600585938,-0.0446319580078125,0.4490166902542114,3.03736138343811,-2.946493148803711,5.953903198242188,77.47274780273438,-9.918182373046877
126565,-4.407485961914062,2.406600952148438,-0.591156005859375,0.5447503924369812,2.596603155136108,-1.675058245658875,5.009170532226562,76.81312561035156,-11.12249755859375
126566,-4.89874267578125,2.373977661132812,-0.9697418212890624,0.339176207780838,0.4189980626106262,-0.3913991749286652,4.276962280273438,76.19790649414062,-12.59561157226562
126567,-3.918701171875,1.887374877929688,-0.5771942138671875,0.0988733172416687,-0.9273462295532228,-0.0907293707132339,3.934478759765625,75.61363220214844,-13.68637084960938
126568,-2.201828002929688,1.421615600585938,-0.3194580078125,-0.0225772149860858,-0.7406905889511108,0.629197895526886,3.958419799804688,75.49807739257812,-13.94778442382812
126569,-1.51483154296875,1.464797973632812,-0.2596893310546875,0.2762813866138458,0.0215660128742456,1.147968649864197,4.164749145507812,75.29266357421875,-13.74835205078125
126570,-1.310073852539062,1.5997314453125,-0.095672607421875,0.6524243950843811,0.6009132862091064,1.352627992630005,4.347259521484375,75.49093627929688,-13.53605651855469
126571,-1.215713500976562,1.795150756835938,0.0481719970703125,0.7242242693901062,0.7140107750892639,1.23664128780365,4.83917236328125,75.71240234375,-13.61050415039062
126572,-1.125030517578125,1.913192749023438,0.1328582763671875,0.6602436900138855,0.4902765154838562,0.9610440135002136,5.4869384765625,76.12052917480469,-14.0673828125
126573,-0.973358154296875,1.907196044921875,0.2141876220703125,0.6734034419059753,0.1949071735143661,0.7448456883430481,6.189361572265625,76.45454406738281,-14.40287780761719
126574,-0.7006072998046875,1.724838256835938,0.281097412109375,0.7534114718437195,-0.0239173173904418,0.6372041702270508,6.855621337890625,76.62667846679688,-14.73524475097656
126575,-0.061248779296875,1.252456665039062,0.27374267578125,0.9127745032310486,-0.7924294471740723,1.34532642364502,7.922958374023438,77.29011535644531,-15.3111572265625
126576,-0.061248779296875,1.252456665039062,0.27374267578125,0.9127745032310486,-0.7924294471740723,1.34532642364502,7.922958374023438,77.29011535644531,-15.3111572265625
126577,0.0920562744140625,1.119552612304688,0.20330810546875,1.319732427597046,-0.4354819655418396,1.861963391304016,8.2698974609375,77.52691650390625,-15.09274291992188
126578,0.0172576904296875,1.045379638671875,0.1287384033203125,1.768383979797363,0.4527512192726135,1.910992026329041,8.602401733398438,78.05780029296875,-14.857421875
126579,-0.073760986328125,0.895599365234375,-0.0785064697265625,1.752464056015015,0.968708872795105,1.507383227348328,9.070510864257812,78.79685974121094,-15.00558471679688
126580,-0.1306610107421875,0.630035400390625,-0.2349853515625,1.462744116783142,0.8706973195075989,1.066766500473022,9.706329345703123,79.5054931640625,-15.36270141601562
126581,-0.29736328125,0.3878173828125,-0.1147308349609375,1.029062271118164,0.7195887565612793,0.8340471982955933,10.18128967285156,80.14389038085938,-16.06578063964844
126582,-0.428466796875,0.2856292724609375,0.0390777587890625,0.6589978933334351,0.8364919424057007,0.885776162147522,10.67974853515625,80.4954833984375,-16.8155517578125
126583,-0.41748046875,0.1752166748046875,0.20526123046875,0.3109565377235413,0.9932509660720824,0.9912881851196288,11.51519775390625,81.27253723144531,-18.00679016113281
126584,-0.41748046875,0.1752166748046875,0.20526123046875,0.3109565377235413,0.9932509660720824,0.9912881851196288,11.51519775390625,81.27253723144531,-18.00679016113281
126585,-0.3751373291015625,0.1291351318359375,0.2829742431640625,0.1691733151674271,1.156393527984619,0.9866260886192322,12.00492858886719,81.51945495605469,-18.37718200683594
126586,-0.3083953857421875,0.1100616455078125,0.3327789306640625,-0.0257903188467025,1.336837649345398,0.9378039240837096,12.42167663574219,81.7811279296875,-18.69084167480469
126587,-0.2674102783203125,0.1280670166015625,0.368316650390625,-0.2859808802604675,1.471746206283569,0.8689359426498413,12.80793762207031,82.29353332519531,-19.26191711425781
126588,-0.23687744140625,0.1331634521484375,0.38037109375,-0.5717660188674927,1.497796416282654,0.7979586720466614,13.02154541015625,82.74269104003906,-19.85356140136719
126589,-0.2508697509765625,0.11083984375,0.3735198974609375,-0.8545112013816833,1.430100679397583,0.727826714515686,13.46272277832031,83.05781555175781,-20.34376525878906
126590,-0.328460693359375,0.1046905517578125,0.3533782958984375,-1.111618041992188,1.272786140441895,0.6111019849777222,13.77032470703125,83.4248046875,-20.66510009765625
126591,-0.4552001953125,0.1174468994140625,0.3526153564453125,-1.328396201133728,1.040793657302856,0.4347147047519684,14.06756591796875,83.68019104003906,-20.88475036621094
126592,-0.610107421875,0.1719970703125,0.4228057861328125,-1.540913462638855,0.8244816660881042,0.2322233915328979,14.22886657714844,83.93534851074219,-21.05879211425781
126593,-0.7602386474609375,0.276336669921875,0.5319366455078125,-1.759905576705933,0.6737065315246582,0.0048914281651377,14.42121887207031,84.16615295410156,-21.02879333496094
126594,-0.8564300537109375,0.3829345703125,0.6014862060546875,-1.964988946914673,0.5930731892585754,-0.2070144414901733,14.4376220703125,84.42799377441406,-20.87919616699219
126595,-0.8403472900390625,0.5311126708984375,0.4288330078125,-2.254633665084839,0.1902911216020584,-0.4263984560966492,14.04032897949219,84.70323181152344,-20.11213684082031
126596,-0.8403472900390625,0.5311126708984375,0.4288330078125,-2.254633665084839,0.1902911216020584,-0.4263984560966492,14.04032897949219,84.70323181152344,-20.11213684082031
126597,-0.72418212890625,0.580474853515625,0.325347900390625,-2.295294284820557,-0.0837990269064903,-0.4314675033092499,13.74433898925781,84.7886962890625,-19.56588745117188
126598,-0.637481689453125,0.61090087890625,0.2559967041015625,-2.261063814163208,-0.233883336186409,-0.4368833303451538,13.41607666015625,84.845947265625,-18.89004516601562
126599,-0.4141693115234375,0.677642822265625,0.192138671875,-1.929997563362122,-0.3235732614994049,-0.5135266780853271,12.64808654785156,84.84719848632812,-17.46720886230469
126600,-0.4141693115234375,0.677642822265625,0.192138671875,-1.929997563362122,-0.3235732614994049,-0.5135266780853271,12.64808654785156,84.84719848632812,-17.46720886230469
126601,-0.3333587646484375,0.6617889404296875,0.287200927734375,-1.653582572937012,-0.1678664982318878,-0.6356241106987,12.35194396972656,84.67536926269531,-16.56646728515625
126602,-0.280731201171875,0.5936431884765625,0.3192291259765625,-1.41993510723114,0.0864613875746727,-0.7610515356063843,12.1236572265625,84.4766845703125,-15.939208984375
126603,-0.2414398193359375,0.494415283203125,0.2412872314453125,-1.232326626777649,0.216324046254158,-0.8319241404533386,11.79705810546875,84.2825927734375,-15.40374755859375
126604,-0.2099609375,0.403106689453125,0.1314544677734375,-1.026162624359131,0.1522601097822189,-0.8519052863121033,11.61148071289062,83.86557006835938,-14.98080444335938
126605,-0.172119140625,0.320098876953125,0.034271240234375,-0.7770251631736755,-0.0445879735052585,-0.8246078491210938,11.38467407226562,83.50056457519531,-14.74545288085938
126606,-0.1220855712890625,0.235626220703125,-0.0357666015625,-0.4991725385189056,-0.2485930323600769,-0.7688657641410828,11.1556396484375,83.09080505371094,-14.36174011230469
126607,-0.0159759521484375,0.0709228515625,-0.1374053955078125,0.1552548408508301,-0.2510628402233124,-0.5080320835113525,10.93905639648438,82.41061401367188,-13.90786743164062
126608,-0.0159759521484375,0.0709228515625,-0.1374053955078125,0.1552548408508301,-0.2510628402233124,-0.5080320835113525,10.93905639648438,82.41061401367188,-13.90786743164062
126609,0.004608154296875,0.0023345947265625,-0.1634979248046875,0.410988062620163,-0.0598215200006961,-0.3400616943836212,10.82984924316406,82.14996337890625,-13.62898254394531
126610,0.0325775146484375,-0.046783447265625,-0.206756591796875,0.4916680157184601,0.1101222410798073,-0.2088323086500168,10.94638061523438,81.89155578613281,-13.39581298828125
126611,0.091552734375,-0.09930419921875,-0.29644775390625,0.2473301589488983,0.0087732514366507,0.061822086572647,11.20712280273438,81.31198120117188,-13.46150207519531
126612,0.091552734375,-0.09930419921875,-0.29644775390625,0.2473301589488983,0.0087732514366507,0.061822086572647,11.20712280273438,81.31198120117188,-13.46150207519531
126613,0.114471435546875,-0.106536865234375,-0.3365936279296875,0.0713119953870773,-0.1213221698999405,0.1382332444190979,11.232666015625,81.27679443359375,-13.50935363769531
126614,0.14019775390625,-0.0972900390625,-0.3876953125,-0.074616715312004,-0.3430790603160858,0.2207901626825333,11.19773864746094,81.35197448730469,-13.41729736328125
126615,0.1584320068359375,-0.003692626953125,-0.374725341796875,-0.1339175850152969,-0.7385566234588623,0.3944208025932312,10.9920654296875,81.40243530273438,-13.06367492675781
126616,0.1584320068359375,-0.003692626953125,-0.374725341796875,-0.1339175850152969,-0.7385566234588623,0.3944208025932312,10.9920654296875,81.40243530273438,-13.06367492675781
126617,0.140716552734375,0.1082763671875,-0.3891754150390625,-0.1442136317491531,-0.8539372682571411,0.449914962053299,10.94573974609375,81.42939758300781,-12.48191833496094
126618,0.11151123046875,0.258056640625,-0.423675537109375,-0.1344771236181259,-0.9347466230392456,0.4134661555290222,10.96743774414062,81.37109375,-11.82017517089844
126619,0.0464019775390625,0.658294677734375,-0.5788726806640625,0.0069109029136598,-0.8500291109085083,0.2140148133039474,10.9759521484375,81.54164123535156,-10.723388671875
126620,0.0464019775390625,0.658294677734375,-0.5788726806640625,0.0069109029136598,-0.8500291109085083,0.2140148133039474,10.9759521484375,81.54164123535156,-10.723388671875
126621,-0.0265655517578125,0.874420166015625,-0.6296539306640625,0.2706685066223145,-0.6428407430648804,0.1156384497880936,11.10609436035156,81.62606811523438,-9.996841430664062
126622,-0.109375,1.046417236328125,-0.6446990966796875,0.6452866196632385,-0.2994921803474426,0.0827912837266922,11.21047973632812,81.58934020996094,-9.319305419921877
126623,-0.3098602294921875,1.314804077148438,-0.6517333984375,1.20409107208252,0.7949269413948059,0.1888868361711502,11.26530456542969,81.4454345703125,-8.477081298828125
126624,-0.3098602294921875,1.314804077148438,-0.6517333984375,1.20409107208252,0.7949269413948059,0.1888868361711502,11.26530456542969,81.4454345703125,-8.477081298828125
126625,-0.5298919677734375,1.580276489257812,-0.691314697265625,1.073401927947998,0.9473345875740052,0.1170395389199257,11.25608825683594,81.568603515625,-8.662872314453125
126626,-0.9281158447265624,2.082809448242188,-0.623077392578125,0.5370631814002991,0.967967689037323,-0.5185669660568237,11.11695861816406,81.73014831542969,-9.051315307617188
126627,-1.36199951171875,2.778640747070312,-0.575714111328125,-0.0872345045208931,0.9348435997962952,-2.002553939819336,10.81561279296875,81.85293579101562,-9.737472534179688
126628,-1.36199951171875,2.778640747070312,-0.575714111328125,-0.0872345045208931,0.9348435997962952,-2.002553939819336,10.81561279296875,81.85293579101562,-9.737472534179688
126629,-2.246734619140625,3.444442749023438,0.34832763671875,-0.8863804340362549,2.540588617324829,-5.436930179595947,9.160324096679688,81.42141723632812,-10.86659240722656
126630,-4.260772705078125,2.38641357421875,0.027801513671875,-1.215256094932556,4.041386127471924,-4.376364231109619,7.75897216796875,80.25312805175781,-11.60821533203125
126631,-4.570587158203125,1.656219482421875,-0.531280517578125,0.4275582730770111,-0.2177744060754776,0.3086095154285431,4.715972900390625,77.3323974609375,-14.95022583007812
126632,-4.570587158203125,1.656219482421875,-0.531280517578125,0.4275582730770111,-0.2177744060754776,0.3086095154285431,4.715972900390625,77.3323974609375,-14.95022583007812
126633,-2.8443603515625,1.298065185546875,0.08245849609375,1.173895001411438,-0.8963521122932434,0.5172197222709656,4.198837280273438,76.80990600585938,-16.62437438964844
126634,-1.63629150390625,1.25274658203125,-0.1565093994140625,1.337080717086792,-1.010134816169739,1.05506420135498,4.30963134765625,76.84074401855469,-17.28176879882812
126635,-1.168014526367188,1.818572998046875,-0.1630401611328125,1.053727030754089,0.4190023243427277,1.102278590202332,4.761184692382812,77.27326965332031,-17.3837890625
126636,-1.168014526367188,1.818572998046875,-0.1630401611328125,1.053727030754089,0.4190023243427277,1.102278590202332,4.761184692382812,77.27326965332031,-17.3837890625
126637,-1.195831298828125,1.878707885742188,0.02587890625,0.8320215940475464,0.9843128323554992,0.6129826903343201,5.251480102539062,77.69454956054688,-17.50045776367188
126638,-1.122650146484375,1.714950561523438,0.1515655517578125,0.7500364184379578,1.032447338104248,0.4635958969593048,5.959487915039062,77.99053955078125,-17.84849548339844
126639,-0.757965087890625,1.348464965820312,0.27001953125,0.6314187049865723,0.4030531942844391,0.6424394249916077,7.353271484375,78.22305297851562,-19.11500549316406
126640,-0.757965087890625,1.348464965820312,0.27001953125,0.6314187049865723,0.4030531942844391,0.6424394249916077,7.353271484375,78.22305297851562,-19.11500549316406
126641,-0.5475616455078125,1.192001342773438,0.4673309326171875,0.7454672455787659,0.3346200585365295,0.8474833369255066,7.783279418945312,78.22592163085938,-19.547119140625
126642,-0.3280487060546875,1.020736694335938,0.521728515625,0.8705971837043762,0.7439396381378174,1.084271907806396,8.29248046875,78.27102661132812,-19.96882629394531
126643,0.0042266845703125,0.6756439208984375,0.0801239013671875,1.20107364654541,1.367202401161194,1.706247329711914,8.869674682617188,78.77700805664062,-20.71705627441406
126644,0.0042266845703125,0.6756439208984375,0.0801239013671875,1.20107364654541,1.367202401161194,1.706247329711914,8.869674682617188,78.77700805664062,-20.71705627441406
126645,0.0523681640625,0.562774658203125,0.0088958740234375,1.282550454139709,1.36302638053894,1.897955536842346,9.300949096679688,79.14529418945312,-21.31410217285156
126646,0.028594970703125,0.438995361328125,0.060516357421875,1.192536115646362,1.415011286735535,1.926660895347595,9.947158813476562,79.75917053222656,-22.13084411621094
126647,-0.053924560546875,0.3173065185546875,0.08843994140625,0.8899857997894287,1.620503664016724,1.765524744987488,10.60478210449219,80.25846862792969,-22.81666564941406
126648,-0.1707000732421875,0.22607421875,0.0762786865234375,0.4381837248802185,1.865188002586365,1.4212965965271,11.28797912597656,80.88517761230469,-23.54966735839844
126649,-0.316864013671875,0.162384033203125,0.110992431640625,-0.046910785138607,2.008824348449707,1.080341696739197,12.08650207519531,81.42616271972656,-24.270263671875
126650,-0.4187164306640625,0.155303955078125,0.2092132568359375,-0.4427928626537323,2.13733959197998,0.9801796078681946,12.79530334472656,81.97859191894531,-25.09620666503906
126651,-0.4412689208984375,0.1948699951171875,0.2537841796875,-0.6975929141044617,2.138251066207886,0.9231607913970948,13.55670166015625,82.32107543945312,-25.82243347167969
126652,-0.4378204345703125,0.1955718994140625,0.2497100830078125,-0.8642897605895996,2.028578519821167,0.7977440357208252,14.11941528320312,82.78999328613281,-26.48587036132812
126653,-0.42022705078125,0.1800079345703125,0.210205078125,-1.03674042224884,1.87016224861145,0.6637998223304749,14.71905517578125,83.25645446777344,-27.162109375
126654,-0.396942138671875,0.1916656494140625,0.1694488525390625,-1.256915330886841,1.660540342330933,0.530270516872406,15.17781066894531,83.62640380859375,-27.74519348144531
126655,-0.4134521484375,0.2445831298828125,0.1476287841796875,-1.493979334831238,1.390591621398926,0.3892678618431091,15.58657836914062,83.99452209472656,-28.07316589355469
126656,-0.52301025390625,0.39117431640625,0.1340179443359375,-1.711285471916199,1.108918190002441,0.2066626250743866,15.84529113769531,84.3045654296875,-28.29951477050781
126657,-0.690887451171875,0.598907470703125,0.160980224609375,-1.888163328170776,0.7749231457710266,-0.0843854546546936,16.12274169921875,84.56364440917969,-28.32633972167969
126658,-0.810211181640625,0.6933441162109375,0.335296630859375,-2.072051763534546,0.5817190408706665,-0.345795750617981,16.27291870117188,84.85160827636719,-28.15725708007812
126659,-0.9434356689453124,0.7777862548828125,0.5350189208984375,-2.332770109176636,0.6574138402938843,-0.5726941227912903,16.25172424316406,85.38162231445312,-27.41036987304688
126660,-0.9434356689453124,0.7777862548828125,0.5350189208984375,-2.332770109176636,0.6574138402938843,-0.5726941227912903,16.25172424316406,85.38162231445312,-27.41036987304688
126661,-0.9295654296875,0.775726318359375,0.4230804443359375,-2.323473215103149,0.5478308796882629,-0.594150960445404,15.98277282714844,85.50750732421875,-26.93710327148438
126662,-0.799041748046875,0.7652587890625,0.2742462158203125,-2.169142246246338,0.2174553573131561,-0.6243602633476257,15.68373107910156,85.71028137207031,-26.37037658691406
126663,-0.525634765625,0.6694488525390625,0.1557769775390625,-1.537733197212219,-0.2170199304819107,-0.8216512203216553,14.99252319335938,85.8978271484375,-25.17588806152344
126664,-0.525634765625,0.6694488525390625,0.1557769775390625,-1.537733197212219,-0.2170199304819107,-0.8216512203216553,14.99252319335938,85.8978271484375,-25.17588806152344
126665,-0.4040985107421875,0.579559326171875,0.1119232177734375,-1.215458750724792,-0.2075886130332947,-0.9513967037200928,14.57687377929688,85.99322509765625,-24.52748107910156
126666,-0.29473876953125,0.480926513671875,0.0682525634765625,-0.9098532795906068,-0.1868665516376495,-1.049474239349365,14.16140747070312,85.79177856445312,-23.91200256347656
126667,-0.13330078125,0.299560546875,-0.03668212890625,-0.466461718082428,-0.3344051539897919,-1.055506110191345,13.45785522460938,85.45204162597656,-23.029541015625
126668,-0.13330078125,0.299560546875,-0.03668212890625,-0.466461718082428,-0.3344051539897919,-1.055506110191345,13.45785522460938,85.45204162597656,-23.029541015625
126669,-0.059326171875,0.233001708984375,-0.0890960693359375,-0.309475302696228,-0.4898413419723511,-0.9668717980384828,13.19546508789062,85.07586669921875,-22.67942810058594
126670,-0.0003662109375,0.2000732421875,-0.1201324462890625,-0.1742897778749466,-0.6284916400909424,-0.8293964862823486,12.97196960449219,84.65591430664062,-22.44453430175781
126671,0.0603179931640625,0.162628173828125,-0.131561279296875,0.0565157383680343,-0.6102769374847412,-0.4961077570915222,12.63131713867188,83.79666137695312,-21.76449584960938
126672,0.0616302490234375,0.1276092529296875,-0.124908447265625,0.1106024086475372,-0.4115982055664062,-0.3168075084686279,12.507080078125,83.50532531738281,-21.38044738769531
126673,0.0616302490234375,0.1276092529296875,-0.124908447265625,0.1106024086475372,-0.4115982055664062,-0.3168075084686279,12.507080078125,83.50532531738281,-21.38044738769531
126674,0.0559234619140625,0.04229736328125,-0.1793365478515625,0.0062573631294071,-0.0947677865624427,-0.1584857851266861,12.37165832519531,82.86053466796875,-20.59281921386719
126675,0.0559234619140625,0.04229736328125,-0.1793365478515625,0.0062573631294071,-0.0947677865624427,-0.1584857851266861,12.37165832519531,82.86053466796875,-20.59281921386719
126676,0.083526611328125,-0.0119781494140625,-0.209014892578125,-0.1204321384429932,-0.1584261208772659,-0.1180102601647377,12.31201171875,82.79722595214844,-20.52552795410156
126677,0.1070098876953125,-0.05889892578125,-0.23199462890625,-0.2270544618368149,-0.3139776289463043,-0.0739898085594177,12.20704650878906,82.77558898925781,-20.6427001953125
126678,0.13653564453125,-0.0932159423828125,-0.25543212890625,-0.3389383852481842,-0.73888099193573,0.0117796938866376,12.0992431640625,82.80436706542969,-20.21917724609375
126679,0.13653564453125,-0.0932159423828125,-0.25543212890625,-0.3389383852481842,-0.73888099193573,0.0117796938866376,12.0992431640625,82.80436706542969,-20.21917724609375
126680,0.143768310546875,-0.067962646484375,-0.2634429931640625,-0.3530914783477783,-0.9992944598197936,0.0363249853253364,12.00651550292969,82.84944152832031,-19.8719482421875
126681,0.1365203857421875,-0.0105133056640625,-0.225738525390625,-0.3345111310482025,-1.185399889945984,0.0072635053656995,12.060546875,82.78074645996094,-19.36958312988281
126682,0.117034912109375,0.0788421630859375,-0.150177001953125,-0.3134290277957916,-1.196999788284302,-0.0803467705845832,12.07302856445312,82.79736328125,-18.71919250488281
126683,0.0988616943359375,0.1627349853515625,-0.112457275390625,-0.3166106939315796,-1.056190490722656,-0.1615955531597137,12.01779174804688,82.81564331054688,-18.12467956542969
126684,0.06591796875,0.24371337890625,-0.1322021484375,-0.3103536069393158,-0.8608748316764832,-0.2319999486207962,11.84806823730469,82.88630676269531,-17.59648132324219
126685,0.0218658447265625,0.354736328125,-0.1945037841796875,-0.2938521206378937,-0.6983433961868286,-0.2783456146717072,11.74324035644531,82.76754760742188,-16.99085998535156
126686,-0.0406341552734375,0.48297119140625,-0.2760009765625,-0.1725667119026184,-0.5442478656768799,-0.2899913489818573,11.62391662597656,82.61186218261719,-16.3974609375
126687,-0.1132659912109375,0.5890350341796875,-0.365234375,0.0853761509060859,-0.3981289863586426,-0.2896142303943634,11.40077209472656,82.48583984375,-15.98208618164062
126688,-0.1663970947265625,0.68017578125,-0.433685302734375,0.379036009311676,-0.2860280275344849,-0.2572315335273743,11.17124938964844,82.4503173828125,-15.73414611816406
126689,-0.2111358642578125,0.764556884765625,-0.4620208740234375,0.6220177412033081,-0.1345330476760864,-0.1531607955694199,10.95590209960938,82.38508605957031,-15.48912048339844
126690,-0.270538330078125,0.89642333984375,-0.5131683349609375,0.7791293263435364,0.0501409322023391,0.0075447354465723,10.65341186523438,82.0517578125,-15.28675842285156
126691,-0.608154296875,1.4989013671875,-0.347320556640625,0.6020514965057373,0.5124760866165161,-0.0603387095034122,10.14471435546875,82.24908447265625,-15.63339233398438
126692,-0.608154296875,1.4989013671875,-0.347320556640625,0.6020514965057373,0.5124760866165161,-0.0603387095034122,10.14471435546875,82.24908447265625,-15.63339233398438
126693,-0.882537841796875,2.00738525390625,-0.05767822265625,0.1485897451639175,1.171366095542908,-0.7306813597679138,9.861785888671877,82.21676635742188,-15.94888305664062
126694,-1.235809326171875,2.703369140625,0.1215057373046875,-0.4544956088066101,1.838151335716248,-2.031173229217529,9.272537231445312,82.06100463867188,-16.42105102539062
126695,-1.900009155273438,3.73480224609375,0.2390289306640625,-0.7345653176307678,2.730898141860962,-4.344626426696777,8.496719360351562,81.74238586425781,-17.17628479003906
126696,-3.485565185546875,3.87481689453125,0.137969970703125,-0.3377146422863007,3.365488767623901,-6.493343353271484,7.181442260742188,80.88818359375,-18.21174621582031
126697,-5.733993530273438,2.398284912109375,-0.22589111328125,-0.7520862817764282,3.991798162460327,-4.187392234802246,5.419387817382812,79.33766174316406,-19.88885498046875
126698,-5.918777465820312,1.681777954101562,-1.321624755859375,-0.5364596843719482,2.30074143409729,-0.6215447783470154,3.990234375,77.32188415527344,-21.95637512207031
126699,-4.242706298828125,1.212646484375,-0.9548797607421876,0.2344002574682236,-0.7611585855484009,-0.0535223484039306,3.2803955078125,76.08349609375,-23.70524597167969
126700,-2.391571044921875,1.047592163085938,-0.2516326904296875,0.2726048827171326,-1.785070538520813,0.7929564714431763,3.161346435546875,75.82492065429688,-24.37338256835938
126701,-1.526229858398438,1.298171997070312,-0.2237091064453125,0.5006151795387268,-1.341369032859802,1.59956169128418,3.2781982421875,75.78460693359375,-24.20552062988281
126702,-1.295974731445312,1.636184692382812,-0.2421875,0.7497459053993225,-0.4034672975540161,1.8612459897995,3.574234008789062,76.00515747070312,-23.54916381835938
126703,-1.22344970703125,1.790969848632812,0.043731689453125,0.8197659850120544,0.8209625482559204,1.276734590530396,4.98248291015625,77.06431579589844,-23.10694885253906
126704,-1.22344970703125,1.790969848632812,0.043731689453125,0.8197659850120544,0.8209625482559204,1.276734590530396,4.98248291015625,77.06431579589844,-23.10694885253906
126705,-1.157974243164062,1.709503173828125,0.0657958984375,0.7688255906105042,1.120643496513367,1.03319787979126,5.949798583984375,77.54295349121094,-23.45848083496094
126706,-1.0159912109375,1.6102294921875,0.085662841796875,0.740744411945343,0.9401792287826538,0.8951627612113953,6.848358154296875,77.91630554199219,-23.96229553222656
126707,-0.435821533203125,1.220321655273438,0.3290252685546875,0.4671581387519836,0.6247288584709167,1.022896766662598,8.375213623046875,78.30694580078125,-24.95869445800781
126708,-0.435821533203125,1.220321655273438,0.3290252685546875,0.4671581387519836,0.6247288584709167,1.022896766662598,8.375213623046875,78.30694580078125,-24.95869445800781
126709,-0.1407928466796875,0.9705963134765624,0.334075927734375,0.3933784365653992,0.655566930770874,1.37909722328186,9.03515625,78.52532958984375,-25.17904663085938
126710,0.130889892578125,0.771728515625,0.2846832275390625,0.6772719621658325,0.901536464691162,1.962564826011658,9.506149291992188,78.84687805175781,-25.30055236816406
126711,0.2554779052734375,0.6008148193359375,0.20782470703125,1.129711031913757,1.219538927078247,2.539754152297974,10.07839965820312,79.332275390625,-25.57125854492188
126712,0.26104736328125,0.47149658203125,0.1110382080078125,1.424362182617188,1.367754817008972,2.864092588424683,10.85914611816406,80.023681640625,-26.03327941894531
126713,0.21917724609375,0.354736328125,0.063079833984375,1.469465732574463,1.35135555267334,2.855817794799805,11.8150634765625,80.85458374023438,-26.52987670898438
126714,0.1385345458984375,0.2392730712890625,0.0806121826171875,1.385298371315002,1.458915829658508,2.549495697021484,13.02035522460938,81.74055480957031,-27.10163879394531
126715,0.0538177490234375,0.1526031494140625,0.1524200439453125,1.210747838020325,1.781585454940796,2.053643465042114,14.07160949707031,82.47123718261719,-27.66529846191406
126716,-0.045257568359375,0.1271209716796875,0.231414794921875,0.8943917751312256,2.127339124679565,1.513890385627747,15.19520568847656,83.07408142089844,-28.50750732421875
126717,-0.1898956298828125,0.1526641845703125,0.3378753662109375,0.427194207906723,2.394074440002441,1.101598143577576,16.10357666015625,83.6407470703125,-29.42562866210938
126718,-0.2817840576171875,0.2064971923828125,0.4090576171875,-0.1381626725196838,2.614396572113037,0.9008576273918152,17.01495361328125,83.97926330566406,-30.37359619140625
126719,-0.33355712890625,0.2416839599609375,0.3623199462890625,-0.6990987062454224,2.595228672027588,0.6858364343643188,17.84762573242188,84.16937255859375,-31.3721923828125
126720,-0.3847198486328125,0.2189483642578125,0.269744873046875,-1.147681832313538,2.281052350997925,0.4508609175682068,18.56497192382812,84.46553039550781,-32.25616455078125
126721,-0.4268035888671875,0.160064697265625,0.239532470703125,-1.475611448287964,1.808788061141968,0.2472191154956818,19.17210388183594,84.78941345214844,-32.82609558105469
126722,-0.4799041748046875,0.1068115234375,0.318939208984375,-1.703179955482483,1.399862408638,0.0928676202893257,19.68730163574219,85.25796508789062,-33.2203369140625
126723,-0.552520751953125,0.088653564453125,0.4583282470703125,-1.921465873718262,1.214199900627136,-0.0227615050971508,20.03314208984375,85.70057678222656,-33.29043579101562
126724,-0.6361236572265625,0.1082000732421875,0.560333251953125,-2.149258136749268,1.215643763542175,-0.1250705718994141,20.19383239746094,86.14990234375,-33.21354675292969
126725,-0.7339324951171875,0.1860809326171875,0.6144866943359375,-2.37372612953186,1.259887456893921,-0.2439088076353073,20.209228515625,86.48664855957031,-33.00820922851562
126726,-0.846954345703125,0.3404083251953125,0.581085205078125,-2.583393096923828,1.182568907737732,-0.4233525991439819,20.24650573730469,86.88316345214844,-32.59393310546875
126727,-0.955810546875,0.6927947998046875,0.2615966796875,-2.783296823501587,0.2115979939699173,-0.9426796436309814,19.76058959960938,87.75668334960938,-31.72128295898438
126728,-0.955810546875,0.6927947998046875,0.2615966796875,-2.783296823501587,0.2115979939699173,-0.9426796436309814,19.76058959960938,87.75668334960938,-31.72128295898438
126729,-0.8740997314453125,0.788604736328125,0.183807373046875,-2.718687295913696,-0.3472157418727875,-1.126024484634399,19.27542114257812,88.07435607910156,-30.92784118652344
126730,-0.5005035400390625,0.7568206787109375,0.1504058837890625,-2.209230661392212,-0.6452719569206238,-1.033103346824646,17.9700927734375,88.34977722167969,-28.98921203613281
126731,-0.5005035400390625,0.7568206787109375,0.1504058837890625,-2.209230661392212,-0.6452719569206238,-1.033103346824646,17.9700927734375,88.34977722167969,-28.98921203613281
126732,-0.3545379638671875,0.7374420166015625,0.1260528564453125,-1.845875859260559,-0.5909274816513062,-1.030109643936157,17.28857421875,88.3104248046875,-28.0294189453125
126733,-0.253753662109375,0.7008056640625,0.1270751953125,-1.44909679889679,-0.5344088077545166,-1.09088671207428,16.83470153808594,88.1959228515625,-26.88975524902344
126734,-0.185028076171875,0.6624603271484375,0.130126953125,-1.063493728637695,-0.418566882610321,-1.172800421714783,16.41612243652344,88.01535034179688,-25.90669250488281
126735,-0.1313018798828125,0.6184844970703125,0.1017608642578125,-0.7435529828071594,-0.3255658447742462,-1.222463846206665,16.06503295898438,87.74609375,-25.41078186035156
126736,-0.0812530517578125,0.5912628173828125,0.0203704833984375,-0.4851121008396149,-0.3149568736553192,-1.212081789970398,15.81953430175781,87.43516540527344,-24.99533081054688
126737,-0.02886962890625,0.5631866455078125,-0.060302734375,-0.267302542924881,-0.3782122731208801,-1.119538068771362,15.5245361328125,86.88812255859375,-24.67167663574219
126738,0.0233306884765625,0.52294921875,-0.120452880859375,-0.0702965334057807,-0.4803258776664734,-0.9400727152824402,15.30630493164062,86.48045349121094,-24.26890563964844
126739,0.0495758056640625,0.4693450927734375,-0.1489715576171875,0.1149894371628761,-0.531840443611145,-0.7283066511154175,14.9893798828125,86.10627746582031,-24.24673461914062
126740,0.0510711669921875,0.38336181640625,-0.1692657470703125,0.2791645228862762,-0.5358221530914307,-0.5252299308776855,14.65504455566406,85.69374084472656,-24.06425476074219
126741,0.0308380126953125,0.2591400146484375,-0.1885528564453125,0.3997615277767181,-0.5617309808731079,-0.426968902349472,14.38606262207031,85.41580200195312,-23.87226867675781
126742,0.02215576171875,0.1336669921875,-0.19769287109375,0.4911724030971527,-0.5739130973815918,-0.4137007594108582,14.13967895507812,85.21531677246094,-23.61231994628906
126743,0.0341949462890625,0.03094482421875,-0.225921630859375,0.5222283005714417,-0.6205610036849976,-0.4281031489372253,13.92068481445312,85.06443786621094,-23.50727844238281
126744,0.051727294921875,-0.0420989990234375,-0.2491302490234375,0.4742850065231323,-0.7551313042640686,-0.433248907327652,13.79708862304688,84.95730590820312,-23.25971984863281
126745,0.063262939453125,-0.09124755859375,-0.2478790283203125,0.4078761637210846,-0.9050353169441224,-0.424799770116806,13.57623291015625,84.79344177246094,-23.0784912109375
126746,0.0592041015625,-0.11383056640625,-0.221282958984375,0.357710212469101,-0.9458914399147034,-0.4275262951850891,13.39974975585938,84.6748046875,-22.79275512695312
126747,0.038360595703125,-0.1033782958984375,-0.176666259765625,0.2705295085906982,-0.8751594424247742,-0.4546836316585541,13.08961486816406,84.5921630859375,-22.53692626953125
126748,-0.0150604248046875,-0.044586181640625,-0.1381683349609375,0.1049272119998932,-0.7147740721702576,-0.5433213710784912,12.86825561523438,84.47006225585938,-22.26924133300781
126749,-0.08319091796875,0.041839599609375,-0.1425933837890625,-0.1261997520923615,-0.574510395526886,-0.6561304330825806,12.49423217773438,84.39093017578125,-21.96670532226562
126750,-0.12774658203125,0.1131591796875,-0.1241455078125,-0.3609267771244049,-0.5137871503829956,-0.6501204967498779,12.20680236816406,84.23175048828125,-21.63021850585938
126751,-0.160247802734375,0.20361328125,-0.12249755859375,-0.5563955903053284,-0.4625191688537598,-0.609702467918396,11.83763122558594,84.08558654785156,-21.32131958007812
126752,-0.2057647705078125,0.3122406005859375,-0.1790618896484375,-0.5986282825469971,-0.4260676801204681,-0.5801499485969543,11.54188537597656,83.88996887207031,-20.94664001464844
126753,-0.254547119140625,0.424652099609375,-0.219970703125,-0.4267268180847168,-0.3342219293117523,-0.5633943676948547,11.27195739746094,83.61921691894531,-20.48941040039062
126754,-0.39453125,0.7029266357421875,-0.2507781982421875,0.386993795633316,0.3467555642127991,-0.5515827536582947,10.67939758300781,83.14456176757812,-19.86653137207031
126755,-0.496734619140625,0.881622314453125,-0.34783935546875,0.8634037375450134,0.8316394090652466,-0.5630881190299988,10.43031311035156,82.93829345703125,-19.74960327148438
126756,-0.496734619140625,0.881622314453125,-0.34783935546875,0.8634037375450134,0.8316394090652466,-0.5630881190299988,10.43031311035156,82.93829345703125,-19.74960327148438
126757,-0.621734619140625,1.058349609375,-0.5659637451171875,1.305911421775818,1.105545282363892,-0.5370983481407166,10.20903015136719,82.6568603515625,-19.86799621582031
126758,-0.7817535400390625,1.311676025390625,-0.698150634765625,1.493703603744507,0.9622618556022644,-0.4839283227920532,9.827346801757812,82.46844482421875,-20.36666870117188
126759,-0.99993896484375,1.6263427734375,-0.5430450439453125,1.214175343513489,0.7792345285415649,-0.58757084608078,9.4212646484375,82.09474182128906,-21.05062866210938
126760,-1.315414428710938,2.05755615234375,-0.307891845703125,0.726992130279541,1.204675793647766,-0.9838278889656068,9.085800170898438,81.78744506835938,-22.07669067382812
126761,-1.798660278320312,2.500045776367188,-0.22601318359375,0.2795712053775787,1.952676057815552,-1.680881261825562,8.602630615234375,81.42817687988281,-22.95928955078125
126762,-2.563568115234375,2.885879516601562,-0.2740020751953125,0.0751605331897735,2.486232042312622,-2.357870578765869,8.105133056640625,81.08901977539062,-23.74412536621094
126763,-3.543243408203125,2.949371337890625,-0.4562530517578125,0.2880789339542389,2.349100589752197,-2.357614994049072,7.587600708007812,80.57926940917969,-24.71937561035156
126764,-4.38677978515625,2.568283081054688,-0.6868133544921875,0.3273749351501465,1.76337742805481,-1.211564898490906,7.167648315429688,79.91777038574219,-25.83900451660156
126765,-4.315704345703125,2.113433837890625,-0.917938232421875,0.2705720961093903,0.6325539946556091,-0.0827689170837402,6.794586181640625,79.38735961914062,-27.02082824707031
126766,-2.894989013671875,1.598861694335938,-0.67242431640625,0.2476066052913666,-0.2779389321804047,0.275035560131073,6.70599365234375,78.84585571289062,-27.81544494628906
126767,-1.591064453125,1.289047241210938,-0.398223876953125,0.273130863904953,0.7650526762008667,1.212895393371582,6.826156616210938,78.37387084960938,-28.48355102539062
126768,-1.591064453125,1.289047241210938,-0.398223876953125,0.273130863904953,0.7650526762008667,1.212895393371582,6.826156616210938,78.37387084960938,-28.48355102539062
126769,-1.40155029296875,1.417694091796875,-0.3461151123046875,0.4820228219032288,0.8840562701225281,1.424113631248474,7.094879150390625,78.5101318359375,-28.53239440917969
126770,-1.280746459960938,1.60955810546875,-0.128204345703125,0.5247495174407959,0.6856875419616699,1.439560532569885,7.5654296875,78.81544494628906,-29.09588623046875
126771,-0.9894561767578124,1.86639404296875,0.204254150390625,0.3999617993831635,0.3629465103149414,1.013481140136719,9.035064697265623,79.67459106445312,-30.50868225097656
126772,-0.9894561767578124,1.86639404296875,0.204254150390625,0.3999617993831635,0.3629465103149414,1.013481140136719,9.035064697265623,79.67459106445312,-30.50868225097656
126773,-0.7976226806640625,1.861175537109375,0.3301849365234375,0.3966307044029236,0.2622398734092712,0.6140064597129822,9.776260375976562,79.93017578125,-30.75407409667969
126774,-0.5179595947265625,1.5421142578125,0.351531982421875,0.4081150591373444,0.0966005772352218,0.3893187344074249,10.56761169433594,80.12042236328125,-30.9676513671875
126775,-0.017608642578125,0.8984527587890625,0.4820556640625,0.688143789768219,0.0011076086666435,1.024335861206055,11.580078125,80.34440612792969,-31.45736694335938
126776,-0.017608642578125,0.8984527587890625,0.4820556640625,0.688143789768219,0.0011076086666435,1.024335861206055,11.580078125,80.34440612792969,-31.45736694335938
126777,0.1696014404296875,0.67462158203125,0.3238677978515625,1.021548628807068,0.1440221518278122,1.561599612236023,11.84196472167969,80.44810485839844,-31.45542907714844
126778,0.2280426025390625,0.53070068359375,0.11663818359375,1.402429938316345,0.1692050099372864,2.006697654724121,12.24929809570312,80.66213989257812,-31.49571228027344
126779,-0.0639801025390625,0.4287567138671875,-0.03094482421875,1.483443856239319,0.6287131905555725,1.716187596321106,13.4833984375,81.53387451171875,-31.6204833984375
126780,-0.0639801025390625,0.4287567138671875,-0.03094482421875,1.483443856239319,0.6287131905555725,1.716187596321106,13.4833984375,81.53387451171875,-31.6204833984375
126781,-0.2448577880859375,0.311370849609375,-0.059356689453125,1.065814137458801,1.025707483291626,1.141342163085938,14.2235107421875,81.89451599121094,-31.94129943847656
126782,-0.355499267578125,0.186859130859375,0.0127410888671875,0.4856188893318176,1.289330244064331,0.8159472942352295,14.95246887207031,82.2274169921875,-32.37887573242188
126783,-0.4490509033203125,0.17822265625,0.2896728515625,-0.5769160389900208,1.466110348701477,0.6381258964538574,16.38374328613281,82.73019409179688,-33.67367553710938
126784,-0.4490509033203125,0.17822265625,0.2896728515625,-0.5769160389900208,1.466110348701477,0.6381258964538574,16.38374328613281,82.73019409179688,-33.67367553710938
126785,-0.4666900634765625,0.166351318359375,0.4234466552734375,-0.914467453956604,1.626639366149902,0.5609354972839355,17.01445007324219,82.9267578125,-34.18299865722656
126786,-0.4688568115234375,0.1509857177734375,0.44097900390625,-1.139785289764404,1.718223333358765,0.5156380534172058,17.64337158203125,83.26994323730469,-34.60319519042969
126787,-0.4494781494140625,0.1153717041015625,0.3647613525390625,-1.284493207931519,1.636978507041931,0.5025368928909302,18.10943603515625,83.77322387695312,-34.81669616699219
126788,-0.4176788330078125,0.080169677734375,0.2628021240234375,-1.381169676780701,1.386056780815125,0.4783096015453339,18.64048767089844,84.18498229980469,-34.98823547363281
126789,-0.3965911865234375,0.0511627197265625,0.21441650390625,-1.470774412155151,1.130107283592224,0.4328635334968567,18.99574279785156,84.6285400390625,-35.26600646972656
126790,-0.4080047607421875,0.04364013671875,0.2130126953125,-1.58183753490448,0.9819051027297974,0.3760500550270081,19.29518127441406,84.98565673828125,-35.25175476074219
126791,-0.453338623046875,0.0701904296875,0.23541259765625,-1.684263467788696,0.9376603960990906,0.3097330927848816,19.53511047363281,85.510009765625,-35.33924865722656
126792,-0.5197906494140625,0.1501007080078125,0.3056640625,-1.771416783332825,1.01991856098175,0.2204527407884598,19.69966125488281,85.88626098632812,-35.15896606445312
126793,-0.5793609619140625,0.3232269287109375,0.4017486572265625,-1.846180438995361,1.15057909488678,0.1024302318692207,19.83259582519531,86.31001281738281,-34.7615966796875
126794,-0.613189697265625,0.50079345703125,0.4675445556640625,-1.946081042289734,1.229446768760681,-0.0541742891073226,19.874267578125,86.74928283691406,-34.41304016113281
126795,-0.630828857421875,0.618896484375,0.4365997314453125,-2.060772180557251,1.166617631912231,-0.1907177567481995,20.06494140625,87.18466186523438,-34.18267822265625
126796,-0.632843017578125,0.70184326171875,0.3749847412109375,-2.144476652145386,0.9128325581550598,-0.2702107131481171,20.0478515625,87.65589904785156,-33.95436096191406
