time_idx,accelerometerAccelerationX(G),accelerometerAccelerationY(G),accelerometerAccelerationZ(G),gyroRotationX(rad/s),gyroRotationY(rad/s),gyroRotationZ(rad/s),magnetometerX(µT),magnetometerY(µT),magnetometerZ(µT)
163628,-0.455718994140625,0.5349884033203125,0.20343017578125,1.356753587722778,-0.4098535776138306,0.0974064469337463,14.20166015625,84.93511962890625,-7.858932495117188
163629,-0.4805755615234375,0.465911865234375,0.1051177978515625,1.29915177822113,0.0163321010768413,-0.0563761889934539,14.77043151855469,85.20783996582031,-8.5501708984375
163630,-0.4805755615234375,0.465911865234375,0.1051177978515625,1.29915177822113,0.0163321010768413,-0.0563761889934539,14.77043151855469,85.20783996582031,-8.5501708984375
163631,-0.4768829345703125,0.4040374755859375,0.0728302001953125,1.265268325805664,0.1213599815964699,-0.1163484454154968,15.02940368652344,85.17152404785156,-8.842681884765625
163632,-0.4522247314453125,0.3260498046875,0.0349273681640625,1.220171213150024,0.1693504154682159,-0.1641093045473099,15.10655212402344,85.30206298828125,-9.401824951171877
163633,-0.39764404296875,0.1246185302734375,-0.0322265625,0.9986931085586548,0.1127728894352913,-0.2188207656145096,15.21003723144531,85.38258361816406,-10.3050537109375
163634,-0.39764404296875,0.1246185302734375,-0.0322265625,0.9986931085586548,0.1127728894352913,-0.2188207656145096,15.21003723144531,85.38258361816406,-10.3050537109375
163635,-0.3712921142578125,0.032135009765625,-0.030487060546875,0.8187457323074341,0.0426795519888401,-0.2015653401613235,15.13580322265625,85.41157531738281,-10.56707763671875
163636,-0.3170166015625,0.05242919921875,0.0011444091796875,0.3298309147357941,-0.0474207773804664,-0.0802120119333267,15.22906494140625,85.31338500976562,-11.13255310058594
163637,-0.341278076171875,0.3002471923828125,0.0374298095703125,0.0329062826931476,-0.2427873462438583,0.0861146450042724,15.14353942871094,85.23872375488281,-11.36732482910156
163638,-0.341278076171875,0.3002471923828125,0.0374298095703125,0.0329062826931476,-0.2427873462438583,0.0861146450042724,15.14353942871094,85.23872375488281,-11.36732482910156
163639,-0.5017242431640625,0.645843505859375,0.2075347900390625,-0.4109912812709808,-0.4075744450092316,0.1091182306408882,15.10104370117188,85.30705261230469,-11.59138488769531
163640,-0.5952301025390625,0.696990966796875,0.2467193603515625,-0.5145911574363708,-0.3867152333259583,0.0691537708044052,15.16123962402344,85.3734130859375,-11.72709655761719
163641,-0.67156982421875,0.7219085693359375,0.2667388916015625,-0.6095802783966064,-0.3241139054298401,0.0169563461095094,15.03764343261719,85.44200134277344,-11.58491516113281
163642,-0.7256927490234375,0.739105224609375,0.2784271240234375,-0.7330718636512756,-0.2620643675327301,-0.0140606919303536,14.96559143066406,85.41043090820312,-11.26264953613281
163643,-0.7256927490234375,0.739105224609375,0.2784271240234375,-0.7330718636512756,-0.2620643675327301,-0.0140606919303536,14.96559143066406,85.41043090820312,-11.26264953613281
163644,-0.7334747314453125,0.8023834228515625,0.271240234375,-1.001300573348999,-0.2282033413648605,-0.0265668965876102,14.89825439453125,85.50401306152344,-10.67704772949219
163645,-0.7196807861328125,0.8245849609375,0.2683563232421875,-1.084493279457092,-0.2355906814336777,-0.0447416380047798,14.93035888671875,85.49052429199219,-10.26896667480469
163646,-0.7196807861328125,0.8245849609375,0.2683563232421875,-1.084493279457092,-0.2355906814336777,-0.0447416380047798,14.93035888671875,85.49052429199219,-10.26896667480469
163647,-0.6949005126953125,0.827178955078125,0.2589263916015625,-1.122966647148132,-0.2356064021587372,-0.0770343318581581,14.827392578125,85.35279846191406,-9.540786743164062
163648,-0.675384521484375,0.835845947265625,0.247650146484375,-1.153921008110046,-0.2360231876373291,-0.1159926503896713,14.86373901367188,85.20550537109375,-9.194595336914062
163649,-0.684722900390625,0.8813018798828125,0.1842193603515625,-1.178151249885559,-0.2922970950603485,-0.184846818447113,14.62333679199219,84.97711181640625,-8.33544921875
163650,-0.684722900390625,0.8813018798828125,0.1842193603515625,-1.178151249885559,-0.2922970950603485,-0.184846818447113,14.62333679199219,84.97711181640625,-8.33544921875
163651,-0.696807861328125,0.9084320068359376,0.13885498046875,-1.116896986961365,-0.2966090440750122,-0.2317062020301819,14.52522277832031,84.81974792480469,-7.799850463867188
163652,-0.6650543212890625,0.89593505859375,-0.0039215087890625,-0.954288363456726,-0.2704192399978638,-0.2322912961244583,14.25212097167969,84.46916198730469,-6.74456787109375
163653,-0.6544342041015625,0.935943603515625,-0.1164398193359375,-0.8808668851852417,-0.3098931312561035,-0.2378120273351669,14.05709838867188,84.30610656738281,-6.21044921875
163654,-0.6544342041015625,0.935943603515625,-0.1164398193359375,-0.8808668851852417,-0.3098931312561035,-0.2378120273351669,14.05709838867188,84.30610656738281,-6.21044921875
163655,-0.5977783203125,0.9174346923828124,-0.305389404296875,-0.781019926071167,-0.4128150045871735,-0.2983661890029907,13.74577331542969,83.97700500488281,-5.278900146484375
163656,-0.5977783203125,0.9174346923828124,-0.305389404296875,-0.781019926071167,-0.4128150045871735,-0.2983661890029907,13.74577331542969,83.97700500488281,-5.278900146484375
163657,-0.535491943359375,0.958953857421875,-0.454010009765625,-0.7895561456680298,-0.4296544194221497,-0.4191099107265472,13.46005249023438,83.53622436523438,-4.004150390625
163658,-0.535491943359375,0.958953857421875,-0.454010009765625,-0.7895561456680298,-0.4296544194221497,-0.4191099107265472,13.46005249023438,83.53622436523438,-4.004150390625
163659,-0.542633056640625,1.060989379882812,-0.469207763671875,-0.5570720434188843,-0.3525007963180542,-0.3475161492824554,13.1202392578125,83.00572204589844,-3.086181640625
163660,-0.542633056640625,1.060989379882812,-0.469207763671875,-0.5570720434188843,-0.3525007963180542,-0.3475161492824554,13.1202392578125,83.00572204589844,-3.086181640625
163661,-0.6427764892578125,1.157028198242188,-0.5880584716796875,-0.1862210035324097,-0.0195731688290834,-0.008635033853352,12.85104370117188,82.456787109375,-2.465667724609375
163662,-0.6148834228515625,1.225418090820312,-0.76324462890625,0.1371120512485504,0.0742878094315528,0.3110769093036652,12.79635620117188,82.266357421875,-2.131301879882812
163663,-0.6148834228515625,1.225418090820312,-0.76324462890625,0.1371120512485504,0.0742878094315528,0.3110769093036652,12.79635620117188,82.266357421875,-2.131301879882812
163664,-0.54998779296875,1.286087036132812,-0.7523651123046875,0.2688698172569275,0.1546106189489365,0.4455231428146362,12.89175415039062,82.24357604980469,-2.226806640625
163665,-0.480743408203125,1.32208251953125,-0.6997833251953125,0.3959721028804779,0.3323129713535309,0.5430992245674133,12.97886657714844,82.31759643554688,-2.146087646484375
163666,-0.4361419677734375,1.321441650390625,-0.668792724609375,0.5334188938140869,0.5036077499389648,0.5893892645835876,13.09721374511719,82.45509338378906,-2.257232666015625
163667,-0.4361419677734375,1.321441650390625,-0.668792724609375,0.5334188938140869,0.5036077499389648,0.5893892645835876,13.09721374511719,82.45509338378906,-2.257232666015625
163668,-0.4610443115234375,1.215179443359375,-0.665008544921875,0.6829143762588501,0.7312052249908447,0.6349670886993408,13.45693969726562,83.01664733886719,-3.043594360351562
163669,-0.460601806640625,1.151290893554688,-0.6236724853515625,0.6962011456489563,0.762790322303772,0.6414468288421631,13.58839416503906,83.33775329589844,-3.6585693359375
163670,-0.460601806640625,1.151290893554688,-0.6236724853515625,0.6962011456489563,0.762790322303772,0.6414468288421631,13.58839416503906,83.33775329589844,-3.6585693359375
163671,-0.4538116455078125,1.091842651367188,-0.552215576171875,0.6664919853210449,0.7285258173942566,0.6319295167922974,13.65745544433594,83.77894592285156,-4.408676147460938
163672,-0.467010498046875,0.9670562744140624,-0.378021240234375,0.5150058269500732,0.4500925838947296,0.5533361434936523,13.92903137207031,84.42279052734375,-5.479583740234375
163673,-0.485565185546875,0.883514404296875,-0.30487060546875,0.450920045375824,0.2404205948114395,0.4959061443805695,14.15504455566406,84.75267028808594,-5.889938354492188
163674,-0.485565185546875,0.883514404296875,-0.30487060546875,0.450920045375824,0.2404205948114395,0.4959061443805695,14.15504455566406,84.75267028808594,-5.889938354492188
163675,-0.5335540771484375,0.8087005615234375,-0.1701507568359375,0.3697620630264282,-0.2271260917186737,0.4045674502849579,14.4356689453125,85.24119567871094,-6.625885009765625
163676,-0.5438079833984375,0.7750091552734375,-0.068756103515625,0.3125089108943939,-0.3592524528503418,0.4111433327198029,14.56692504882812,85.50338745117188,-6.872802734375
163677,-0.54193115234375,0.7514190673828125,0.0006866455078125,0.2725431025028229,-0.4292608201503754,0.4327389001846313,14.73899841308594,85.846435546875,-7.039764404296875
163678,-0.5360870361328125,0.7583770751953125,0.0685882568359375,0.2715774476528168,-0.4469828307628632,0.4764935672283173,14.92753601074219,86.08316040039062,-6.985214233398438
163679,-0.5360870361328125,0.7583770751953125,0.0685882568359375,0.2715774476528168,-0.4469828307628632,0.4764935672283173,14.92753601074219,86.08316040039062,-6.985214233398438
163680,-0.5132293701171875,0.7666473388671875,0.117523193359375,0.3640799522399902,-0.4935932159423828,0.5444396138191223,15.16969299316406,86.30329895019531,-7.1361083984375
163681,-0.4845733642578125,0.797454833984375,0.2316131591796875,0.7279348373413086,-0.5721266269683838,0.6732212901115417,15.78497314453125,86.64242553710938,-7.221633911132812
163682,-0.4845733642578125,0.797454833984375,0.2316131591796875,0.7279348373413086,-0.5721266269683838,0.6732212901115417,15.78497314453125,86.64242553710938,-7.221633911132812
163683,-0.3962860107421875,0.80206298828125,0.224517822265625,0.8230339288711548,-0.5973515510559082,0.6723309755325317,16.20053100585938,86.78909301757812,-7.118255615234375
163684,-0.2207794189453125,0.70001220703125,0.205810546875,0.7232658267021179,-0.6468179225921631,0.619341254234314,17.00270080566406,87.18919372558594,-7.410064697265625
163685,-0.14849853515625,0.63470458984375,0.1790008544921875,0.603340208530426,-0.6109379529953003,0.6172624230384827,17.35462951660156,87.33869934082031,-7.41326904296875
163686,-0.14849853515625,0.63470458984375,0.1790008544921875,0.603340208530426,-0.6109379529953003,0.6172624230384827,17.35462951660156,87.33869934082031,-7.41326904296875
163687,-0.1239776611328125,0.59234619140625,0.1716461181640625,0.4827136695384979,-0.4877195954322815,0.6005577445030212,17.66403198242188,87.54080200195312,-7.33740234375
163688,-0.2372589111328125,0.6009979248046875,0.1573486328125,0.3064480721950531,-0.1133979335427284,0.5268155932426453,18.1678466796875,87.95634460449219,-7.336181640625
163689,-0.3438262939453125,0.639801025390625,0.0928497314453125,0.2351307570934296,-0.1174049228429794,0.445387065410614,18.45794677734375,88.14590454101562,-7.337677001953125
163690,-0.3438262939453125,0.639801025390625,0.0928497314453125,0.2351307570934296,-0.1174049228429794,0.445387065410614,18.45794677734375,88.14590454101562,-7.337677001953125
163691,-0.45318603515625,0.694671630859375,0.103973388671875,0.0752119272947311,-0.3447627127170563,0.2824074625968933,18.96540832519531,88.53816223144531,-7.448806762695312
163692,-0.4774169921875,0.726715087890625,0.1230316162109375,0.0096715353429317,-0.3040139377117157,0.2012955546379089,19.12191772460938,88.58406066894531,-7.607574462890625
163693,-0.531158447265625,0.7591400146484375,0.1128692626953125,-0.0076754963956773,-0.2302118986845016,0.1118706092238426,19.28968811035156,88.64956665039062,-7.446578979492188
163694,-0.58563232421875,0.80169677734375,0.1087799072265625,-0.0138473724946379,-0.16114841401577,0.0157288964837789,19.36024475097656,88.8170166015625,-7.536331176757812
163695,-0.58563232421875,0.80169677734375,0.1087799072265625,-0.0138473724946379,-0.16114841401577,0.0157288964837789,19.36024475097656,88.8170166015625,-7.536331176757812
163696,-0.63702392578125,0.8537445068359375,0.1439666748046875,-0.0597765147686004,-0.0631150528788566,-0.1602922081947327,19.42240905761719,88.91746520996094,-7.32879638671875
163697,-0.6365814208984375,0.8661651611328125,0.17041015625,-0.0902249664068222,-0.0363630689680576,-0.2273095846176147,19.42539978027344,88.80857849121094,-7.352447509765625
163698,-0.6365814208984375,0.8661651611328125,0.17041015625,-0.0902249664068222,-0.0363630689680576,-0.2273095846176147,19.42539978027344,88.80857849121094,-7.352447509765625
163699,-0.64129638671875,0.836151123046875,0.1869049072265625,-0.1076369807124138,-0.0586579851806163,-0.3269940912723541,19.27294921875,88.80592346191406,-7.362258911132812
163700,-0.64129638671875,0.836151123046875,0.1869049072265625,-0.1076369807124138,-0.0586579851806163,-0.3269940912723541,19.27294921875,88.80592346191406,-7.362258911132812
163701,-0.64593505859375,0.79852294921875,0.1832733154296875,-0.0993580147624015,-0.0634412914514541,-0.3622327744960785,19.18499755859375,88.63616943359375,-7.39385986328125
163702,-0.633880615234375,0.7454986572265625,0.1739044189453125,-0.1084090322256088,-0.0460734851658344,-0.400528758764267,19.04283142089844,88.62498474121094,-7.314987182617188
163703,-0.6223602294921875,0.67919921875,0.1670989990234375,-0.1385738551616669,-0.0199231076985597,-0.4396751224994659,18.95378112792969,88.51368713378906,-7.173095703125
163704,-0.6101837158203125,0.623382568359375,0.1643524169921875,-0.1998582482337952,0.0225585717707872,-0.4790638089179993,18.83216857910156,88.42094421386719,-7.1419677734375
163705,-0.6097412109375,0.5568084716796875,0.1198883056640625,-0.3648040592670441,0.0336985737085342,-0.5483259558677673,18.55503845214844,88.0579833984375,-7.107437133789062
163706,-0.6097412109375,0.5568084716796875,0.1198883056640625,-0.3648040592670441,0.0336985737085342,-0.5483259558677673,18.55503845214844,88.0579833984375,-7.107437133789062
163707,-0.6078948974609375,0.5419921875,0.0924224853515625,-0.4426448047161102,-0.0050365701317787,-0.549013078212738,18.28291320800781,87.8958740234375,-7.038711547851562
163708,-0.6114349365234375,0.5540313720703125,0.0688934326171875,-0.5255873799324036,-0.0477411560714244,-0.5471624135971069,18.0498046875,87.87858581542969,-6.934051513671875
163709,-0.6092529296875,0.5791168212890625,0.0373077392578125,-0.6219591498374939,-0.1142173856496811,-0.5217715501785278,17.70027160644531,87.6815185546875,-6.715682983398438
163710,-0.623046875,0.623870849609375,-0.0094451904296875,-0.7182092666625977,-0.2196058630943298,-0.4700916111469269,17.56185913085938,87.31253051757812,-6.546157836914062
163711,-0.605224609375,0.73663330078125,-0.1658935546875,-0.8320002555847168,-0.5729655027389526,-0.3883717060089111,17.0477294921875,86.88847351074219,-5.895401000976562
163712,-0.605224609375,0.73663330078125,-0.1658935546875,-0.8320002555847168,-0.5729655027389526,-0.3883717060089111,17.0477294921875,86.88847351074219,-5.895401000976562
163713,-0.5359954833984375,0.7780914306640625,-0.153045654296875,-0.8837037086486816,-0.7311564683914185,-0.358271598815918,16.79425048828125,86.84974670410156,-5.5164794921875
163714,-0.463775634765625,0.7993011474609375,-0.0841064453125,-0.9747433066368104,-0.7532857656478882,-0.3292346298694611,16.57345581054688,86.54641723632812,-4.9427490234375
163715,-0.4443817138671875,0.8585968017578125,-0.043731689453125,-1.042181491851807,-0.6766692996025085,-0.3308290541172028,16.46792602539062,86.31417846679688,-4.432479858398438
163716,-0.4944305419921875,0.9320220947265624,-0.0834808349609375,-1.054539084434509,-0.5739455819129944,-0.3849388957023621,16.29570007324219,86.17222595214844,-3.835830688476562
163717,-0.595947265625,1.080078125,-0.2416229248046875,-0.8493494391441345,-0.5303224325180054,-0.4681879878044128,15.91705322265625,85.69876098632812,-2.647689819335938
163718,-0.6358184814453125,1.141693115234375,-0.3118896484375,-0.6626282930374146,-0.5347049236297607,-0.4341615736484528,15.74018859863281,85.33123779296875,-2.093338012695312
163719,-0.6358184814453125,1.141693115234375,-0.3118896484375,-0.6626282930374146,-0.5347049236297607,-0.4341615736484528,15.74018859863281,85.33123779296875,-2.093338012695312
163720,-0.6505279541015625,1.205429077148438,-0.37030029296875,-0.4368790686130524,-0.5310779809951782,-0.3694976270198822,15.56709289550781,84.94462585449219,-1.516342163085938
163721,-0.6016998291015625,1.223739624023438,-0.4251708984375,-0.1849453449249268,-0.5346325039863586,-0.310112327337265,15.42205810546875,84.64949035644531,-0.9344635009765624
163722,-0.507965087890625,1.221038818359375,-0.462371826171875,0.0839372426271438,-0.5135504007339478,-0.2137383818626404,15.35371398925781,84.38644409179688,-0.3322906494140625
163723,-0.4296417236328125,1.219314575195312,-0.5443267822265625,0.3688587248325348,-0.4572714269161224,-0.0969510450959205,15.304443359375,84.14724731445312,0.026458740234375
163724,-0.358001708984375,1.22149658203125,-0.6338958740234375,0.6763001680374146,-0.446550577878952,0.0425719618797302,15.24203491210938,84.04986572265625,0.1502838134765625
163725,-0.308135986328125,1.226394653320312,-0.687774658203125,0.944423496723175,-0.4233693778514862,0.171366959810257,15.30812072753906,84.03643798828125,0.1853790283203125
163726,-0.2677001953125,1.231918334960938,-0.7016754150390625,1.132354736328125,-0.3496434986591339,0.2786489427089691,15.39794921875,84.08235168457031,0.170135498046875
163727,-0.2469329833984375,1.266250610351562,-0.6850738525390625,1.185611605644226,-0.2660375535488129,0.3358967900276184,15.660400390625,84.20223999023438,-0.0059356689453125
163728,-0.229095458984375,1.312255859375,-0.666839599609375,1.120644569396973,-0.2686309218406677,0.340485155582428,15.88365173339844,84.38580322265625,-0.2535552978515625
163729,-0.2187042236328125,1.3385009765625,-0.630035400390625,1.037023186683655,-0.3500930368900299,0.3596772253513336,16.09335327148438,84.72126770019531,-0.608245849609375
163730,-0.236297607421875,1.344467163085938,-0.563934326171875,1.000288844108582,-0.3771579265594482,0.4302664399147034,16.34147644042969,84.99263000488281,-0.9476470947265624
163731,-0.287994384765625,1.317428588867188,-0.396240234375,0.9875768423080444,-0.3194179534912109,0.5227915644645691,16.86531066894531,85.56437683105469,-1.567153930664062
163732,-0.3280181884765625,1.306564331054688,-0.3040771484375,0.9646379351615906,-0.2425724267959595,0.48846235871315,17.126220703125,85.91212463378906,-1.911346435546875
163733,-0.3952484130859375,1.304641723632812,-0.2198028564453125,0.9382129907608032,-0.182125598192215,0.3953427970409393,17.44677734375,86.24824523925781,-2.07415771484375
163734,-0.3952484130859375,1.304641723632812,-0.2198028564453125,0.9382129907608032,-0.182125598192215,0.3953427970409393,17.44677734375,86.24824523925781,-2.07415771484375
163735,-0.4679107666015625,1.304824829101562,-0.125762939453125,0.9177647233009338,-0.1345048099756241,0.2758318483829498,17.62553405761719,86.53376770019531,-2.472869873046875
163736,-0.6457672119140625,1.275146484375,0.0049591064453125,0.9165657758712769,-0.0647017657756805,-0.0530911795794963,18.04228210449219,87.19918823242188,-3.100509643554688
163737,-0.719696044921875,1.220932006835938,0.0528717041015625,0.9541416168212892,-0.0357880927622318,-0.189367800951004,18.18446350097656,87.39764404296875,-3.2301025390625
163738,-0.719696044921875,1.220932006835938,0.0528717041015625,0.9541416168212892,-0.0357880927622318,-0.189367800951004,18.18446350097656,87.39764404296875,-3.2301025390625
163739,-0.81622314453125,1.049942016601562,0.031280517578125,1.052343606948853,-0.138396754860878,-0.2058311849832535,18.15451049804688,87.77366638183594,-4.15771484375
163740,-0.81622314453125,1.049942016601562,0.031280517578125,1.052343606948853,-0.138396754860878,-0.2058311849832535,18.15451049804688,87.77366638183594,-4.15771484375
163741,-0.822235107421875,0.9997711181640624,-0.0036773681640625,1.118077278137207,-0.4038800895214081,-0.1445537209510803,18.07717895507812,87.97105407714844,-4.848907470703125
163742,-0.790802001953125,0.9181976318359376,-0.0335693359375,1.126863121986389,-0.6414620280265808,-0.0705820247530937,18.10108947753906,88.07388305664062,-5.249069213867188
163743,-0.7563323974609375,0.8093719482421875,-0.01416015625,1.158663868904114,-0.8673532009124756,0.0226374026387929,18.1871337890625,88.14459228515625,-5.4964599609375
163744,-0.7010955810546875,0.7435150146484375,0.0719757080078125,1.257587313652039,-1.022197365760803,0.1154344528913498,18.35189819335938,88.31182861328125,-5.783981323242188
163745,-0.6237030029296875,0.67926025390625,0.1506500244140625,1.350536346435547,-1.067058563232422,0.147772416472435,18.57681274414062,88.39505004882812,-5.889724731445312
163746,-0.5369720458984375,0.58990478515625,0.21978759765625,1.372023582458496,-0.9576535224914552,0.144466906785965,18.87258911132812,88.61038208007812,-6.019989013671875
163747,-0.4604644775390625,0.50018310546875,0.26666259765625,1.294179677963257,-0.7289165258407593,0.154231384396553,19.1929931640625,88.65060424804688,-6.1649169921875
163748,-0.4094696044921875,0.399749755859375,0.1842803955078125,1.074516296386719,-0.3131320774555206,0.1493564695119858,19.77204895019531,88.78195190429688,-6.537857055664062
163749,-0.4094696044921875,0.399749755859375,0.1842803955078125,1.074516296386719,-0.3131320774555206,0.1493564695119858,19.77204895019531,88.78195190429688,-6.537857055664062
163750,-0.42401123046875,0.36529541015625,0.162567138671875,1.066740870475769,-0.1619537472724915,0.0602588132023811,20.1068115234375,88.91131591796875,-6.831069946289062
163751,-0.4307403564453125,0.294586181640625,0.1311187744140625,1.085005640983582,-0.0046938215382397,-0.0253732670098543,20.26625061035156,89.02839660644531,-7.171859741210938
163752,-0.4299468994140625,0.2218780517578125,0.0960845947265625,1.081449031829834,0.1397317945957184,-0.1224867701530457,20.36262512207031,89.17523193359375,-7.500213623046875
163753,-0.425872802734375,0.1584930419921875,0.061370849609375,0.9977285265922546,0.2415431141853333,-0.1947977095842361,20.46243286132812,89.30899047851562,-7.946121215820312
163754,-0.4222259521484375,0.115814208984375,0.0207366943359375,0.8373138308525085,0.2453000396490097,-0.2279636561870575,20.44111633300781,89.34867858886719,-8.178573608398438
163755,-0.4064178466796875,0.1371612548828125,0.0035400390625,0.6049796342849731,0.1259411573410034,-0.1925231069326401,20.3890380859375,89.34596252441406,-8.402297973632812
163756,-0.4158782958984375,0.4846954345703125,0.103790283203125,-0.0038450718857347,-0.3915272951126099,0.0054184673354029,20.25599670410156,89.38499450683594,-9.45184326171875
163757,-0.4460296630859375,0.570159912109375,0.1956787109375,-0.1915638446807861,-0.5554086565971375,0.0361018106341362,20.16041564941406,89.40635681152344,-9.507904052734377
163758,-0.4460296630859375,0.570159912109375,0.1956787109375,-0.1915638446807861,-0.5554086565971375,0.0361018106341362,20.16041564941406,89.40635681152344,-9.507904052734377
163759,-0.4780120849609375,0.6358642578125,0.274139404296875,-0.3044813275337219,-0.5940644145011902,0.0481936298310756,20.1566162109375,89.41909790039062,-9.6148681640625
163760,-0.523681640625,0.6949310302734375,0.3176116943359375,-0.3839862942695618,-0.5414882898330688,0.0404081419110298,20.19573974609375,89.45510864257812,-9.607498168945312
163761,-0.5724334716796875,0.746978759765625,0.3289794921875,-0.4497320055961609,-0.4528194069862366,0.0135874478146433,20.19876098632812,89.63922119140625,-9.345809936523438
163762,-0.613372802734375,0.784423828125,0.3196868896484375,-0.5114390254020691,-0.3732529282569885,-0.0203585345298051,20.12850952148438,89.72055053710938,-8.987762451171875
163763,-0.64752197265625,0.810577392578125,0.300811767578125,-0.5821906924247742,-0.3230307996273041,-0.0524834468960762,20.11235046386719,89.66627502441406,-8.707199096679688
163764,-0.6713714599609375,0.843292236328125,0.241943359375,-0.7345722317695618,-0.3279480338096619,-0.0832341685891151,20.09909057617188,89.63497924804688,-8.011520385742188
163765,-0.654052734375,0.8359832763671875,0.2214813232421875,-0.8086046576499939,-0.3766535222530365,-0.089117094874382,20.08995056152344,89.51832580566406,-7.739028930664062
163766,-0.654052734375,0.8359832763671875,0.2214813232421875,-0.8086046576499939,-0.3766535222530365,-0.089117094874382,20.08995056152344,89.51832580566406,-7.739028930664062
163767,-0.612060546875,0.802337646484375,0.2020416259765625,-0.972004771232605,-0.4284917116165161,-0.1255747079849243,20.06013488769531,89.33013916015625,-6.999725341796875
163768,-0.608154296875,0.804412841796875,0.17620849609375,-1.024758815765381,-0.4339383840560913,-0.1509761959314346,20.01786804199219,89.10362243652344,-6.534286499023438
163769,-0.624603271484375,0.82745361328125,0.1326904296875,-1.036337733268738,-0.4045325815677643,-0.18147312104702,19.93072509765625,88.91981506347656,-6.10333251953125
163770,-0.624603271484375,0.82745361328125,0.1326904296875,-1.036337733268738,-0.4045325815677643,-0.18147312104702,19.93072509765625,88.91981506347656,-6.10333251953125
163771,-0.6552276611328125,0.8493194580078125,0.0785980224609375,-1.015612721443176,-0.3270260691642761,-0.2175685465335846,19.91487121582031,88.80186462402344,-5.44036865234375
163772,-0.6849517822265625,0.890350341796875,-0.0900115966796875,-0.9483631253242492,-0.2040639221668243,-0.2534668743610382,19.71017456054688,88.50460815429688,-4.547698974609375
163773,-0.68328857421875,0.9338531494140624,-0.16925048828125,-0.9083189964294434,-0.1590154767036438,-0.2940606474876404,19.51976013183594,88.29612731933594,-3.857223510742188
163774,-0.6569366455078125,0.946136474609375,-0.2319488525390625,-0.8914428353309631,-0.1264375597238541,-0.3410177826881409,19.24440002441406,88.10658264160156,-3.486572265625
163775,-0.6569366455078125,0.946136474609375,-0.2319488525390625,-0.8914428353309631,-0.1264375597238541,-0.3410177826881409,19.24440002441406,88.10658264160156,-3.486572265625
163776,-0.5865478515625,0.9896697998046876,-0.338226318359375,-0.8678533434867859,-0.2536431849002838,-0.3947752714157104,18.89793395996094,87.64920043945312,-2.673980712890625
163777,-0.5702362060546875,1.045867919921875,-0.37164306640625,-0.7725305557250977,-0.3074696660041809,-0.410721480846405,18.70658874511719,87.30267333984375,-2.10467529296875
163778,-0.5702362060546875,1.045867919921875,-0.37164306640625,-0.7725305557250977,-0.3074696660041809,-0.410721480846405,18.70658874511719,87.30267333984375,-2.10467529296875
163779,-0.556488037109375,1.085281372070312,-0.3908233642578125,-0.6308906078338623,-0.2185749560594559,-0.3806024789810181,18.54109191894531,87.07283020019531,-1.68084716796875
163780,-0.5730743408203125,1.119247436523438,-0.4205474853515625,-0.4810891151428223,-0.0558712556958198,-0.2816282212734222,18.22123718261719,86.80859375,-1.390701293945312
163781,-0.6516876220703125,1.141433715820312,-0.5993804931640625,-0.2185160964727402,0.0864496678113937,-0.032270323485136,17.85476684570312,86.29556274414062,-0.53167724609375
163782,-0.6516876220703125,1.141433715820312,-0.5993804931640625,-0.2185160964727402,0.0864496678113937,-0.032270323485136,17.85476684570312,86.29556274414062,-0.53167724609375
163783,-0.614471435546875,1.213577270507812,-0.68402099609375,0.0797241255640983,0.1838433295488358,0.2696019113063812,17.67579650878906,85.95942687988281,-0.19024658203125
163784,-0.5721435546875,1.27459716796875,-0.6933135986328125,0.2078232318162918,0.3055652379989624,0.3871205449104309,17.73731994628906,85.84007263183594,-0.282073974609375
163785,-0.5341339111328125,1.313766479492188,-0.656890869140625,0.3177119195461273,0.4175716638565063,0.4404492974281311,17.85798645019531,85.82113647460938,-0.05572509765625
163786,-0.5341339111328125,1.313766479492188,-0.656890869140625,0.3177119195461273,0.4175716638565063,0.4404492974281311,17.85798645019531,85.82113647460938,-0.05572509765625
163787,-0.5175628662109375,1.293807983398438,-0.6209716796875,0.4111880660057068,0.5454055070877075,0.4844529628753662,17.91209411621094,85.87307739257812,0.0748443603515625
163788,-0.5458526611328125,1.186019897460938,-0.5973663330078125,0.5127424001693726,0.7205770611763,0.5891844630241394,17.97770690917969,86.325927734375,-0.54022216796875
163789,-0.546295166015625,1.144943237304688,-0.5620574951171875,0.5225082039833069,0.7775506377220154,0.6163753271102905,18.16377258300781,86.63424682617188,-1.040283203125
163790,-0.546295166015625,1.144943237304688,-0.5620574951171875,0.5225082039833069,0.7775506377220154,0.6163753271102905,18.16377258300781,86.63424682617188,-1.040283203125
163791,-0.5262603759765625,1.092193603515625,-0.50738525390625,0.517946183681488,0.7642835378646851,0.6301542520523071,18.23396301269531,86.91436767578125,-1.490325927734375
163792,-0.4986572265625,1.041030883789062,-0.444305419921875,0.4837720096111298,0.6530987024307251,0.6327564120292664,18.38638305664062,87.21630859375,-2.071151733398438
163793,-0.44879150390625,0.8982391357421875,-0.2791290283203125,0.4254969656467438,0.2223758101463318,0.570908784866333,18.65272521972656,88.01991271972656,-3.083343505859375
163794,-0.44879150390625,0.8982391357421875,-0.2791290283203125,0.4254969656467438,0.2223758101463318,0.570908784866333,18.65272521972656,88.01991271972656,-3.083343505859375
163795,-0.4372406005859375,0.8357391357421875,-0.21484375,0.4304398000240326,0.0012002866715192,0.5234943628311157,18.84136962890625,88.26200866699219,-3.477920532226562
163796,-0.4109344482421875,0.7900848388671875,-0.0676422119140625,0.4140121042728424,-0.4510209858417511,0.5332777500152588,19.159912109375,88.8394775390625,-4.143096923828125
163797,-0.3987274169921875,0.795562744140625,-0.018463134765625,0.3734404146671295,-0.629572868347168,0.5445056557655334,19.4718017578125,88.99684143066406,-4.3988037109375
163798,-0.3987274169921875,0.795562744140625,-0.018463134765625,0.3734404146671295,-0.629572868347168,0.5445056557655334,19.4718017578125,88.99684143066406,-4.3988037109375
163799,-0.369049072265625,0.8074951171875,0.0164031982421875,0.3272148668766022,-0.818974494934082,0.5637962818145752,19.74684143066406,89.26907348632812,-4.588577270507812
163800,-0.312225341796875,0.8390655517578125,0.134521484375,0.4713563323020935,-1.077102661132812,0.5939453840255737,20.41580200195312,89.73971557617188,-4.5517578125
163801,-0.2972259521484375,0.8548736572265625,0.1766357421875,0.625908374786377,-1.109595417976379,0.612526535987854,20.80361938476562,89.81480407714844,-4.301956176757812
163802,-0.2972259521484375,0.8548736572265625,0.1766357421875,0.625908374786377,-1.109595417976379,0.612526535987854,20.80361938476562,89.81480407714844,-4.301956176757812
163803,-0.3006134033203125,0.842041015625,0.1909332275390625,0.7840503454208374,-1.12966787815094,0.6851280331611633,21.25335693359375,89.99534606933594,-4.188262939453125
163804,-0.2842254638671875,0.85772705078125,0.2958831787109375,0.975739359855652,-0.8061724305152893,0.7624318599700928,22.24037170410156,90.48503112792967,-4.166854858398438
163805,-0.239532470703125,0.8026885986328125,0.27166748046875,0.9121414422988892,-0.5108286738395691,0.6702028512954712,22.84829711914062,90.67953491210938,-4.058929443359375
163806,-0.212005615234375,0.704376220703125,0.220428466796875,0.7511219382286072,-0.3237727284431458,0.6333619952201843,23.76235961914062,91.13302612304688,-4.365692138671875
163807,-0.212005615234375,0.704376220703125,0.220428466796875,0.7511219382286072,-0.3237727284431458,0.6333619952201843,23.76235961914062,91.13302612304688,-4.365692138671875
163808,-0.2315826416015625,0.6423492431640625,0.1392974853515625,0.4191397428512573,-0.2775586545467377,0.5759977698326111,24.17616271972656,91.34136962890624,-4.556198120117188
163809,-0.332305908203125,0.62127685546875,0.0899505615234375,0.2699289619922638,-0.3113144636154175,0.5024871230125427,24.51637268066406,91.5102996826172,-4.817977905273438
163810,-0.4529266357421875,0.6068878173828125,0.04925537109375,0.1224364340305328,-0.3664190173149109,0.3964653313159943,24.96868896484375,92.03727722167967,-4.80816650390625
163811,-0.4529266357421875,0.6068878173828125,0.04925537109375,0.1224364340305328,-0.3664190173149109,0.3964653313159943,24.96868896484375,92.03727722167967,-4.80816650390625
163812,-0.568603515625,0.56658935546875,0.0953216552734375,-0.0345824770629406,-0.3021944761276245,0.185319259762764,25.42811584472656,92.3967742919922,-4.735031127929688
163813,-0.591278076171875,0.5880889892578125,0.1472625732421875,-0.0196658466011285,-0.101791076362133,0.1217093914747238,25.55709838867188,92.468505859375,-4.662796020507812
163814,-0.591278076171875,0.5880889892578125,0.1472625732421875,-0.0196658466011285,-0.101791076362133,0.1217093914747238,25.55709838867188,92.468505859375,-4.662796020507812
163815,-0.5836029052734375,0.7214813232421875,0.1638336181640625,-0.0262073688209056,0.1294884830713272,0.0187206901609897,25.77236938476562,92.46052551269533,-4.731842041015625
163816,-0.59637451171875,0.7815093994140625,0.15777587890625,-0.0850163549184799,0.0674876943230629,-0.0241370275616645,25.74211120605469,92.4340362548828,-4.790603637695312
163817,-0.598419189453125,0.82574462890625,0.1814117431640625,-0.1341093331575394,-0.005479454062879,-0.0845977067947387,25.73272705078125,92.3389129638672,-4.725372314453125
163818,-0.5809478759765625,0.84405517578125,0.247711181640625,-0.1659551411867142,0.0071708275936543,-0.1347607374191284,25.79499816894531,92.25997924804688,-4.586395263671875
163819,-0.5623321533203125,0.8581695556640625,0.2888946533203125,-0.1861650794744492,0.1065141931176186,-0.1640059798955917,25.73040771484375,92.3008270263672,-4.580657958984375
163820,-0.5518798828125,0.869964599609375,0.284576416015625,-0.1955335438251495,0.1830481141805649,-0.1883456707000732,25.63461303710938,92.3333740234375,-4.478622436523438
163821,-0.5546875,0.8662261962890625,0.2512359619140625,-0.21518874168396,0.1868782788515091,-0.2117181122303009,25.54617309570312,92.25270080566406,-4.324661254882812
163822,-0.5546875,0.8662261962890625,0.2512359619140625,-0.21518874168396,0.1868782788515091,-0.2117181122303009,25.54617309570312,92.25270080566406,-4.324661254882812
163823,-0.5565338134765625,0.8192901611328125,0.182464599609375,-0.1947636306285858,0.107680656015873,-0.2626390755176544,25.2774658203125,92.17172241210938,-4.349960327148438
163824,-0.5493316650390625,0.7661895751953125,0.1705780029296875,-0.1945692151784897,0.1203386634588242,-0.3057987987995148,25.17445373535156,92.15464782714844,-4.318588256835938
163825,-0.5333099365234375,0.717926025390625,0.148529052734375,-0.2168627977371216,0.1317521780729294,-0.3565205633640289,25.01597595214844,91.98611450195312,-4.313095092773438
163826,-0.5333099365234375,0.717926025390625,0.148529052734375,-0.2168627977371216,0.1317521780729294,-0.3565205633640289,25.01597595214844,91.98611450195312,-4.313095092773438
163827,-0.5222320556640625,0.678955078125,0.1273345947265625,-0.2654119729995728,0.1171252876520157,-0.4082418084144592,24.80158996582031,91.91651916503906,-4.277511596679688
163828,-0.505859375,0.6385345458984375,0.079925537109375,-0.4093888401985168,-0.0398408882319927,-0.4641828536987305,24.43675231933594,91.632080078125,-4.1553955078125
163829,-0.498992919921875,0.6524810791015625,0.066192626953125,-0.499930739402771,-0.1448519974946976,-0.4687347114086151,24.18104553222656,91.43141174316406,-4.048019409179688
163830,-0.498992919921875,0.6524810791015625,0.066192626953125,-0.499930739402771,-0.1448519974946976,-0.4687347114086151,24.18104553222656,91.43141174316406,-4.048019409179688
163831,-0.5015106201171875,0.6849822998046875,0.0538177490234375,-0.5694357752799988,-0.2430957406759262,-0.4646470248699188,24.01234436035156,91.34263610839844,-3.865570068359375
163832,-0.515289306640625,0.727081298828125,0.0513763427734375,-0.6212635636329651,-0.2618659734725952,-0.4662872850894928,23.74266052246094,91.21656799316406,-3.610763549804688
163833,-0.521728515625,0.8337554931640625,-0.00665283203125,-0.635998547077179,-0.2622923254966736,-0.4763311147689819,23.30232238769531,90.806640625,-2.83868408203125
163834,-0.521728515625,0.8337554931640625,-0.00665283203125,-0.635998547077179,-0.2622923254966736,-0.4763311147689819,23.30232238769531,90.806640625,-2.83868408203125
163835,-0.5290985107421875,0.89825439453125,-0.0396270751953125,-0.5862901210784912,-0.2649981081485748,-0.4766336679458618,23.05293273925781,90.4442901611328,-2.520599365234375
163836,-0.5208282470703125,0.9887847900390624,-0.1853485107421875,-0.4511887431144714,-0.2986466288566589,-0.4831522703170776,22.54067993164062,89.90809631347656,-1.746200561523438
163837,-0.4799346923828125,1.022293090820312,-0.2755126953125,-0.3813124597072601,-0.4663128554821014,-0.4706839025020599,22.331787109375,89.72544860839844,-1.369537353515625
163838,-0.421356201171875,1.05029296875,-0.32562255859375,-0.3087285459041595,-0.6745624542236328,-0.4424328207969666,22.18254089355469,89.50515747070312,-1.094497680664062
163839,-0.421356201171875,1.05029296875,-0.32562255859375,-0.3087285459041595,-0.6745624542236328,-0.4424328207969666,22.18254089355469,89.50515747070312,-1.094497680664062
163840,-0.39227294921875,1.166107177734375,-0.38983154296875,-0.1118186786770821,-0.593999981880188,-0.3473784625530243,21.86309814453125,89.28260803222656,-0.730224609375
163841,-0.398681640625,1.210830688476562,-0.466094970703125,0.0712723135948181,-0.4325021505355835,-0.3368701636791229,21.81517028808594,88.98521423339844,-0.2790985107421875
163842,-0.398681640625,1.210830688476562,-0.466094970703125,0.0712723135948181,-0.4325021505355835,-0.3368701636791229,21.81517028808594,88.98521423339844,-0.2790985107421875
163843,-0.4167327880859375,1.217849731445312,-0.688720703125,0.4372287392616272,-0.3169739544391632,-0.3136268854141235,21.64598083496094,88.62736511230469,0.2244720458984375
163844,-0.43402099609375,1.203323364257812,-0.78521728515625,0.6347655057907104,-0.3069684505462646,-0.2580350041389465,21.61962890625,88.45022583007812,0.2116546630859375
163845,-0.424713134765625,1.1717529296875,-0.857452392578125,0.8217894434928894,-0.2931826114654541,-0.1520702242851257,21.6763916015625,88.4696044921875,0.078582763671875
163846,-0.424713134765625,1.1717529296875,-0.857452392578125,0.8217894434928894,-0.2931826114654541,-0.1520702242851257,21.6763916015625,88.4696044921875,0.078582763671875
163847,-0.3324432373046875,1.108932495117188,-0.8588409423828125,1.00955855846405,-0.1975239962339401,0.1141555979847908,21.79281616210938,88.59510803222656,-0.224822998046875
163848,-0.27935791015625,1.102462768554688,-0.80487060546875,0.978352189064026,-0.1689027398824692,0.2477956861257553,21.82493591308594,88.7000732421875,-0.536651611328125
163849,-0.251007080078125,1.101760864257812,-0.7245941162109375,0.8882880806922913,-0.1452916860580444,0.3782104253768921,21.98277282714844,88.92764282226562,-0.8100738525390625
163850,-0.251007080078125,1.101760864257812,-0.7245941162109375,0.8882880806922913,-0.1452916860580444,0.3782104253768921,21.98277282714844,88.92764282226562,-0.8100738525390625
163851,-0.23382568359375,1.108840942382812,-0.5393524169921875,0.7182164788246155,-0.2004476189613342,0.6316269636154175,22.40032958984375,89.33364868164062,-1.464401245117188
163852,-0.2165374755859375,1.124160766601562,-0.4434814453125,0.6236382722854614,-0.2748986780643463,0.671849250793457,22.67912292480469,89.76611328125,-1.947967529296875
163853,-0.2228851318359375,1.155792236328125,-0.3466033935546875,0.5243255496025085,-0.3129587173461914,0.6316133737564087,22.92222595214844,90.06449890136719,-2.082260131835938
163854,-0.2228851318359375,1.155792236328125,-0.3466033935546875,0.5243255496025085,-0.3129587173461914,0.6316133737564087,22.92222595214844,90.06449890136719,-2.082260131835938
163855,-0.3111419677734375,1.269515991210938,-0.1546173095703125,0.3419706523418427,-0.2700557112693787,0.3580678701400757,23.51947021484375,90.70741271972656,-2.686309814453125
163856,-0.37890625,1.332183837890625,-0.0473175048828125,0.2912944257259369,-0.2352825552225113,0.149661123752594,23.70571899414062,90.94161987304688,-2.806564331054688
163857,-0.4579925537109375,1.381134033203125,0.03173828125,0.2793504297733307,-0.1647189110517502,-0.1121627539396286,23.94375610351562,91.16517639160156,-2.922943115234375
163858,-0.55877685546875,1.3997802734375,0.080657958984375,0.3806165754795074,-0.0997657403349876,-0.3192112743854523,24.09693908691406,91.21556091308594,-2.962905883789062
163859,-0.55877685546875,1.3997802734375,0.080657958984375,0.3806165754795074,-0.0997657403349876,-0.3192112743854523,24.09693908691406,91.21556091308594,-2.962905883789062
163860,-0.7508544921875,1.245758056640625,0.0351715087890625,0.7714200019836426,-0.1659471541643143,-0.3486839532852173,24.00651550292969,91.41050720214844,-3.52142333984375
163861,-0.7772979736328125,1.097671508789062,0.015594482421875,0.9115084409713744,-0.37650066614151,-0.2521981596946716,23.94096374511719,91.52178955078124,-3.841201782226562
163862,-0.7772979736328125,1.097671508789062,0.015594482421875,0.9115084409713744,-0.37650066614151,-0.2521981596946716,23.94096374511719,91.52178955078124,-3.841201782226562
163863,-0.7136993408203125,0.831787109375,-0.059967041015625,0.9613226056098938,-0.770411491394043,0.0114840827882289,23.88192749023438,91.78770446777344,-4.377120971679688
163864,-0.665802001953125,0.707763671875,-0.037139892578125,1.039203524589539,-1.098769664764404,0.0928753465414047,23.96034240722656,91.86199951171876,-4.587646484375
163865,-0.6543121337890625,0.6265106201171875,0.084930419921875,1.192547559738159,-1.241871953010559,0.1969040036201477,24.19070434570312,92.01080322265624,-4.614425659179688
163866,-0.6543121337890625,0.6265106201171875,0.084930419921875,1.192547559738159,-1.241871953010559,0.1969040036201477,24.19070434570312,92.01080322265624,-4.614425659179688
163867,-0.6077880859375,0.576751708984375,0.19036865234375,1.305699110031128,-1.136196136474609,0.2519574165344238,24.43431091308594,92.06477355957033,-4.732147216796875
163868,-0.5507965087890625,0.54986572265625,0.257568359375,1.358327507972717,-0.9200693964958192,0.2664042711257935,24.79458618164062,92.29067993164062,-4.964309692382812
163869,-0.4443817138671875,0.5326995849609375,0.2938232421875,1.360804677009583,-0.5748507976531982,0.1600176244974136,25.45399475097656,92.77018737792967,-5.505508422851562
163870,-0.4443817138671875,0.5326995849609375,0.2938232421875,1.360804677009583,-0.5748507976531982,0.1600176244974136,25.45399475097656,92.77018737792967,-5.505508422851562
163871,-0.440093994140625,0.410308837890625,0.17120361328125,1.226927876472473,-0.3966080546379089,-0.05540307238698,25.99937438964844,92.96092224121094,-6.0323486328125
163872,-0.4626312255859375,0.340545654296875,0.1294403076171875,1.156662821769714,-0.3272534906864166,-0.1553144901990891,26.09785461425781,93.0635223388672,-6.423385620117188
163873,-0.472076416015625,0.28204345703125,0.1374664306640625,1.09233283996582,-0.1833860725164413,-0.2331536263227463,26.18437194824219,93.14747619628906,-6.961441040039062
163874,-0.472076416015625,0.28204345703125,0.1374664306640625,1.09233283996582,-0.1833860725164413,-0.2331536263227463,26.18437194824219,93.14747619628906,-6.961441040039062
163875,-0.466339111328125,0.2992095947265625,0.13970947265625,0.6616581082344055,0.1853261888027191,-0.2186812162399292,26.15744018554688,93.30116271972656,-7.862457275390625
163876,-0.44842529296875,0.3890380859375,0.1028900146484375,0.2898339629173279,0.1202680841088295,-0.0948008075356483,25.95985412597656,93.36936950683594,-8.096939086914062
163877,-0.4687042236328125,0.5447235107421875,0.13848876953125,-0.0274396128952503,-0.1261438131332397,0.0250134747475385,25.93800354003906,93.42555236816406,-8.482742309570312
163878,-0.4687042236328125,0.5447235107421875,0.13848876953125,-0.0274396128952503,-0.1261438131332397,0.0250134747475385,25.93800354003906,93.42555236816406,-8.482742309570312
163879,-0.646636962890625,0.809600830078125,0.315216064453125,-0.4069379270076752,-0.3408657014369965,0.0345047153532505,25.72822570800781,93.4572296142578,-8.804275512695312
163880,-0.710205078125,0.85699462890625,0.3325042724609375,-0.4210271239280701,-0.3750266134738922,0.022414494305849,25.73854064941406,93.54095458984376,-8.723800659179688
163881,-0.710205078125,0.85699462890625,0.3325042724609375,-0.4210271239280701,-0.3750266134738922,0.022414494305849,25.73854064941406,93.54095458984376,-8.723800659179688
163882,-0.72332763671875,0.8507843017578125,0.3527984619140625,-0.3511846661567688,-0.3180762529373169,0.0203020758926868,25.80020141601562,93.41104125976562,-8.467010498046875
163883,-0.6170501708984375,0.8112640380859375,0.311614990234375,-0.3020000755786896,-0.0282026100903749,0.0326141342520713,25.74984741210938,93.36051940917967,-7.971939086914062
163884,-0.5639801025390625,0.8187103271484375,0.2764129638671875,-0.3535905480384827,-0.0031973912846297,0.031356856226921,25.64390563964844,93.30233764648438,-7.926528930664062
163885,-0.5364532470703125,0.82379150390625,0.255340576171875,-0.4434868991374969,-0.0804682075977325,0.0057212687097489,25.62266540527344,93.25733947753906,-7.848800659179688
163886,-0.5364532470703125,0.82379150390625,0.255340576171875,-0.4434868991374969,-0.0804682075977325,0.0057212687097489,25.62266540527344,93.25733947753906,-7.848800659179688
163887,-0.5235443115234375,0.828887939453125,0.23480224609375,-0.549919843673706,-0.2206285148859024,-0.0352333560585975,25.60025024414062,93.28367614746094,-7.776535034179688
163888,-0.525054931640625,0.8426055908203125,0.2219390869140625,-0.6497402191162109,-0.3567282855510712,-0.0914934277534484,25.62861633300781,93.28767395019533,-7.628875732421875
163889,-0.5427093505859375,0.8519744873046875,0.1977386474609375,-0.7271007895469666,-0.413032591342926,-0.1561477929353714,25.61050415039062,93.19326782226562,-7.441360473632812
163890,-0.5668792724609375,0.8614959716796875,0.1555328369140625,-0.7475317120552063,-0.4079797565937042,-0.2195118516683578,25.55830383300781,93.15823364257812,-7.008148193359375
163891,-0.6129150390625,0.8744964599609375,0.119293212890625,-0.7082868814468384,-0.3603371381759644,-0.2756616771221161,25.53807067871094,93.12142944335938,-6.602035522460938
163892,-0.6904144287109375,0.9062347412109376,0.0597381591796875,-0.5383273959159851,-0.0580848753452301,-0.3177585303783417,25.30250549316406,92.82731628417967,-5.772674560546875
163893,-0.707061767578125,0.9160614013671876,-0.006591796875,-0.4169484972953796,0.1377117931842804,-0.3387729823589325,25.05744934082031,92.64007568359376,-5.5296630859375
163894,-0.707061767578125,0.9160614013671876,-0.006591796875,-0.4169484972953796,0.1377117931842804,-0.3387729823589325,25.05744934082031,92.64007568359376,-5.5296630859375
163895,-0.7018585205078125,0.892059326171875,-0.0991668701171875,-0.3029337823390961,0.3083319962024689,-0.3657564222812653,24.87734985351562,92.53265380859376,-5.266403198242188
163896,-0.677154541015625,0.8637237548828125,-0.214385986328125,-0.2508868277072906,0.3406696915626526,-0.3674983978271484,24.63577270507812,92.36839294433594,-5.054107666015625
163897,-0.621826171875,0.8540191650390625,-0.4201507568359375,-0.2926262617111206,0.1030480861663818,-0.3218230307102203,24.23419189453125,92.06759643554688,-4.694869995117188
163898,-0.56439208984375,0.853759765625,-0.4801788330078125,-0.3004008531570435,-0.0581218935549259,-0.2839957773685455,23.99000549316406,91.99887084960938,-4.422882080078125
163899,-0.4824676513671875,0.8542633056640625,-0.489349365234375,-0.261254757642746,-0.1771910190582275,-0.2205342352390289,23.76576232910156,91.70262145996094,-4.321548461914062
163900,-0.4824676513671875,0.8542633056640625,-0.489349365234375,-0.261254757642746,-0.1771910190582275,-0.2205342352390289,23.76576232910156,91.70262145996094,-4.321548461914062
163901,-0.4212188720703125,0.8664093017578125,-0.4801177978515625,-0.2030226290225983,-0.1868947893381119,-0.1582263857126236,23.57896423339844,91.57980346679688,-4.226043701171875
163902,-0.361572265625,0.9943389892578124,-0.7277984619140625,0.1032765880227089,-0.1022787019610405,0.0954887047410011,23.35536193847656,91.20413208007812,-3.561508178710938
163903,-0.361572265625,0.9943389892578124,-0.7277984619140625,0.1032765880227089,-0.1022787019610405,0.0954887047410011,23.35536193847656,91.20413208007812,-3.561508178710938
163904,-0.3610992431640625,1.09405517578125,-0.7708282470703125,0.2131652683019638,-0.0871404930949211,0.175459697842598,23.40664672851562,91.17300415039062,-3.426345825195312
163905,-0.3653564453125,1.20587158203125,-0.77166748046875,0.297118753194809,-0.028569858521223,0.2507051825523376,23.44010925292969,91.03973388671876,-3.301803588867188
163906,-0.398529052734375,1.30877685546875,-0.753448486328125,0.3407690227031708,0.107035905122757,0.2566842436790466,23.579345703125,91.15863037109376,-3.3125
163907,-0.398529052734375,1.30877685546875,-0.753448486328125,0.3407690227031708,0.107035905122757,0.2566842436790466,23.579345703125,91.15863037109376,-3.3125
163908,-0.4355316162109375,1.348052978515625,-0.74310302734375,0.3625102937221527,0.2173983603715897,0.2097063511610031,23.60018920898438,91.25990295410156,-3.475128173828125
163909,-0.555816650390625,1.188140869140625,-0.6808929443359375,0.4633263647556305,0.4096793830394745,0.2853704988956451,23.76765441894531,91.50830078125,-3.780258178710938
163910,-0.555816650390625,1.188140869140625,-0.6808929443359375,0.4633263647556305,0.4096793830394745,0.2853704988956451,23.76765441894531,91.50830078125,-3.780258178710938
163911,-0.5558319091796875,1.078826904296875,-0.664459228515625,0.5229076743125916,0.5696560144424438,0.3648418784141541,23.82972717285156,91.57164001464844,-3.973419189453125
163912,-0.55133056640625,1.03387451171875,-0.6533966064453125,0.5285301208496094,0.6478469371795654,0.4038465321063995,23.90870666503906,91.61691284179688,-4.336990356445312
163913,-0.5508270263671875,1.002548217773438,-0.6404571533203125,0.4233174324035645,0.4875981509685516,0.3814134001731873,23.91403198242188,91.82853698730467,-4.641128540039062
163914,-0.5084686279296875,0.8755645751953125,-0.4913787841796875,0.097551591694355,-0.1246135681867599,0.3402158915996552,24.18234252929688,92.2535400390625,-5.1480712890625
163915,-0.5084686279296875,0.8755645751953125,-0.4913787841796875,0.097551591694355,-0.1246135681867599,0.3402158915996552,24.18234252929688,92.2535400390625,-5.1480712890625
163916,-0.4782867431640625,0.836639404296875,-0.369720458984375,0.1312970370054245,-0.2446715384721756,0.3203045129776001,24.22972106933594,92.56195068359376,-5.458114624023438
163917,-0.4531707763671875,0.8297119140625,-0.16265869140625,0.2581713497638702,-0.2048133313655853,0.3118758797645569,24.36367797851562,92.98011779785156,-6.003250122070312
163918,-0.44403076171875,0.8113250732421875,-0.1048736572265625,0.1784365922212601,-0.2328417748212814,0.3319028317928314,24.38027954101562,93.20516967773438,-6.02703857421875
163919,-0.44403076171875,0.8113250732421875,-0.1048736572265625,0.1784365922212601,-0.2328417748212814,0.3319028317928314,24.38027954101562,93.20516967773438,-6.02703857421875
163920,-0.420867919921875,0.785369873046875,-0.0641632080078125,0.061198640614748,-0.3190536201000214,0.3733386993408203,24.53138732910156,93.29913330078124,-6.184417724609375
163921,-0.4197998046875,0.7759246826171875,0.047760009765625,-0.0428460016846656,-0.5280295014381409,0.4519078135490417,25.00086975097656,93.5229949951172,-6.1937255859375
163922,-0.4197998046875,0.7759246826171875,0.047760009765625,-0.0428460016846656,-0.5280295014381409,0.4519078135490417,25.00086975097656,93.5229949951172,-6.1937255859375
163923,-0.392303466796875,0.791046142578125,0.1053924560546875,0.1499431580305099,-0.78915935754776,0.5782181024551392,25.61882019042969,93.68196105957033,-5.956130981445312
163924,-0.3554534912109375,0.8074493408203125,0.0344390869140625,0.1879858821630478,-0.9179165363311768,0.6115366220474243,25.93202209472656,93.8394775390625,-5.920745849609375
163925,-0.3128662109375,0.820281982421875,-0.0185699462890625,0.1624466925859451,-1.029229402542114,0.6106548309326172,26.21418762207031,93.9748992919922,-5.80938720703125
163926,-0.3128662109375,0.820281982421875,-0.0185699462890625,0.1624466925859451,-1.029229402542114,0.6106548309326172,26.21418762207031,93.9748992919922,-5.80938720703125
163927,-0.3217010498046875,0.8421630859375,0.11456298828125,0.1736056059598923,-0.8710374236106873,0.5370935201644897,27.05587768554688,94.22947692871094,-5.587844848632812
163928,-0.3593902587890625,0.8621673583984375,0.2530364990234375,0.325316846370697,-0.5830807685852051,0.5307581424713135,27.42230224609375,94.31626892089844,-5.464157104492188
163929,-0.3895111083984375,0.914886474609375,0.3461151123046875,0.5414659380912781,-0.2039059996604919,0.5147041082382202,27.89506530761719,94.41656494140624,-5.419342041015625
163930,-0.3612060546875,0.8621368408203125,0.3052520751953125,0.7270166277885437,-0.0071029169484972,0.4618549942970276,28.25057983398438,94.53572082519533,-5.367340087890625
163931,-0.3612060546875,0.8621368408203125,0.3052520751953125,0.7270166277885437,-0.0071029169484972,0.4618549942970276,28.25057983398438,94.53572082519533,-5.367340087890625
163932,-0.309112548828125,0.6462860107421875,0.2478485107421875,0.552534282207489,-0.0495220124721527,0.4510542750358582,28.97737121582031,94.7378387451172,-5.701568603515625
163933,-0.329803466796875,0.5964508056640625,0.2688446044921875,0.2627935409545898,-0.0846592262387275,0.4014022946357727,29.26959228515625,94.947265625,-6.01654052734375
163934,-0.329803466796875,0.5964508056640625,0.2688446044921875,0.2627935409545898,-0.0846592262387275,0.4014022946357727,29.26959228515625,94.947265625,-6.01654052734375
163935,-0.41448974609375,0.5540771484375,0.2223968505859375,0.0284817088395357,-0.1614623963832855,0.327637791633606,29.55113220214844,95.01417541503906,-6.3387451171875
163936,-0.61492919921875,0.601287841796875,0.0504913330078125,-0.1876527220010757,-0.4529254138469696,0.0657787472009658,30.03662109375,95.11434936523438,-6.26416015625
163937,-0.6922760009765625,0.6515655517578125,0.05499267578125,-0.2063595652580261,-0.5161158442497253,-0.0735895335674285,30.18421936035156,95.19206237792967,-6.037338256835938
163938,-0.6922760009765625,0.6515655517578125,0.05499267578125,-0.2063595652580261,-0.5161158442497253,-0.0735895335674285,30.18421936035156,95.19206237792967,-6.037338256835938
163939,-0.76031494140625,0.7672271728515625,0.2127532958984375,-0.20846027135849,0.1763438731431961,-0.1838321536779404,30.15843200683594,95.2567901611328,-5.804946899414062
163940,-0.76031494140625,0.7672271728515625,0.2127532958984375,-0.20846027135849,0.1763438731431961,-0.1838321536779404,30.15843200683594,95.2567901611328,-5.804946899414062
163941,-0.6678466796875,0.8347625732421875,0.222930908203125,-0.1667716801166534,0.4874040186405182,-0.2141602337360382,29.86920166015625,95.17634582519533,-5.942337036132812
163942,-0.6445465087890625,0.8397674560546875,0.2247314453125,-0.1968560665845871,0.4353820979595184,-0.2312790304422379,29.80329895019531,95.22044372558594,-5.892425537109375
163943,-0.6250457763671875,0.83587646484375,0.213958740234375,-0.2428762912750244,0.3563985824584961,-0.240983858704567,29.77774047851562,95.1344757080078,-5.840316772460938
163944,-0.602752685546875,0.8270416259765625,0.19073486328125,-0.266440212726593,0.301108717918396,-0.2525928318500519,29.65167236328125,95.06378173828124,-5.919845581054688
163945,-0.586456298828125,0.8052825927734375,0.1551513671875,-0.2592424750328064,0.2849100232124329,-0.2741308808326721,29.52308654785156,94.9844970703125,-5.825546264648438
163946,-0.586456298828125,0.8052825927734375,0.1551513671875,-0.2592424750328064,0.2849100232124329,-0.2741308808326721,29.52308654785156,94.9844970703125,-5.825546264648438
163947,-0.5493621826171875,0.718048095703125,0.0629119873046875,-0.2197874933481216,0.2314271032810211,-0.3486930131912231,29.26109313964844,94.66908264160156,-5.534194946289062
163948,-0.5319366455078125,0.6716461181640625,0.03564453125,-0.2686128318309784,0.1348230689764023,-0.3881615996360779,29.18240356445312,94.55589294433594,-5.625808715820312
163949,-0.5096435546875,0.638702392578125,0.031463623046875,-0.3686017394065857,-0.0241053365170955,-0.4350348114967346,29.00901794433594,94.5165557861328,-5.7196044921875
163950,-0.5096435546875,0.638702392578125,0.031463623046875,-0.3686017394065857,-0.0241053365170955,-0.4350348114967346,29.00901794433594,94.5165557861328,-5.7196044921875
163951,-0.486236572265625,0.6118621826171875,0.040771484375,-0.4816918075084686,-0.1952781528234482,-0.4745388031005859,28.77888488769531,94.480224609375,-5.727035522460938
163952,-0.4659423828125,0.6090240478515625,0.0476837158203125,-0.7029211521148682,-0.4356848895549774,-0.471201092004776,28.37396240234375,94.14317321777344,-5.49798583984375
163953,-0.466522216796875,0.6551513671875,0.021514892578125,-0.7672974467277527,-0.4785921573638916,-0.4453047513961792,28.13812255859375,94.03468322753906,-5.111724853515625
163954,-0.466522216796875,0.6551513671875,0.021514892578125,-0.7672974467277527,-0.4785921573638916,-0.4453047513961792,28.13812255859375,94.03468322753906,-5.111724853515625
163955,-0.4567108154296875,0.7553253173828125,-0.0826416015625,-0.7988654971122742,-0.5199995040893555,-0.3825148940086365,27.63059997558594,93.77313232421876,-4.29156494140625
163956,-0.452484130859375,0.8109130859375,-0.13543701171875,-0.7964417338371277,-0.5755376219749451,-0.3549626171588898,27.37968444824219,93.5959930419922,-3.847503662109375
163957,-0.45184326171875,0.861328125,-0.1640625,-0.7891860008239746,-0.6363801956176758,-0.3513186275959015,27.17378234863281,93.3822021484375,-3.552734375
163958,-0.45184326171875,0.861328125,-0.1640625,-0.7891860008239746,-0.6363801956176758,-0.3513186275959015,27.17378234863281,93.3822021484375,-3.552734375
163959,-0.4793701171875,1.003402709960938,-0.2304229736328125,-0.7064285278320312,-0.7156928181648254,-0.3865184187889099,26.76649475097656,92.96107482910156,-2.465866088867188
163960,-0.4939727783203125,1.065628051757812,-0.278411865234375,-0.5688431859016418,-0.7046583294868469,-0.416289895772934,26.64228820800781,92.79490661621094,-1.950546264648438
163961,-0.5065765380859375,1.128829956054688,-0.3246002197265625,-0.3873831331729889,-0.6520819067955017,-0.3982235491275787,26.47714233398438,92.59397888183594,-1.389404296875
163962,-0.504364013671875,1.17877197265625,-0.3587188720703125,-0.1928546726703644,-0.5751623511314392,-0.3441555202007294,26.35848999023438,92.31927490234376,-0.8832550048828125
163963,-0.4835205078125,1.19134521484375,-0.378814697265625,-0.0107860686257481,-0.4865185022354126,-0.2937812805175781,26.20411682128906,92.20404052734376,-0.4192352294921875
163964,-0.4482421875,1.16021728515625,-0.4471893310546875,0.1818017512559891,-0.4827735722064972,-0.2437242418527603,26.03634643554688,92.07815551757812,-0.08721923828125
163965,-0.399322509765625,1.118545532226562,-0.5165252685546875,0.4124437570571899,-0.5334268808364868,-0.14162877202034,25.89144897460938,91.94833374023438,0.2289581298828125
163966,-0.399322509765625,1.118545532226562,-0.5165252685546875,0.4124437570571899,-0.5334268808364868,-0.14162877202034,25.89144897460938,91.94833374023438,0.2289581298828125
163967,-0.350555419921875,1.098236083984375,-0.59136962890625,0.6873930096626282,-0.5479275584220886,-0.0038171086926013,25.86592102050781,91.7710418701172,0.376495361328125
163968,-0.2729034423828125,1.1126708984375,-0.7503204345703125,1.133946299552917,-0.3901325762271881,0.2691214680671692,25.97663879394531,91.66961669921876,0.2531890869140625
163969,-0.256683349609375,1.148666381835938,-0.8023834228515625,1.153288841247559,-0.3341279029846191,0.3241165578365326,26.08216857910156,91.71932983398438,0.192352294921875
163970,-0.256683349609375,1.148666381835938,-0.8023834228515625,1.153288841247559,-0.3341279029846191,0.3241165578365326,26.08216857910156,91.71932983398438,0.192352294921875
163971,-0.2578887939453125,1.27203369140625,-0.66033935546875,0.8487518429756165,-0.2249750643968582,0.2393542677164078,26.4559326171875,92.18466186523438,-0.509490966796875
163972,-0.286224365234375,1.301406860351562,-0.5527801513671875,0.7696934938430786,-0.1819860488176346,0.2381776869297028,26.61965942382812,92.31045532226562,-0.865692138671875
163973,-0.3063507080078125,1.288955688476562,-0.472442626953125,0.7915335297584534,-0.1719576418399811,0.2898672521114349,26.84156799316406,92.63191223144533,-1.12762451171875
163974,-0.3063507080078125,1.288955688476562,-0.472442626953125,0.7915335297584534,-0.1719576418399811,0.2898672521114349,26.84156799316406,92.63191223144533,-1.12762451171875
163975,-0.3087615966796875,1.265167236328125,-0.4083251953125,0.8115413188934326,-0.1771236509084702,0.3291797637939453,27.28170776367188,92.83303833007812,-1.751113891601562
163976,-0.36102294921875,1.278427124023438,-0.2823333740234375,0.7225491404533386,-0.265428751707077,0.3128604292869568,27.51632690429688,93.30081176757812,-2.658203125
163977,-0.404632568359375,1.28265380859375,-0.1909637451171875,0.6336057186126709,-0.32471764087677,0.2568195462226868,27.76704406738281,93.4468231201172,-2.860153198242188
163978,-0.404632568359375,1.28265380859375,-0.1909637451171875,0.6336057186126709,-0.32471764087677,0.2568195462226868,27.76704406738281,93.4468231201172,-2.860153198242188
163979,-0.4519195556640625,1.3055419921875,-0.1009063720703125,0.5759498476982117,-0.348674088716507,0.1510153412818909,27.9466552734375,93.6152801513672,-3.237884521484375
163980,-0.608306884765625,1.301971435546875,0.01116943359375,0.6038153171539307,-0.386472076177597,-0.1289031207561493,28.0892333984375,94.15919494628906,-4.073715209960938
163981,-0.6876983642578125,1.254409790039062,0.0965576171875,0.7001751661300659,-0.3757720291614532,-0.2174630761146545,28.13031005859375,94.37664794921876,-4.200485229492188
163982,-0.75250244140625,1.182754516601562,0.170166015625,0.8428239226341248,-0.3174384236335754,-0.2403212636709213,28.18756103515625,94.52578735351562,-4.515350341796875
163983,-0.785858154296875,1.107345581054688,0.1739349365234375,1.000060081481934,-0.3137091994285583,-0.2147320061922073,28.19102478027344,94.64654541015624,-4.738006591796875
163984,-0.7939605712890625,0.99517822265625,0.1115570068359375,1.115580320358276,-0.5012305974960327,-0.1309388428926468,28.1995849609375,94.75303649902344,-5.042938232421875
163985,-0.805999755859375,0.9167938232421876,0.1117095947265625,1.241909503936768,-0.8311821818351746,0.012466256506741,28.32020568847656,94.930908203125,-5.474151611328125
163986,-0.805999755859375,0.9167938232421876,0.1117095947265625,1.241909503936768,-0.8311821818351746,0.012466256506741,28.32020568847656,94.930908203125,-5.474151611328125
163987,-0.7757415771484375,0.84674072265625,0.1739654541015625,1.288016557693481,-1.028853416442871,0.1033367738127708,28.50296020507812,95.08578491210938,-6.001724243164062
163988,-0.6243438720703125,0.6099700927734375,0.3113555908203125,1.180535912513733,-0.9151564240455629,0.0932958573102951,28.99819946289062,95.294189453125,-6.681869506835938
163989,-0.5648040771484375,0.5132598876953125,0.332550048828125,1.086780905723572,-0.7025946378707886,0.1533107310533524,29.2730712890625,95.46270751953124,-7.033798217773438
163990,-0.5648040771484375,0.5132598876953125,0.332550048828125,1.086780905723572,-0.7025946378707886,0.1533107310533524,29.2730712890625,95.46270751953124,-7.033798217773438
163991,-0.4593658447265625,0.371978759765625,0.175628662109375,0.9124205708503724,-0.474530041217804,0.2337584346532822,29.96659851074219,95.67105102539062,-7.744155883789062
163992,-0.4594573974609375,0.3166656494140625,0.1272125244140625,0.8702693581581116,-0.4873659312725067,0.2219619601964951,30.24822998046875,95.76173400878906,-7.961151123046875
163993,-0.4659423828125,0.2689361572265625,0.11639404296875,0.8565764427185059,-0.4328896403312683,0.1509274691343307,30.48959350585938,95.79791259765624,-8.214447021484375
163994,-0.47991943359375,0.22857666015625,0.0823211669921875,0.876890242099762,-0.3051170408725739,0.0287813134491443,30.66830444335938,95.9359130859375,-8.499282836914062
163995,-0.4809722900390625,0.2271881103515625,0.066741943359375,0.887483537197113,-0.1087355315685272,-0.0910196527838707,30.82237243652344,96.07107543945312,-8.633041381835938
163996,-0.4740142822265625,0.3194427490234375,0.0421142578125,0.7882392406463623,0.1695453524589539,-0.1366047114133835,30.75068664550781,96.20108032226562,-8.976943969726562
163997,-0.4419708251953125,0.430633544921875,-0.0082244873046875,0.5726997256278992,0.2837896347045898,-0.1155524253845215,30.74595642089844,96.18275451660156,-9.490203857421877
163998,-0.4419708251953125,0.430633544921875,-0.0082244873046875,0.5726997256278992,0.2837896347045898,-0.1155524253845215,30.74595642089844,96.18275451660156,-9.490203857421877
163999,-0.4292755126953125,0.536865234375,0.080718994140625,0.1022435501217842,0.0093572828918695,-0.0115328188985586,30.63249206542969,96.26066589355467,-10.12908935546875
164000,-0.4498443603515625,0.6065521240234375,0.147216796875,-0.0639262497425079,-0.1429755240678787,0.0393511354923248,30.62779235839844,96.27633666992188,-10.3917236328125
164001,-0.49774169921875,0.68951416015625,0.1927947998046875,-0.1842627823352814,-0.2259950488805771,0.0698698982596397,30.60356140136719,96.26771545410156,-10.4014892578125
164002,-0.5569610595703125,0.775360107421875,0.2072601318359375,-0.2706890106201172,-0.2523118853569031,0.0850768089294433,30.63551330566406,96.3259735107422,-10.39602661132812
164003,-0.61541748046875,0.846954345703125,0.2059478759765625,-0.3343159258365631,-0.2174710631370544,0.0946029350161552,30.60491943359375,96.2900848388672,-10.34561157226562
164004,-0.65411376953125,0.8818359375,0.189697265625,-0.3727346956729889,-0.1277547627687454,0.0908825024962425,30.61639404296875,96.40138244628906,-10.11286926269531
164005,-0.6537017822265625,0.877685546875,0.177398681640625,-0.3979630768299103,-0.0332572907209396,0.0846349895000457,30.58840942382812,96.4180908203125,-9.992355346679688
164006,-0.6234283447265625,0.8623046875,0.174530029296875,-0.4380165040493011,0.0231551211327314,0.0841231346130371,30.63850402832031,96.33503723144533,-9.806076049804688
164007,-0.6234283447265625,0.8623046875,0.174530029296875,-0.4380165040493011,0.0231551211327314,0.0841231346130371,30.63850402832031,96.33503723144533,-9.806076049804688
164008,-0.5382537841796875,0.818450927734375,0.184112548828125,-0.5979853868484497,-0.1379312425851822,0.028325380757451,30.74641418457031,96.16656494140624,-9.374603271484377
164009,-0.5181121826171875,0.8102874755859375,0.1913909912109375,-0.7026164531707764,-0.2603261172771454,-0.0231236945837736,30.75631713867188,96.08714294433594,-9.031204223632812
164010,-0.5181121826171875,0.8102874755859375,0.1913909912109375,-0.7026164531707764,-0.2603261172771454,-0.0231236945837736,30.75631713867188,96.08714294433594,-9.031204223632812
164011,-0.51446533203125,0.8226776123046875,0.18939208984375,-0.8315046429634094,-0.3706337213516235,-0.1765428185462952,30.68565368652344,96.112548828125,-8.426467895507812
164012,-0.5347442626953125,0.844268798828125,0.1613006591796875,-0.8477339744567871,-0.37545245885849,-0.2589154541492462,30.60975646972656,96.04393005371094,-8.11083984375
164013,-0.5688018798828125,0.876922607421875,0.13067626953125,-0.8259170651435852,-0.3416025936603546,-0.3354515135288239,30.53070068359375,95.79782104492188,-7.605178833007812
164014,-0.598846435546875,0.897674560546875,0.0782318115234375,-0.7734024524688721,-0.2771450579166412,-0.3900180757045746,30.3685302734375,95.65650939941406,-7.08831787109375
164015,-0.598846435546875,0.897674560546875,0.0782318115234375,-0.7734024524688721,-0.2771450579166412,-0.3900180757045746,30.3685302734375,95.65650939941406,-7.08831787109375
164016,-0.6450347900390625,0.9493255615234376,-0.137298583984375,-0.6467792987823486,-0.1589779257774353,-0.4109784960746765,30.04302978515625,95.44985961914062,-6.283798217773438
164017,-0.6595916748046875,0.9320526123046876,-0.2935333251953125,-0.5466561317443848,-0.2211584895849228,-0.4122754335403442,29.79896545410156,95.24568176269533,-5.905044555664062
164018,-0.6239013671875,0.9036102294921876,-0.331817626953125,-0.4896424114704132,-0.2560493648052216,-0.3777616620063782,29.5499267578125,95.103271484375,-5.563552856445312
164019,-0.6239013671875,0.9036102294921876,-0.331817626953125,-0.4896424114704132,-0.2560493648052216,-0.3777616620063782,29.5499267578125,95.103271484375,-5.563552856445312
164020,-0.529327392578125,0.991851806640625,-0.3782501220703125,-0.4614405930042267,-0.143381655216217,-0.3859828412532806,28.92709350585938,94.85084533691406,-4.92315673828125
164021,-0.4897003173828125,1.036788940429688,-0.421875,-0.415579080581665,-0.1263704597949982,-0.4014094769954681,28.61090087890625,94.80996704101562,-4.67071533203125
164022,-0.481964111328125,1.040512084960938,-0.4333953857421875,-0.3658003509044647,-0.1416010707616806,-0.3685204982757568,28.35073852539062,94.58755493164062,-4.489486694335938
164023,-0.481964111328125,1.040512084960938,-0.4333953857421875,-0.3658003509044647,-0.1416010707616806,-0.3685204982757568,28.35073852539062,94.58755493164062,-4.489486694335938
164024,-0.5367584228515625,0.9731292724609376,-0.454437255859375,-0.1892535537481308,-0.199328288435936,-0.1138006001710892,27.98390197753906,94.13175964355467,-3.960708618164062
164025,-0.5275421142578125,0.9481048583984376,-0.4936981201171875,-0.045864425599575,-0.1627281904220581,0.0267061796039342,27.89096069335938,93.85194396972656,-3.761154174804688
164026,-0.5275421142578125,0.9481048583984376,-0.4936981201171875,-0.045864425599575,-0.1627281904220581,0.0267061796039342,27.89096069335938,93.85194396972656,-3.761154174804688
164027,-0.4950714111328125,0.95574951171875,-0.557403564453125,0.1316206157207489,-0.0727367848157882,0.1934115439653397,27.81205749511719,93.94827270507812,-3.571670532226562
164028,-0.4032745361328125,1.080291748046875,-0.6332550048828125,0.3630218803882599,0.2106014490127563,0.4530998468399048,27.99362182617188,94.02130126953124,-3.560028076171875
164029,-0.400360107421875,1.168746948242188,-0.6241302490234375,0.3906319439411163,0.3251248300075531,0.4803719520568848,28.19300842285156,94.07525634765624,-3.669403076171875
164030,-0.400360107421875,1.168746948242188,-0.6241302490234375,0.3906319439411163,0.3251248300075531,0.4803719520568848,28.19300842285156,94.07525634765624,-3.669403076171875
164031,-0.4320068359375,1.23114013671875,-0.5930633544921875,0.3943502306938171,0.401752233505249,0.4592946171760559,28.29139709472656,94.10350036621094,-3.838333129882812
164032,-0.53570556640625,1.21923828125,-0.51318359375,0.4834026098251343,0.5249775052070618,0.4373786747455597,28.58493041992188,94.54476928710938,-4.278854370117188
164033,-0.53570556640625,1.21923828125,-0.51318359375,0.4834026098251343,0.5249775052070618,0.4373786747455597,28.58493041992188,94.54476928710938,-4.278854370117188
164034,-0.5459442138671875,1.162673950195312,-0.494720458984375,0.5252864360809326,0.5637890696525574,0.4442610740661621,28.71600341796875,94.72122192382812,-4.508712768554688
164035,-0.5537567138671875,1.106719970703125,-0.390777587890625,0.4490968286991119,0.5351739525794983,0.4096232056617737,29.01875305175781,94.90631103515624,-5.069061279296875
164036,-0.5364837646484375,1.054031372070312,-0.32806396484375,0.4116543829441071,0.3896782696247101,0.3898156881332397,29.11428833007812,95.09957885742188,-5.404205322265625
164037,-0.5361480712890625,0.9838409423828124,-0.2511444091796875,0.3993412554264069,0.2447841763496399,0.3619818985462189,29.33219909667969,95.2928466796875,-5.488174438476562
164038,-0.529815673828125,0.9375762939453124,-0.2069091796875,0.4170251786708832,0.0852152928709983,0.3371692299842834,29.371337890625,95.46963500976562,-5.872711181640625
164039,-0.529815673828125,0.9375762939453124,-0.2069091796875,0.4170251786708832,0.0852152928709983,0.3371692299842834,29.371337890625,95.46963500976562,-5.872711181640625
164040,-0.4662322998046875,0.884490966796875,-0.1475372314453125,0.5497819185256958,-0.2772899270057678,0.3263109922409058,29.66123962402344,95.99179077148438,-6.660003662109375
164041,-0.4413299560546875,0.835906982421875,-0.11517333984375,0.5529963374137878,-0.4428165853023529,0.3335089981555939,29.90591430664062,96.05760192871094,-6.816390991210938
164042,-0.4066925048828125,0.7807769775390625,0.0403594970703125,0.5238261818885803,-0.6197913289070129,0.3854408860206604,30.35076904296875,96.33885192871094,-7.443084716796875
164043,-0.4066925048828125,0.7807769775390625,0.0403594970703125,0.5238261818885803,-0.6197913289070129,0.3854408860206604,30.35076904296875,96.33885192871094,-7.443084716796875
164044,-0.411102294921875,0.7604217529296875,0.0982513427734375,0.5324122309684753,-0.670432448387146,0.4382732212543488,30.56587219238281,96.46084594726562,-7.546630859375
164045,-0.4154205322265625,0.741943359375,0.1218719482421875,0.5814695358276367,-0.7559409141540527,0.4963208138942719,30.96566772460938,96.51856994628906,-7.743896484375
164046,-0.4080963134765625,0.732330322265625,0.159149169921875,0.6249299049377441,-0.870838463306427,0.5328628420829773,31.28085327148438,96.52067565917967,-7.951446533203125
164047,-0.38702392578125,0.729034423828125,0.2346954345703125,0.6425461769104004,-0.9100074768066406,0.5182703137397766,31.71047973632812,96.59271240234376,-8.171066284179688
164048,-0.340179443359375,0.7083892822265625,0.3135223388671875,0.6119600534439087,-0.8182501196861267,0.4776595234870911,32.30355834960938,96.65101623535156,-8.213897705078125
164049,-0.2729339599609375,0.6533966064453125,0.3253631591796875,0.5035566091537476,-0.6669396758079529,0.4378916025161743,32.76356506347656,96.75473022460938,-8.196884155273438
164050,-0.2164154052734375,0.5928192138671875,0.2996978759765625,0.3500834405422211,-0.5723689794540405,0.4681480228900909,33.13018798828125,96.92953491210938,-8.351730346679688
164051,-0.2164154052734375,0.5928192138671875,0.2996978759765625,0.3500834405422211,-0.5723689794540405,0.4681480228900909,33.13018798828125,96.92953491210938,-8.351730346679688
164052,-0.2112274169921875,0.5333251953125,0.2675323486328125,0.0879908427596092,-0.3091482520103455,0.5483072996139526,33.86529541015625,96.96519470214844,-8.547653198242188
164053,-0.307281494140625,0.575897216796875,0.235870361328125,-0.0027276095934212,-0.1296309679746628,0.5164783000946045,34.272216796875,96.9580535888672,-8.467742919921875
164054,-0.3932647705078125,0.60455322265625,0.1558685302734375,-0.0631438121199607,-0.1023165211081505,0.4587952792644501,34.43550109863281,97.18798828125,-8.457626342773438
164055,-0.3932647705078125,0.60455322265625,0.1558685302734375,-0.0631438121199607,-0.1023165211081505,0.4587952792644501,34.43550109863281,97.18798828125,-8.457626342773438
164056,-0.4515838623046875,0.6304931640625,0.0929718017578125,-0.1342829763889313,-0.0897599831223487,0.3138751089572906,34.99058532714844,97.26374816894533,-8.374755859375
164057,-0.4609832763671875,0.691650390625,0.0973663330078125,-0.1721251606941223,0.0309786889702081,0.2217198759317398,35.145263671875,97.3040008544922,-8.307632446289062
164058,-0.4609832763671875,0.691650390625,0.0973663330078125,-0.1721251606941223,0.0309786889702081,0.2217198759317398,35.145263671875,97.3040008544922,-8.307632446289062
164059,-0.4744720458984375,0.75372314453125,0.0489501953125,-0.2158153802156448,0.1064372286200523,0.1112679317593575,35.2861328125,97.3190460205078,-8.304275512695312
164060,-0.4978790283203125,0.8243408203125,-0.008514404296875,-0.2491973042488098,0.0585786253213882,-0.0060451091267168,35.31193542480469,97.39976501464844,-8.331161499023438
164061,-0.558197021484375,0.9511871337890624,-0.0168304443359375,-0.2872051298618317,-0.0668975412845611,-0.2383079081773758,35.4083251953125,97.37687683105467,-8.095947265625
164062,-0.5832672119140625,0.968353271484375,0.035003662109375,-0.2984381020069122,-0.0165246482938528,-0.3251945972442627,35.33474731445312,97.3730926513672,-7.925125122070312
164063,-0.5924072265625,0.9525604248046876,0.09674072265625,-0.2833137214183807,0.0614487119019031,-0.3915065228939056,35.22805786132812,97.26042175292967,-7.777511596679688
164064,-0.5897979736328125,0.9050750732421876,0.1448211669921875,-0.2518556714057922,0.1428298503160477,-0.4223065078258514,35.05908203125,97.18104553222656,-7.704086303710938
164065,-0.589691162109375,0.8621368408203125,0.1638641357421875,-0.219929426908493,0.2035384774208069,-0.4292677342891693,34.80058288574219,97.08953857421876,-7.583755493164062
164066,-0.589813232421875,0.813446044921875,0.1520843505859375,-0.1897518187761307,0.2261577695608139,-0.4287739992141724,34.54899597167969,97.1264190673828,-7.51568603515625
164067,-0.589813232421875,0.813446044921875,0.1520843505859375,-0.1897518187761307,0.2261577695608139,-0.4287739992141724,34.54899597167969,97.1264190673828,-7.51568603515625
164068,-0.5886077880859375,0.75762939453125,0.1362152099609375,-0.1846063286066055,0.2470460087060928,-0.4328171908855438,34.33763122558594,97.10643005371094,-7.438751220703125
164069,-0.5801544189453125,0.7028045654296875,0.129852294921875,-0.1911617070436478,0.2899900078773499,-0.4326161444187164,34.13554382324219,96.9910125732422,-7.408615112304688
164070,-0.579864501953125,0.654541015625,0.110595703125,-0.2568200826644897,0.3370115756988525,-0.4714812338352203,33.622314453125,96.95281982421876,-7.18035888671875
164071,-0.591949462890625,0.64715576171875,0.100830078125,-0.2965278029441833,0.3227362334728241,-0.5079953074455261,33.37063598632812,96.82225036621094,-7.250717163085938
164072,-0.591949462890625,0.64715576171875,0.100830078125,-0.2965278029441833,0.3227362334728241,-0.5079953074455261,33.37063598632812,96.82225036621094,-7.250717163085938
164073,-0.5977020263671875,0.6461639404296875,0.0731658935546875,-0.3442532420158386,0.2660532593727112,-0.5386131405830383,33.09159851074219,96.76290893554688,-7.248947143554688
164074,-0.600799560546875,0.6935577392578125,-0.0554046630859375,-0.4775418043136597,-0.0253293253481388,-0.5362642407417297,32.64872741699219,96.47659301757812,-6.699142456054688
164075,-0.600799560546875,0.6935577392578125,-0.0554046630859375,-0.4775418043136597,-0.0253293253481388,-0.5362642407417297,32.64872741699219,96.47659301757812,-6.699142456054688
164076,-0.5372161865234375,0.766815185546875,-0.189666748046875,-0.6073299050331116,-0.54462069272995,-0.4906477332115173,31.87176513671875,96.42562866210938,-6.654861450195312
164077,-0.464202880859375,0.792510986328125,-0.1251678466796875,-0.6676547527313232,-0.6696310639381409,-0.4470816254615784,31.51132202148438,96.30062866210938,-6.410491943359375
164078,-0.421905517578125,0.8360443115234375,-0.076416015625,-0.711909830570221,-0.6431075930595398,-0.4195519983768463,31.16036987304688,96.19473266601562,-6.109222412109375
164079,-0.421905517578125,0.8360443115234375,-0.076416015625,-0.711909830570221,-0.6431075930595398,-0.4195519983768463,31.16036987304688,96.19473266601562,-6.109222412109375
164080,-0.488922119140625,1.019073486328125,-0.2189788818359375,-0.6883482933044434,-0.5749921798706055,-0.4427172243595123,30.65985107421875,95.894775390625,-5.212310791015625
164081,-0.488922119140625,1.019073486328125,-0.2189788818359375,-0.6883482933044434,-0.5749921798706055,-0.4427172243595123,30.65985107421875,95.894775390625,-5.212310791015625
164082,-0.58294677734375,1.16510009765625,-0.3510589599609375,-0.5094912052154541,-0.6572713255882263,-0.4375491142272949,30.21218872070312,95.568359375,-4.184967041015625
164083,-0.58294677734375,1.16510009765625,-0.3510589599609375,-0.5094912052154541,-0.6572713255882263,-0.4375491142272949,30.21218872070312,95.568359375,-4.184967041015625
164084,-0.6225433349609375,1.206634521484375,-0.34002685546875,-0.3652477562427521,-0.5619205832481384,-0.3652064800262451,29.94093322753906,95.33192443847656,-3.582244873046875
164085,-0.62255859375,1.227645874023438,-0.33258056640625,-0.1776275187730789,-0.4770419299602509,-0.2540477216243744,29.77297973632812,95.15972900390624,-3.259246826171875
164086,-0.5222625732421875,1.14471435546875,-0.337890625,0.1735494136810303,-0.3382678031921387,-0.1093331500887871,29.50332641601562,94.76863098144533,-2.556243896484375
164087,-0.5222625732421875,1.14471435546875,-0.337890625,0.1735494136810303,-0.3382678031921387,-0.1093331500887871,29.50332641601562,94.76863098144533,-2.556243896484375
164088,-0.4400177001953125,1.067840576171875,-0.3836669921875,0.3548561036586761,-0.3289840221405029,-0.0451775975525379,29.5113525390625,94.78143310546876,-2.431747436523438
164089,-0.3812713623046875,0.9980316162109376,-0.43658447265625,0.5648447275161743,-0.3457464873790741,0.0452316589653492,29.42149353027344,94.7072296142578,-2.392501831054688
164090,-0.3124237060546875,0.9494476318359376,-0.5968170166015625,0.9926791787147522,-0.1866343319416046,0.1793244779109955,29.73167419433594,94.94056701660156,-2.778427124023438
164091,-0.3124237060546875,0.9494476318359376,-0.5968170166015625,0.9926791787147522,-0.1866343319416046,0.1793244779109955,29.73167419433594,94.94056701660156,-2.778427124023438
164092,-0.306854248046875,0.9842529296875,-0.6217498779296875,0.986721694469452,-0.1328049153089523,0.1766852885484695,29.85948181152344,95.00588989257812,-3.126754760742188
164093,-0.306854248046875,0.9842529296875,-0.6217498779296875,0.986721694469452,-0.1328049153089523,0.1766852885484695,29.85948181152344,95.00588989257812,-3.126754760742188
164094,-0.282318115234375,1.094970703125,-0.576324462890625,0.855293869972229,-0.1200795322656631,0.2093654721975327,30.13960266113281,95.26806640625,-3.88946533203125
164095,-0.282318115234375,1.094970703125,-0.576324462890625,0.855293869972229,-0.1200795322656631,0.2093654721975327,30.13960266113281,95.26806640625,-3.88946533203125
164096,-0.2698822021484375,1.138320922851562,-0.5154571533203125,0.8344615697860718,-0.1363482475280762,0.2741519212722778,30.28157043457031,95.46728515625,-4.35906982421875
164097,-0.263763427734375,1.16741943359375,-0.4435882568359375,0.84050452709198,-0.1445523947477341,0.3519420623779297,30.495849609375,95.63623046875,-4.775741577148438
164098,-0.3077392578125,1.226593017578125,-0.297454833984375,0.834370493888855,-0.1479039788246155,0.4542910754680634,30.88365173339844,95.7939453125,-5.5225830078125
164099,-0.3077392578125,1.226593017578125,-0.297454833984375,0.834370493888855,-0.1479039788246155,0.4542910754680634,30.88365173339844,95.7939453125,-5.5225830078125
164100,-0.3933563232421875,1.30157470703125,-0.162689208984375,0.7099640965461731,-0.3630317449569702,0.4212774634361267,31.30380249023438,96.39871215820312,-6.465789794921875
164101,-0.468536376953125,1.36572265625,-0.103546142578125,0.7010995149612427,-0.5285338759422302,0.3164874017238617,31.55491638183594,96.47718811035156,-6.744110107421875
164102,-0.5522003173828125,1.425277709960938,-0.0285797119140625,0.733651876449585,-0.6187229156494141,0.1406271606683731,31.79899597167969,96.59025573730467,-7.011001586914062
164103,-0.5522003173828125,1.425277709960938,-0.0285797119140625,0.733651876449585,-0.6187229156494141,0.1406271606683731,31.79899597167969,96.59025573730467,-7.011001586914062
164104,-0.6294097900390625,1.421829223632812,0.0531463623046875,0.8144111633300781,-0.5400749444961548,-0.0441016815602779,32.03871154785156,96.84307861328124,-7.342636108398438
164105,-0.707427978515625,1.249176025390625,0.04656982421875,1.163185119628906,-0.2772973775863647,-0.3430620133876801,32.38137817382812,97.08914184570312,-7.757843017578125
164106,-0.7015228271484375,1.1126708984375,-0.0124664306640625,1.31059193611145,-0.3776804506778717,-0.4036180377006531,32.43382263183594,97.24266052246094,-7.999053955078125
164107,-0.7015228271484375,1.1126708984375,-0.0124664306640625,1.31059193611145,-0.3776804506778717,-0.4036180377006531,32.43382263183594,97.24266052246094,-7.999053955078125
164108,-0.6522064208984375,0.8126220703125,-0.0539093017578125,1.406798362731934,-0.8953251838684082,-0.2898446023464203,32.36793518066406,97.30169677734376,-9.10528564453125
164109,-0.6331787109375,0.71759033203125,0.0035858154296875,1.420258164405823,-1.096536636352539,-0.1485298126935959,32.36952209472656,97.33607482910156,-9.636077880859377
164110,-0.5571136474609375,0.591156005859375,0.1288299560546875,1.339439511299133,-1.209152579307556,0.0652660876512527,32.53555297851562,97.39952087402344,-10.5587158203125
164111,-0.5571136474609375,0.591156005859375,0.1288299560546875,1.339439511299133,-1.209152579307556,0.0652660876512527,32.53555297851562,97.39952087402344,-10.5587158203125
164112,-0.5500030517578125,0.5537567138671875,0.221954345703125,1.23230242729187,-1.07810640335083,0.1207447946071625,32.69023132324219,97.6094970703125,-11.04533386230469
164113,-0.5645294189453125,0.525604248046875,0.2603302001953125,1.170163154602051,-0.8502184152603149,0.1306032836437225,32.83981323242188,97.64781188964844,-11.39668273925781
164114,-0.5935211181640625,0.4721832275390625,0.22369384765625,1.181722283363342,-0.5966892242431641,0.1170379370450974,33.12216186523438,97.74208068847656,-11.91630554199219
164115,-0.5935211181640625,0.4721832275390625,0.22369384765625,1.181722283363342,-0.5966892242431641,0.1170379370450974,33.12216186523438,97.74208068847656,-11.91630554199219
164116,-0.5806427001953125,0.345428466796875,0.1199798583984375,1.283148288726807,-0.1555485874414444,-0.0396736413240432,33.57691955566406,97.77009582519533,-12.6363525390625
164117,-0.5700225830078125,0.2623748779296875,0.097381591796875,1.243820309638977,0.0749184489250183,-0.1386793255805969,33.61396789550781,97.8723602294922,-13.14126586914062
164118,-0.5417938232421875,0.1729888916015625,0.0591278076171875,1.132135391235352,0.3065375685691833,-0.2077071219682693,33.70977783203125,97.85861206054688,-13.69920349121094
164119,-0.5417938232421875,0.1729888916015625,0.0591278076171875,1.132135391235352,0.3065375685691833,-0.2077071219682693,33.70977783203125,97.85861206054688,-13.69920349121094
164120,-0.43994140625,0.097137451171875,-0.0189361572265625,0.6568593382835388,0.4017695486545563,-0.2041621953248978,33.73783874511719,97.89576721191406,-14.92535400390625
164121,-0.43994140625,0.097137451171875,-0.0189361572265625,0.6568593382835388,0.4017695486545563,-0.2041621953248978,33.73783874511719,97.89576721191406,-14.92535400390625
164122,-0.4158935546875,0.439605712890625,0.03704833984375,-0.0537764132022857,-0.1571259647607803,0.0769869238138198,33.64167785644531,97.85911560058594,-15.90328979492188
164123,-0.4158935546875,0.439605712890625,0.03704833984375,-0.0537764132022857,-0.1571259647607803,0.0769869238138198,33.64167785644531,97.85911560058594,-15.90328979492188
164124,-0.6197052001953125,0.7585906982421875,0.234649658203125,-0.4592152535915375,-0.3023761212825775,0.0619358047842979,33.49002075195312,97.9368133544922,-16.18412780761719
164125,-0.7022552490234375,0.8385162353515625,0.26239013671875,-0.5161392688751221,-0.2473908811807632,0.0315214395523071,33.40029907226562,97.88812255859376,-16.09809875488281
164126,-0.760772705078125,0.87445068359375,0.2872314453125,-0.5623022317886353,-0.1611841022968292,0.0167712569236755,33.35154724121094,97.91935729980467,-15.99749755859375
164127,-0.760772705078125,0.87445068359375,0.2872314453125,-0.5623022317886353,-0.1611841022968292,0.0167712569236755,33.35154724121094,97.91935729980467,-15.99749755859375
164128,-0.73236083984375,0.838165283203125,0.2997589111328125,-0.7451183795928955,-0.088483527302742,0.0175630152225494,33.30563354492188,97.9932861328125,-15.5748291015625
164129,-0.68414306640625,0.816070556640625,0.29632568359375,-0.832344651222229,-0.1262042671442032,0.0175014957785606,33.27096557617188,98.05964660644533,-15.25624084472656
164130,-0.630401611328125,0.8058013916015625,0.2974090576171875,-0.8875250816345215,-0.1841477304697037,-0.0063428506255149,33.29576110839844,98.07070922851562,-14.97476196289062
164131,-0.630401611328125,0.8058013916015625,0.2974090576171875,-0.8875250816345215,-0.1841477304697037,-0.0063428506255149,33.29576110839844,98.07070922851562,-14.97476196289062
164132,-0.57232666015625,0.8013153076171875,0.2738494873046875,-0.9538228511810304,-0.1982526332139969,-0.1369461268186569,33.19261169433594,97.98619079589844,-14.12355041503906
164133,-0.578887939453125,0.8154449462890625,0.232421875,-0.9655580520629884,-0.2042266428470612,-0.2131016254425049,33.13490295410156,97.94065856933594,-13.58305358886719
164134,-0.598480224609375,0.841400146484375,0.172760009765625,-0.9628951549530028,-0.230629488825798,-0.2798188626766205,32.97091674804688,97.87115478515624,-12.71876525878906
164135,-0.598480224609375,0.841400146484375,0.172760009765625,-0.9628951549530028,-0.230629488825798,-0.2798188626766205,32.97091674804688,97.87115478515624,-12.71876525878906
164136,-0.6548919677734375,0.92852783203125,0.0618438720703125,-0.8466939926147461,-0.2156286984682083,-0.3813281655311584,32.7608642578125,97.76739501953124,-12.24223327636719
164137,-0.6492919921875,0.9258575439453124,-0.01800537109375,-0.7735167145729065,-0.1629817336797714,-0.3848808407783508,32.48432922363281,97.2635498046875,-10.82635498046875
164138,-0.6556396484375,0.9376373291015624,-0.1448516845703125,-0.7280930280685425,-0.1693935543298721,-0.368586540222168,32.20616149902344,97.22886657714844,-10.53073120117188
164139,-0.6556396484375,0.9376373291015624,-0.1448516845703125,-0.7280930280685425,-0.1693935543298721,-0.368586540222168,32.20616149902344,97.22886657714844,-10.53073120117188
164140,-0.6258087158203125,0.867218017578125,-0.3701324462890625,-0.6551549434661865,-0.4335269331932068,-0.3876947462558746,31.57310485839844,97.19790649414062,-10.16853332519531
164141,-0.5518646240234375,0.85223388671875,-0.390350341796875,-0.6854816675186157,-0.5235375165939331,-0.3905424475669861,31.31930541992188,97.00979614257812,-9.713394165039062
164142,-0.4855499267578125,0.8982086181640625,-0.433502197265625,-0.6916343569755554,-0.5209547877311707,-0.4282546639442444,31.01007080078125,96.92811584472656,-9.182952880859377
164143,-0.4855499267578125,0.8982086181640625,-0.433502197265625,-0.6916343569755554,-0.5209547877311707,-0.4282546639442444,31.01007080078125,96.92811584472656,-9.182952880859377
164144,-0.5029296875,1.063461303710938,-0.521881103515625,-0.5576757788658142,-0.2794915735721588,-0.4992542862892151,30.43603515625,96.647705078125,-8.22247314453125
164145,-0.6054840087890625,1.109100341796875,-0.5573883056640625,-0.4470986723899841,-0.1516142934560776,-0.4319556653499603,30.18917846679688,96.54266357421876,-7.783462524414062
164146,-0.70025634765625,1.126571655273438,-0.56390380859375,-0.3047175705432892,-0.0984591916203498,-0.3169859349727631,29.94186401367188,96.46792602539062,-7.43572998046875
164147,-0.7311859130859375,1.10888671875,-0.572998046875,-0.1324746906757355,-0.054368432611227,-0.1710367202758789,29.72297668457031,96.24868774414062,-7.168548583984375
164148,-0.6815032958984375,1.08251953125,-0.6068572998046875,0.0582068488001823,0.0013363742036744,-0.0303259473294019,29.63468933105469,96.07292175292967,-6.940277099609375
164149,-0.5860137939453125,1.0582275390625,-0.647125244140625,0.2366160005331039,0.0863857567310333,0.1435076296329498,29.52249145507812,95.99270629882812,-6.853134155273438
164150,-0.506256103515625,1.087646484375,-0.668914794921875,0.3779355883598328,0.1757723540067673,0.3097032606601715,29.530517578125,96.00819396972656,-6.922470092773438
164151,-0.506256103515625,1.087646484375,-0.668914794921875,0.3779355883598328,0.1757723540067673,0.3097032606601715,29.530517578125,96.00819396972656,-6.922470092773438
164152,-0.43731689453125,1.22406005859375,-0.6566925048828125,0.4879070818424225,0.3533143997192383,0.4663703739643097,29.81318664550781,96.1265106201172,-7.142303466796875
164153,-0.4620513916015625,1.271087646484375,-0.6396331787109375,0.4974398612976074,0.3943118751049042,0.4437811672687531,30.03265380859375,96.2287139892578,-7.42120361328125
164154,-0.5142059326171875,1.246688842773438,-0.5964813232421875,0.5167909264564514,0.4534516334533691,0.4108474552631378,30.26931762695312,96.39547729492188,-7.878036499023438
164155,-0.5466766357421875,1.1708984375,-0.550445556640625,0.559718668460846,0.5023472905158997,0.4017412960529327,30.42662048339844,96.61753845214844,-8.134933471679688
164156,-0.5474700927734375,1.091445922851562,-0.49847412109375,0.5699100494384766,0.5059018135070801,0.3736670613288879,30.60650634765625,96.66754150390624,-8.373336791992188
164157,-0.5515899658203125,1.02252197265625,-0.425506591796875,0.5515249371528625,0.4759683907032013,0.3556835353374481,30.77394104003906,96.86996459960938,-8.807525634765625
164158,-0.5401153564453125,0.945068359375,-0.3600616455078125,0.5546584129333496,0.4258320033550262,0.3295025229454041,30.88865661621094,97.05140686035156,-9.202682495117188
164159,-0.5401153564453125,0.945068359375,-0.3600616455078125,0.5546584129333496,0.4258320033550262,0.3295025229454041,30.88865661621094,97.05140686035156,-9.202682495117188
164160,-0.527496337890625,0.7860870361328125,-0.252899169921875,0.5703279376029968,0.1923532038927078,0.2993291914463043,31.07023620605469,97.53155517578124,-10.05667114257812
164161,-0.51885986328125,0.7419586181640625,-0.2094879150390625,0.5242049098014832,-0.0666986033320426,0.2947176396846771,31.21908569335938,97.72663879394533,-10.43792724609375
164162,-0.506072998046875,0.7187042236328125,-0.1099700927734375,0.4599713385105133,-0.2648263275623322,0.278439074754715,31.44526672363281,97.74757385253906,-10.841552734375
164163,-0.506072998046875,0.7187042236328125,-0.1099700927734375,0.4599713385105133,-0.2648263275623322,0.278439074754715,31.44526672363281,97.74757385253906,-10.841552734375
164164,-0.4500274658203125,0.752227783203125,0.0555572509765625,0.4285175204277039,-0.3407229483127594,0.3049753606319427,31.60768127441406,98.13156127929688,-11.46632385253906
164165,-0.419708251953125,0.7549896240234375,0.0917205810546875,0.4781002700328827,-0.2874408364295959,0.3385474383831024,31.71849060058594,98.15187072753906,-11.49711608886719
164166,-0.4149932861328125,0.7977752685546875,0.158233642578125,0.7283186316490173,-0.2927050888538361,0.442095935344696,32.25286865234375,98.38035583496094,-11.85954284667969
164167,-0.4149932861328125,0.7977752685546875,0.158233642578125,0.7283186316490173,-0.2927050888538361,0.442095935344696,32.25286865234375,98.38035583496094,-11.85954284667969
164168,-0.4060211181640625,0.7815704345703125,0.1636962890625,0.8767142295837402,-0.3607291579246521,0.4598900973796844,32.72039794921875,98.32780456542967,-12.13958740234375
164169,-0.349609375,0.6729278564453125,0.1345062255859375,0.9686835408210754,-0.5303655862808228,0.4876029491424561,33.081298828125,98.33978271484376,-12.36454772949219
164170,-0.26617431640625,0.578033447265625,0.169281005859375,0.9651881456375122,-0.6329649686813354,0.572189450263977,33.42304992675781,98.3455810546875,-12.80230712890625
164171,-0.2176361083984375,0.5307159423828125,0.2166595458984375,0.829443633556366,-0.5334532856941223,0.63152015209198,33.77621459960938,98.40350341796876,-13.06571960449219
164172,-0.2054290771484375,0.5113677978515625,0.22406005859375,0.5877377986907959,-0.3321308195590973,0.6560542583465576,34.0601806640625,98.53221130371094,-13.47689819335938
164173,-0.2576751708984375,0.5131683349609375,0.1849822998046875,0.325210303068161,-0.1533112525939941,0.6673988103866577,34.36476135253906,98.62165832519533,-13.79501342773438
164174,-0.3717193603515625,0.5794525146484375,0.1518096923828125,0.131464809179306,-0.1024834960699081,0.6781782507896423,34.65269470214844,98.71897888183594,-14.1634521484375
164175,-0.3717193603515625,0.5794525146484375,0.1518096923828125,0.131464809179306,-0.1024834960699081,0.6781782507896423,34.65269470214844,98.71897888183594,-14.1634521484375
164176,-0.511077880859375,0.64056396484375,0.161651611328125,-0.1381126046180725,-0.2931655645370483,0.5272600650787354,35.25592041015625,98.90066528320312,-14.18022155761719
164177,-0.50811767578125,0.61053466796875,0.161956787109375,-0.2246754467487335,-0.3384030759334564,0.456075131893158,35.59103393554688,98.94430541992188,-14.23428344726562
164178,-0.5022125244140625,0.634521484375,0.151611328125,-0.2765961885452271,-0.3175252377986908,0.3705562353134155,35.86195373535156,99.09481811523438,-14.08732604980469
164179,-0.5022125244140625,0.634521484375,0.151611328125,-0.2765961885452271,-0.3175252377986908,0.3705562353134155,35.86195373535156,99.09481811523438,-14.08732604980469
164180,-0.5314178466796875,0.6688232421875,0.116180419921875,-0.2960937023162842,-0.2760403752326965,0.2690644860267639,36.15548706054688,99.13052368164062,-14.0906982421875
164181,-0.5521392822265625,0.7364044189453125,0.1063690185546875,-0.3115605413913727,-0.1336528658866882,0.0836434960365295,36.51004028320312,98.99537658691406,-13.52311706542969
164182,-0.542266845703125,0.7795562744140625,0.0998382568359375,-0.3241018950939178,-0.0770705491304397,0.0116798253729939,36.56964111328125,99.064208984375,-13.355712890625
164183,-0.542266845703125,0.7795562744140625,0.0998382568359375,-0.3241018950939178,-0.0770705491304397,0.0116798253729939,36.56964111328125,99.064208984375,-13.355712890625
164184,-0.550140380859375,0.8669586181640625,0.09759521484375,-0.3828153014183044,-0.0661451965570449,-0.1254617869853973,36.62420654296875,99.13671875,-13.13436889648438
164185,-0.57373046875,0.883697509765625,0.1186981201171875,-0.4199035465717316,-0.056289903819561,-0.19574074447155,36.67182922363281,98.95701599121094,-12.82142639160156
164186,-0.606048583984375,0.8712310791015625,0.13922119140625,-0.420507550239563,0.0008213188848458,-0.266514778137207,36.5894775390625,98.95451354980467,-12.70692443847656
164187,-0.639495849609375,0.8466339111328125,0.15020751953125,-0.3503462970256805,0.0939475372433662,-0.3316815197467804,36.43388366699219,99.0252685546875,-12.5189208984375
164188,-0.6622161865234375,0.794281005859375,0.14129638671875,-0.2390578538179398,0.1865533739328384,-0.3920380771160126,36.32696533203125,99.0014190673828,-12.41604614257812
164189,-0.6584320068359375,0.703887939453125,0.1277923583984375,-0.1585659384727478,0.2379036396741867,-0.4125164449214935,36.19157409667969,98.90097045898438,-12.21852111816406
164190,-0.6346435546875,0.6290283203125,0.108001708984375,-0.1498488783836365,0.244023323059082,-0.4241430163383484,36.01974487304688,98.84022521972656,-12.14556884765625
164191,-0.6084442138671875,0.57562255859375,0.0820159912109375,-0.2076924741268158,0.2158513367176056,-0.4381890594959259,35.86402893066406,98.75555419921876,-12.11582946777344
164192,-0.5808258056640625,0.5442962646484375,0.0670166015625,-0.2845520973205566,0.1812504827976227,-0.4695232808589935,35.60206604003906,98.80398559570312,-12.23979187011719
164193,-0.5708770751953125,0.53759765625,0.067169189453125,-0.3509183526039124,0.182968482375145,-0.502630352973938,35.34226989746094,98.7905731201172,-12.20318603515625
164194,-0.5706939697265625,0.5625,0.0516815185546875,-0.4132320582866669,0.1909646242856979,-0.5345696806907654,35.14512634277344,98.681640625,-12.0423583984375
164195,-0.586578369140625,0.6006927490234375,0.0156402587890625,-0.4706958830356598,0.1480981260538101,-0.5613653063774109,34.92074584960938,98.67033386230467,-11.86328125
164196,-0.6046295166015625,0.6507720947265625,-0.0628814697265625,-0.5260957479476929,0.0098856538534164,-0.5521904826164246,34.5855712890625,98.60862731933594,-11.69247436523438
164197,-0.614776611328125,0.7323760986328125,-0.1584930419921875,-0.5873847007751465,-0.2483962327241898,-0.5167773365974426,34.22366333007812,98.57794189453124,-11.47962951660156
164198,-0.60516357421875,0.8095855712890625,-0.2111968994140625,-0.6419752240180969,-0.5438193678855896,-0.5192961692810059,33.86891174316406,98.46458435058594,-11.27023315429688
164199,-0.60516357421875,0.8095855712890625,-0.2111968994140625,-0.6419752240180969,-0.5438193678855896,-0.5192961692810059,33.86891174316406,98.46458435058594,-11.27023315429688
164200,-0.4818572998046875,0.860565185546875,-0.0654296875,-0.7367539405822754,-0.7897622585296631,-0.5218759775161743,33.12779235839844,98.2724151611328,-10.69682312011719
164201,-0.47418212890625,0.9219818115234376,-0.044677734375,-0.766004204750061,-0.7615647315979004,-0.5598691701889038,32.81011962890625,98.0424346923828,-9.950057983398438
164202,-0.5236968994140625,0.9988250732421876,-0.10491943359375,-0.7643325328826904,-0.8110926151275635,-0.6165518760681152,32.62416076660156,97.79988098144533,-9.32025146484375
164203,-0.5236968994140625,0.9988250732421876,-0.10491943359375,-0.7643325328826904,-0.8110926151275635,-0.6165518760681152,32.62416076660156,97.79988098144533,-9.32025146484375
164204,-0.6648406982421875,1.115402221679688,-0.2425689697265625,-0.5721420645713806,-0.9159167408943176,-0.6414598822593689,31.94873046875,97.43869018554688,-8.3482666015625
164205,-0.7075347900390625,1.16357421875,-0.2879180908203125,-0.4076846837997437,-0.8233215808868408,-0.5345129370689392,31.487548828125,97.32618713378906,-7.731552124023438
164206,-0.7025299072265625,1.185531616210938,-0.3269195556640625,-0.2074501216411591,-0.7056871056556702,-0.4135417640209198,31.24591064453125,97.07487487792967,-7.182464599609375
164207,-0.7025299072265625,1.185531616210938,-0.3269195556640625,-0.2074501216411591,-0.7056871056556702,-0.4135417640209198,31.24591064453125,97.07487487792967,-7.182464599609375
164208,-0.5925140380859375,1.114532470703125,-0.44818115234375,0.2000614553689957,-0.5033350586891174,-0.1993977874517441,30.86935424804688,96.78277587890624,-6.51513671875
164209,-0.5114593505859375,1.10205078125,-0.5418548583984375,0.4283683896064758,-0.4977424144744873,-0.0833526775240898,30.76541137695312,96.65562438964844,-6.2164306640625
164210,-0.4391326904296875,1.0985107421875,-0.627166748046875,0.6615617275238037,-0.4904477298259735,0.0379007756710052,30.66950988769531,96.72267150878906,-6.106109619140625
164211,-0.3796844482421875,1.114532470703125,-0.678924560546875,0.874857485294342,-0.4539816081523895,0.1695243120193481,30.7071533203125,96.6898193359375,-6.29052734375
164212,-0.33074951171875,1.135757446289062,-0.694000244140625,1.018177032470703,-0.3365740180015564,0.2593647241592407,30.82118225097656,96.59487915039062,-6.412582397460938
164213,-0.3013153076171875,1.178863525390625,-0.6672821044921875,1.061869382858276,-0.2072461247444153,0.3129078447818756,30.9566650390625,96.65911865234376,-6.718597412109375
164214,-0.29541015625,1.227951049804688,-0.6253204345703125,0.9981181621551514,-0.1022456809878349,0.3309901654720306,31.18934631347656,96.66926574707033,-7.120254516601562
164215,-0.29541015625,1.227951049804688,-0.6253204345703125,0.9981181621551514,-0.1022456809878349,0.3309901654720306,31.18934631347656,96.66926574707033,-7.120254516601562
164216,-0.34295654296875,1.303253173828125,-0.5350341796875,0.869422197341919,-0.167981818318367,0.4347463846206665,31.65660095214844,97.064697265625,-8.060333251953125
164217,-0.373565673828125,1.3394775390625,-0.4780120849609375,0.8503595590591431,-0.1919675767421722,0.4980374872684479,31.90170288085938,97.0647430419922,-8.466293334960938
164218,-0.3910369873046875,1.343673706054688,-0.4066314697265625,0.8522293567657471,-0.1628464460372925,0.5321861505508423,32.11439514160156,97.2020263671875,-8.891738891601562
164219,-0.3910369873046875,1.343673706054688,-0.4066314697265625,0.8522293567657471,-0.1628464460372925,0.5321861505508423,32.11439514160156,97.2020263671875,-8.891738891601562
164220,-0.455780029296875,1.33050537109375,-0.2318267822265625,0.8864361047744751,-0.0817374736070632,0.5302523970603943,32.708984375,97.62998962402344,-9.724441528320312
164221,-0.4826202392578125,1.305191040039062,-0.172637939453125,0.8964629173278809,-0.1221805065870285,0.4942944049835205,33.06895446777344,97.80252075195312,-10.082763671875
164222,-0.50775146484375,1.267669677734375,-0.1246490478515625,0.90116947889328,-0.230111226439476,0.4224377870559692,33.23088073730469,98.06613159179688,-10.680908203125
164223,-0.50775146484375,1.267669677734375,-0.1246490478515625,0.90116947889328,-0.230111226439476,0.4224377870559692,33.23088073730469,98.06613159179688,-10.680908203125
164224,-0.585784912109375,1.212326049804688,0.009185791015625,0.9177284836769104,-0.4408258497714996,0.1727502048015594,33.75126647949219,98.49038696289062,-11.87528991699219
164225,-0.6078948974609375,1.143814086914062,0.0768280029296875,0.99448823928833,-0.4210015535354614,0.0271216314285993,33.98954772949219,98.73312377929688,-12.23872375488281
164226,-0.6109619140625,1.091659545898438,0.0662689208984375,1.096968770027161,-0.418117344379425,-0.1017804220318794,34.0899658203125,98.81674194335938,-12.54989624023438
164227,-0.6109619140625,1.091659545898438,0.0662689208984375,1.096968770027161,-0.418117344379425,-0.1017804220318794,34.0899658203125,98.81674194335938,-12.54989624023438
164228,-0.627960205078125,0.9667510986328124,-0.00299072265625,1.229950070381165,-0.6437422037124634,-0.219502255320549,34.11897277832031,99.1230926513672,-13.59371948242188
164229,-0.6496734619140625,0.8842010498046875,-0.0280303955078125,1.283648371696472,-0.8586907386779785,-0.1756589114665985,34.05326843261719,99.09454345703124,-13.98490905761719
164230,-0.6616363525390625,0.8129425048828125,0.0044097900390625,1.357611656188965,-1.092215895652771,-0.0726965740323066,34.14134216308594,99.12222290039062,-14.50216674804688
164231,-0.6616363525390625,0.8129425048828125,0.0044097900390625,1.357611656188965,-1.092215895652771,-0.0726965740323066,34.14134216308594,99.12222290039062,-14.50216674804688
164232,-0.583648681640625,0.672882080078125,0.14166259765625,1.466069936752319,-1.255943775177002,0.1427180022001266,34.27145385742188,99.1701202392578,-15.57861328125
164233,-0.583648681640625,0.672882080078125,0.14166259765625,1.466069936752319,-1.255943775177002,0.1427180022001266,34.27145385742188,99.1701202392578,-15.57861328125
164234,-0.4760284423828125,0.5517120361328125,0.23681640625,1.332488179206848,-0.9443348050117492,0.1651175916194916,34.84303283691406,98.91058349609376,-16.32598876953125
164235,-0.4760284423828125,0.5517120361328125,0.23681640625,1.332488179206848,-0.9443348050117492,0.1651175916194916,34.84303283691406,98.91058349609376,-16.32598876953125
164236,-0.464508056640625,0.4606170654296875,0.2071685791015625,1.227503657341003,-0.7373318076133728,0.1569211781024933,35.04867553710938,98.9825439453125,-16.82577514648438
164237,-0.4695892333984375,0.3791656494140625,0.1581573486328125,1.162573933601379,-0.5361475944519043,0.1517919301986694,35.31578063964844,99.05982971191406,-17.24153137207031
164238,-0.489776611328125,0.2676849365234375,0.1145782470703125,1.119813203811646,-0.1526167094707489,0.0346967279911041,35.71812438964844,98.87823486328124,-17.9246826171875
164239,-0.489776611328125,0.2676849365234375,0.1145782470703125,1.119813203811646,-0.1526167094707489,0.0346967279911041,35.71812438964844,98.87823486328124,-17.9246826171875
164240,-0.49627685546875,0.18646240234375,0.0877227783203125,1.034313678741455,0.0010378338629379,-0.0573644898831844,35.82693481445312,98.98577880859376,-18.7542724609375
164241,-0.5039215087890625,0.11077880859375,0.06939697265625,0.8900875449180603,0.1101414188742638,-0.1452410817146301,35.86016845703125,98.97154235839844,-19.42135620117188
164242,-0.5065155029296875,0.041595458984375,0.0880126953125,0.4224689602851868,0.1632877290248871,-0.1384883671998978,35.95033264160156,98.9080810546875,-20.21209716796875
164243,-0.5065155029296875,0.041595458984375,0.0880126953125,0.4224689602851868,0.1632877290248871,-0.1384883671998978,35.95033264160156,98.9080810546875,-20.21209716796875
164244,-0.5144500732421875,0.2286376953125,0.1265411376953125,0.1373919397592545,0.034976627677679,0.0026370619889348,35.90206909179688,98.86634826660156,-20.68942260742188
164245,-0.5653228759765625,0.4960174560546875,0.228057861328125,-0.1388870477676392,-0.0653254762291908,0.0524549521505832,35.83837890625,98.9613800048828,-21.17335510253906
164246,-0.7082977294921875,0.716583251953125,0.3147735595703125,-0.4123044610023499,-0.1637063771486282,0.0228443294763565,35.672119140625,98.91561889648438,-21.35955810546875
164247,-0.7082977294921875,0.716583251953125,0.3147735595703125,-0.4123044610023499,-0.1637063771486282,0.0228443294763565,35.672119140625,98.91561889648438,-21.35955810546875
164248,-0.757965087890625,0.7572784423828125,0.3489227294921875,-0.4787689745426178,-0.1616701185703278,0.0233737658709287,35.61289978027344,98.95742797851562,-21.21539306640625
164249,-0.7635955810546875,0.7896270751953125,0.3448638916015625,-0.5697851777076721,-0.0793970897793769,0.0205201879143714,35.63005065917969,98.94932556152344,-21.13795471191406
164250,-0.7068328857421875,0.853973388671875,0.279632568359375,-0.7407622337341309,-0.0954402387142181,0.0186437256634235,35.60079956054688,98.99037170410156,-20.43899536132812
164251,-0.7068328857421875,0.853973388671875,0.279632568359375,-0.7407622337341309,-0.0954402387142181,0.0186437256634235,35.60079956054688,98.99037170410156,-20.43899536132812
164252,-0.646820068359375,0.878204345703125,0.3050079345703125,-0.8294276595115662,-0.2403044849634171,-0.022277608513832,35.66737365722656,99.06475830078124,-19.92234802246094
164253,-0.646820068359375,0.878204345703125,0.3050079345703125,-0.8294276595115662,-0.2403044849634171,-0.022277608513832,35.66737365722656,99.06475830078124,-19.92234802246094
164254,-0.6397857666015625,0.8733062744140625,0.2853851318359375,-0.8937187790870667,-0.2711891531944275,-0.1830920577049255,35.6429443359375,98.85853576660156,-19.00328063964844
164255,-0.6512451171875,0.866058349609375,0.2368927001953125,-0.911107897758484,-0.293636679649353,-0.284560352563858,35.49111938476562,98.90956115722656,-18.57919311523438
164256,-0.6512451171875,0.866058349609375,0.2368927001953125,-0.911107897758484,-0.293636679649353,-0.284560352563858,35.49111938476562,98.90956115722656,-18.57919311523438
164257,-0.6654052734375,0.8600616455078125,0.1756744384765625,-0.9064175486564636,-0.3184911608695984,-0.3633489012718201,35.38134765625,98.91908264160156,-18.14028930664062
164258,-0.6736297607421875,0.8999481201171875,0.0287628173828125,-0.7330494523048401,-0.2632169723510742,-0.4705278277397156,34.83137512207031,98.96876525878906,-17.45648193359375
164259,-0.6736297607421875,0.8999481201171875,0.0287628173828125,-0.7330494523048401,-0.2632169723510742,-0.4705278277397156,34.83137512207031,98.96876525878906,-17.45648193359375
164260,-0.6074981689453125,0.8712615966796875,-0.2329559326171875,-0.524519145488739,-0.3636077642440796,-0.3581035435199738,34.28076171875,98.90850830078124,-16.56797790527344
164261,-0.6074981689453125,0.8712615966796875,-0.2329559326171875,-0.524519145488739,-0.3636077642440796,-0.3581035435199738,34.28076171875,98.90850830078124,-16.56797790527344
164262,-0.521087646484375,0.8613433837890625,-0.4150543212890625,-0.4224998652935028,-0.7222021222114563,-0.2495304644107819,33.67196655273438,98.80995178222656,-15.56912231445312
164263,-0.4358062744140625,0.8684234619140625,-0.4170989990234375,-0.427494615316391,-0.646747350692749,-0.2421204894781113,33.44737243652344,98.7563018798828,-15.33673095703125
164264,-0.4358062744140625,0.8684234619140625,-0.4170989990234375,-0.427494615316391,-0.646747350692749,-0.2421204894781113,33.44737243652344,98.7563018798828,-15.33673095703125
164265,-0.368377685546875,0.9109344482421876,-0.468414306640625,-0.4153948128223419,-0.5081852078437805,-0.2928664982318878,33.16946411132812,98.51438903808594,-14.87542724609375
164266,-0.4392242431640625,1.010116577148438,-0.5498199462890625,-0.3587885200977325,-0.3955231010913849,-0.3453992009162903,32.78544616699219,98.45880126953124,-13.98458862304688
164267,-0.4392242431640625,1.010116577148438,-0.5498199462890625,-0.3587885200977325,-0.3955231010913849,-0.3453992009162903,32.78544616699219,98.45880126953124,-13.98458862304688
164268,-0.5564727783203125,1.061843872070312,-0.566864013671875,-0.2791126072406769,-0.4001964032649994,-0.2421660274267197,32.55137634277344,98.46316528320312,-13.75851440429688
164269,-0.6487579345703125,1.149887084960938,-0.6410064697265625,0.0328085459768772,-0.2320372313261032,0.0089884353801608,32.33784484863281,98.22695922851562,-13.1873779296875
164270,-0.6179351806640625,1.178466796875,-0.6785125732421875,0.1786746680736542,-0.0474953465163707,0.1565840244293213,32.30125427246094,98.16397094726562,-12.96087646484375
164271,-0.6179351806640625,1.178466796875,-0.6785125732421875,0.1786746680736542,-0.0474953465163707,0.1565840244293213,32.30125427246094,98.16397094726562,-12.96087646484375
164272,-0.5649871826171875,1.2647705078125,-0.6599578857421875,0.3889237940311432,0.2458806037902832,0.35902339220047,32.30683898925781,98.1234893798828,-12.73947143554688
164273,-0.57659912109375,1.2423095703125,-0.6307373046875,0.483944296836853,0.3496296405792236,0.382367879152298,32.43402099609375,98.03976440429688,-12.85853576660156
164274,-0.6045989990234375,1.173080444335938,-0.604217529296875,0.5894760489463806,0.4789202511310577,0.4256405234336853,32.55972290039062,98.0861358642578,-13.03645324707031
164275,-0.6045989990234375,1.173080444335938,-0.604217529296875,0.5894760489463806,0.4789202511310577,0.4256405234336853,32.55972290039062,98.0861358642578,-13.03645324707031
164276,-0.6025543212890625,1.104522705078125,-0.5948486328125,0.6449651718139648,0.6312426924705505,0.4562588930130005,32.82298278808594,98.20242309570312,-13.13563537597656
164277,-0.56414794921875,0.9732513427734376,-0.524322509765625,0.5553234219551086,0.6844595670700073,0.4363251328468323,33.17355346679688,98.59754943847656,-13.93338012695312
164278,-0.5580596923828125,0.9243621826171876,-0.464569091796875,0.4565939009189606,0.5478047728538513,0.3853940367698669,33.32569885253906,98.797119140625,-14.53207397460938
164279,-0.5580596923828125,0.9243621826171876,-0.464569091796875,0.4565939009189606,0.5478047728538513,0.3853940367698669,33.32569885253906,98.797119140625,-14.53207397460938
164280,-0.5475921630859375,0.816070556640625,-0.310546875,0.3629571497440338,0.2386607825756073,0.2681744694709778,33.71875,99.02748107910156,-15.3333740234375
164281,-0.5475921630859375,0.816070556640625,-0.310546875,0.3629571497440338,0.2386607825756073,0.2681744694709778,33.71875,99.02748107910156,-15.3333740234375
164282,-0.539642333984375,0.775390625,-0.0659637451171875,0.3067756593227386,-0.1665256023406982,0.262298196554184,34.19232177734375,99.44815063476562,-16.337890625
164283,-0.539642333984375,0.775390625,-0.0659637451171875,0.3067756593227386,-0.1665256023406982,0.262298196554184,34.19232177734375,99.44815063476562,-16.337890625
164284,-0.539642333984375,0.775390625,-0.0659637451171875,0.3067756593227386,-0.1665256023406982,0.262298196554184,34.19232177734375,99.44815063476562,-16.337890625
164285,-0.5259857177734375,0.785125732421875,0.056060791015625,0.2149080485105515,-0.5281266570091248,0.3603432774543762,34.39573669433594,99.584716796875,-16.75422668457031
164286,-0.49774169921875,0.8159332275390625,0.0932769775390625,0.2607730031013489,-0.6571853160858154,0.4518998265266418,34.57501220703125,99.64289855957033,-16.96780395507812
164287,-0.49774169921875,0.8159332275390625,0.0932769775390625,0.2607730031013489,-0.6571853160858154,0.4518998265266418,34.57501220703125,99.64289855957033,-16.96780395507812
164288,-0.4116363525390625,0.8130340576171875,0.164093017578125,0.4046180546283722,-0.8869205117225647,0.5635637640953064,35.04489135742188,99.71099853515624,-17.12132263183594
164289,-0.3728179931640625,0.796478271484375,0.18023681640625,0.4814622402191162,-0.8891764879226685,0.608650803565979,35.37095642089844,99.7928466796875,-17.22993469238281
164290,-0.31732177734375,0.781036376953125,0.1615753173828125,0.5547391176223755,-0.8412622213363647,0.6189000010490417,35.6947021484375,99.64463806152344,-17.30931091308594
164291,-0.31732177734375,0.781036376953125,0.1615753173828125,0.5547391176223755,-0.8412622213363647,0.6189000010490417,35.6947021484375,99.64463806152344,-17.30931091308594
164292,-0.2447662353515625,0.6843719482421875,0.1414337158203125,0.6444042921066284,-0.5752094984054565,0.5858328342437744,36.47708129882812,99.6147918701172,-17.5699462890625
164293,-0.2447662353515625,0.6843719482421875,0.1414337158203125,0.6444042921066284,-0.5752094984054565,0.5858328342437744,36.47708129882812,99.6147918701172,-17.5699462890625
164294,-0.2771148681640625,0.69073486328125,0.1577301025390625,0.4890692830085754,-0.0960170775651931,0.5246432423591614,37.04347229003906,99.65399169921876,-17.90895080566406
164295,-0.2771148681640625,0.69073486328125,0.1577301025390625,0.4890692830085754,-0.0960170775651931,0.5246432423591614,37.04347229003906,99.65399169921876,-17.90895080566406
164296,-0.407501220703125,0.770538330078125,0.1143798828125,0.3618133366107941,-0.0729719474911689,0.4197642505168915,37.71719360351562,99.67005920410156,-18.32705688476562
164297,-0.4254150390625,0.7612152099609375,0.0778961181640625,0.3509913086891174,-0.1820395737886429,0.3609811067581177,37.91998291015625,99.6173095703125,-18.41644287109375
164298,-0.42852783203125,0.7349853515625,0.062286376953125,0.3234020173549652,-0.2495032995939255,0.2906400859355927,38.29212951660156,99.65730285644533,-18.40153503417969
164299,-0.42852783203125,0.7349853515625,0.062286376953125,0.3234020173549652,-0.2495032995939255,0.2906400859355927,38.29212951660156,99.65730285644533,-18.40153503417969
164300,-0.5541229248046875,0.7438201904296875,0.0532989501953125,0.2712964713573456,-0.1730583310127258,0.1427973657846451,38.96128845214844,99.72264099121094,-19.02804565429688
164301,-0.6175537109375,0.758331298828125,0.0547332763671875,0.2551313638687134,-0.0824067220091819,0.0626652464270591,39.07472229003906,99.78549194335938,-19.15541076660156
164302,-0.6637420654296875,0.7724151611328125,0.06256103515625,0.2287226617336273,0.0172274559736251,-0.0224152933806181,39.08282470703125,99.88134765625,-19.28778076171875
164303,-0.6637420654296875,0.7724151611328125,0.06256103515625,0.2287226617336273,0.0172274559736251,-0.0224152933806181,39.08282470703125,99.88134765625,-19.28778076171875
164304,-0.7017059326171875,0.769439697265625,0.095947265625,0.1251414120197296,0.1006994470953941,-0.168933093547821,39.19938659667969,99.82722473144533,-19.52442932128906
164305,-0.705841064453125,0.7622528076171875,0.128875732421875,0.0407524891197681,0.0821766257286071,-0.2082091271877289,39.18807983398438,99.8466796875,-19.49668884277344
164306,-0.7076416015625,0.7532501220703125,0.1550750732421875,-0.0398869626224041,0.0410720705986022,-0.2413428425788879,39.08622741699219,99.74856567382812,-19.66267395019531
164307,-0.7076416015625,0.7532501220703125,0.1550750732421875,-0.0398869626224041,0.0410720705986022,-0.2413428425788879,39.08622741699219,99.74856567382812,-19.66267395019531
164308,-0.695343017578125,0.6937408447265625,0.188140869140625,-0.1519565135240555,0.0002972087822854,-0.2782071232795715,38.83624267578125,99.74667358398438,-19.62283325195312
164309,-0.683624267578125,0.670257568359375,0.1776123046875,-0.1889259815216064,0.0008958873804658,-0.3000386357307434,38.66505432128906,99.80271911621094,-19.68995666503906
164310,-0.67864990234375,0.65374755859375,0.1546173095703125,-0.2262499183416367,0.0021329256705939,-0.3197478950023651,38.57341003417969,99.82362365722656,-19.76971435546875
164311,-0.67864990234375,0.65374755859375,0.1546173095703125,-0.2262499183416367,0.0021329256705939,-0.3197478950023651,38.57341003417969,99.82362365722656,-19.76971435546875
164312,-0.653045654296875,0.6374664306640625,0.1101226806640625,-0.3075311779975891,-0.0691793337464332,-0.3872270882129669,38.25321960449219,99.7551727294922,-19.38432312011719
164313,-0.6392669677734375,0.634490966796875,0.111297607421875,-0.3602788150310516,-0.1234172731637955,-0.4251944422721863,38.07379150390625,99.69662475585938,-19.10908508300781
