time_idx,accelerometerAccelerationX(G),accelerometerAccelerationY(G),accelerometerAccelerationZ(G),gyroRotationX(rad/s),gyroRotationY(rad/s),gyroRotationZ(rad/s),magnetometerX(µT),magnetometerY(µT),magnetometerZ(µT)
246185,-0.973358154296875,8.1649169921875,3.329727172851562,-1.454594612121582,3.01172661781311,1.989863634109497,64.96347045898438,96.57948303222656,-35.92674255371094
246186,-0.2126922607421875,3.98138427734375,0.2694854736328125,-1.994579792022705,3.249526739120483,-0.900801956653595,66.36083984375,97.7089385986328,-36.22486877441406
246187,0.0278167724609375,1.624786376953125,-0.641143798828125,-2.420314073562622,2.095066785812378,-0.6447904706001282,66.92584228515625,98.0460205078125,-34.53973388671875
246188,0.0278167724609375,1.624786376953125,-0.641143798828125,-2.420314073562622,2.095066785812378,-0.6447904706001282,66.92584228515625,98.0460205078125,-34.53973388671875
246189,0.4645843505859375,0.4512481689453125,-3.698471069335938,-3.571672439575195,-0.4927090406417847,-0.408999502658844,67.03744506835938,98.37355041503906,-32.4261474609375
246190,1.01434326171875,0.96392822265625,0.02069091796875,1.056326031684875,-1.268453001976013,1.360489368438721,66.12196350097656,98.983642578125,-28.584716796875
246191,0.64013671875,1.505722045898438,0.2190093994140625,2.563836336135864,0.6611425280570984,1.343880891799927,65.58753967285156,99.07955932617188,-27.84501647949219
246192,0.64013671875,1.505722045898438,0.2190093994140625,2.563836336135864,0.6611425280570984,1.343880891799927,65.58753967285156,99.07955932617188,-27.84501647949219
246193,0.477081298828125,1.749374389648438,-0.16839599609375,2.427671432495117,0.7360007762908936,0.9133651852607728,65.6669921875,98.80661010742188,-28.08262634277344
246194,0.6167755126953125,1.617706298828125,-0.5230560302734375,-0.164041131734848,-1.064835667610168,-0.1262974888086319,66.59873962402344,97.75686645507812,-29.75444030761719
246195,0.6090240478515625,1.397201538085938,-0.326019287109375,-0.640411913394928,-0.4360683858394623,-0.0886382535099983,66.72186279296875,97.4116668701172,-30.37718200683594
246196,0.6090240478515625,1.397201538085938,-0.326019287109375,-0.640411913394928,-0.4360683858394623,-0.0886382535099983,66.72186279296875,97.4116668701172,-30.37718200683594
246197,0.1895751953125,1.233657836914062,-0.584625244140625,1.368061065673828,-1.075595617294312,0.2067470550537109,66.52766418457031,97.40055847167967,-30.27218627929688
246198,0.059600830078125,1.087875366210938,-0.321441650390625,1.368061065673828,-1.075595617294312,0.2067470550537109,66.58779907226562,97.28289794921876,-30.26223754882812
246199,-0.0301361083984375,0.9851226806640624,-0.1348114013671875,1.439900636672974,-1.136040568351746,0.2004390954971313,66.69989013671875,97.1171417236328,-30.61695861816406
246200,-0.0301361083984375,0.9851226806640624,-0.1348114013671875,1.439900636672974,-1.136040568351746,0.2004390954971313,66.69989013671875,97.1171417236328,-30.61695861816406
246201,-0.119903564453125,0.75872802734375,0.0777435302734375,1.172672152519226,-0.8165491819381714,0.0999670773744583,66.64556884765625,96.60633850097656,-32.14596557617188
246202,-0.1368560791015625,0.628997802734375,0.1107177734375,1.072676062583923,-0.5897234678268433,0.0373489707708358,66.59506225585938,96.4355926513672,-32.81297302246094
246203,-0.1449432373046875,0.5022125244140625,0.1088409423828125,0.9851546883583068,-0.3905371129512787,-0.0404004193842411,66.59455871582031,96.07919311523438,-33.50218200683594
246204,-0.1449432373046875,0.5022125244140625,0.1088409423828125,0.9851546883583068,-0.3905371129512787,-0.0404004193842411,66.59455871582031,96.07919311523438,-33.50218200683594
246205,-0.135040283203125,0.3810577392578125,0.11376953125,0.8400246500968933,-0.0439557395875453,-0.1914906054735184,66.61744689941406,95.78646850585938,-33.87763977050781
246206,-0.129302978515625,0.14801025390625,0.0500030517578125,0.7662654519081116,0.0671894252300262,-0.2341669648885727,66.5889892578125,95.48739624023438,-34.96907043457031
246207,-0.1255340576171875,0.017822265625,-0.0871734619140625,0.6758684515953064,-0.0743250995874404,-0.2538237571716309,66.6480712890625,95.25343322753906,-35.28372192382812
246208,-0.1233978271484375,-0.086029052734375,-0.1468658447265625,0.6489055752754211,-0.3197601437568665,-0.2510495483875275,66.57293701171875,95.0770263671875,-35.57015991210938
246209,-0.1233978271484375,-0.086029052734375,-0.1468658447265625,0.6489055752754211,-0.3197601437568665,-0.2510495483875275,66.57293701171875,95.0770263671875,-35.57015991210938
246210,-0.07415771484375,-0.2131500244140625,-0.07421875,0.8462990522384644,-0.3575527966022491,-0.2149791568517685,66.43653869628906,94.95364379882812,-36.30610656738281
246211,-0.022857666015625,-0.205810546875,-0.0431365966796875,1.006009101867676,-0.2153597176074982,-0.1931790411472321,66.32403564453125,94.82400512695312,-36.39057922363281
246212,-0.022857666015625,-0.205810546875,-0.0431365966796875,1.006009101867676,-0.2153597176074982,-0.1931790411472321,66.32403564453125,94.82400512695312,-36.39057922363281
246213,0.036285400390625,-0.14935302734375,0.0065460205078125,1.135188698768616,0.0864912122488021,-0.1969527453184128,66.00393676757812,94.55232238769533,-37.20271301269531
246214,0.036285400390625,-0.14935302734375,0.0065460205078125,1.135188698768616,0.0864912122488021,-0.1969527453184128,66.00393676757812,94.55232238769533,-37.20271301269531
246215,0.0532379150390625,-0.107330322265625,-0.009521484375,1.043523669242859,0.1168919950723648,-0.2205659300088882,65.79803466796875,94.385498046875,-38.05296325683594
246216,0.0532379150390625,-0.107330322265625,-0.009521484375,1.043523669242859,0.1168919950723648,-0.2205659300088882,65.79803466796875,94.385498046875,-38.05296325683594
246217,0.050628662109375,-0.0941162109375,-0.044769287109375,0.7022590637207031,-0.0626902803778648,-0.2925780713558197,65.61186218261719,94.26364135742188,-38.86531066894531
246218,0.0407562255859375,-0.075164794921875,0.0184173583984375,0.4435699880123138,-0.1680750250816345,-0.3516118228435516,65.52015686035156,94.2040557861328,-39.16658020019531
246219,0.0100250244140625,-0.0243072509765625,0.1237030029296875,0.1409690976142883,-0.1698806434869766,-0.4610453844070435,65.44825744628906,94.00338745117188,-39.13887023925781
246220,-0.0598602294921875,0.123443603515625,0.2722930908203125,-0.1915646344423294,-0.0255610197782516,-0.660650908946991,65.30342102050781,94.0601806640625,-39.37678527832031
246221,-0.0598602294921875,0.123443603515625,0.2722930908203125,-0.1915646344423294,-0.0255610197782516,-0.660650908946991,65.30342102050781,94.0601806640625,-39.37678527832031
246222,-0.1458587646484375,0.38580322265625,0.743499755859375,-1.236772298812866,0.9291529059410096,-1.153351902961731,64.89309692382812,94.41647338867188,-39.27427673339844
246223,-0.2420196533203125,0.594696044921875,0.98785400390625,-1.870152950286865,1.818884134292603,-1.499353051185608,64.5819091796875,94.7688446044922,-39.03968811035156
246224,-0.6228485107421875,1.68536376953125,1.1802978515625,-2.206923961639404,2.720465183258057,-2.330904483795166,64.35025024414062,95.3402862548828,-38.65823364257812
246225,-0.6228485107421875,1.68536376953125,1.1802978515625,-2.206923961639404,2.720465183258057,-2.330904483795166,64.35025024414062,95.3402862548828,-38.65823364257812
246226,-1.00506591796875,2.657180786132812,1.169662475585938,-1.049252390861511,2.031301021575928,-1.889931678771973,64.06675720214844,96.10211181640624,-38.09971618652344
246227,-1.455551147460938,4.70550537109375,1.169403076171875,-0.1864071637392044,0.7440453767776489,0.1375133842229843,63.70126342773438,97.8288116455078,-36.57656860351562
246228,-1.455551147460938,4.70550537109375,1.169403076171875,-0.1864071637392044,0.7440453767776489,0.1375133842229843,63.70126342773438,97.8288116455078,-36.57656860351562
246229,-1.17022705078125,4.807205200195312,0.9543304443359376,0.3112353682518005,0.5464318990707397,1.076281070709229,63.49627685546875,98.5789031982422,-35.87942504882812
246230,-0.3201446533203125,1.247344970703125,0.467559814453125,-1.289980888366699,-1.654746294021606,-0.5985920429229736,63.84617614746094,99.12669372558594,-35.76754760742188
246231,-0.0682373046875,0.6770782470703125,0.38995361328125,-1.487446069717407,-1.345533609390259,-0.5906257629394531,63.96879577636719,99.22425842285156,-35.58171081542969
246232,-0.0682373046875,0.6770782470703125,0.38995361328125,-1.487446069717407,-1.345533609390259,-0.5906257629394531,63.96879577636719,99.22425842285156,-35.58171081542969
246233,0.071380615234375,0.734344482421875,-0.0064849853515625,0.0313962735235691,0.3464197218418121,0.3208038508892059,63.25306701660156,99.30671691894533,-34.36605834960938
246234,0.0780792236328125,1.381393432617188,-1.31536865234375,0.0313962735235691,0.3464197218418121,0.3208038508892059,63.12022399902344,99.1796875,-33.8724365234375
246235,0.428680419921875,1.751434326171875,-2.59912109375,0.056591372936964,-2.882849216461182,-0.2570048868656158,63.24913024902344,99.06385803222656,-33.3404541015625
246236,0.428680419921875,1.751434326171875,-2.59912109375,0.056591372936964,-2.882849216461182,-0.2570048868656158,63.24913024902344,99.06385803222656,-33.3404541015625
246237,0.2362518310546875,1.632736206054688,-0.234405517578125,-0.2143130898475647,-2.238530874252319,0.0436321645975112,62.95094299316406,98.52500915527344,-32.97286987304688
246238,0.19744873046875,1.720779418945312,-0.129852294921875,-0.0274052582681179,-0.844305694103241,0.1105723157525063,62.05039978027344,98.68923950195312,-33.29141235351562
246239,0.2142333984375,1.766693115234375,-0.4199371337890625,0.085997462272644,-0.4045309722423553,-0.0642428994178772,61.23867797851562,98.79180908203124,-33.35627746582031
246240,0.1773223876953125,1.746139526367188,-0.614044189453125,0.1236561611294746,-0.6667769551277161,-0.3811417520046234,60.91958618164062,98.79376220703124,-33.37051391601562
246241,0.1773223876953125,1.746139526367188,-0.614044189453125,0.1236561611294746,-0.6667769551277161,-0.3811417520046234,60.91958618164062,98.79376220703124,-33.37051391601562
246242,0.1187286376953125,1.21636962890625,-0.3764190673828125,-0.0128153972327709,-1.743808627128601,-0.8952479362487793,60.49319458007812,98.634521484375,-33.50938415527344
246243,0.12542724609375,1.533859252929688,0.149261474609375,-0.0052861082367599,-1.230611085891724,-0.4285545349121094,59.99789428710938,98.524169921875,-33.55085754394531
246244,0.12542724609375,1.533859252929688,0.149261474609375,-0.0052861082367599,-1.230611085891724,-0.4285545349121094,59.99789428710938,98.524169921875,-33.55085754394531
246245,0.2444915771484375,1.845001220703125,-0.1270599365234375,0.3327198922634125,-0.2889979779720306,-0.0757059454917907,59.34771728515625,98.55125427246094,-33.76310729980469
246246,0.1663818359375,1.162078857421875,-0.3776702880859375,1.311109662055969,-0.1769502758979797,0.2055984288454056,58.50736999511719,98.49769592285156,-33.98435974121094
246247,0.0388336181640625,1.034210205078125,-0.0616455078125,1.673856973648071,0.0517393611371517,0.320543646812439,58.43061828613281,98.43382263183594,-34.34461975097656
246248,0.000640869140625,0.9455718994140624,0.12042236328125,1.734712600708008,0.344330221414566,0.3799145817756653,58.55271911621094,98.26747131347656,-34.86163330078125
246249,0.000640869140625,0.9455718994140624,0.12042236328125,1.734712600708008,0.344330221414566,0.3799145817756653,58.55271911621094,98.26747131347656,-34.86163330078125
246250,-0.127716064453125,0.7119140625,0.1576080322265625,1.278289675712585,0.785736620426178,0.2216045558452606,58.98599243164062,97.62037658691406,-36.34481811523438
246251,-0.2105865478515625,0.5710296630859375,0.08233642578125,0.7509965300559998,0.6811926364898682,-0.085109032690525,59.31607055664062,97.23959350585938,-37.07928466796875
246252,-0.3635711669921875,0.246124267578125,-0.0525054931640625,0.666252076625824,0.5435817837715149,-0.1667096167802811,59.85856628417969,96.59371948242188,-38.20077514648438
246253,-0.3635711669921875,0.246124267578125,-0.0525054931640625,0.666252076625824,0.5435817837715149,-0.1667096167802811,59.85856628417969,96.59371948242188,-38.20077514648438
246254,-0.3924560546875,0.0976104736328125,-0.1016845703125,0.6890044808387756,0.3999591171741486,-0.1689685136079788,60.1219482421875,96.43074035644533,-38.52145385742188
246255,-0.3978729248046875,-0.0257415771484375,-0.144195556640625,0.7660830616950989,0.2379134893417358,-0.1099946796894073,60.25724792480469,96.32389831542967,-38.71463012695312
246256,-0.3978729248046875,-0.0257415771484375,-0.144195556640625,0.7660830616950989,0.2379134893417358,-0.1099946796894073,60.25724792480469,96.32389831542967,-38.71463012695312
246257,-0.379150390625,-0.113372802734375,-0.1620025634765625,0.860293984413147,0.1054960638284683,-0.0266089737415313,60.21614074707031,96.19125366210938,-39.05355834960938
246258,-0.1842193603515625,-0.1710357666015625,-0.16375732421875,0.7842753529548645,0.1245512515306473,0.1733014732599258,60.21870422363281,95.73123168945312,-39.69078063964844
246259,-0.0611572265625,-0.1316680908203125,-0.1733551025390625,0.5500695109367371,0.0563370436429977,0.2523161470890045,60.23829650878906,95.70648193359376,-40.10914611816406
246260,0.035552978515625,-0.0716552734375,-0.1026763916015625,0.2851526439189911,-0.1080713421106339,0.3110886514186859,60.42738342285156,95.47581481933594,-40.37089538574219
246261,0.035552978515625,-0.0716552734375,-0.1026763916015625,0.2851526439189911,-0.1080713421106339,0.3110886514186859,60.42738342285156,95.47581481933594,-40.37089538574219
246262,0.084869384765625,0.2094573974609375,0.2751312255859375,-0.1367682367563248,-0.1261725872755051,0.4223909378051758,60.62030029296875,95.25593566894533,-40.93060302734375
246263,0.0738372802734375,0.3783111572265625,0.3704681396484375,-0.2445050776004791,0.0323342382907867,0.5158255100250244,60.69169616699219,95.29922485351562,-40.79731750488281
246264,0.0738372802734375,0.3783111572265625,0.3704681396484375,-0.2445050776004791,0.0323342382907867,0.5158255100250244,60.69169616699219,95.29922485351562,-40.79731750488281
246265,0.063446044921875,0.5416107177734375,0.4076690673828125,-0.314939558506012,0.111163541674614,0.5823702216148376,60.75619506835938,95.33132934570312,-40.800048828125
246266,0.0518035888671875,0.69384765625,0.4420013427734375,-0.4049384295940399,0.0908747762441635,0.6045389175415039,61.06527709960938,95.34085083007812,-40.68344116210938
246267,-0.0212554931640625,0.9464569091796876,0.5576019287109375,-0.8101450204849243,-0.1127806082367897,0.5491589903831482,61.5179443359375,95.49935913085938,-40.28092956542969
246268,-0.0212554931640625,0.9464569091796876,0.5576019287109375,-0.8101450204849243,-0.1127806082367897,0.5491589903831482,61.5179443359375,95.49935913085938,-40.28092956542969
246269,-0.08782958984375,0.9830169677734376,0.6202545166015625,-1.340376138687134,-0.2663139700889587,0.2717494964599609,61.75831604003906,95.45632934570312,-39.99357604980469
246270,-0.1690521240234375,0.861724853515625,0.67462158203125,-1.484923243522644,-0.175901785492897,0.0861708372831344,62.1641845703125,95.7616729736328,-38.96710205078125
246271,-0.158782958984375,0.782867431640625,0.6201629638671875,-1.568138003349304,-0.0525058172643184,-0.115571066737175,62.18240356445312,96.04742431640624,-38.40243530273438
246272,-0.128753662109375,0.6685791015625,0.5196075439453125,-1.643690466880798,0.0176895149052143,-0.2226008474826813,62.08526611328125,96.4420166015625,-37.98890686035156
246273,-0.128753662109375,0.6685791015625,0.5196075439453125,-1.643690466880798,0.0176895149052143,-0.2226008474826813,62.08526611328125,96.4420166015625,-37.98890686035156
246274,-0.088714599609375,0.6249237060546875,0.4228973388671875,-1.726084470748901,0.1066353693604469,-0.2884895801544189,61.94841003417969,96.95338439941406,-37.51629638671875
246275,-0.017547607421875,0.7059326171875,0.2866668701171875,-1.987734198570251,0.3344360291957855,-0.3534757792949677,61.72911071777344,97.85368347167967,-35.89653015136719
246276,-0.017547607421875,0.7059326171875,0.2866668701171875,-1.987734198570251,0.3344360291957855,-0.3534757792949677,61.72911071777344,97.85368347167967,-35.89653015136719
246277,-0.0607757568359375,0.809417724609375,0.209564208984375,-2.1572585105896,0.3444924056529999,-0.3827681541442871,61.60566711425781,98.109619140625,-35.06410217285156
246278,-0.1435089111328125,1.14276123046875,-0.061553955078125,-2.397583246231079,-0.3170083165168762,-0.4383970499038696,61.45213317871094,98.72976684570312,-32.75785827636719
246279,-0.1544189453125,1.428314208984375,-0.3489837646484375,-2.092055797576904,-1.10946249961853,-0.4163410365581512,61.1265869140625,99.08151245117188,-31.54689025878906
246280,-0.13629150390625,1.772109985351562,-0.3703765869140625,-1.404727697372437,-1.563975691795349,-0.3793369233608246,60.67123413085938,99.49464416503906,-30.51243591308594
246281,-0.13629150390625,1.772109985351562,-0.3703765869140625,-1.404727697372437,-1.563975691795349,-0.3793369233608246,60.67123413085938,99.49464416503906,-30.51243591308594
246282,0.05755615234375,2.130447387695312,-0.157928466796875,-0.0625315532088279,0.0075183701701462,-0.0818384066224098,59.3955078125,100.1202850341797,-29.14576721191406
246283,0.0992279052734375,2.150909423828125,-0.320892333984375,0.2749684453010559,0.6970003843307495,0.1118706092238426,58.98837280273438,100.3044738769531,-28.82804870605469
246284,0.0470733642578125,2.1466064453125,-0.3781890869140625,0.3680603206157684,0.9207959175109864,0.203961119055748,58.81178283691406,100.4037628173828,-28.73556518554688
246285,0.0470733642578125,2.1466064453125,-0.3781890869140625,0.3680603206157684,0.9207959175109864,0.203961119055748,58.81178283691406,100.4037628173828,-28.73556518554688
246286,0.0059661865234375,2.112380981445312,-0.3842926025390625,0.3313920497894287,0.9792240858078004,0.2783317565917969,58.92918395996094,100.4480133056641,-28.86795043945312
246287,0.119720458984375,1.939315795898438,-0.4609222412109375,0.3830166161060333,0.684706449508667,0.4335027039051056,59.35342407226562,100.2322998046875,-28.95831298828125
246288,0.197845458984375,1.799880981445312,-0.427825927734375,0.5000700354576111,0.7116184830665588,0.5973238348960876,59.61402893066406,100.1844024658203,-29.17131042480469
246289,0.1830902099609375,1.6932373046875,-0.3904876708984375,0.6271771192550659,0.8115442991256714,0.7479557394981384,59.97523498535156,99.99812316894533,-29.35746765136719
246290,0.15960693359375,1.554290771484375,-0.292449951171875,0.7519067525863647,0.9011884331703186,0.9479295611381532,60.52632141113281,99.7978973388672,-29.52085876464844
246291,0.180267333984375,1.44036865234375,-0.1860504150390625,0.7519067525863647,0.9011884331703186,0.9479295611381532,61.03657531738281,99.55842590332033,-29.90519714355469
246292,0.215240478515625,1.371566772460938,-0.153656005859375,0.7337746620178223,0.8243815302848816,1.014536499977112,61.58441162109375,99.32345581054688,-30.21708679199219
246293,0.215240478515625,1.371566772460938,-0.153656005859375,0.7337746620178223,0.8243815302848816,1.014536499977112,61.58441162109375,99.32345581054688,-30.21708679199219
246294,0.22601318359375,1.335861206054688,-0.053863525390625,0.6964616179466248,0.3991476595401764,1.015570402145386,62.90553283691406,98.85360717773438,-30.72755432128906
246295,0.209381103515625,1.327346801757812,0.0013885498046875,0.7344486713409424,0.1661447584629059,0.9647955894470216,63.56489562988281,98.53271484375,-30.94734191894531
246296,0.209381103515625,1.327346801757812,0.0013885498046875,0.7344486713409424,0.1661447584629059,0.9647955894470216,63.56489562988281,98.53271484375,-30.94734191894531
246297,0.219482421875,1.264053344726562,0.161651611328125,0.956534504890442,-0.1929172575473785,0.8523582816123962,64.74609375,97.8193817138672,-31.66212463378906
246298,0.200164794921875,1.21331787109375,0.2345733642578125,1.127560257911682,-0.3615906834602356,0.8080433011054993,65.25785827636719,97.49143981933594,-32.01231384277344
246299,0.192474365234375,1.135818481445312,0.254791259765625,1.258851528167725,-0.5792964100837708,0.7679147720336914,65.68083190917969,97.1501007080078,-32.49568176269531
246300,0.192474365234375,1.135818481445312,0.254791259765625,1.258851528167725,-0.5792964100837708,0.7679147720336914,65.68083190917969,97.1501007080078,-32.49568176269531
246301,0.1708526611328125,1.015365600585938,0.2848358154296875,1.20731794834137,-0.6984035968780518,0.6698028445243835,66.04750061035156,96.78341674804688,-33.05731201171875
246302,0.12847900390625,0.8097686767578125,0.2578125,1.024847745895386,-0.572556734085083,0.6308107376098633,66.496337890625,96.01123046875,-34.32318115234375
246303,0.0491943359375,0.732025146484375,0.2094879150390625,0.7736485600471497,-0.351732462644577,0.5685452222824097,66.72828674316406,95.78689575195312,-34.8917236328125
246304,0.0491943359375,0.732025146484375,0.2094879150390625,0.7736485600471497,-0.351732462644577,0.5685452222824097,66.72828674316406,95.78689575195312,-34.8917236328125
246305,-0.1069488525390625,0.5786285400390625,0.0877227783203125,0.1820124089717865,0.1105163916945457,0.3655582666397095,67.20307922363281,95.02207946777344,-35.82856750488281
246306,-0.1392974853515625,0.51507568359375,0.024871826171875,-0.0799350440502166,0.2953791916370392,0.3210360705852509,67.48251342773438,94.8273468017578,-35.93391418457031
246307,-0.1536865234375,0.4491729736328125,-0.017425537109375,-0.2239183187484741,0.4840271174907684,0.3085610270500183,67.71942138671875,94.71530151367188,-35.96951293945312
246308,-0.1536865234375,0.4491729736328125,-0.017425537109375,-0.2239183187484741,0.4840271174907684,0.3085610270500183,67.71942138671875,94.71530151367188,-35.96951293945312
246309,-0.15081787109375,0.40521240234375,-0.034423828125,-0.2066482454538345,0.6231110095977783,0.311455100774765,67.91152954101562,94.7009735107422,-35.76254272460938
246310,-0.1568450927734375,0.3836669921875,0.0046844482421875,0.2117391526699066,0.7502034306526184,0.3033143281936646,68.54953002929688,94.5586395263672,-35.45005798339844
246311,-0.14056396484375,0.4087371826171875,0.0351715087890625,0.3984861373901367,0.7850708365440369,0.2697534561157227,68.86991882324219,94.41647338867188,-35.24142456054688
246312,-0.099334716796875,0.4546966552734375,0.053863525390625,0.1936885118484497,0.6415719985961914,0.1334291696548462,69.10537719726562,94.39144897460938,-35.32035827636719
246313,-0.099334716796875,0.4546966552734375,0.053863525390625,0.1936885118484497,0.6415719985961914,0.1334291696548462,69.10537719726562,94.39144897460938,-35.32035827636719
246314,-0.02545166015625,0.5874481201171875,0.081817626953125,-0.0203369632363319,0.617092490196228,0.0575852654874324,69.52238464355469,94.32493591308594,-35.40689086914062
246315,0.0102386474609375,0.6326141357421875,0.0504913330078125,-0.1987863332033157,0.6014930605888367,-0.1009109020233154,69.69978332519531,94.15748596191406,-35.32162475585938
246316,0.0504302978515625,0.6810302734375,0.0628204345703125,-0.1987863332033157,0.6014930605888367,-0.1009109020233154,69.75833129882812,94.1416015625,-35.19990539550781
246317,0.0504302978515625,0.6810302734375,0.0628204345703125,-0.1987863332033157,0.6014930605888367,-0.1009109020233154,69.75833129882812,94.1416015625,-35.19990539550781
246318,0.1293792724609375,0.7538604736328125,0.1602783203125,-0.2664045095443726,0.7200974225997925,-0.2210516929626465,69.72921752929688,94.51203918457033,-34.86012268066406
246319,0.1708526611328125,0.7667083740234375,0.1872711181640625,-0.3434628248214722,0.7307823300361633,-0.2772321403026581,69.77796936035156,94.57940673828124,-34.83444213867188
246320,0.1708526611328125,0.7667083740234375,0.1872711181640625,-0.3434628248214722,0.7307823300361633,-0.2772321403026581,69.77796936035156,94.57940673828124,-34.83444213867188
246321,0.1850433349609375,0.7516937255859375,0.189666748046875,-0.5139309763908386,0.5700411200523376,-0.384381502866745,69.76582336425781,94.74942016601562,-34.49105834960938
246322,0.1173858642578125,0.705780029296875,0.1487884521484375,-0.5692623853683472,0.4519794583320618,-0.4397776424884796,69.65464782714844,95.1054229736328,-34.01750183105469
246323,0.06146240234375,0.6932220458984375,0.145294189453125,-0.5983030796051025,0.3796615600585938,-0.5075263381004333,69.54373168945312,95.24720764160156,-33.55149841308594
246324,0.06146240234375,0.6932220458984375,0.145294189453125,-0.5983030796051025,0.3796615600585938,-0.5075263381004333,69.54373168945312,95.24720764160156,-33.55149841308594
246325,-0.0282745361328125,0.6395416259765625,0.143951416015625,-0.6422516703605652,0.2758480906486511,-0.6434751152992249,69.15150451660156,95.60418701171876,-32.94129943847656
246326,-0.047760009765625,0.6358184814453125,0.1597442626953125,-0.6873445510864258,0.2269604504108429,-0.6908237338066101,69.00076293945312,95.8856201171875,-32.58760070800781
246327,-0.0529327392578125,0.6628570556640625,0.171600341796875,-0.7790603637695312,0.1671655625104904,-0.7375962734222412,68.66404724121094,96.20513916015624,-32.1151123046875
246328,-0.0529327392578125,0.6628570556640625,0.171600341796875,-0.7790603637695312,0.1671655625104904,-0.7375962734222412,68.66404724121094,96.20513916015624,-32.1151123046875
246329,-0.053802490234375,0.7924041748046875,0.21435546875,-1.110943198204041,0.0950540751218795,-0.8245631456375122,68.04769897460938,96.79826354980467,-31.32705688476562
246330,-0.0502471923828125,0.9137115478515624,0.216217041015625,-1.290277004241943,0.1108695268630981,-0.8539556264877319,67.59788513183594,97.16619873046876,-30.756591796875
246331,-0.0270538330078125,1.069091796875,0.159942626953125,-1.422555923461914,0.129655197262764,-0.8538534045219421,67.28849792480469,97.38948059082033,-30.28874206542969
246332,-0.0270538330078125,1.069091796875,0.159942626953125,-1.422555923461914,0.129655197262764,-0.8538534045219421,67.28849792480469,97.38948059082033,-30.28874206542969
246333,-0.0159454345703125,1.31689453125,0.0038299560546875,-1.068628787994385,-0.1071573421359062,-0.8442041873931885,66.76515197753906,97.82518005371094,-29.7940673828125
246334,0.0304412841796875,1.712738037109375,-0.2217254638671875,-0.7327114939689636,-0.3246380090713501,-0.7858895063400269,65.76667785644531,98.7110595703125,-28.49774169921875
246335,0.02166748046875,1.737579345703125,-0.182647705078125,-0.4236945509910583,-0.1378327012062073,-0.5398970246315002,65.16557312011719,99.0699462890625,-27.95278930664062
246336,0.02166748046875,1.737579345703125,-0.182647705078125,-0.4236945509910583,-0.1378327012062073,-0.5398970246315002,65.16557312011719,99.0699462890625,-27.95278930664062
246337,0.009735107421875,1.692108154296875,-0.26202392578125,-0.0878105461597442,0.2137538343667984,-0.2985821664333344,64.63665771484375,99.41517639160156,-27.64974975585938
246338,0.0413970947265625,1.561431884765625,-0.3441619873046875,-0.0878105461597442,0.2137538343667984,-0.2985821664333344,64.161376953125,99.57913208007812,-27.45304870605469
246339,0.1361083984375,1.150894165039062,-0.3410797119140625,0.110739566385746,-0.1057101860642433,-0.2171384394168854,63.75361633300781,99.82713317871094,-27.16275024414062
246340,0.1361083984375,1.150894165039062,-0.3410797119140625,0.110739566385746,-0.1057101860642433,-0.2171384394168854,63.75361633300781,99.82713317871094,-27.16275024414062
246341,0.1424713134765625,1.096267700195312,-0.3572845458984375,0.2527784705162048,-0.1928866356611252,-0.1684523969888687,63.61460876464844,99.87686157226562,-27.09043884277344
246342,0.1080169677734375,1.077911376953125,-0.4848480224609375,0.570387601852417,-0.1992963254451752,-0.0908103287220001,63.54112243652344,99.81297302246094,-27.23892211914062
246343,0.088470458984375,1.119369506835938,-0.5115966796875,0.659612238407135,-0.1895534247159958,-0.0547197051346302,63.4852294921875,99.86048889160156,-27.49763488769531
246344,0.088470458984375,1.119369506835938,-0.5115966796875,0.659612238407135,-0.1895534247159958,-0.0547197051346302,63.4852294921875,99.86048889160156,-27.49763488769531
246345,0.07421875,1.180587768554688,-0.4882354736328125,0.6891669631004333,-0.214772492647171,-0.0281277745962142,63.40127563476562,99.78318786621094,-27.76507568359375
246346,0.0567169189453125,1.330169677734375,-0.3672332763671875,0.7104994058609009,-0.242197722196579,0.0212672054767608,63.3150634765625,99.61691284179688,-28.52137756347656
246347,0.05792236328125,1.408599853515625,-0.2722625732421875,0.7019608020782471,-0.2514585852622986,0.0563583485782146,63.35182189941406,99.58316040039062,-28.75193786621094
246348,0.05792236328125,1.408599853515625,-0.2722625732421875,0.7019608020782471,-0.2514585852622986,0.0563583485782146,63.35182189941406,99.58316040039062,-28.75193786621094
246349,0.055267333984375,1.4630126953125,-0.152587890625,0.6833863258361816,-0.1999924778938293,0.1034709960222244,63.31272888183594,99.55789184570312,-29.12210083007812
246350,0.0467376708984375,1.517807006835938,0.0062408447265625,0.7745148539543152,-0.1712015718221664,0.2309562563896179,63.36045837402344,99.438232421875,-29.936279296875
246351,0.0411376953125,1.53228759765625,0.06573486328125,1.004307389259338,-0.3624500930309296,0.3454713821411133,63.53053283691406,99.17127990722656,-30.22854614257812
246352,0.0330963134765625,1.537765502929688,0.1279754638671875,1.101168632507324,-0.3993884027004242,0.3734657168388367,63.62258911132812,98.98867797851562,-30.54580688476562
246353,0.0346527099609375,1.536453247070312,0.1796417236328125,1.101168632507324,-0.3993884027004242,0.3734657168388367,63.77851867675781,98.7829132080078,-31.2108154296875
246354,0.039337158203125,1.499191284179688,0.162689208984375,1.137181758880615,-0.3579650521278381,0.3653060793876648,63.89480590820312,98.5497589111328,-31.87583923339844
246355,0.026153564453125,1.428054809570312,0.086273193359375,1.115431189537048,-0.3172453343868256,0.2992261052131653,64.0765380859375,98.29132080078124,-32.42288208007812
246356,0.026153564453125,1.428054809570312,0.086273193359375,1.115431189537048,-0.3172453343868256,0.2992261052131653,64.0765380859375,98.29132080078124,-32.42288208007812
246357,-0.0169677734375,1.348892211914062,0.032440185546875,0.9449928998947144,-0.2475565373897552,0.0570246689021587,64.16416931152344,98.07650756835938,-32.99557495117188
246358,-0.06964111328125,1.17156982421875,0.0543975830078125,0.8842166066169739,-0.1547333896160126,-0.0347984619438648,64.31024169921875,97.68399047851562,-34.09523010253906
246359,-0.05914306640625,1.07574462890625,0.03973388671875,0.7717622518539429,-0.1322384625673294,-0.2038735002279282,64.29447937011719,97.65196228027344,-34.79150390625
246360,-0.05914306640625,1.07574462890625,0.03973388671875,0.7717622518539429,-0.1322384625673294,-0.2038735002279282,64.29447937011719,97.65196228027344,-34.79150390625
246361,-0.0641937255859375,0.8798980712890625,-0.061065673828125,0.7541981339454651,-0.2743404805660248,-0.2323277741670609,64.35496520996094,97.37059020996094,-35.72340393066406
246362,-0.0633697509765625,0.83013916015625,-0.090240478515625,0.7465285062789917,-0.4504515826702118,-0.2580184936523438,64.21537780761719,97.10862731933594,-35.98171997070312
246363,-0.0589447021484375,0.7940216064453125,-0.0998077392578125,0.7280113101005554,-0.5851031541824341,-0.2982037365436554,64.08607482910156,97.09490966796876,-36.24223327636719
246364,-0.0589447021484375,0.7940216064453125,-0.0998077392578125,0.7280113101005554,-0.5851031541824341,-0.2982037365436554,64.08607482910156,97.09490966796876,-36.24223327636719
246365,-0.0630340576171875,0.7723541259765625,-0.050567626953125,0.4335900545120239,-0.3662520349025726,-0.283361405134201,63.74282836914062,96.96803283691406,-36.91403198242188
246366,-0.082489013671875,0.80548095703125,-0.0106048583984375,0.276755154132843,-0.2200231701135635,-0.2331429719924927,63.56776428222656,96.82574462890624,-37.25541687011719
246367,-0.109649658203125,0.8521728515625,0.0314788818359375,0.1333559304475784,-0.0873636677861213,-0.1917526572942734,63.29689025878906,96.68988037109376,-37.56393432617188
246368,-0.13470458984375,0.8926849365234375,0.077362060546875,0.1333559304475784,-0.0873636677861213,-0.1917526572942734,63.12590026855469,96.5795440673828,-37.88389587402344
246369,-0.13470458984375,0.8926849365234375,0.077362060546875,0.1333559304475784,-0.0873636677861213,-0.1917526572942734,63.12590026855469,96.5795440673828,-37.88389587402344
246370,-0.1462554931640625,0.856048583984375,0.1100921630859375,-0.1237855926156044,0.1989676952362061,-0.0724150761961937,62.97805786132812,96.66781616210938,-37.90620422363281
246371,-0.1328277587890625,0.8164520263671875,0.1232147216796875,-0.1237855926156044,0.1989676952362061,-0.0724150761961937,62.94659423828125,96.61949157714844,-37.65536499023438
246372,-0.1063079833984375,0.7421112060546875,0.1405487060546875,-0.1782925128936768,0.2373473048210144,-0.0378781408071517,62.96102905273438,96.5700225830078,-37.56407165527344
246373,-0.1063079833984375,0.7421112060546875,0.1405487060546875,-0.1782925128936768,0.2373473048210144,-0.0378781408071517,62.96102905273438,96.5700225830078,-37.56407165527344
246374,-0.0939178466796875,0.66192626953125,0.1694488525390625,-0.2250901013612747,0.2625360190868378,-0.0278974119573831,63.03872680664062,96.6085968017578,-37.85813903808594
246375,-0.0883941650390625,0.4877166748046875,0.2226715087890625,-0.3255924880504608,0.2796606719493866,-0.0147959906607866,63.32083129882812,96.49078369140624,-37.776611328125
246376,-0.0883941650390625,0.4877166748046875,0.2226715087890625,-0.3255924880504608,0.2796606719493866,-0.0147959906607866,63.32083129882812,96.49078369140624,-37.776611328125
246377,-0.079345703125,0.4303436279296875,0.219085693359375,-0.3463811278343201,0.2520317137241364,-0.0205718539655208,63.39070129394531,96.48942565917967,-37.45819091796875
246378,-0.023834228515625,0.46710205078125,0.210174560546875,-0.3903754651546478,0.1077746674418449,-0.0267099067568779,63.64057922363281,96.48838806152344,-37.192138671875
246379,0.0178985595703125,0.555328369140625,0.1947479248046875,-0.5899061560630798,-0.2830207943916321,-0.1935020834207535,63.7230224609375,96.51412963867188,-37.04443359375
246380,0.0178985595703125,0.555328369140625,0.1947479248046875,-0.5899061560630798,-0.2830207943916321,-0.1935020834207535,63.7230224609375,96.51412963867188,-37.04443359375
246381,0.0397491455078125,0.647308349609375,0.1848602294921875,-0.7297026515007019,-0.4153245091438293,-0.3174818158149719,63.66909790039062,96.6341552734375,-36.53744506835938
246382,0.0520477294921875,0.714080810546875,0.115478515625,-0.7297026515007019,-0.4153245091438293,-0.3174818158149719,63.485107421875,96.83137512207033,-36.34547424316406
246383,0.0830535888671875,0.80963134765625,-0.0092620849609375,-0.6804701685905457,-0.3523998558521271,-0.3189449608325958,63.19296264648438,96.90652465820312,-36.07917785644531
246384,0.0830535888671875,0.80963134765625,-0.0092620849609375,-0.6804701685905457,-0.3523998558521271,-0.3189449608325958,63.19296264648438,96.90652465820312,-36.07917785644531
246385,0.1002197265625,0.923797607421875,-0.1522064208984375,-0.5942108631134033,-0.317399799823761,-0.3295480608940125,62.91571044921875,97.16935729980467,-36.00216674804688
246386,0.0395050048828125,1.020401000976562,-0.1072998046875,-0.5468068718910217,0.0611360594630241,-0.332677811384201,62.32550048828125,97.69947814941406,-35.42242431640625
246387,-0.0260162353515625,1.003372192382812,-0.0838775634765625,-0.6308932900428772,0.2528184056282043,-0.2942577302455902,62.09271240234375,97.8008270263672,-35.19544982910156
246388,-0.084716796875,0.99090576171875,-0.0411834716796875,-0.7192037105560303,0.1690643876791,-0.2497914582490921,61.87164306640625,97.98379516601562,-34.86064147949219
246389,-0.084716796875,0.99090576171875,-0.0411834716796875,-0.7192037105560303,0.1690643876791,-0.2497914582490921,61.87164306640625,97.98379516601562,-34.86064147949219
246390,-0.18487548828125,1.104598999023438,0.079620361328125,-0.7456022500991821,0.2258624285459518,-0.1764498651027679,61.62229919433594,98.2110595703125,-34.16598510742188
246391,-0.193145751953125,1.188186645507812,-0.0059661865234375,-0.6499806642532349,0.3720363974571228,-0.1513548940420151,61.60328674316406,98.3594207763672,-33.87675476074219
246392,-0.193145751953125,1.188186645507812,-0.0059661865234375,-0.6499806642532349,0.3720363974571228,-0.1513548940420151,61.60328674316406,98.3594207763672,-33.87675476074219
246393,-0.18829345703125,1.234786987304688,-0.183685302734375,-0.3379093408584595,0.4659892618656158,-0.0573706142604351,61.665283203125,98.43547058105467,-33.55412292480469
246394,-0.1530609130859375,1.172378540039062,-0.4126434326171875,-0.2136140167713165,0.5500785708427429,0.0228059794753789,61.43830871582031,98.83998107910156,-33.08613586425781
246395,-0.1206817626953125,1.133697509765625,-0.407958984375,-0.2007006108760834,0.5730595588684082,0.0755530819296836,61.49642944335938,98.86929321289062,-32.77012634277344
246396,-0.0761871337890625,1.08917236328125,-0.3286590576171875,-0.2614425122737885,0.568968653678894,0.113374225795269,61.568115234375,98.9238739013672,-32.49122619628906
246397,-0.0761871337890625,1.08917236328125,-0.3286590576171875,-0.2614425122737885,0.568968653678894,0.113374225795269,61.568115234375,98.9238739013672,-32.49122619628906
246398,0.0295562744140625,0.994171142578125,-0.2499237060546875,-0.2515794932842255,0.6557123064994812,0.1312959641218185,61.81277465820312,98.95718383789062,-32.29879760742188
246399,0.074737548828125,0.95538330078125,-0.2628631591796875,-0.1468581557273865,0.6713964939117432,0.1532215029001236,61.96379089355469,98.85247802734376,-31.97402954101562
246400,0.1070709228515625,0.9391632080078124,-0.2776031494140625,-0.0453134179115295,0.6693650484085083,0.1798736304044724,62.17434692382812,98.85041809082033,-31.72563171386719
246401,0.1070709228515625,0.9391632080078124,-0.2776031494140625,-0.0453134179115295,0.6693650484085083,0.1798736304044724,62.17434692382812,98.85041809082033,-31.72563171386719
246402,0.145111083984375,0.918243408203125,-0.2723846435546875,0.0081791002303361,0.6474184393882751,0.2234128415584564,62.47416687011719,98.79421997070312,-31.2689208984375
246403,0.1561737060546875,0.9240875244140624,-0.2572174072265625,-0.0222602989524602,0.6285190582275391,0.2567966282367706,62.65516662597656,98.70571899414062,-31.15567016601562
246404,0.1561737060546875,0.9240875244140624,-0.2572174072265625,-0.0222602989524602,0.6285190582275391,0.2567966282367706,62.65516662597656,98.70571899414062,-31.15567016601562
246405,0.1649627685546875,0.9539642333984376,-0.260528564453125,-0.0457312688231468,0.6013383269309998,0.2985619306564331,62.93997192382812,98.7216796875,-31.14732360839844
246406,0.17584228515625,1.003036499023438,-0.2773895263671875,0.01087262108922,0.5695316195487976,0.3908266127109528,63.14863586425781,98.59123229980467,-31.07756042480469
246407,0.1696624755859375,1.131439208984375,-0.2652740478515625,0.0815390646457672,0.5845431089401245,0.4142176806926727,63.67623901367188,98.56878662109376,-30.84980773925781
246408,0.1444549560546875,1.183395385742188,-0.21563720703125,0.1993333399295807,0.7102850079536438,0.3720428049564362,63.84257507324219,98.55862426757812,-30.79879760742188
246409,0.1444549560546875,1.183395385742188,-0.21563720703125,0.1993333399295807,0.7102850079536438,0.3720428049564362,63.84257507324219,98.55862426757812,-30.79879760742188
246410,0.0485076904296875,1.219818115234375,-0.116485595703125,0.2550453543663025,0.7852239608764648,0.3197327256202698,64.4320068359375,98.4657745361328,-30.76637268066406
246411,-0.0306854248046875,1.20501708984375,-0.0765380859375,0.3048413991928101,0.8243719339370728,0.247257187962532,64.70085144042969,98.34873962402344,-30.71449279785156
246412,-0.1216278076171875,1.165512084960938,-0.04559326171875,0.3521647155284882,0.8117613196372986,0.1461188644170761,64.95185852050781,98.04403686523438,-30.64109802246094
246413,-0.1216278076171875,1.165512084960938,-0.04559326171875,0.3521647155284882,0.8117613196372986,0.1461188644170761,64.95185852050781,98.04403686523438,-30.64109802246094
246414,-0.1903839111328125,1.093154907226562,-0.05731201171875,0.300217866897583,0.6859679818153381,0.1178091913461685,65.50460815429688,98.02578735351562,-30.79225158691406
246415,-0.156707763671875,1.0545654296875,0.008880615234375,0.1779827773571014,0.5409945249557495,0.110687367618084,65.75576782226562,97.94569396972656,-30.96614074707031
246416,-0.1134490966796875,1.00225830078125,0.14349365234375,0.022007830440998,0.4829445481300354,0.1059621199965477,65.98551940917969,97.82183837890624,-30.91781616210938
246417,-0.1134490966796875,1.00225830078125,0.14349365234375,0.022007830440998,0.4829445481300354,0.1059621199965477,65.98551940917969,97.82183837890624,-30.91781616210938
246418,-0.102996826171875,0.911468505859375,0.30419921875,-0.1689421534538269,0.7581268548965454,0.1723177134990692,66.38267517089844,97.73274230957033,-30.92697143554688
246419,-0.1012725830078125,0.9012298583984376,0.2438812255859375,-0.1138943433761597,0.7830154299736023,0.2305972576141357,66.57987976074219,97.66513061523438,-30.80693054199219
246420,-0.1012725830078125,0.9012298583984376,0.2438812255859375,-0.1138943433761597,0.7830154299736023,0.2305972576141357,66.57987976074219,97.66513061523438,-30.80693054199219
246421,-0.0948638916015625,0.928924560546875,0.174102783203125,0.4623138308525085,0.3713253438472748,0.2220916599035263,67.16891479492188,97.46891784667967,-30.48040771484375
246422,-0.050201416015625,0.9769134521484376,0.2158355712890625,0.4623138308525085,0.3713253438472748,0.2220916599035263,67.37556457519531,97.5673828125,-30.44174194335938
246423,-0.0358428955078125,1.028732299804688,0.2187652587890625,0.5535721182823181,0.4314499497413635,0.2025121003389359,67.53005981445312,97.49446105957033,-30.46685791015625
246424,-0.022216796875,1.102020263671875,0.204010009765625,0.5333017110824585,0.4116653203964233,0.0627283602952957,67.56900024414062,97.47915649414062,-30.48674011230469
246425,0.0173187255859375,1.1668701171875,0.1462554931640625,0.3495811820030212,0.2658047676086426,-0.0542190298438072,67.6817626953125,97.3956298828125,-30.71366882324219
246426,0.0612945556640625,1.190444946289062,0.08599853515625,0.0948729813098907,0.1976121366024017,-0.1573531329631805,67.85072326660156,97.29820251464844,-30.968994140625
246427,0.063323974609375,1.167327880859375,0.0651092529296875,0.0948729813098907,0.1976121366024017,-0.1573531329631805,67.780517578125,97.291748046875,-31.23616027832031
246428,0.0446014404296875,1.098968505859375,0.055023193359375,-0.1551554948091507,0.2505605816841125,-0.2247295081615448,67.63829040527344,97.31903076171876,-31.271240234375
246429,0.0446014404296875,1.098968505859375,0.055023193359375,-0.1551554948091507,0.2505605816841125,-0.2247295081615448,67.63829040527344,97.31903076171876,-31.271240234375
246430,0.001556396484375,1.043243408203125,-0.0180206298828125,-0.3181726336479187,0.2681384980678558,-0.3034490942955017,67.49136352539062,97.53829956054688,-31.05973815917969
246431,0.0292510986328125,1.005630493164062,-0.0252838134765625,-0.1690406799316406,0.0047801076434552,-0.3347750604152679,67.5714111328125,97.6075439453125,-30.89262390136719
246432,0.062408447265625,0.9513397216796876,0.00653076171875,-7.962851668708026e-05,-0.191332682967186,-0.3482304215431213,67.43992614746094,97.69754028320312,-30.94061279296875
246433,0.062408447265625,0.9513397216796876,0.00653076171875,-7.962851668708026e-05,-0.191332682967186,-0.3482304215431213,67.43992614746094,97.69754028320312,-30.94061279296875
246434,0.0672454833984375,0.9052581787109376,-0.01025390625,0.1105217188596725,-0.3050278127193451,-0.3520797491073608,67.22962951660156,97.84112548828124,-30.83607482910156
246435,0.0069580078125,0.810882568359375,-0.050048828125,0.1106282398104668,-0.5155043601989746,-0.4207131266593933,66.79563903808594,97.89762878417967,-30.80587768554688
246436,0.0069580078125,0.810882568359375,-0.050048828125,0.1106282398104668,-0.5155043601989746,-0.4207131266593933,66.79563903808594,97.89762878417967,-30.80587768554688
246437,-0.116668701171875,0.7851409912109375,-0.1136322021484375,-0.050567302852869,-0.6065945625305176,-0.5591503977775574,66.29318237304688,97.93814086914062,-30.81381225585938
246438,-0.149993896484375,0.8159637451171875,-0.1357574462890625,-0.1259768456220627,-0.5489600300788879,-0.5900174975395203,65.96615600585938,98.16395568847656,-30.84330749511719
246439,-0.155548095703125,0.869293212890625,-0.1442718505859375,-0.2021078318357468,-0.4432357549667358,-0.5781933069229126,65.57948303222656,98.43405151367188,-31.01329040527344
246440,-0.155548095703125,0.869293212890625,-0.1442718505859375,-0.2021078318357468,-0.4432357549667358,-0.5781933069229126,65.57948303222656,98.43405151367188,-31.01329040527344
246441,-0.1787261962890625,1.031356811523438,-0.1136932373046875,-0.4357589185237885,-0.2568384408950806,-0.4695232808589935,64.73225402832031,98.8664093017578,-31.02066040039062
246442,-0.2226409912109375,1.132843017578125,-0.0673980712890625,-0.4357589185237885,-0.2568384408950806,-0.4695232808589935,64.52055358886719,98.8856964111328,-30.89912414550781
246443,-0.292694091796875,1.235244750976562,-0.0195465087890625,-0.4708463549613953,-0.2876421809196472,-0.4050103425979614,64.26277160644531,99.06797790527344,-30.45686340332031
246444,-0.3634185791015625,1.3192138671875,0.018341064453125,-0.4315207898616791,-0.2467424124479294,-0.4108969867229462,64.04219055175781,99.14436340332033,-29.905517578125
246445,-0.428741455078125,1.442581176757812,0.0276031494140625,-0.4315207898616791,-0.2467424124479294,-0.4108969867229462,63.77192687988281,99.39642333984376,-29.51460266113281
246446,-0.4425201416015625,1.483917236328125,-0.07110595703125,-0.3738175332546234,-0.2735527157783508,-0.4060772061347961,63.61532592773438,99.5118408203125,-29.28341674804688
246447,-0.338165283203125,1.278717041015625,-0.14495849609375,-0.2534940540790558,-0.4721153378486633,-0.3275839984416962,63.44755554199219,99.82606506347656,-29.52479553222656
246448,-0.1774749755859375,1.112747192382812,-0.0923614501953125,-0.0633092001080513,-0.4617140889167786,-0.2119873613119125,63.15061950683594,99.99185180664062,-29.63525390625
246449,-0.10565185546875,1.108230590820312,-0.064453125,0.168562114238739,-0.2608062922954559,-0.1084966510534286,62.99765014648438,100.0415954589844,-29.64710998535156
246450,-0.0915069580078125,1.093551635742188,-0.1064910888671875,0.3377809822559357,-0.0267642363905906,-0.026446521282196,62.90238952636719,100.0403442382812,-29.65147399902344
246451,-0.073455810546875,1.016860961914062,-0.175262451171875,0.3377809822559357,-0.0267642363905906,-0.026446521282196,62.82870483398438,100.1214141845703,-29.77607727050781
246452,-0.073455810546875,1.016860961914062,-0.175262451171875,0.3377809822559357,-0.0267642363905906,-0.026446521282196,62.82870483398438,100.1214141845703,-29.77607727050781
246453,-0.048797607421875,0.9385528564453124,-0.2137298583984375,0.2660069167613983,-0.0646146759390831,-0.0164388939738273,62.76527404785156,100.0174102783203,-29.84297180175781
246454,-0.0400238037109375,0.8849334716796875,-0.2102203369140625,0.2198013365268707,-0.0799233242869377,-0.0066722836345434,62.77473449707031,99.9961395263672,-29.98883056640625
246455,-0.0251617431640625,0.8074188232421875,-0.1990966796875,0.2855111062526703,-0.0993140712380409,0.0505838133394718,62.73068237304688,99.72445678710938,-30.22821044921875
246456,-0.0251617431640625,0.8074188232421875,-0.1990966796875,0.2855111062526703,-0.0993140712380409,0.0505838133394718,62.73068237304688,99.72445678710938,-30.22821044921875
246457,-0.00128173828125,0.78497314453125,-0.1932525634765625,0.3928050696849823,-0.1318855881690979,0.0782745629549026,62.75389099121094,99.6035614013672,-30.20413208007812
246458,0.0256195068359375,0.7498931884765625,-0.181121826171875,0.5926936864852905,-0.0383623018860817,0.1608956754207611,62.85342407226562,99.60676574707033,-30.42070007324219
246459,0.08770751953125,0.7064361572265625,-0.188751220703125,0.6592980027198792,0.0727924481034278,0.232705682516098,62.93080139160156,99.25930786132812,-30.78822326660156
246460,0.13665771484375,0.6915283203125,-0.205352783203125,0.7257638573646545,0.1016464680433273,0.3204097151756287,62.98468017578125,99.16375732421876,-30.98399353027344
246461,0.13665771484375,0.6915283203125,-0.205352783203125,0.7257638573646545,0.1016464680433273,0.3204097151756287,62.98468017578125,99.16375732421876,-30.98399353027344
246462,0.24005126953125,0.7447052001953125,-0.172149658203125,0.7215675115585327,-0.0969268158078193,0.4637996256351471,63.28091430664062,98.87751770019533,-31.50767517089844
246463,0.27276611328125,0.7751922607421875,-0.1111602783203125,0.6251200437545776,-0.1997946053743362,0.506588339805603,63.41557312011719,98.63629150390624,-31.91427612304688
246464,0.27276611328125,0.7751922607421875,-0.1111602783203125,0.6251200437545776,-0.1997946053743362,0.506588339805603,63.41557312011719,98.63629150390624,-31.91427612304688
246465,0.2967376708984375,0.8144073486328125,-0.03387451171875,0.4849251508712769,-0.2220381200313568,0.5171542167663574,63.58650207519531,98.50369262695312,-32.25466918945312
246466,0.260986328125,1.068649291992188,0.1042327880859375,0.1950046420097351,-0.0138039626181125,0.2471181750297546,63.94895935058594,98.32754516601562,-32.60038757324219
246467,0.201263427734375,1.2679443359375,0.140472412109375,0.0322972200810909,0.0098712723702192,-0.354796439409256,64.13798522949219,98.12245178222656,-32.73468017578125
246468,0.098480224609375,1.35394287109375,0.1499481201171875,0.0653939172625541,-0.1893683224916458,-0.5782105922698975,64.27153015136719,98.07046508789062,-32.69096374511719
246469,0.098480224609375,1.35394287109375,0.1499481201171875,0.0653939172625541,-0.1893683224916458,-0.5782105922698975,64.27153015136719,98.07046508789062,-32.69096374511719
246470,-0.022491455078125,1.3604736328125,0.083831787109375,0.3338671922683716,-0.8315757513046265,-0.8160524964332581,64.16705322265625,98.08740234375,-32.73495483398438
246471,-0.05010986328125,1.266189575195312,0.0862579345703125,0.50239497423172,-0.9455193877220154,-0.7615327835083008,63.96612548828125,98.11618041992188,-32.66743469238281
246472,-0.05010986328125,1.266189575195312,0.0862579345703125,0.50239497423172,-0.9455193877220154,-0.7615327835083008,63.96612548828125,98.11618041992188,-32.66743469238281
246473,-0.07232666015625,1.02557373046875,0.0760498046875,0.6621103286743164,-0.8184397220611572,-0.6352978944778442,62.99502563476562,98.40878295898438,-33.43528747558594
246474,-0.08990478515625,0.952606201171875,0.008514404296875,0.7823834419250488,-0.5348117351531982,-0.5249447226524353,62.58773803710938,98.5526885986328,-33.79920959472656
246475,-0.132659912109375,0.932891845703125,-0.0927886962890625,0.798206090927124,-0.0667563900351524,-0.5249042510986328,62.22348022460938,98.39059448242188,-34.05145263671875
246476,-0.28521728515625,1.046218872070312,-0.180267333984375,0.4484017491340637,0.1637122333049774,-0.5392571091651917,61.47372436523438,98.34234619140624,-34.88140869140625
246477,-0.28521728515625,1.046218872070312,-0.180267333984375,0.4484017491340637,0.1637122333049774,-0.5392571091651917,61.47372436523438,98.34234619140624,-34.88140869140625
246478,-0.3494873046875,1.13531494140625,-0.148193359375,0.1554926484823227,0.2395390868186951,-0.4700327515602112,61.23463439941406,98.32275390625,-35.11418151855469
246479,-0.386138916015625,1.21136474609375,-0.1107940673828125,-0.1040209382772446,0.2102967798709869,-0.4063725471496582,61.03254699707031,98.43597412109376,-35.58171081542969
246480,-0.379150390625,1.273574829101562,-0.0279693603515625,-0.211023285984993,0.133261114358902,-0.3964767754077911,60.85707092285156,98.43888854980467,-35.90660095214844
246481,-0.379150390625,1.273574829101562,-0.0279693603515625,-0.211023285984993,0.133261114358902,-0.3964767754077911,60.85707092285156,98.43888854980467,-35.90660095214844
246482,-0.328582763671875,1.298370361328125,0.05865478515625,-0.211023285984993,0.133261114358902,-0.3964767754077911,60.71278381347656,98.44418334960938,-36.02020263671875
246483,-0.1704559326171875,1.176803588867188,0.111480712890625,0.0606899783015251,-0.2964601516723633,-0.1780938357114792,60.53971862792969,98.4735870361328,-35.82278442382812
246484,-0.1704559326171875,1.176803588867188,0.111480712890625,0.0606899783015251,-0.2964601516723633,-0.1780938357114792,60.53971862792969,98.4735870361328,-35.82278442382812
246485,-0.0974273681640625,1.109878540039062,0.1655731201171875,0.0606899783015251,-0.2964601516723633,-0.1780938357114792,60.37095642089844,98.47476196289062,-35.79527282714844
246486,-0.052703857421875,0.98382568359375,0.1522369384765625,-0.0617033131420612,0.0074438014999032,0.0404685959219932,60.06121826171875,98.56072998046876,-35.90130615234375
246487,-0.04638671875,0.917755126953125,0.156982421875,-0.0617033131420612,0.0074438014999032,0.0404685959219932,60.03340148925781,98.35986328125,-35.92913818359375
246488,-0.04638671875,0.917755126953125,0.156982421875,-0.0617033131420612,0.0074438014999032,0.0404685959219932,60.03340148925781,98.35986328125,-35.92913818359375
246489,-0.0562744140625,0.7212066650390625,0.16571044921875,-0.1446804851293564,-0.0012205267557874,0.001610946143046,60.12767028808594,98.2934112548828,-35.87196350097656
246490,-0.0751800537109375,0.62469482421875,0.165679931640625,-0.2149093747138977,0.0130524188280105,0.0180852599442005,60.20083618164062,98.32159423828124,-35.75883483886719
246491,-0.0856781005859375,0.5747833251953125,0.158966064453125,-0.3187204599380493,0.0801670104265213,0.0509129799902439,60.20256042480469,98.32501220703124,-35.72944641113281
246492,-0.0708160400390625,0.584716796875,0.11865234375,-0.4529986381530762,0.1825490444898605,0.0485534220933914,60.22491455078125,98.26248168945312,-35.60520935058594
246493,-0.0708160400390625,0.584716796875,0.11865234375,-0.4529986381530762,0.1825490444898605,0.0485534220933914,60.22491455078125,98.26248168945312,-35.60520935058594
246494,-0.0176544189453125,0.6904754638671875,-0.1072845458984375,-0.7098570466041565,0.3420188426971436,-0.0222349986433982,60.26789855957031,98.21612548828124,-35.17919921875
246495,0.013153076171875,0.7465667724609375,-0.3048095703125,-0.7584317922592163,0.1550556272268295,-0.0598305761814117,60.28337097167969,98.2871551513672,-34.85926818847656
246496,0.0616607666015625,0.8155364990234375,-0.429046630859375,-0.7498905062675476,-0.1606216430664062,-0.0849889293313026,60.32112121582031,98.41943359375,-34.51731872558594
246497,0.0616607666015625,0.8155364990234375,-0.429046630859375,-0.7498905062675476,-0.1606216430664062,-0.0849889293313026,60.32112121582031,98.41943359375,-34.51731872558594
246498,0.1394805908203125,1.0784912109375,-0.227874755859375,-0.7037498950958252,-0.2148912698030472,-0.0944111868739128,60.16725158691406,98.72763061523438,-33.73619079589844
246499,0.124114990234375,1.217681884765625,-0.0969390869140625,-0.7232306599617004,0.0968826040625572,-0.2080272287130356,59.99136352539062,98.88473510742188,-33.50990295410156
246500,-0.0218505859375,1.2550048828125,0.0627288818359375,-0.6959473490715027,0.0799238607287406,-0.2052833735942841,59.73574829101562,99.20008850097656,-32.79014587402344
246501,-0.0218505859375,1.2550048828125,0.0627288818359375,-0.6959473490715027,0.0799238607287406,-0.2052833735942841,59.73574829101562,99.20008850097656,-32.79014587402344
246502,-0.12310791015625,1.24786376953125,0.1015472412109375,-0.4613239467144012,0.168955460190773,-0.1840209662914276,59.72540283203125,99.2778778076172,-32.44352722167969
246503,-0.209869384765625,1.206832885742188,0.054229736328125,-0.4613239467144012,0.168955460190773,-0.1840209662914276,59.63629150390625,99.44012451171876,-32.10540771484375
246504,-0.209869384765625,1.206832885742188,0.054229736328125,-0.4613239467144012,0.168955460190773,-0.1840209662914276,59.63629150390625,99.44012451171876,-32.10540771484375
246505,-0.20330810546875,0.999542236328125,-0.2586212158203125,-0.0070866714231669,0.3649691939353943,-0.0266811456531286,59.51251220703125,99.66592407226562,-31.51066589355469
246506,-0.143463134765625,0.9678955078125,-0.3729400634765625,0.15983547270298,0.4610347151756287,0.054818507283926,59.52166748046875,99.81341552734376,-31.26516723632812
246507,-0.0747833251953125,0.9281768798828124,-0.4050445556640625,0.2252837121486664,0.5134731531143188,0.0975598469376564,59.54112243652344,99.816162109375,-31.22309875488281
246508,-0.0149993896484375,0.87591552734375,-0.3695831298828125,0.1881123781204224,0.5277277231216431,0.1402460634708405,59.59938049316406,99.87379455566406,-31.37202453613281
246509,-0.0149993896484375,0.87591552734375,-0.3695831298828125,0.1881123781204224,0.5277277231216431,0.1402460634708405,59.59938049316406,99.87379455566406,-31.37202453613281
246510,0.1148834228515625,0.8262786865234375,-0.253387451171875,0.0377228781580925,0.3762567341327667,0.2033350169658661,59.85554504394531,99.9023895263672,-31.65116882324219
246511,0.1732635498046875,0.820465087890625,-0.1944427490234375,0.0278460122644901,0.2546668946743011,0.2337688207626343,60.01487731933594,99.82931518554688,-31.56680297851562
246512,0.1732635498046875,0.820465087890625,-0.1944427490234375,0.0278460122644901,0.2546668946743011,0.2337688207626343,60.01487731933594,99.82931518554688,-31.56680297851562
246513,0.211029052734375,0.8253631591796875,-0.14404296875,0.0629499405622482,0.1628562957048416,0.2640279233455658,60.22164916992188,99.7756805419922,-31.59941101074219
246514,0.242156982421875,0.8479461669921875,-0.1235504150390625,0.1472014337778091,0.04464603215456,0.2746861577033997,60.578857421875,99.65838623046876,-31.59423828125
246515,0.2463531494140625,0.8589935302734375,-0.133270263671875,0.1817061454057693,-0.0244765803217887,0.2621088325977325,60.68025207519531,99.56431579589844,-31.5648193359375
246516,0.2463531494140625,0.8589935302734375,-0.133270263671875,0.1817061454057693,-0.0244765803217887,0.2621088325977325,60.68025207519531,99.56431579589844,-31.5648193359375
246517,0.24237060546875,0.86663818359375,-0.127899169921875,0.2176281958818436,-0.0856930688023567,0.2394453436136246,60.887939453125,99.4974365234375,-31.55220031738281
246518,0.190643310546875,0.8674163818359375,-0.0648345947265625,0.2635120749473572,-0.2278392910957336,0.1858897060155869,61.09596252441406,99.54005432128906,-31.7886962890625
246519,0.1356048583984375,0.8741912841796875,-0.014923095703125,0.2607767283916473,-0.2909727096557617,0.1613612025976181,61.19601440429688,99.44932556152344,-31.91065979003906
246520,0.0728912353515625,0.88775634765625,0.032745361328125,0.1862066239118576,-0.3271618783473969,0.0951241180300712,61.29701232910156,99.42678833007812,-32.16633605957031
246521,0.0728912353515625,0.88775634765625,0.032745361328125,0.1862066239118576,-0.3271618783473969,0.0951241180300712,61.29701232910156,99.42678833007812,-32.16633605957031
246522,-0.020751953125,0.91021728515625,0.0576019287109375,0.1222492158412933,-0.3507902324199677,0.0568907149136066,61.51153564453125,99.22535705566406,-32.24774169921875
246523,-0.043975830078125,0.939178466796875,0.0291748046875,0.0645393133163452,-0.4319692552089691,0.0130204604938626,61.53392028808594,99.28591918945312,-32.39266967773438
246524,-0.043975830078125,0.939178466796875,0.0291748046875,0.0645393133163452,-0.4319692552089691,0.0130204604938626,61.53392028808594,99.28591918945312,-32.39266967773438
246525,-0.11474609375,1.10284423828125,0.0990142822265625,-0.0747022032737731,-0.2545776963233948,-0.2928057610988617,61.56515502929688,99.26092529296876,-32.71626281738281
246526,-0.1986236572265625,1.163238525390625,0.12652587890625,-0.0747022032737731,-0.2545776963233948,-0.2928057610988617,61.45333862304688,99.32249450683594,-32.78021240234375
246527,-0.270477294921875,1.188629150390625,0.0984039306640625,-0.0960724726319313,-0.1803532689809799,-0.4385866820812225,61.43392944335938,99.24317932128906,-32.74137878417969
246528,-0.270477294921875,1.188629150390625,0.0984039306640625,-0.0960724726319313,-0.1803532689809799,-0.4385866820812225,61.43392944335938,99.24317932128906,-32.74137878417969
246529,-0.3509063720703125,1.088409423828125,0.002960205078125,9.560748003423214e-05,-0.1331500709056854,-0.4790917634963989,61.13438415527344,99.35472106933594,-32.77099609375
246530,-0.3316802978515625,1.036666870117188,-0.0124969482421875,0.13813816010952,0.0284657292068004,-0.3475132286548615,60.87196350097656,99.45895385742188,-32.647705078125
246531,-0.3014373779296875,1.011245727539062,-0.0319671630859375,0.2833952307701111,0.122667595744133,-0.2351826876401901,60.70701599121094,99.4159698486328,-32.50151062011719
246532,-0.3014373779296875,1.011245727539062,-0.0319671630859375,0.2833952307701111,0.122667595744133,-0.2351826876401901,60.70701599121094,99.4159698486328,-32.50151062011719
246533,-0.3029632568359375,0.9680023193359376,0.0050811767578125,0.3647278845310211,0.1046225503087044,-0.1407214254140854,60.54019165039062,99.43815612792967,-32.47647094726562
246534,-0.3017578125,0.9910888671875,0.021575927734375,0.2892453968524933,0.1635614931583405,-0.0128324413672089,60.29420471191406,99.46231079101562,-33.00627136230469
246535,-0.2743072509765625,1.055648803710938,-0.015106201171875,0.1630906462669373,0.2255660146474838,0.0148282144218683,60.30778503417969,99.34092712402344,-33.07925415039062
246536,-0.2141571044921875,1.1173095703125,-0.0447845458984375,0.0266523826867342,0.3228496909141541,0.0320503450930118,60.31861877441406,99.31320190429688,-33.20280456542969
246537,-0.2141571044921875,1.1173095703125,-0.0447845458984375,0.0266523826867342,0.3228496909141541,0.0320503450930118,60.31861877441406,99.31320190429688,-33.20280456542969
246538,-0.0972900390625,1.198333740234375,-0.1306610107421875,-0.0287751890718936,0.4482086896896362,0.0608212724328041,60.33119201660156,99.25929260253906,-33.39874267578125
246539,-0.0623321533203125,1.227249145507812,-0.1163177490234375,0.0206991527229547,0.4032153785228729,0.0556270442903041,60.37353515625,99.23756408691406,-33.23738098144531
246540,-0.0623321533203125,1.227249145507812,-0.1163177490234375,0.0206991527229547,0.4032153785228729,0.0556270442903041,60.37353515625,99.23756408691406,-33.23738098144531
246541,-0.004669189453125,1.27569580078125,-0.02520751953125,0.0184157583862543,0.0759855806827545,-0.0215348526835441,60.52165222167969,99.21690368652344,-33.18391418457031
246542,0.035003662109375,1.29876708984375,-0.00079345703125,0.0184157583862543,0.0759855806827545,-0.0215348526835441,60.55926513671875,99.24229431152344,-33.31425476074219
246543,0.041961669921875,1.300125122070312,0.0138397216796875,0.0420430563390255,-0.0075993300415575,-0.0813734158873558,60.61257934570312,99.24641418457033,-33.19189453125
246544,0.0097503662109375,1.202072143554688,-0.0036468505859375,0.2866474688053131,-0.1643407344818115,-0.2563537657260895,60.53785705566406,99.12818908691406,-33.13900756835938
246545,-0.0509185791015625,1.058425903320312,-0.0030670166015625,0.3796868622303009,-0.1743089556694031,-0.324835330247879,60.49835205078125,99.12750244140624,-33.18035888671875
246546,-0.110931396484375,0.9849395751953124,0.001556396484375,0.3796868622303009,-0.1743089556694031,-0.324835330247879,60.44294738769531,99.0790557861328,-33.23362731933594
246547,-0.1437225341796875,0.9092864990234376,-0.0275115966796875,0.4018276035785675,-0.1952951997518539,-0.3468253314495087,60.33290100097656,99.09515380859376,-33.24591064453125
246548,-0.14849853515625,0.7746124267578125,-0.06475830078125,0.3894774615764618,-0.2378415912389755,-0.2713340222835541,59.95358276367188,99.013427734375,-33.63356018066406
246549,-0.14849853515625,0.7746124267578125,-0.06475830078125,0.3894774615764618,-0.2378415912389755,-0.2713340222835541,59.95358276367188,99.013427734375,-33.63356018066406
246550,-0.1509857177734375,0.752655029296875,-0.0833587646484375,0.3813880980014801,-0.207263171672821,-0.1969314366579056,59.77685546875,98.98887634277344,-33.7427978515625
246551,-0.1525726318359375,0.7589874267578125,-0.10552978515625,0.311229795217514,-0.165664330124855,-0.0590888857841491,59.69990539550781,98.89674377441406,-33.89706420898438
246552,-0.159210205078125,0.7806396484375,-0.1291046142578125,0.311229795217514,-0.165664330124855,-0.0590888857841491,59.62759399414062,98.81056213378906,-34.09811401367188
246553,-0.159210205078125,0.7806396484375,-0.1291046142578125,0.311229795217514,-0.165664330124855,-0.0590888857841491,59.62759399414062,98.81056213378906,-34.09811401367188
246554,-0.1873321533203125,0.8610076904296875,-0.1931304931640625,0.2032508552074432,-0.1920679807662964,-0.012312326580286,59.47779846191406,98.87077331542967,-34.52685546875
246555,-0.1861114501953125,0.9384918212890624,-0.2201385498046875,0.1504973620176315,-0.2236312329769135,-0.0153808202594518,59.40583801269531,98.8408660888672,-34.59127807617188
246556,-0.15130615234375,1.017471313476562,-0.2467041015625,0.1071152687072754,-0.3132639229297638,0.0116931414231658,59.3740234375,98.83563232421876,-34.64810180664062
246557,-0.090484619140625,1.083938598632812,-0.265838623046875,0.1071152687072754,-0.3132639229297638,0.0116931414231658,59.27680969238281,98.92878723144533,-34.85652160644531
246558,-0.0439453125,1.127410888671875,-0.2340240478515625,0.1117803305387497,-0.4312246441841125,0.0212368462234735,59.26762390136719,98.98162841796876,-35.08235168457031
246559,-0.0300750732421875,1.124603271484375,-0.14862060546875,0.0876419693231582,-0.5209486484527588,0.0182977803051471,59.19961547851562,99.0080108642578,-35.16246032714844
246560,-0.0400543212890625,1.09185791015625,-0.0552215576171875,0.0115743642672896,-0.5905623435974121,0.0278598610311746,59.16435241699219,99.0030517578125,-35.20529174804688
246561,-0.0604400634765625,1.071121215820312,0.0311737060546875,-0.0781930685043335,-0.6402412056922913,0.0513598583638668,59.02281188964844,98.95553588867188,-35.31472778320312
246562,-0.0735931396484375,1.061355590820312,0.0854339599609375,-0.1344896405935287,-0.6515575647354126,0.0528339184820652,58.98847961425781,98.978515625,-35.46812438964844
246563,-0.0715179443359375,1.050613403320312,0.090087890625,-0.1478120982646942,-0.65594083070755,0.0500993877649307,58.87399291992188,99.0231475830078,-35.39794921875
246564,-0.0617523193359375,1.035614013671875,0.0811920166015625,-0.176183819770813,-0.7154438495635986,0.0556352995336055,58.82113647460938,99.1066436767578,-35.46073913574219
246565,-0.060821533203125,1.029434204101562,0.109619140625,-0.4012715220451355,-0.8197641372680664,0.0616263449192047,58.70137023925781,99.06062316894533,-35.41966247558594
246566,-0.0849761962890625,1.01763916015625,0.1675872802734375,-0.4698484539985657,-0.7122805118560791,0.0422648973762989,58.648193359375,99.09982299804688,-35.38533020019531
246567,-0.11907958984375,1.003738403320312,0.1819915771484375,-0.4605689346790314,-0.5626814365386963,0.0171912368386983,58.57952880859375,99.181640625,-35.26911926269531
246568,-0.139312744140625,1.004241943359375,0.100677490234375,-0.4605689346790314,-0.5626814365386963,0.0171912368386983,58.47067260742188,99.15826416015624,-34.89749145507812
246569,-0.1405029296875,0.999969482421875,-0.031402587890625,-0.3778548836708069,-0.4486017525196075,0.015352857299149,58.40480041503906,99.2729949951172,-34.76365661621094
246570,-0.1185302734375,0.984832763671875,-0.192596435546875,-0.2448494285345078,-0.3890068829059601,0.0393711067736148,58.26322937011719,99.42909240722656,-34.46726989746094
246571,-0.0754852294921875,0.9664764404296876,-0.3406982421875,-0.0735083073377609,-0.4216212630271912,0.0904963463544845,58.29631042480469,99.3260498046875,-34.01069641113281
246572,-0.0116119384765625,0.942901611328125,-0.414520263671875,0.1163670867681503,-0.4432426691055298,0.1796437948942184,58.23802185058594,99.22834777832033,-33.5487060546875
246573,-0.0116119384765625,0.942901611328125,-0.414520263671875,0.1163670867681503,-0.4432426691055298,0.1796437948942184,58.23802185058594,99.22834777832033,-33.5487060546875
246574,0.0273590087890625,0.907440185546875,-0.413604736328125,0.2642947733402252,-0.4574855268001556,0.2606782019138336,58.27224731445312,99.36181640625,-33.95933532714844
246575,-0.006378173828125,0.83660888671875,-0.249114990234375,0.2216857820749283,-0.4922879934310913,0.2180537730455399,58.27915954589844,99.1945343017578,-34.64398193359375
246576,-0.018463134765625,0.819488525390625,-0.2148590087890625,0.0699934661388397,-0.4555549919605255,0.0002846919232979,58.25640869140625,99.09976196289062,-34.66163635253906
246577,0.002288818359375,0.840240478515625,-0.2688140869140625,0.0699934661388397,-0.4555549919605255,0.0002846919232979,58.29374694824219,98.96316528320312,-34.84214782714844
246578,0.0437164306640625,0.86572265625,-0.3563385009765625,0.1111246570944786,-0.5291059017181396,-0.0525628104805946,58.29725646972656,98.97926330566406,-34.83372497558594
246579,0.0672454833984375,0.8979949951171875,-0.4175872802734375,0.412249356508255,-0.646528422832489,-0.0686158090829849,58.23399353027344,99.03076171875,-34.83427429199219
246580,0.0650177001953125,0.916107177734375,-0.43975830078125,0.412249356508255,-0.646528422832489,-0.0686158090829849,58.08815002441406,99.03407287597656,-34.92198181152344
246581,0.0650177001953125,0.916107177734375,-0.43975830078125,0.412249356508255,-0.646528422832489,-0.0686158090829849,58.08815002441406,99.03407287597656,-34.92198181152344
246582,0.01025390625,0.8501434326171875,-0.416015625,0.6809455156326294,-0.6396931409835815,-0.0310841500759124,57.83624267578125,98.85430908203124,-35.17622375488281
246583,-0.0116119384765625,0.7729034423828125,-0.386627197265625,0.7473852634429932,-0.6264215707778931,0.0067151607945561,57.71932983398438,98.7763671875,-35.41459655761719
246584,-0.014404296875,0.7223663330078125,-0.3521881103515625,0.7628656625747681,-0.6095743775367737,0.0451815910637378,57.55404663085938,98.72711181640624,-35.78117370605469
246585,-0.014404296875,0.7223663330078125,-0.3521881103515625,0.7628656625747681,-0.6095743775367737,0.0451815910637378,57.55404663085938,98.72711181640624,-35.78117370605469
246586,0.0167999267578125,0.7524871826171875,-0.282806396484375,0.6577576398849487,-0.6050078868865967,0.1134671717882156,57.29931640625,98.48577880859376,-36.38139343261719
246587,0.025726318359375,0.8149261474609375,-0.23492431640625,0.4829980731010437,-0.6885946393013,0.1321846693754196,57.21786499023438,98.285400390625,-36.7093505859375
246588,0.0212860107421875,0.8831634521484375,-0.1468963623046875,0.4376790821552277,-0.6898695230484009,0.1578532755374908,57.26387023925781,98.13162231445312,-37.09825134277344
246589,0.0212860107421875,0.8831634521484375,-0.1468963623046875,0.4376790821552277,-0.6898695230484009,0.1578532755374908,57.26387023925781,98.13162231445312,-37.09825134277344
246590,-0.021942138671875,1.031341552734375,0.01806640625,0.4318605959415436,-0.6755659580230713,0.2086432278156281,57.209228515625,97.69781494140624,-37.75198364257812
246591,-0.0117950439453125,1.084793090820312,0.062225341796875,0.4406298398971558,-0.6145457029342651,0.2687201499938965,57.13700866699219,97.70542907714844,-38.11216735839844
246592,0.0196380615234375,1.136154174804688,0.0429840087890625,0.458730012178421,-0.537667989730835,0.303843230009079,56.96101379394531,97.54533386230467,-38.35874938964844
246593,0.0196380615234375,1.136154174804688,0.0429840087890625,0.458730012178421,-0.537667989730835,0.303843230009079,56.96101379394531,97.54533386230467,-38.35874938964844
246594,0.071136474609375,1.204849243164062,-0.1399688720703125,0.5514218807220459,-0.7599313855171204,0.2902131974697113,57.03898620605469,97.3527374267578,-38.89125061035156
246595,0.070709228515625,1.237960815429688,-0.177886962890625,0.6418095827102661,-0.9360939264297484,0.2635131180286407,56.96443176269531,97.25389099121094,-39.12596130371094
246596,0.045440673828125,1.243194580078125,-0.125274658203125,0.6956847906112671,-1.095631957054138,0.2019733339548111,56.68716430664062,97.11610412597656,-39.76358032226562
246597,0.045440673828125,1.243194580078125,-0.125274658203125,0.6956847906112671,-1.095631957054138,0.2019733339548111,56.68716430664062,97.11610412597656,-39.76358032226562
246598,0.011749267578125,1.213821411132812,-0.080963134765625,0.6579267382621765,-1.150360703468323,0.20464688539505,56.58633422851562,96.90443420410156,-40.11061096191406
246599,-0.034515380859375,1.184417724609375,-0.02716064453125,0.6195849776268005,-1.233322978019714,0.1885126531124115,56.47317504882812,96.75355529785156,-40.45857238769531
246600,-0.0917205810546875,1.118820190429688,0.0367279052734375,0.5920491814613342,-1.326777815818787,0.1584812551736832,56.33842468261719,96.53665161132812,-40.89120483398438
246601,-0.152374267578125,1.056060791015625,0.099578857421875,0.5672570466995239,-1.307976722717285,0.1513519734144211,56.1480712890625,96.2776336669922,-41.22119140625
246602,-0.2039337158203125,1.037429809570312,0.131439208984375,0.5122649073600769,-1.182459235191345,0.184648409485817,56.06134033203125,96.04400634765624,-41.4056396484375
246603,-0.2434539794921875,1.049407958984375,0.1231689453125,0.4265361428260803,-1.016898512840271,0.2226080447435379,55.82586669921875,95.960693359375,-42.22463989257812
246604,-0.3070068359375,1.062423706054688,0.077362060546875,0.1675551682710648,-0.757044792175293,0.2513656616210938,55.40461730957031,95.81382751464844,-42.74809265136719
246605,-0.3070068359375,1.062423706054688,0.077362060546875,0.1675551682710648,-0.757044792175293,0.2513656616210938,55.40461730957031,95.81382751464844,-42.74809265136719
246606,-0.308807373046875,1.031753540039062,0.0590362548828125,0.0344325415790081,-0.6532438397407532,0.2510018646717072,55.33341979980469,95.82681274414062,-42.99385070800781
246607,-0.287017822265625,0.9752349853515624,0.0347900390625,-0.0601506903767585,-0.6069234609603882,0.2381707578897476,55.30296325683594,95.80081176757812,-43.09153747558594
246608,-0.204681396484375,0.8154144287109375,0.033935546875,-0.1981476992368698,-0.5819648504257202,0.2728120982646942,55.28675842285156,95.6686553955078,-43.21943664550781
246609,-0.204681396484375,0.8154144287109375,0.033935546875,-0.1981476992368698,-0.5819648504257202,0.2728120982646942,55.28675842285156,95.6686553955078,-43.21943664550781
246610,-0.1402740478515625,0.8388824462890625,0.0424957275390625,-0.2664572596549988,-0.4705826938152313,0.3626317381858826,55.2493896484375,95.68473815917967,-43.23970031738281
246611,-0.0708465576171875,0.90863037109375,0.011932373046875,-0.3210920095443726,-0.3778860569000244,0.409608006477356,55.25558471679688,95.78265380859376,-43.05679321289062
246612,-0.023773193359375,0.928497314453125,-0.0384674072265625,-0.3655968904495239,-0.377735048532486,0.3910915851593018,55.20643615722656,95.85409545898438,-42.99879455566406
246613,-0.01043701171875,0.937774658203125,-0.073516845703125,-0.3921792209148407,-0.3989492654800415,0.3709213435649872,55.31986999511719,95.94464111328124,-42.82177734375
246614,-0.0132293701171875,0.9881134033203124,-0.1135406494140625,-0.4068359434604645,-0.4132629334926605,0.3527034521102905,55.37594604492188,96.03790283203124,-42.70803833007812
246615,-0.0041351318359375,1.0731201171875,-0.1863250732421875,-0.4082863032817841,-0.5203949809074402,0.3051756322383881,55.33743286132812,96.18849182128906,-42.50546264648438
246616,0.0230865478515625,1.173492431640625,-0.247711181640625,-0.3771102726459503,-0.6942389607429504,0.2554911673069,55.33573913574219,96.25129699707033,-42.26203918457031
246617,0.0230865478515625,1.173492431640625,-0.247711181640625,-0.3771102726459503,-0.6942389607429504,0.2554911673069,55.33573913574219,96.25129699707033,-42.26203918457031
246618,0.0886383056640625,1.367660522460938,-0.28497314453125,-0.2184636294841766,-0.9526736736297609,0.1810366362333298,55.19427490234375,96.4272918701172,-42.19314575195312
246619,0.1018524169921875,1.42510986328125,-0.26776123046875,-0.1697466969490051,-0.9792086482048036,0.1364827454090118,54.96470642089844,96.51617431640624,-42.01313781738281
246620,0.098602294921875,1.448760986328125,-0.2441253662109375,-0.1706162095069885,-0.9202814102172852,0.0801776573061943,54.81167602539062,96.47198486328124,-41.90484619140625
246621,0.098602294921875,1.448760986328125,-0.2441253662109375,-0.1706162095069885,-0.9202814102172852,0.0801776573061943,54.81167602539062,96.47198486328124,-41.90484619140625
246622,0.0239410400390625,1.427963256835938,-0.2550506591796875,-0.2462268173694611,-0.6854190826416016,0.0408331826329231,54.44021606445312,96.52354431152344,-41.69163513183594
246623,-0.0482177734375,1.364395141601562,-0.29705810546875,-0.2294337302446365,-0.5928881168365479,0.066246397793293,54.18544006347656,96.58465576171876,-41.59628295898438
246624,-0.10797119140625,1.265350341796875,-0.3419647216796875,-0.149207592010498,-0.5436619520187378,0.1099070608615875,54.04710388183594,96.64085388183594,-41.56913757324219
246625,-0.1217041015625,1.14044189453125,-0.3581085205078125,-0.05150793120265,-0.5235705375671387,0.1309883743524551,53.99838256835938,96.59864807128906,-41.60147094726562
246626,-0.1165771484375,1.005966186523438,-0.3356781005859375,0.0223857332020998,-0.514879584312439,0.1349136084318161,54.01705932617188,96.56608581542967,-41.55314636230469
246627,-0.1128387451171875,0.85650634765625,-0.30023193359375,0.0668168440461158,-0.5202447772026062,0.1238918527960777,53.96333312988281,96.6363525390625,-41.41641235351562
246628,-0.1077728271484375,0.711273193359375,-0.2804718017578125,0.0911341682076454,-0.5331973433494568,0.0997217968106269,53.98924255371094,96.61692810058594,-41.49473571777344
246629,-0.1077728271484375,0.711273193359375,-0.2804718017578125,0.0911341682076454,-0.5331973433494568,0.0997217968106269,53.98924255371094,96.61692810058594,-41.49473571777344
246630,-0.0534515380859375,0.4992828369140625,-0.2666778564453125,0.0734864696860313,-0.5133557319641113,0.0635177195072174,53.77388000488281,96.51939392089844,-41.54782104492188
246631,-0.00360107421875,0.455047607421875,-0.2576751708984375,0.0429775603115558,-0.4787295758724213,0.0659571811556816,53.73495483398438,96.46914672851562,-41.61190795898438
246632,0.10400390625,0.5061798095703125,-0.201141357421875,-0.0108364019542932,-0.415014237165451,0.1236604228615761,53.47586059570312,96.53623962402344,-41.622314453125
246633,0.10400390625,0.5061798095703125,-0.201141357421875,-0.0108364019542932,-0.415014237165451,0.1236604228615761,53.47586059570312,96.53623962402344,-41.622314453125
246634,0.146728515625,0.5860595703125,-0.1649322509765625,-0.0207907650619745,-0.3691404759883881,0.1869312673807144,53.39498901367188,96.36624145507812,-41.45770263671875
246635,0.1658477783203125,0.6681365966796875,-0.1265411376953125,0.0006849650526419,-0.3176376223564148,0.2766632735729218,53.47314453125,96.28790283203124,-41.47616577148438
246636,0.17657470703125,0.7414703369140625,-0.0887603759765625,0.017405355349183,-0.2486617416143417,0.348182201385498,53.40687561035156,96.31541442871094,-41.61553955078125
246637,0.17657470703125,0.7414703369140625,-0.0887603759765625,0.017405355349183,-0.2486617416143417,0.348182201385498,53.40687561035156,96.31541442871094,-41.61553955078125
246638,0.1754913330078125,0.8581695556640625,-0.0436859130859375,0.050467699766159,-0.1818310469388962,0.3012226819992065,53.59053039550781,96.2895965576172,-41.80775451660156
246639,0.1527099609375,0.8813018798828125,-0.04046630859375,0.0171225275844335,-0.1733507513999939,0.2113977372646332,53.6248779296875,96.30885314941406,-41.71896362304688
246640,0.103057861328125,0.9045257568359376,-0.01702880859375,-0.158324658870697,-0.00192093802616,0.1214374825358391,53.7977294921875,96.3767547607422,-41.80068969726562
246641,0.103057861328125,0.9045257568359376,-0.01702880859375,-0.158324658870697,-0.00192093802616,0.1214374825358391,53.7977294921875,96.3767547607422,-41.80068969726562
246642,0.0795135498046875,1.150360107421875,0.1153564453125,-0.2128427624702454,0.0371569544076919,0.0897136405110359,53.91542053222656,96.20709228515624,-41.69389343261719
246643,0.0891571044921875,1.201171875,0.1784210205078125,-0.1969751119613647,-0.0075258268043398,0.0707423463463783,53.99844360351562,96.3599853515625,-41.70269775390625
246644,0.0957183837890625,1.212646484375,0.216064453125,-0.1454719752073288,-0.1049301475286484,0.0812650248408317,54.02883911132812,96.4796905517578,-41.600830078125
246645,0.0957183837890625,1.212646484375,0.216064453125,-0.1454719752073288,-0.1049301475286484,0.0812650248408317,54.02883911132812,96.4796905517578,-41.600830078125
246646,0.14385986328125,1.168228149414062,0.142669677734375,0.0049039446748793,-0.1993985921144485,0.1132770255208015,54.15716552734375,96.54629516601562,-41.43418884277344
246647,0.1457061767578125,1.137374877929688,0.080657958984375,0.0827939510345459,-0.2371219992637634,0.1492933481931686,54.15821838378906,96.58657836914062,-41.37098693847656
246648,0.1203765869140625,1.096435546875,0.07171630859375,0.1577368974685669,-0.2501776218414307,0.2058538347482681,54.13180541992188,96.657958984375,-41.350830078125
246649,0.1203765869140625,1.096435546875,0.07171630859375,0.1577368974685669,-0.2501776218414307,0.2058538347482681,54.13180541992188,96.657958984375,-41.350830078125
246650,0.04290771484375,1.035614013671875,0.125457763671875,0.2315599918365479,-0.2113194316625595,0.3169420063495636,54.26130676269531,96.65602111816406,-41.39305114746094
246651,0.0105438232421875,0.981475830078125,0.1001739501953125,0.1709453761577606,-0.1658305078744888,0.3535114526748657,54.29725646972656,96.553466796875,-41.38426208496094
246652,-0.000640869140625,0.908447265625,0.006195068359375,0.0934953317046165,-0.1390329897403717,0.3897743821144104,54.35882568359375,96.46018981933594,-41.510009765625
246653,-0.000640869140625,0.908447265625,0.006195068359375,0.0934953317046165,-0.1390329897403717,0.3897743821144104,54.35882568359375,96.46018981933594,-41.510009765625
246654,0.0896759033203125,0.7912750244140625,-0.2022247314453125,0.0888979136943817,-0.2470057904720306,0.4511434733867645,54.61227416992188,96.34397888183594,-41.61428833007812
246655,0.16558837890625,0.7677001953125,-0.2446746826171875,0.1536372303962708,-0.2990863025188446,0.4709153175354004,54.732177734375,96.23793029785156,-41.60356140136719
246656,0.2231292724609375,0.801116943359375,-0.2387542724609375,0.2182391285896301,-0.4488757848739624,0.3809209764003754,55.02714538574219,96.27259826660156,-41.61532592773438
246657,0.2231292724609375,0.801116943359375,-0.2387542724609375,0.2182391285896301,-0.4488757848739624,0.3809209764003754,55.02714538574219,96.27259826660156,-41.61532592773438
246658,0.1991729736328125,0.8513336181640625,-0.2037811279296875,0.2047334313392639,-0.5080669522285461,0.2771991193294525,55.1527099609375,96.19088745117188,-41.6832275390625
246659,0.1466827392578125,0.9036865234375,-0.17156982421875,0.189727321267128,-0.5720754861831665,0.12925785779953,55.22366333007812,96.12078857421876,-41.77125549316406
246660,0.0688934326171875,0.9385223388671876,-0.13751220703125,0.2226748913526535,-0.7962856888771057,-0.2132944315671921,55.21853637695312,96.0416259765625,-42.0201416015625
246661,0.0688934326171875,0.9385223388671876,-0.13751220703125,0.2226748913526535,-0.7962856888771057,-0.2132944315671921,55.21853637695312,96.0416259765625,-42.0201416015625
246662,-0.0253143310546875,0.932098388671875,-0.1128997802734375,0.2226748913526535,-0.7962856888771057,-0.2132944315671921,55.1307373046875,96.01121520996094,-42.03805541992188
246663,-0.2197723388671875,0.8302764892578125,-0.109161376953125,0.2796534895896912,-0.938835382461548,-0.527798593044281,54.72262573242188,95.88525390625,-42.34144592285156
246664,-0.3150482177734375,0.7918701171875,-0.111175537109375,0.0948703214526176,-0.7263915538787842,-0.7040537595748901,54.33673095703125,95.73886108398438,-42.41754150390625
246665,-0.4256744384765625,0.7508087158203125,-0.101593017578125,0.0948703214526176,-0.7263915538787842,-0.7040537595748901,53.83686828613281,95.79280090332033,-42.51377868652344
246666,-0.5452117919921875,0.731719970703125,-0.0850372314453125,-0.2202135920524597,-0.474081814289093,-0.3947243988513947,53.43386840820312,95.78561401367188,-42.53181457519531
246667,-0.5958099365234375,0.8191680908203125,-0.066162109375,-0.2202135920524597,-0.474081814289093,-0.3947243988513947,53.07463073730469,95.81671142578124,-42.42213439941406
246668,-0.52630615234375,0.9915771484375,-0.045135498046875,-0.2894507348537445,-0.5056458711624146,-0.2567596137523651,52.69200134277344,95.76446533203124,-42.49472045898438
246669,-0.52630615234375,0.9915771484375,-0.045135498046875,-0.2894507348537445,-0.5056458711624146,-0.2567596137523651,52.69200134277344,95.76446533203124,-42.49472045898438
246670,-0.3499298095703125,1.1298828125,0.073028564453125,-0.6065900325775146,-0.4603891670703888,-0.0450556240975856,52.20907592773438,95.89212036132812,-42.5572509765625
246671,-0.299560546875,1.2056884765625,0.109100341796875,-0.6065900325775146,-0.4603891670703888,-0.0450556240975856,52.02978515625,95.96910095214844,-42.14164733886719
246672,-0.1634063720703125,1.463241577148438,0.114044189453125,-0.8170263767242432,-0.5827925801277161,0.0236302278935909,51.60177612304688,96.33822631835938,-41.9996337890625
246673,-0.1634063720703125,1.463241577148438,0.114044189453125,-0.8170263767242432,-0.5827925801277161,0.0236302278935909,51.60177612304688,96.33822631835938,-41.9996337890625
246674,-0.046783447265625,1.554412841796875,0.006378173828125,-0.8034264445304871,-0.6270591020584106,0.0342258810997009,51.55940246582031,96.47088623046876,-41.83979797363281
246675,0.0930328369140625,1.571395874023438,-0.1387176513671875,-0.6359617710113525,-0.6988108158111572,0.0487014912068843,51.311279296875,96.6409912109375,-41.42401123046875
246676,0.223602294921875,1.496353149414062,-0.2337493896484375,-0.3657590746879578,-0.8523390889167786,0.0465432666242122,51.03424072265625,96.88192749023438,-41.04571533203125
246677,0.223602294921875,1.496353149414062,-0.2337493896484375,-0.3657590746879578,-0.8523390889167786,0.0465432666242122,51.03424072265625,96.88192749023438,-41.04571533203125
246678,0.355682373046875,1.19976806640625,-0.1623687744140625,-0.010291519574821,-1.10116171836853,0.0074414047412574,50.6500244140625,97.35577392578124,-40.61360168457031
246679,0.3658599853515625,1.079833984375,-0.1309967041015625,-0.030704915523529,-1.114611983299255,-0.0119248367846012,50.43814086914062,97.18792724609376,-40.46455383300781
246680,0.3526458740234375,0.975433349609375,-0.164886474609375,-0.1031753867864609,-1.186938643455505,-0.0135597512125968,50.18629455566406,97.19078063964844,-40.50090026855469
246681,0.3526458740234375,0.975433349609375,-0.164886474609375,-0.1031753867864609,-1.186938643455505,-0.0135597512125968,50.18629455566406,97.19078063964844,-40.50090026855469
246682,0.1895904541015625,0.79364013671875,-0.3006134033203125,-0.0406616739928722,-1.309108018875122,0.0035657063126564,49.60958862304688,97.3565673828125,-40.49517822265625
246683,0.1356964111328125,0.7415008544921875,-0.3093719482421875,0.0608220696449279,-1.383904457092285,0.038927424699068,49.40519714355469,97.24880981445312,-40.36131286621094
246684,0.0894622802734375,0.7110443115234375,-0.309051513671875,0.1602874100208282,-1.255887866020203,0.1067397594451904,49.18365478515625,97.3564910888672,-40.39436340332031
246685,0.0894622802734375,0.7110443115234375,-0.309051513671875,0.1602874100208282,-1.255887866020203,0.1067397594451904,49.18365478515625,97.3564910888672,-40.39436340332031
246686,0.020538330078125,0.753448486328125,-0.36474609375,0.1642174422740936,-1.165942311286926,0.1342869699001312,48.71713256835938,97.2060546875,-40.24067687988281
246687,-0.0009307861328125,0.8162689208984375,-0.3716278076171875,0.1524771600961685,-1.088843822479248,0.1483628451824188,48.47036743164062,97.08543395996094,-40.26264953613281
246688,-0.0111541748046875,0.9861602783203124,-0.33575439453125,0.1988145560026169,-0.7092725038528442,0.2639949023723602,48.0537109375,97.135498046875,-40.45346069335938
246689,-0.0111541748046875,0.9861602783203124,-0.33575439453125,0.1988145560026169,-0.7092725038528442,0.2639949023723602,48.0537109375,97.135498046875,-40.45346069335938
246690,0.030517578125,1.074798583984375,-0.2599029541015625,0.1988145560026169,-0.7092725038528442,0.2639949023723602,47.9127197265625,97.03871154785156,-40.50057983398438
246691,0.0875701904296875,1.165191650390625,-0.174285888671875,0.1685392111539841,-0.6279318332672119,0.3297917544841766,47.89630126953125,96.96034240722656,-40.55879211425781
246692,0.146392822265625,1.253631591796875,-0.05194091796875,0.1101547330617905,-0.7098985910415649,0.4786880314350128,47.88385009765625,96.88458251953124,-40.60238647460938
246693,0.146392822265625,1.253631591796875,-0.05194091796875,0.1101547330617905,-0.7098985910415649,0.4786880314350128,47.88385009765625,96.88458251953124,-40.60238647460938
246694,0.1848602294921875,1.424057006835938,0.22357177734375,0.1536092609167099,-0.6599968075752258,0.5793954730033875,47.80874633789062,96.8895263671875,-40.67642211914062
246695,0.17236328125,1.532424926757812,0.2566375732421875,0.1883717775344849,-0.6216837763786316,0.5436891317367554,47.93232727050781,96.7918701171875,-40.65586853027344
246696,0.1204833984375,1.561187744140625,0.1145477294921875,0.3640775680541992,-0.6180163621902466,0.404559463262558,48.22955322265625,96.68821716308594,-40.50613403320312
246697,0.1204833984375,1.561187744140625,0.1145477294921875,0.3640775680541992,-0.6180163621902466,0.404559463262558,48.22955322265625,96.68821716308594,-40.50613403320312
246698,0.08905029296875,1.41595458984375,0.0343475341796875,0.3640775680541992,-0.6180163621902466,0.404559463262558,48.42106628417969,96.7037353515625,-40.47538757324219
246699,0.0636749267578125,1.269866943359375,0.0083465576171875,0.4805554449558258,-0.6788687705993652,0.3596359193325043,48.47697448730469,96.67556762695312,-40.40606689453125
246700,0.0445709228515625,1.143325805664062,0.0219268798828125,0.550523042678833,-0.7712147235870361,0.312431663274765,48.60185241699219,96.48426818847656,-40.60212707519531
246701,0.0445709228515625,1.143325805664062,0.0219268798828125,0.550523042678833,-0.7712147235870361,0.312431663274765,48.60185241699219,96.48426818847656,-40.60212707519531
246702,0.0384521484375,0.8983001708984375,-0.029144287109375,0.511370062828064,-1.0709148645401,0.2082224488258362,48.54708862304688,96.4805908203125,-41.02587890625
246703,0.042816162109375,0.773040771484375,-0.046417236328125,0.4231941401958466,-1.229186534881592,0.1694894284009933,48.48049926757812,96.1934814453125,-41.12275695800781
246704,0.0393524169921875,0.6561126708984375,-0.044525146484375,0.3119653463363647,-1.309194564819336,0.1521623730659485,48.50662231445312,95.77229309082033,-40.76629638671875
246705,0.0393524169921875,0.6561126708984375,-0.044525146484375,0.3119653463363647,-1.309194564819336,0.1521623730659485,48.50662231445312,95.77229309082033,-40.76629638671875
246706,-0.0251922607421875,0.473358154296875,-0.0875091552734375,0.2457559704780579,-1.119504451751709,0.1180110573768616,48.06912231445312,95.49172973632812,-41.01959228515625
246707,-0.075469970703125,0.4263763427734375,-0.11279296875,0.3177223205566406,-1.019443988800049,0.0187286809086799,47.97651672363281,95.31370544433594,-41.08084106445312
246708,-0.1558837890625,0.3915252685546875,-0.0913238525390625,0.2901961505413055,-1.065877437591553,-0.0804309248924255,47.67868041992188,94.98130798339844,-41.133544921875
246709,-0.1558837890625,0.3915252685546875,-0.0913238525390625,0.2901961505413055,-1.065877437591553,-0.0804309248924255,47.67868041992188,94.98130798339844,-41.133544921875
246710,-0.1469268798828125,0.362152099609375,-0.024810791015625,0.1857142001390457,-1.102008104324341,-0.1670292019844055,47.51789855957031,94.98524475097656,-41.42640686035156
246711,-0.0914306640625,0.4022979736328125,0.0567779541015625,0.0067777447402477,-1.052264451980591,-0.2077095210552216,47.20222473144531,94.85348510742188,-41.50503540039062
246712,-0.03759765625,0.5970611572265625,0.1311187744140625,-0.254295140504837,-0.9712508320808412,-0.1596333384513855,46.89715576171875,94.8524932861328,-41.39582824707031
246713,-0.0177154541015625,0.77020263671875,0.199249267578125,-0.5305442810058594,-0.8248978853225708,-0.0947856307029724,46.61964416503906,94.95330810546876,-41.50588989257812
246714,-0.009185791015625,0.9002532958984375,0.2258758544921875,-0.7536175847053528,-0.690696120262146,-0.0397846959531307,46.31219482421875,94.91217041015624,-41.35670471191406
246715,-0.01385498046875,1.01556396484375,0.26153564453125,-0.8898209929466248,-0.6532792448997498,-0.0197177790105342,46.05316162109375,95.05776977539062,-41.08894348144531
246716,-0.02642822265625,1.10345458984375,0.3204803466796875,-0.9516377449035645,-0.669540524482727,-0.001373924780637,45.72929382324219,95.24285888671876,-40.73236083984375
246717,-0.0400848388671875,1.16973876953125,0.357940673828125,-0.9504241347312928,-0.7242178916931152,0.0282835699617862,45.493408203125,95.467041015625,-40.35151672363281
246718,-0.0407562255859375,1.194229125976562,0.342041015625,-0.8886417150497437,-0.8370709419250488,0.0854890719056129,45.38652038574219,95.69309997558594,-39.91493225097656
246719,-0.0044708251953125,1.1783447265625,0.318572998046875,-0.7740080952644348,-0.9250292778015136,0.1514443755149841,45.19068908691406,95.91619873046876,-39.55581665039062
246720,0.108001708984375,1.098175048828125,0.183868408203125,-0.4149910807609558,-0.8549878597259521,0.120414026081562,44.88899230957031,96.3284149169922,-38.75399780273438
246721,0.108001708984375,1.098175048828125,0.183868408203125,-0.4149910807609558,-0.8549878597259521,0.120414026081562,44.88899230957031,96.3284149169922,-38.75399780273438
246722,0.1217803955078125,1.021011352539062,0.145416259765625,-0.4149910807609558,-0.8549878597259521,0.120414026081562,44.73379516601562,96.69142150878906,-38.43324279785156
246723,0.11767578125,0.9369659423828124,0.1491546630859375,-0.4408343732357025,-0.8255285620689392,0.0337454453110694,44.67735290527344,96.75764465332033,-38.00019836425781
246724,0.1261138916015625,0.8758697509765625,0.1202392578125,-0.649815559387207,-0.901904821395874,-0.1142578646540642,44.55378723144531,96.8015594482422,-37.83688354492188
246725,0.1261138916015625,0.8758697509765625,0.1202392578125,-0.649815559387207,-0.901904821395874,-0.1142578646540642,44.55378723144531,96.8015594482422,-37.83688354492188
246726,0.1529998779296875,0.9190826416015624,0.0304412841796875,-0.6987322568893433,-0.9469042420387268,-0.183174341917038,44.22314453125,97.01954650878906,-37.24148559570312
246727,0.142242431640625,1.000045776367188,-0.0301666259765625,-0.6660113334655762,-0.9011223316192628,-0.2576693594455719,43.91940307617188,97.08212280273438,-36.85102844238281
246728,0.087615966796875,1.103652954101562,-0.1197967529296875,-0.5476638674736023,-0.7552130818367004,-0.3406843543052673,43.65940856933594,97.25300598144533,-36.48556518554688
246729,0.087615966796875,1.103652954101562,-0.1197967529296875,-0.5476638674736023,-0.7552130818367004,-0.3406843543052673,43.65940856933594,97.25300598144533,-36.48556518554688
246730,-0.0543060302734375,1.225814819335938,-0.17803955078125,-0.2477956861257553,-0.7076351642608643,-0.4584349393844604,43.01962280273438,97.49659729003906,-35.86788940429688
246731,-0.123291015625,1.268463134765625,-0.060791015625,-0.2190926671028137,-0.6727933287620544,-0.4679618775844574,42.75090026855469,97.54743957519533,-35.49188232421875
246732,-0.157989501953125,1.3812255859375,0.0522613525390625,-0.3320695459842682,-0.5661150813102722,-0.4765186011791229,41.81011962890625,97.69720458984376,-35.16995239257812
246733,-0.157989501953125,1.3812255859375,0.0522613525390625,-0.3320695459842682,-0.5661150813102722,-0.4765186011791229,41.81011962890625,97.69720458984376,-35.16995239257812
246734,-0.1296844482421875,1.430389404296875,-0.0169219970703125,-0.3241322636604309,-0.4919582903385162,-0.4349946081638336,41.47573852539062,97.74790954589844,-34.97438049316406
246735,-0.04315185546875,1.324264526367188,-0.112030029296875,-0.2028615027666092,-0.4246420860290527,-0.322853147983551,41.15959167480469,97.8702392578125,-34.72393798828125
246736,0.00506591796875,1.126129150390625,-0.154876708984375,0.0812205523252487,-0.2974766790866852,-0.0653678178787231,40.83016967773438,97.83468627929688,-34.496826171875
246737,-0.01312255859375,1.029144287109375,-0.12939453125,0.0812205523252487,-0.2974766790866852,-0.0653678178787231,40.58425903320312,97.96102905273438,-34.4371337890625
246738,-0.00079345703125,1.00634765625,-0.1112060546875,0.0585165731608867,-0.2384242862462997,0.0435674525797367,40.29167175292969,97.89102172851562,-34.23808288574219
246739,0.0441741943359375,0.9988250732421876,-0.13433837890625,0.0334855206310749,-0.1513088345527649,0.1502970904111862,40.16816711425781,97.81005859375,-34.22294616699219
246740,0.097503662109375,1.0145263671875,-0.1630096435546875,0.0390715040266513,-0.0796596780419349,0.2528306543827057,40.09823608398438,97.8327178955078,-34.27392578125
246741,0.097503662109375,1.0145263671875,-0.1630096435546875,0.0390715040266513,-0.0796596780419349,0.2528306543827057,40.09823608398438,97.8327178955078,-34.27392578125
246742,0.2010345458984375,1.088470458984375,-0.136871337890625,0.0161938834935426,0.0849452540278434,0.4044795632362366,40.10989379882812,97.8056640625,-34.21035766601562
246743,0.2210845947265625,1.1409912109375,-0.1204833984375,-0.0118071250617504,0.1414833664894104,0.4278344213962555,40.19844055175781,97.91799926757812,-34.17291259765625
246744,0.212493896484375,1.193023681640625,-0.107452392578125,-0.0209814477711916,0.1853842437267303,0.4098722040653229,40.36640930175781,97.86590576171876,-34.23297119140625
246745,0.18572998046875,1.23052978515625,-0.0837249755859375,-0.0340224169194698,0.2651784121990204,0.3092135190963745,40.59530639648438,97.90269470214844,-34.27799987792969
246746,0.128814697265625,1.262420654296875,-0.0482025146484375,-0.0340224169194698,0.2651784121990204,0.3092135190963745,40.820556640625,98.06256103515624,-34.22749328613281
246747,0.094818115234375,1.24041748046875,0.01177978515625,-0.0967592969536781,0.3615776300430298,0.2268730998039246,41.05679321289062,98.01046752929688,-34.21665954589844
246748,0.0919342041015625,1.21624755859375,0.038970947265625,-0.1290839463472366,0.3616849780082703,0.1489764302968979,41.24044799804688,98.01400756835938,-34.21406555175781
246749,0.0919342041015625,1.21624755859375,0.038970947265625,-0.1290839463472366,0.3616849780082703,0.1489764302968979,41.24044799804688,98.01400756835938,-34.21406555175781
246750,0.0917510986328125,1.13726806640625,0.0722503662109375,-0.0215612184256315,0.1482661664485931,0.0282766446471214,41.49504089355469,98.20753479003906,-34.32113647460938
246751,0.1276397705078125,1.0809326171875,0.0743865966796875,0.0435674525797367,0.0577549077570438,0.0245122667402029,41.62387084960938,98.4144287109375,-34.42887878417969
246752,0.151336669921875,1.033065795898438,0.0794219970703125,0.0212656073272228,-0.0011978897964581,0.1629479080438614,41.5892333984375,98.41407775878906,-34.37663269042969
246753,0.151336669921875,1.033065795898438,0.0794219970703125,0.0212656073272228,-0.0011978897964581,0.1629479080438614,41.5892333984375,98.41407775878906,-34.37663269042969
246754,0.10174560546875,1.008499145507812,0.1611785888671875,-0.0803979039192199,-0.0289126075804233,0.2056229263544083,41.67172241210938,98.41970825195312,-34.57774353027344
246755,0.041656494140625,1.01007080078125,0.2545013427734375,-0.2142369300127029,-0.019006447866559,0.2479642629623413,41.92695617675781,98.471435546875,-34.6656494140625
246756,-0.0015869140625,1.013504028320312,0.328033447265625,-0.3300410211086273,0.0331283919513225,0.2697321474552155,42.06201171875,98.53292846679688,-34.57862854003906
246757,-0.0015869140625,1.013504028320312,0.328033447265625,-0.3300410211086273,0.0331283919513225,0.2697321474552155,42.06201171875,98.53292846679688,-34.57862854003906
246758,-0.08721923828125,0.9779815673828124,0.3886566162109375,-0.419015109539032,0.2012026160955429,0.3224685788154602,42.35923767089844,98.6015167236328,-34.313720703125
246759,-0.1301422119140625,0.9281463623046876,0.3303985595703125,-0.3550854027271271,0.2634705305099487,0.361446887254715,42.49787902832031,98.703125,-34.19332885742188
246760,-0.15875244140625,0.9002227783203125,0.2236785888671875,-0.2462696880102158,0.2364045530557632,0.3391501009464264,42.72529602050781,98.82949829101562,-34.05516052246094
246761,-0.079254150390625,0.8126068115234375,0.130126953125,-0.1038616821169853,0.1874766796827316,0.3378150463104248,42.8570556640625,98.8674774169922,-33.81748962402344
246762,0.0378570556640625,0.7159271240234375,0.039337158203125,0.0547527261078357,0.1554356664419174,0.3471009731292725,43.00279235839844,98.76626586914062,-33.58311462402344
246763,0.143463134765625,0.6446380615234375,-0.01470947265625,0.1978291869163513,0.0933709591627121,0.3626375794410706,43.18603515625,98.62673950195312,-33.43453979492188
246764,0.2250213623046875,0.5975799560546875,-0.01727294921875,0.2753522098064423,0.0181587636470794,0.3788575530052185,43.26910400390625,98.60743713378906,-33.72915649414062
246765,0.2250213623046875,0.5975799560546875,-0.01727294921875,0.2753522098064423,0.0181587636470794,0.3788575530052185,43.26910400390625,98.60743713378906,-33.72915649414062
246766,0.331268310546875,0.5758056640625,-0.0272979736328125,0.2058738023042679,-0.0876691341400146,0.4689539074897766,43.45623779296875,98.53750610351562,-33.90020751953125
246767,0.3743438720703125,0.631744384765625,-0.0418548583984375,0.2058738023042679,-0.0876691341400146,0.4689539074897766,43.70306396484375,98.41804504394533,-33.98974609375
246768,0.394287109375,0.750335693359375,-0.0408935546875,0.1656827032566071,-0.1194837838411331,0.4290381669998169,43.82276916503906,98.48902893066406,-34.09860229492188
246769,0.394287109375,0.750335693359375,-0.0408935546875,0.1656827032566071,-0.1194837838411331,0.4290381669998169,43.82276916503906,98.48902893066406,-34.09860229492188
246770,0.33819580078125,1.034042358398438,-0.0843048095703125,0.0429623797535896,-0.2388027310371399,0.1268764585256577,43.9971923828125,98.51652526855467,-33.74661254882812
246771,0.25299072265625,1.077560424804688,-0.090301513671875,-0.018417090177536,-0.4186630249023438,-0.0161171853542327,44.07951354980469,98.57737731933594,-33.74560546875
246772,0.1896820068359375,1.076858520507812,-0.062042236328125,-0.0711471438407897,-0.5905740857124329,-0.1069320440292358,44.02381896972656,98.6850128173828,-34.01924133300781
246773,0.1537933349609375,1.070068359375,-0.0296630859375,-0.0731293410062789,-0.6905153393745422,-0.1631031632423401,43.87362670898438,98.72531127929688,-34.13774108886719
246774,0.1058502197265625,1.039718627929688,0.0053558349609375,-0.0168607383966445,-0.7123071551322937,-0.2119836211204529,43.73475646972656,98.7388153076172,-34.05998229980469
246775,0.0282745361328125,0.9976654052734376,0.0580902099609375,0.0658482536673545,-0.6642389893531799,-0.2646545469760895,43.50953674316406,98.80960083007812,-34.00981140136719
246776,-0.0537109375,0.94775390625,0.12615966796875,0.0872755199670791,-0.5770665407180786,-0.3215207755565643,43.33811950683594,98.99124145507812,-33.93931579589844
246777,-0.0537109375,0.94775390625,0.12615966796875,0.0872755199670791,-0.5770665407180786,-0.3215207755565643,43.33811950683594,98.99124145507812,-33.93931579589844
246778,-0.21844482421875,0.836273193359375,0.0999603271484375,-0.0983031317591667,-0.6014994382858276,-0.4372929036617279,42.89501953125,98.9552764892578,-33.96211242675781
246779,-0.28070068359375,0.7912750244140625,0.0817413330078125,-0.1841887533664703,-0.6826387643814087,-0.4510811567306519,42.65432739257812,98.91604614257812,-33.91921997070312
246780,-0.3306121826171875,0.766876220703125,0.089874267578125,-0.2135956436395645,-0.6737520694732666,-0.4161218404769897,42.45295715332031,98.89453125,-33.96160888671875
246781,-0.3306121826171875,0.766876220703125,0.089874267578125,-0.2135956436395645,-0.6737520694732666,-0.4161218404769897,42.45295715332031,98.89453125,-33.96160888671875
246782,-0.3591461181640625,0.863983154296875,0.114410400390625,-0.2387910038232803,-0.5599599480628967,-0.3290008008480072,41.99887084960938,98.96487426757812,-33.57574462890625
246783,-0.352996826171875,1.074539184570312,0.11846923828125,-0.3142271637916565,-0.3794956505298615,-0.377921998500824,41.82130432128906,99.0782470703125,-33.39886474609375
246784,-0.32073974609375,1.043701171875,0.0721435546875,-0.4274136424064636,-0.3126828074455261,-0.3487476110458374,41.68136596679688,98.90274047851562,-33.32740783691406
246785,-0.32073974609375,1.043701171875,0.0721435546875,-0.4274136424064636,-0.3126828074455261,-0.3487476110458374,41.68136596679688,98.90274047851562,-33.32740783691406
246786,-0.321746826171875,0.9163665771484376,0.269561767578125,-0.7935439944267273,-0.553581714630127,-0.2954052686691284,41.37466430664062,99.09219360351562,-33.05763244628906
246787,-0.3149261474609375,0.9175262451171876,0.377288818359375,-0.9251355528831482,-0.4087116122245789,-0.2729170322418213,41.16192626953125,99.2679443359375,-32.61540222167969
246788,-0.2739105224609375,1.040573120117188,0.417877197265625,-0.985609531402588,-0.244341567158699,-0.1196920424699783,40.86756896972656,99.47042846679688,-31.83673095703125
246789,-0.2739105224609375,1.040573120117188,0.417877197265625,-0.985609531402588,-0.244341567158699,-0.1196920424699783,40.86756896972656,99.47042846679688,-31.83673095703125
246790,-0.2331085205078125,1.126419067382812,0.370147705078125,-0.8412315845489502,-0.2547076642513275,-0.0355883538722991,40.82987976074219,99.598876953125,-31.19181823730469
246791,-0.1640625,1.178619384765625,0.275238037109375,-0.5607416033744812,-0.4027924537658691,-0.0378808043897151,40.82429504394531,99.70877075195312,-30.770263671875
246792,-0.1021728515625,1.174758911132812,0.2061767578125,-0.1691248416900635,-0.5438907146453857,-0.0193840842694044,40.70828247070312,99.97947692871094,-30.46199035644531
246793,-0.1021728515625,1.174758911132812,0.2061767578125,-0.1691248416900635,-0.5438907146453857,-0.0193840842694044,40.70828247070312,99.97947692871094,-30.46199035644531
246794,0.0545654296875,1.1607666015625,0.0924224853515625,0.4018885791301727,-0.7143889665603638,0.057119745761156,40.60783386230469,99.96965026855467,-29.82850646972656
246795,0.1239013671875,1.176666259765625,0.0193023681640625,0.4623836278915405,-0.866869330406189,-0.0096038915216922,40.49362182617188,99.8888702392578,-29.58990478515625
246796,0.2541046142578125,1.184051513671875,-0.0708160400390625,0.6425355672836304,-1.255973696708679,-0.1362899243831635,40.09565734863281,100.0538482666016,-29.97999572753906
246797,0.2541046142578125,1.184051513671875,-0.0708160400390625,0.6425355672836304,-1.255973696708679,-0.1362899243831635,40.09565734863281,100.0538482666016,-29.97999572753906
246798,0.2916259765625,1.1905517578125,-0.1226959228515625,0.7895231246948242,-1.324303984642029,-0.1392140835523605,39.93240356445312,99.90338134765624,-30.20547485351562
246799,0.2919769287109375,1.191146850585938,-0.2044219970703125,0.9266210794448853,-1.317683577537537,-0.1484709680080414,39.64424133300781,99.89207458496094,-30.31478881835938
246800,0.21929931640625,1.171951293945312,-0.2950897216796875,1.156721591949463,-1.069339871406555,-0.2112137079238892,39.36116027832031,99.82536315917967,-30.58709716796875
246801,0.0874786376953125,1.129364013671875,-0.3834686279296875,1.261797428131104,-0.9541419148445128,-0.2254056930541992,39.03146362304688,99.55746459960938,-30.65730285644531
246802,-0.0278472900390625,1.090713500976562,-0.438995361328125,1.261797428131104,-0.9541419148445128,-0.2254056930541992,38.93550109863281,99.30645751953124,-30.93711853027344
246803,-0.092926025390625,1.084121704101562,-0.449249267578125,1.298197507858276,-0.8822053670883179,-0.2170092761516571,38.71092224121094,99.11422729492188,-31.2879638671875
246804,-0.0843505859375,1.069122314453125,-0.44317626953125,1.087128162384033,-0.934118926525116,-0.1243246123194695,38.35581970214844,99.0382080078125,-31.7318115234375
246805,-0.0843505859375,1.069122314453125,-0.44317626953125,1.087128162384033,-0.934118926525116,-0.1243246123194695,38.35581970214844,99.0382080078125,-31.7318115234375
246806,0.1222991943359375,0.9940032958984376,-0.3369598388671875,0.924255669116974,-0.9835871458053588,-0.0145246144384145,38.03134155273438,98.4086456298828,-32.73780822753906
246807,0.237152099609375,0.9936065673828124,-0.3092041015625,0.8169238567352295,-1.027971863746643,0.139034315943718,37.85821533203125,98.05722045898438,-33.0916748046875
246808,0.317657470703125,1.025924682617188,-0.2496795654296875,0.6161803603172302,-1.036044716835022,0.3988392651081085,37.710693359375,97.8015594482422,-33.40875244140625
246809,0.317657470703125,1.025924682617188,-0.2496795654296875,0.6161803603172302,-1.036044716835022,0.3988392651081085,37.710693359375,97.8015594482422,-33.40875244140625
246810,0.36407470703125,1.138397216796875,-0.0373992919921875,0.4929913282394409,-0.9715185165405272,0.4496473073959351,37.64239501953125,97.33847045898438,-33.76669311523438
246811,0.33837890625,1.198745727539062,0.0432281494140625,0.4038004577159882,-0.9364135265350342,0.4458310008049011,37.67912292480469,97.36546325683594,-33.89067077636719
246812,0.278411865234375,1.252426147460938,0.09991455078125,0.3918657898902893,-0.9625431299209596,0.3778109550476074,37.85353088378906,97.38957214355467,-33.94830322265625
246813,0.278411865234375,1.252426147460938,0.09991455078125,0.3918657898902893,-0.9625431299209596,0.3778109550476074,37.85353088378906,97.38957214355467,-33.94830322265625
246814,0.1238555908203125,1.30029296875,0.1166839599609375,0.6163617372512817,-1.005980849266052,0.1092263534665108,38.00074768066406,97.1826171875,-34.17384338378906
246815,0.030303955078125,1.283737182617188,0.0662841796875,0.8322727084159851,-1.008098125457764,-0.0858046561479568,37.92716979980469,97.12614440917967,-34.22105407714844
246816,-0.07647705078125,1.237472534179688,0.0261077880859375,1.018693447113037,-1.031262993812561,-0.266035407781601,37.84233093261719,97.05369567871094,-34.46864318847656
246817,-0.07647705078125,1.237472534179688,0.0261077880859375,1.018693447113037,-1.031262993812561,-0.266035407781601,37.84233093261719,97.05369567871094,-34.46864318847656
246818,-0.2213287353515625,1.04840087890625,-0.00091552734375,0.8375367522239685,-0.9397025108337402,-0.4356899559497833,37.36135864257812,96.93220520019533,-35.04127502441406
246819,-0.1998138427734375,0.9428253173828124,0.0020904541015625,0.687849223613739,-0.911398708820343,-0.4057602882385254,36.9500732421875,96.7181396484375,-35.3458251953125
246820,-0.158477783203125,0.8623199462890625,0.05059814453125,0.6326123476028442,-0.8892489075660706,-0.3034024834632874,36.76535034179688,96.43765258789062,-35.59393310546875
246821,-0.158477783203125,0.8623199462890625,0.05059814453125,0.6326123476028442,-0.8892489075660706,-0.3034024834632874,36.76535034179688,96.43765258789062,-35.59393310546875
246822,-0.1226348876953125,0.78851318359375,0.12939453125,0.586610734462738,-0.8362250924110413,-0.0146162267774343,36.30914306640625,95.6957550048828,-35.81024169921875
246823,-0.14129638671875,0.7606353759765625,0.1266326904296875,0.4868601858615875,-0.8039175271987915,0.0740680992603302,36.21194458007812,95.39183044433594,-35.98973083496094
246824,-0.1730804443359375,0.6437225341796875,0.03033447265625,0.4870937466621399,-0.6667553782463074,0.016164056956768,35.93667602539062,95.13510131835938,-36.21717834472656
246825,-0.1730804443359375,0.6437225341796875,0.03033447265625,0.4870937466621399,-0.6667553782463074,0.016164056956768,35.93667602539062,95.13510131835938,-36.21717834472656
246826,-0.2006072998046875,0.5716552734375,-0.038970947265625,0.4870937466621399,-0.6667553782463074,0.016164056956768,35.943603515625,94.89251708984376,-36.09931945800781
246827,-0.2158355712890625,0.5179290771484375,-0.0811004638671875,0.5420816540718079,-0.6273664236068726,-0.0093327816575765,35.952880859375,94.72772216796876,-36.00247192382812
246828,-0.2077484130859375,0.500946044921875,-0.104766845703125,0.5830317139625549,-0.409417599439621,0.0085974829271435,35.79074096679688,94.63858032226562,-36.00019836425781
246829,-0.2077484130859375,0.500946044921875,-0.104766845703125,0.5830317139625549,-0.409417599439621,0.0085974829271435,35.79074096679688,94.63858032226562,-36.00019836425781
246830,-0.0355682373046875,0.5552520751953125,-0.10888671875,0.5047374367713928,-0.2949277758598328,0.0685124844312667,35.63557434082031,94.46279907226562,-36.48617553710938
246831,0.0719146728515625,0.654937744140625,-0.086090087890625,0.3095943331718445,-0.2817797660827637,0.1622118055820465,35.55206298828125,94.2563934326172,-36.68989562988281
246832,0.136444091796875,0.7575225830078125,-0.033050537109375,-0.2124534100294113,-0.4311447441577911,0.2867982089519501,35.48019409179688,94.24295043945312,-36.86651611328125
246833,0.136444091796875,0.7575225830078125,-0.033050537109375,-0.2124534100294113,-0.4311447441577911,0.2867982089519501,35.48019409179688,94.24295043945312,-36.86651611328125
246834,0.2187042236328125,0.9129638671875,0.1123809814453125,-0.4154970645904541,-0.4640622138977051,0.3260060548782349,35.40180969238281,94.4447784423828,-37.14961242675781
246835,0.2303924560546875,0.99017333984375,0.1514434814453125,-0.5296342968940735,-0.4914317727088928,0.3116588294506073,35.44656372070312,94.51315307617188,-36.93470764160156
246836,0.2188873291015625,1.033889770507812,0.1851806640625,-0.5541085004806519,-0.5243418216705322,0.248663604259491,35.52546691894531,94.50723266601562,-36.56405639648438
246837,0.181884765625,1.03131103515625,0.235382080078125,-0.4980872869491577,-0.4980635941028595,0.1858257949352264,35.55569458007812,94.67710876464844,-36.22000122070312
246838,0.1352081298828125,1.018203735351562,0.2784271240234375,-0.427984893321991,-0.4254027009010315,0.1495484709739685,35.57728576660156,94.88299560546876,-35.91328430175781
246839,0.0924835205078125,1.021041870117188,0.3205413818359375,-0.3906745314598083,-0.3730539977550507,0.1192246600985527,35.5628662109375,95.12339782714844,-35.73915100097656
246840,0.03759765625,1.034286499023438,0.379852294921875,-0.4281297624111176,-0.3654703795909882,-0.00178378529381,35.54739379882812,95.25453186035156,-35.26741027832031
246841,0.03759765625,1.034286499023438,0.379852294921875,-0.4281297624111176,-0.3654703795909882,-0.00178378529381,35.54739379882812,95.25453186035156,-35.26741027832031
246842,0.012176513671875,1.069915771484375,0.374237060546875,-0.4768815934658051,-0.4467442035675049,-0.0778418034315109,35.49166870117188,95.22987365722656,-35.00062561035156
246843,-0.007293701171875,1.162307739257812,0.3180084228515625,-0.5272153615951538,-0.5430166721343994,-0.1562093049287796,35.50515747070312,95.29327392578124,-34.62315368652344
246844,-0.0251922607421875,1.2791748046875,0.172454833984375,-0.5346908569335938,-0.6365479826927185,-0.2341203540563583,35.33488464355469,95.37785339355467,-34.33702087402344
246845,-0.0251922607421875,1.2791748046875,0.172454833984375,-0.5346908569335938,-0.6365479826927185,-0.2341203540563583,35.33488464355469,95.37785339355467,-34.33702087402344
246846,-0.0674896240234375,1.425796508789062,-0.3320770263671875,-0.1411989331245422,-0.6661679148674011,-0.2479299157857895,34.95458984375,95.80453491210938,-33.678955078125
246847,-0.0483551025390625,1.381759643554688,-0.400665283203125,0.1034664735198021,-0.7209613919258118,-0.1888705790042877,34.73480224609375,95.9079132080078,-33.44184875488281
246848,0.0160064697265625,1.311676025390625,-0.266632080078125,0.1546018272638321,-0.6154876947402954,-0.181023582816124,34.41436767578125,95.9801788330078,-33.37416076660156
246849,0.0160064697265625,1.311676025390625,-0.266632080078125,0.1546018272638321,-0.6154876947402954,-0.181023582816124,34.41436767578125,95.9801788330078,-33.37416076660156
246850,0.0342254638671875,1.25128173828125,-0.2683563232421875,-0.0844666808843612,-0.5378879904747009,-0.2354649901390076,33.93890380859375,96.11563110351562,-33.10188293457031
246851,-0.0259552001953125,1.230545043945312,-0.340301513671875,-0.1580226570367813,-0.6345545649528503,-0.2001344263553619,33.69622802734375,95.99737548828124,-32.81546020507812
246852,-0.0998077392578125,1.199569702148438,-0.34515380859375,-0.1133345514535904,-0.6517471671104431,-0.0920766666531562,33.47781372070312,96.020263671875,-32.66310119628906
246853,-0.0998077392578125,1.199569702148438,-0.34515380859375,-0.1133345514535904,-0.6517471671104431,-0.0920766666531562,33.47781372070312,96.020263671875,-32.66310119628906
246854,-0.20892333984375,1.06451416015625,-0.3861846923828125,0.168397530913353,-0.3280708193778992,0.1069573387503624,33.12989807128906,96.07017517089844,-32.42587280273438
246855,-0.1840057373046875,0.9684906005859376,-0.415863037109375,0.2624015212059021,-0.1803543269634247,0.173270583152771,33.08476257324219,96.071533203125,-32.3262939453125
246856,-0.1342926025390625,0.866973876953125,-0.44061279296875,0.4100274741649628,0.0405053496360778,0.302573174238205,33.06932067871094,96.11611938476562,-32.31861877441406
246857,-0.1342926025390625,0.866973876953125,-0.44061279296875,0.4100274741649628,0.0405053496360778,0.302573174238205,33.06932067871094,96.11611938476562,-32.31861877441406
246858,0.001251220703125,0.754302978515625,-0.454437255859375,0.4466738998889923,0.1211562529206276,0.3558513224124908,33.16456604003906,96.07540893554688,-32.52763366699219
246859,0.0751800537109375,0.76654052734375,-0.43414306640625,0.3429080843925476,0.2420011758804321,0.4231483340263367,33.31245422363281,95.90689086914062,-32.59773254394531
246860,0.13134765625,0.8164825439453125,-0.384307861328125,0.3429080843925476,0.2420011758804321,0.4231483340263367,33.48933410644531,95.8689422607422,-32.84358215332031
246861,0.163238525390625,0.892547607421875,-0.32366943359375,0.2403561472892761,0.3346054255962372,0.4398087859153748,33.68464660644531,95.9502410888672,-33.14707946777344
246862,0.1663818359375,0.9844512939453124,-0.2834320068359375,0.1593257486820221,0.4415870010852814,0.4568594098091125,33.91276550292969,96.00009155273438,-33.33065795898438
246863,0.15234375,1.093353271484375,-0.25738525390625,0.1359277367591858,0.5505800843238831,0.4731869995594025,34.14981079101562,96.00265502929688,-33.48507690429688
246864,0.1361846923828125,1.1961669921875,-0.23443603515625,0.1726295650005341,0.6702830195426941,0.4784446060657501,34.42581176757812,96.03904724121094,-33.62002563476562
246865,0.1361846923828125,1.1961669921875,-0.23443603515625,0.1726295650005341,0.6702830195426941,0.4784446060657501,34.42581176757812,96.03904724121094,-33.62002563476562
246866,0.09051513671875,1.331878662109375,-0.1327972412109375,0.1467074155807495,0.8388147950172424,0.4845744073390961,35.15115356445312,96.04747009277344,-33.81065368652344
246867,0.09051513671875,1.331878662109375,-0.1327972412109375,0.1467074155807495,0.8388147950172424,0.4845744073390961,35.15115356445312,96.04747009277344,-33.81065368652344
246868,0.136932373046875,1.301986694335938,0.017822265625,0.0116643793880939,0.6552292108535767,0.5361574292182922,35.91255187988281,96.16545104980467,-34.167724609375
246869,0.1643829345703125,1.236053466796875,0.04180908203125,0.0116643793880939,0.6552292108535767,0.5361574292182922,36.27699279785156,96.23194885253906,-34.41329956054688
246870,0.177825927734375,1.170700073242188,0.066925048828125,0.0181718133389949,0.3850254416465759,0.583465039730072,36.62709045410156,96.28829956054688,-34.46406555175781
246871,0.1904296875,1.094619750976562,0.093536376953125,0.0519066080451011,0.1124828681349754,0.6423344612121582,37.05645751953125,96.35638427734376,-34.56948852539062
