time_idx,accelerometerAccelerationX(G),accelerometerAccelerationY(G),accelerometerAccelerationZ(G),gyroRotationX(rad/s),gyroRotationY(rad/s),gyroRotationZ(rad/s),magnetometerX(µT),magnetometerY(µT),magnetometerZ(µT)
234734,-0.1191253662109375,0.488525390625,-0.0904388427734375,0.0374032966792583,0.7136677503585815,0.0419032424688339,64.99215698242188,97.34553527832033,-31.38616943359375
234735,-0.1191253662109375,0.488525390625,-0.0904388427734375,0.0374032966792583,0.7136677503585815,0.0419032424688339,64.99215698242188,97.34553527832033,-31.38616943359375
234736,-0.0592498779296875,0.4021759033203125,-0.1515960693359375,0.1114719361066818,0.7828657627105713,0.0504221618175506,65.16093444824219,97.27409362792967,-31.34922790527344
234737,0.069793701171875,0.3124542236328125,-0.23992919921875,0.1704201996326447,0.5963749885559082,0.1246593743562698,65.51112365722656,97.20526123046876,-31.08366394042969
234738,0.1262969970703125,0.340576171875,-0.257171630859375,0.1562425941228867,0.5103527307510376,0.1528675705194473,65.64077758789062,97.06037902832033,-30.95413208007812
234739,0.162994384765625,0.3846588134765625,-0.273162841796875,0.0110063124448061,0.3178887665271759,0.0481688603758812,65.66007995605469,97.00926208496094,-30.81631469726562
234740,0.1781463623046875,0.4394683837890625,-0.2966461181640625,0.0110063124448061,0.3178887665271759,0.0481688603758812,65.7322998046875,96.95823669433594,-30.83924865722656
234741,0.1830291748046875,0.509613037109375,-0.3408203125,-0.060693971812725,0.1122458502650261,-0.1051282808184624,65.84417724609375,97.0053253173828,-30.84097290039062
234742,0.1658782958984375,0.6591339111328125,-0.428375244140625,-0.0132052842527627,-0.2969589829444885,-0.505684494972229,65.86111450195312,96.95703125,-30.80409240722656
234743,0.1658782958984375,0.6591339111328125,-0.428375244140625,-0.0132052842527627,-0.2969589829444885,-0.505684494972229,65.86111450195312,96.95703125,-30.80409240722656
234744,0.1658782958984375,0.6591339111328125,-0.428375244140625,-0.0132052842527627,-0.2969589829444885,-0.505684494972229,65.86111450195312,96.95703125,-30.80409240722656
234745,0.031036376953125,0.799774169921875,-0.562957763671875,0.2371065616607666,-0.256162017583847,-0.6307153701782227,65.23741149902344,97.20329284667967,-30.62040710449219
234746,0.031036376953125,0.799774169921875,-0.562957763671875,0.2371065616607666,-0.256162017583847,-0.6307153701782227,65.23741149902344,97.20329284667967,-30.62040710449219
234747,-0.013214111328125,0.88958740234375,-0.624542236328125,0.3521244823932648,-0.1534462869167328,-0.6112197041511536,64.90786743164062,97.42686462402344,-30.68194580078125
234748,-0.04681396484375,1.004562377929688,-0.6757049560546875,0.4549033343791962,-0.0625898763537406,-0.5709300637245178,64.58049011230469,97.54119873046876,-30.84962463378906
234749,-0.021942138671875,1.268966674804688,-0.6550445556640625,0.5907407999038696,0.058358646929264,-0.4210580289363861,63.75022888183594,97.81892395019533,-31.2808837890625
234750,-0.021942138671875,1.268966674804688,-0.6550445556640625,0.5907407999038696,0.058358646929264,-0.4210580289363861,63.75022888183594,97.81892395019533,-31.2808837890625
234751,-0.0531768798828125,1.506912231445312,-0.5443572998046875,0.3894433677196503,-0.0602172687649726,-0.2428584545850754,63.228759765625,97.99916076660156,-31.70559692382812
234752,-0.1188812255859375,1.601211547851562,-0.5313568115234375,0.3894433677196503,-0.0602172687649726,-0.2428584545850754,62.991455078125,98.05430603027344,-31.88919067382812
234753,-0.18017578125,1.709075927734375,-0.6102752685546875,0.3937307894229889,-0.1583089530467987,-0.1880676448345184,62.87249755859375,98.00910949707033,-32.02471923828125
234754,-0.18017578125,1.709075927734375,-0.6102752685546875,0.3937307894229889,-0.1583089530467987,-0.1880676448345184,62.87249755859375,98.00910949707033,-32.02471923828125
234755,-0.2035980224609375,1.776473999023438,-0.695220947265625,0.4711845517158508,-0.1717770844697952,-0.0980996713042259,62.68037414550781,98.02113342285156,-32.22035217285156
234756,-0.0426483154296875,1.627914428710938,-0.6765899658203125,0.5340332984924316,-0.1439707577228546,0.0843849182128906,62.52947998046875,97.87020874023438,-32.68043518066406
234757,0.047027587890625,1.471359252929688,-0.5485687255859375,0.516815721988678,-0.1564023941755295,0.1240953132510185,62.45713806152344,97.74562072753906,-32.93119812011719
234758,0.2091827392578125,1.215194702148438,-0.3911590576171875,0.4324600696563721,-0.1019178405404091,0.3397189378738403,62.61163330078125,97.47711181640624,-33.48129272460938
234759,0.2091827392578125,1.215194702148438,-0.3911590576171875,0.4324600696563721,-0.1019178405404091,0.3397189378738403,62.61163330078125,97.47711181640624,-33.48129272460938
234760,0.251251220703125,1.203720092773438,-0.345916748046875,0.272306889295578,-0.1486368775367737,0.4805905818939209,62.77426147460938,97.30339050292967,-33.83650207519531
234761,0.2399749755859375,1.253585815429688,-0.3059234619140625,0.272306889295578,-0.1486368775367737,0.4805905818939209,62.96664428710938,97.10148620605467,-33.85589599609375
234762,0.2399749755859375,1.253585815429688,-0.3059234619140625,0.272306889295578,-0.1486368775367737,0.4805905818939209,62.96664428710938,97.10148620605467,-33.85589599609375
234763,0.1973876953125,1.3228759765625,-0.2612152099609375,0.1851387023925781,-0.249821811914444,0.4053238034248352,63.25941467285156,97.02000427246094,-34.0697021484375
234764,0.0506134033203125,1.44403076171875,-0.1785736083984375,0.107267864048481,-0.5138697028160095,0.0605818554759025,63.64239501953125,96.83241271972656,-34.48294067382812
234765,-0.0343017578125,1.472869873046875,-0.1429595947265625,0.1041450425982475,-0.594532310962677,-0.0826565325260162,63.73323059082031,96.81851196289062,-34.7197265625
234766,-0.0766448974609375,1.497848510742188,-0.1042938232421875,0.0758950337767601,-0.5849484205245972,-0.1739401072263718,63.71122741699219,96.73558044433594,-34.72309875488281
234767,-0.0766448974609375,1.497848510742188,-0.1042938232421875,0.0758950337767601,-0.5849484205245972,-0.1739401072263718,63.71122741699219,96.73558044433594,-34.72309875488281
234768,-0.1053466796875,1.503067016601562,-0.0538177490234375,0.0175481010228395,-0.5180069208145142,-0.2268270254135132,63.53474426269531,96.94837951660156,-34.92494201660156
234769,-0.1646728515625,1.476364135742188,0.0592193603515625,-0.1433915197849274,-0.4238066673278809,-0.2709976732730865,63.30265808105469,96.97209167480467,-34.88795471191406
234770,-0.1646728515625,1.476364135742188,0.0592193603515625,-0.1433915197849274,-0.4238066673278809,-0.2709976732730865,63.30265808105469,96.97209167480467,-34.88795471191406
234771,-0.205230712890625,1.454254150390625,0.0980224609375,-0.2479610741138458,-0.3760489821434021,-0.3073764443397522,63.12391662597656,96.95065307617188,-35.02713012695312
234772,-0.25079345703125,1.440383911132812,0.125274658203125,-0.3165481090545654,-0.3136916160583496,-0.3505979776382446,62.947021484375,97.06881713867188,-35.09666442871094
234773,-0.37774658203125,1.337265014648438,0.1482086181640625,-0.3326083123683929,-0.1010299474000931,-0.3645457327365875,62.53852844238281,97.32000732421876,-34.83157348632812
234774,-0.4849090576171875,1.174514770507812,0.1111602783203125,-0.2894121110439301,-0.0025712819769978,-0.2274411469697952,62.41201782226562,97.35533142089844,-34.499755859375
234775,-0.4849090576171875,1.174514770507812,0.1111602783203125,-0.2894121110439301,-0.0025712819769978,-0.2274411469697952,62.41201782226562,97.35533142089844,-34.499755859375
234776,-0.2952423095703125,0.86865234375,-0.0388031005859375,-0.0789310336112976,-0.3462487459182739,0.2338348627090454,62.3446044921875,97.34176635742188,-34.14601135253906
234777,-0.1223297119140625,0.7970733642578125,-0.0363616943359375,0.0339728817343711,-0.5682703852653503,0.3346267342567444,62.4375,97.25762939453124,-33.86666870117188
234778,-0.001007080078125,0.6683807373046875,-0.081298828125,0.1618496179580688,-0.7143365144729614,0.4639301300048828,62.45108032226562,97.1240692138672,-33.93312072753906
234779,-0.001007080078125,0.6683807373046875,-0.081298828125,0.1618496179580688,-0.7143365144729614,0.4639301300048828,62.45108032226562,97.1240692138672,-33.93312072753906
234780,-0.001007080078125,0.6683807373046875,-0.081298828125,0.1618496179580688,-0.7143365144729614,0.4639301300048828,62.45108032226562,97.1240692138672,-33.93312072753906
234781,0.2254180908203125,0.173065185546875,-0.125640869140625,0.699280858039856,-0.4819434583187103,1.074280858039856,62.6463623046875,96.7632293701172,-34.60545349121094
234782,0.2254180908203125,0.173065185546875,-0.125640869140625,0.699280858039856,-0.4819434583187103,1.074280858039856,62.6463623046875,96.7632293701172,-34.60545349121094
234783,0.2629852294921875,-0.0769500732421875,-0.290557861328125,0.8174272179603577,0.2898808121681213,1.517831921577454,63.34222412109375,96.12686157226562,-35.22132873535156
234784,0.2388458251953125,-0.1266021728515625,-0.34814453125,0.8092025518417358,0.334772139787674,1.663324117660522,63.97390747070312,95.6977081298828,-35.58326721191406
234785,0.23492431640625,-0.1484375,-0.3718719482421875,0.6753321290016174,0.3073074817657471,1.695034384727478,64.63069152832031,95.21730041503906,-35.63943481445312
234786,0.23492431640625,-0.1484375,-0.3718719482421875,0.6753321290016174,0.3073074817657471,1.695034384727478,64.63069152832031,95.21730041503906,-35.63943481445312
234787,0.2509765625,-0.1749267578125,-0.4336700439453125,0.4336534440517426,0.2564661502838135,1.635576963424683,65.390869140625,94.66781616210938,-35.89198303222656
234788,0.28155517578125,-0.159637451171875,-0.533294677734375,0.1762304157018661,-0.1687844842672348,1.433346271514893,66.78404235839844,93.88215637207033,-35.78086853027344
234789,0.290679931640625,-0.1120147705078125,-0.4835052490234375,0.2125471532344818,-0.3061178624629974,1.261204600334167,67.49505615234375,93.5008544921875,-35.61167907714844
234790,0.290679931640625,-0.1120147705078125,-0.4835052490234375,0.2125471532344818,-0.3061178624629974,1.261204600334167,67.49505615234375,93.5008544921875,-35.61167907714844
234791,0.3224945068359375,-0.0225372314453125,-0.4830169677734375,0.3335425555706024,-0.19960817694664,0.7675440311431885,68.44256591796875,92.81532287597656,-35.755615234375
234792,0.326904296875,-0.0142059326171875,-0.5625,0.2658545672893524,-0.043742686510086,0.4826247096061707,68.84915161132812,92.48751831054688,-35.88941955566406
234793,0.29736328125,0.0006561279296875,-0.6748504638671875,0.1343546062707901,-0.0334335900843143,0.1596716791391373,69.0775146484375,92.37193298339844,-35.86026000976562
234794,0.29736328125,0.0006561279296875,-0.6748504638671875,0.1343546062707901,-0.0334335900843143,0.1596716791391373,69.0775146484375,92.37193298339844,-35.86026000976562
234795,0.014251708984375,0.0847625732421875,-0.6425933837890625,-0.1793212890625,-0.2481323033571243,-0.4919652044773102,69.31982421875,92.17086791992188,-35.98265075683594
234796,-0.1260986328125,0.1549072265625,-0.577239990234375,-0.2573103606700897,-0.3105980753898621,-0.5720342397689819,69.2525634765625,92.24089050292967,-35.95657348632812
234797,-0.12725830078125,0.26190185546875,-0.512481689453125,-0.273392379283905,-0.3371945321559906,-0.6523303985595703,69.1136474609375,92.32485961914062,-35.8287353515625
234798,-0.12725830078125,0.26190185546875,-0.512481689453125,-0.273392379283905,-0.3371945321559906,-0.6523303985595703,69.1136474609375,92.32485961914062,-35.8287353515625
234799,-0.1072235107421875,0.3734130859375,-0.460174560546875,-0.2734824120998383,-0.3529031872749329,-0.7444717884063721,68.80424499511719,92.5260772705078,-35.86164855957031
234800,-0.0128936767578125,0.7004547119140625,-0.469635009765625,-0.3481310904026031,-0.5225452184677124,-1.047449707984924,68.06025695800781,92.93878173828124,-35.96076965332031
234801,0.1120147705078125,0.996246337890625,-0.3576812744140625,-0.4479828476905823,-0.6976044178009033,-1.204587697982788,67.61605834960938,93.22273254394533,-35.95698547363281
234802,0.1120147705078125,0.996246337890625,-0.3576812744140625,-0.4479828476905823,-0.6976044178009033,-1.204587697982788,67.61605834960938,93.22273254394533,-35.95698547363281
234803,0.285308837890625,1.411102294921875,-0.0893402099609375,-0.6805633306503296,-0.6202638149261475,-1.287898302078247,66.93949890136719,93.64125061035156,-36.0234375
234804,0.4672393798828125,1.97540283203125,0.144683837890625,-1.052184581756592,-0.3027079403400421,-1.110903263092041,66.36322021484375,94.03599548339844,-36.06613159179688
234805,0.369232177734375,3.39459228515625,0.234039306640625,-1.550649762153625,0.5214679837226868,-0.1097826883196831,65.01402282714844,94.9911651611328,-36.06559753417969
234806,0.216461181640625,3.887115478515625,0.135009765625,-1.44536280632019,0.708106279373169,-0.0540896020829677,64.54917907714844,95.58929443359376,-35.61241149902344
234807,0.216461181640625,3.887115478515625,0.135009765625,-1.44536280632019,0.708106279373169,-0.0540896020829677,64.54917907714844,95.58929443359376,-35.61241149902344
234808,0.1238250732421875,3.949172973632812,0.1947174072265625,-1.197626233100891,0.7256107330322266,-0.1996009945869446,64.35688781738281,96.14617919921876,-35.12434387207031
234809,0.0015106201171875,2.799453735351562,0.3734588623046875,-0.7338465452194214,0.8551961183547974,-0.4083158671855927,64.58367919921875,96.79367065429688,-33.81048583984375
234810,0.0015106201171875,2.799453735351562,0.3734588623046875,-0.7338465452194214,0.8551961183547974,-0.4083158671855927,64.58367919921875,96.79367065429688,-33.81048583984375
234811,-0.09326171875,2.212783813476562,0.16595458984375,-0.3481811583042145,0.0120121883228421,-0.3671218156814575,64.86309814453125,97.0717315673828,-32.62570190429688
234812,-0.1384429931640625,2.105850219726562,-0.002960205078125,-0.2727700173854828,-0.6187665462493896,-0.3209548592567444,64.8958740234375,97.27059936523438,-32.17732238769531
234813,-0.1497344970703125,1.94622802734375,-0.19696044921875,-0.3145768344402313,-1.149950861930847,-0.2175110131502151,64.80216979980469,97.26687622070312,-32.0107421875
234814,-0.1497344970703125,1.94622802734375,-0.19696044921875,-0.3145768344402313,-1.149950861930847,-0.2175110131502151,64.80216979980469,97.26687622070312,-32.0107421875
234815,-0.16241455078125,1.708419799804688,-0.19903564453125,-0.3949396014213562,-1.210883736610413,-0.0741338804364204,64.66127014160156,97.26487731933594,-31.94129943847656
234816,-0.116729736328125,1.23309326171875,-0.1236419677734375,-0.3143560588359833,-0.2611282765865326,0.3506909012794495,64.17062377929688,97.35110473632812,-32.06143188476562
234817,-0.0378570556640625,1.117599487304688,-0.087860107421875,-0.1201461181044579,0.0207667965441942,0.5989883542060852,64.17361450195312,97.35780334472656,-32.2161865234375
234818,-0.0378570556640625,1.117599487304688,-0.087860107421875,-0.1201461181044579,0.0207667965441942,0.5989883542060852,64.17361450195312,97.35780334472656,-32.2161865234375
234819,0.0442047119140625,1.063522338867188,-0.0492706298828125,0.0743778273463249,0.1254055947065353,0.7141754031181335,64.39793395996094,97.26380920410156,-32.05949401855469
234820,0.0833740234375,0.86199951171875,-0.018798828125,0.2389497309923172,0.0018972359830513,0.703022837638855,64.93768310546875,97.07356262207033,-32.033203125
234821,0.06317138671875,0.7483062744140625,-0.007537841796875,0.2206926941871643,-0.0725117474794387,0.6589161157608032,65.30894470214844,96.8132781982422,-32.13832092285156
234822,0.0419921875,0.6415557861328125,0.01275634765625,0.1806952059268951,-0.104835070669651,0.6058696508407593,65.5906982421875,96.52142333984376,-32.11503601074219
234823,0.0419921875,0.6415557861328125,0.01275634765625,0.1806952059268951,-0.104835070669651,0.6058696508407593,65.5906982421875,96.52142333984376,-32.11503601074219
234824,0.02398681640625,0.5461883544921875,0.0484161376953125,0.1777313798666,-0.0787318274378776,0.5530397295951843,65.88316345214844,96.4113311767578,-32.09857177734375
234825,-0.018402099609375,0.3922119140625,0.1221160888671875,0.3698305189609528,0.1127103045582771,0.4278232455253601,66.45048522949219,96.19265747070312,-32.33937072753906
234826,-0.018402099609375,0.3922119140625,0.1221160888671875,0.3698305189609528,0.1127103045582771,0.4278232455253601,66.45048522949219,96.19265747070312,-32.33937072753906
234827,-0.042510986328125,0.326690673828125,0.092376708984375,0.5018793344497681,0.1573342233896255,0.3152503669261932,66.69108581542969,96.0076904296875,-32.471435546875
234828,-0.0672607421875,0.252288818359375,0.0078887939453125,0.7099167108535767,-0.2730973064899445,0.0390712358057498,66.90548706054688,95.74104309082033,-32.50613403320312
234829,-0.0662689208984375,0.03729248046875,-0.2355499267578125,0.8334911465644836,-0.7853845953941345,-0.0605720020830631,67.2406005859375,95.52601623535156,-32.93333435058594
234830,-0.0662689208984375,0.03729248046875,-0.2355499267578125,0.8334911465644836,-0.7853845953941345,-0.0605720020830631,67.2406005859375,95.52601623535156,-32.93333435058594
234831,-0.04510498046875,-0.0642852783203125,-0.290191650390625,0.9585036039352416,-1.327706217765808,-0.1178749725222588,67.29579162597656,95.19903564453124,-33.0963134765625
234832,-0.015045166015625,-0.1754302978515625,-0.2116241455078125,0.9942107796669006,-1.518429517745972,-0.1140168532729149,67.13861083984375,95.08963012695312,-33.61415100097656
234833,0.0808258056640625,-0.31884765625,-0.2210235595703125,0.5000889301300049,0.2861886024475098,-0.0512751713395118,66.56636047363281,94.77769470214844,-34.88798522949219
234834,0.0808258056640625,-0.31884765625,-0.2210235595703125,0.5000889301300049,0.2861886024475098,-0.0512751713395118,66.56636047363281,94.77769470214844,-34.88798522949219
234835,0.1339111328125,-0.2621917724609375,-0.2944183349609375,0.3711844682693481,0.4564594030380249,0.048634648323059,66.31486511230469,94.72648620605467,-35.38273620605469
234836,0.1294097900390625,-0.1907196044921875,-0.192138671875,0.2969126403331757,0.1681549251079559,0.225661888718605,66.27397155761719,94.61668395996094,-35.63069152832031
234837,0.1229400634765625,-0.1102142333984375,-0.0205535888671875,0.2195776253938675,0.0854682922363281,0.2624790370464325,66.477294921875,94.48081970214844,-35.68923950195312
234838,0.1229400634765625,-0.1102142333984375,-0.0205535888671875,0.2195776253938675,0.0854682922363281,0.2624790370464325,66.477294921875,94.48081970214844,-35.68923950195312
234839,0.1413116455078125,-0.1034393310546875,-0.0458831787109375,-0.241784930229187,-0.4437007308006287,0.317247211933136,66.70657348632812,94.199951171875,-35.45149230957031
234840,0.1580963134765625,-0.1081390380859375,-0.069549560546875,-0.241784930229187,-0.4437007308006287,0.317247211933136,66.83439636230469,94.10519409179688,-35.31748962402344
234841,0.1832733154296875,-0.1190185546875,-0.04913330078125,-0.4229768216609955,-0.6334400773048401,0.3016951382160187,66.917724609375,94.06982421875,-35.12777709960938
234842,0.1832733154296875,-0.1190185546875,-0.04913330078125,-0.4229768216609955,-0.6334400773048401,0.3016951382160187,66.917724609375,94.06982421875,-35.12777709960938
234843,0.2059783935546875,-0.1263275146484375,-0.0136260986328125,-0.6104084849357605,-0.6677050590515137,0.2534495890140533,66.93424987792969,94.08987426757812,-34.88127136230469
234844,0.2326507568359375,-0.10968017578125,-0.0187225341796875,-0.8744843602180481,-0.6223669052124023,0.0677353739738464,66.9349365234375,94.0623016357422,-34.71371459960938
234845,0.145416259765625,0.275299072265625,-0.0761260986328125,-0.9162834882736206,-0.7444203495979309,-0.2083241790533066,66.849365234375,94.03694152832033,-33.98477172851562
234846,0.145416259765625,0.275299072265625,-0.0761260986328125,-0.9162834882736206,-0.7444203495979309,-0.2083241790533066,66.849365234375,94.03694152832033,-33.98477172851562
234847,0.0644683837890625,0.3551483154296875,0.0720367431640625,-0.9637407064437866,-0.7320489287376404,-0.4819839596748352,66.86116027832031,94.25872802734376,-33.69660949707031
234848,0.0488739013671875,0.3931121826171875,0.2620086669921875,-1.146749138832092,-0.4334888458251953,-0.728351354598999,66.6517333984375,94.43844604492188,-33.41143798828125
234849,0.017303466796875,1.177627563476562,0.6092529296875,-1.823758482933044,0.8425836563110352,-1.485246300697327,66.019775390625,95.12661743164062,-32.79646301269531
234850,0.173187255859375,3.318099975585938,0.6949310302734375,-1.64253306388855,1.493831992149353,-2.953037977218628,65.49360656738281,95.58830261230467,-32.34707641601562
234851,0.173187255859375,3.318099975585938,0.6949310302734375,-1.64253306388855,1.493831992149353,-2.953037977218628,65.49360656738281,95.58830261230467,-32.34707641601562
234852,0.1930999755859375,5.792770385742188,-0.0933380126953125,-0.9085296988487244,-1.458968281745911,-2.404055118560791,64.08792114257812,97.10995483398438,-31.52714538574219
234853,-0.121795654296875,5.882949829101562,0.8936004638671875,-0.2997369170188904,-2.735192537307739,-1.966283202171326,63.09303283691406,97.93002319335938,-30.78327941894531
234854,-0.121795654296875,5.882949829101562,0.8936004638671875,-0.2997369170188904,-2.735192537307739,-1.966283202171326,63.09303283691406,97.93002319335938,-30.78327941894531
234855,-0.2088623046875,3.204513549804688,0.2922821044921875,0.1705991625785828,-1.443134546279907,-0.7793785929679871,60.62846374511719,98.83612060546876,-30.55320739746094
234856,-0.2631378173828125,2.303924560546875,-0.6083984375,1.034136891365051,-2.264918327331543,-0.6197713613510132,59.72793579101562,98.97160339355467,-30.71150207519531
234857,-0.2740325927734375,1.766326904296875,-0.6472625732421875,1.972712278366089,-2.459964275360107,-0.4404490292072296,59.03724670410156,99.0424346923828,-30.97357177734375
234858,-0.3898162841796875,1.458221435546875,-0.9727783203125,1.912377119064331,-0.1568191796541214,0.180216908454895,57.96977233886719,98.75251770019533,-32.43869018554688
234859,-0.3898162841796875,1.458221435546875,-0.9727783203125,1.912377119064331,-0.1568191796541214,0.180216908454895,57.96977233886719,98.75251770019533,-32.43869018554688
234860,-0.0545196533203125,1.70294189453125,-1.4615478515625,1.555393099784851,-0.1190709993243217,0.4840841293334961,57.71244812011719,98.4403076171875,-33.24879455566406
234861,0.1106109619140625,1.594070434570312,-0.12762451171875,1.481508016586304,-0.5297110080718994,0.2704264223575592,58.30464172363281,97.40673828125,-34.76353454589844
234862,0.1106109619140625,1.594070434570312,-0.12762451171875,1.481508016586304,-0.5297110080718994,0.2704264223575592,58.30464172363281,97.40673828125,-34.76353454589844
234863,0.1664886474609375,1.311111450195312,-0.0978546142578125,1.570835709571838,-0.4795985519886017,0.3796703517436981,58.58235168457031,96.94061279296876,-35.45071411132812
234864,0.219818115234375,1.060653686523438,-0.1592864990234375,1.737186670303345,-0.2603218555450439,0.6663900017738342,58.63587951660156,96.583251953125,-36.15861511230469
234865,0.210296630859375,0.76031494140625,-0.2952728271484375,1.5262131690979,0.0741828829050064,1.037041306495667,58.95327758789062,95.80046081542967,-37.64964294433594
234866,0.210296630859375,0.76031494140625,-0.2952728271484375,1.5262131690979,0.0741828829050064,1.037041306495667,58.95327758789062,95.80046081542967,-37.64964294433594
234867,0.115203857421875,0.5000457763671875,0.0406494140625,1.321379542350769,0.0163747128099203,1.011696815490723,59.69052124023438,95.1321258544922,-38.91464233398438
234868,0.0734100341796875,0.4066619873046875,0.1869659423828125,1.335195779800415,0.2849414646625519,0.9127872586250304,60.07221984863281,94.78498840332033,-39.46478271484375
234869,0.0527801513671875,0.2786865234375,0.2237548828125,1.288663744926453,0.5757684707641602,0.8088510036468506,60.49876403808594,94.45875549316406,-40.02995300292969
234870,0.0527801513671875,0.2786865234375,0.2237548828125,1.288663744926453,0.5757684707641602,0.8088510036468506,60.49876403808594,94.45875549316406,-40.02995300292969
234871,0.029876708984375,0.1461639404296875,0.215301513671875,1.180765151977539,0.8110590577125549,0.7053600549697876,61.00154113769531,93.97584533691406,-40.48532104492188
234872,-0.009185791015625,-0.0926055908203125,0.1106109619140625,0.8600428104400635,0.9050441384315492,0.5380104780197144,62.04302978515625,93.177734375,-41.10398864746094
234873,-0.0251007080078125,-0.128936767578125,0.0380859375,0.6559373736381531,0.4310813546180725,0.4519597291946411,62.56919860839844,92.85372924804688,-41.245849609375
234874,-0.02545166015625,-0.128173828125,-0.0025787353515625,0.5641187429428101,0.1409472674131393,0.4046175181865692,63.04177856445312,92.7843017578125,-41.31643676757812
234875,-0.02545166015625,-0.128173828125,-0.0025787353515625,0.5641187429428101,0.1409472674131393,0.4046175181865692,63.04177856445312,92.7843017578125,-41.31643676757812
234876,-0.034454345703125,-0.09942626953125,0.0400238037109375,0.4305423200130463,-0.0399657934904098,0.3352895677089691,63.78221130371094,92.34532165527344,-41.43191528320312
234877,-0.041259765625,-0.1147613525390625,0.090667724609375,0.2364636659622192,-0.0542067810893058,0.2516386210918427,64.02900695800781,92.25010681152344,-41.34138488769531
234878,-0.041259765625,-0.1147613525390625,0.090667724609375,0.2364636659622192,-0.0542067810893058,0.2516386210918427,64.02900695800781,92.25010681152344,-41.34138488769531
234879,-0.0455169677734375,-0.13665771484375,0.102264404296875,0.0172956325113773,0.0352818258106708,0.1718244850635529,64.24105834960938,92.13687133789062,-41.50883483886719
234880,-0.0501556396484375,-0.1570281982421875,0.093719482421875,-0.2014846503734589,0.137725368142128,0.0896332114934921,64.45755004882812,92.22360229492188,-41.56562805175781
234881,-0.0665740966796875,-0.210357666015625,0.075531005859375,-0.6647199392318726,0.3182339072227478,-0.0628721714019775,65.11544799804688,92.35768127441406,-40.6593017578125
234882,-0.0665740966796875,-0.210357666015625,0.075531005859375,-0.6647199392318726,0.3182339072227478,-0.0628721714019775,65.11544799804688,92.35768127441406,-40.6593017578125
234883,-0.0837860107421875,-0.2306976318359375,0.061309814453125,-0.9077685475349426,0.429326593875885,-0.1572388857603073,65.59053039550781,92.22200012207033,-39.84445190429688
234884,-0.1086578369140625,-0.2397003173828125,0.04315185546875,-1.16821563243866,0.5669081807136536,-0.2756262421607971,65.97737121582031,92.17416381835938,-38.8568115234375
234885,-0.1359100341796875,-0.2672271728515625,0.0124969482421875,-1.601018190383911,1.052135586738586,-0.527959942817688,66.67568969726562,91.89176940917967,-36.80894470214844
234886,-0.1359100341796875,-0.2672271728515625,0.0124969482421875,-1.601018190383911,1.052135586738586,-0.527959942817688,66.67568969726562,91.89176940917967,-36.80894470214844
234887,-0.127044677734375,-0.2854156494140625,-0.048187255859375,-1.787006139755249,1.249894499778748,-0.6232523918151855,66.83224487304688,91.74691772460938,-35.62376403808594
234888,-0.061767578125,-0.399871826171875,-0.79156494140625,-1.81773316860199,0.2055425047874451,-0.4612810611724854,66.82183837890625,91.75997924804688,-33.39505004882812
234889,0.0237579345703125,-0.0544281005859375,-0.7791748046875,-1.440999150276184,-1.258317232131958,-0.1884660571813583,66.68125915527344,91.974365234375,-32.32070922851562
234890,0.0237579345703125,-0.0544281005859375,-0.7791748046875,-1.440999150276184,-1.258317232131958,-0.1884660571813583,66.68125915527344,91.974365234375,-32.32070922851562
234891,-0.0178375244140625,0.1688079833984375,-0.114410400390625,-1.213446974754333,-1.597566366195679,-0.0106550408527255,66.54164123535156,92.3507080078125,-31.62733459472656
234892,-0.04522705078125,0.14898681640625,0.3623199462890625,-1.259854674339294,-1.009741544723511,0.0557996146380901,66.34030151367188,92.82801818847656,-31.17385864257812
234893,-0.02105712890625,0.398193359375,0.845611572265625,-1.543312549591064,0.2260525673627853,-0.1462932974100113,65.71748352050781,94.43650817871094,-30.16984558105469
234894,-0.02105712890625,0.398193359375,0.845611572265625,-1.543312549591064,0.2260525673627853,-0.1462932974100113,65.71748352050781,94.43650817871094,-30.16984558105469
234895,-0.2622833251953125,1.90362548828125,1.712127685546875,-2.334106683731079,1.293671250343323,-0.966314435005188,64.53948974609375,96.54136657714844,-30.59788513183594
234896,-0.45001220703125,5.85888671875,2.061737060546875,-2.473434448242188,2.060770273208618,-0.6303273439407349,64.06175231933594,97.43997192382812,-31.20442199707031
234897,-1.10174560546875,8.186798095703125,2.376113891601562,-2.188874483108521,2.775673866271973,2.051922082901001,64.14797973632812,98.22607421875,-32.02554321289062
234898,-1.10174560546875,8.186798095703125,2.376113891601562,-2.188874483108521,2.775673866271973,2.051922082901001,64.14797973632812,98.22607421875,-32.02554321289062
234899,-0.622039794921875,5.20037841796875,-0.78814697265625,0.0165701881051063,1.435011029243469,-0.8337560892105103,66.52830505371094,98.96473693847656,-31.62968444824219
234900,0.226287841796875,1.870742797851562,-1.295074462890625,-0.3994933366775513,-2.515625715255737,-1.088176965713501,67.39956665039062,98.69654846191406,-30.17915344238281
234901,0.2373046875,0.5076446533203125,-1.94317626953125,-0.8348644971847534,-2.967937469482422,-0.3388885855674744,66.94038391113281,98.71714782714844,-29.29704284667969
234902,0.2373046875,0.5076446533203125,-1.94317626953125,-0.8348644971847534,-2.967937469482422,-0.3388885855674744,66.94038391113281,98.71714782714844,-29.29704284667969
234903,0.3363037109375,0.1734619140625,-2.83892822265625,0.0836706608533859,-3.00109601020813,1.337269067764282,65.82875061035156,98.74282836914062,-28.89666748046875
234904,0.298370361328125,1.585174560546875,-0.0134735107421875,1.478590965270996,0.1625673472881317,1.238073229789734,65.08702087402344,98.0682373046875,-29.32023620605469
234905,0.3317108154296875,1.462783813476562,-0.1698455810546875,1.102364659309387,0.7984918355941772,0.7858021855354309,65.57864379882812,97.52316284179688,-29.94985961914062
234906,0.3317108154296875,1.462783813476562,-0.1698455810546875,1.102364659309387,0.7984918355941772,0.7858021855354309,65.57864379882812,97.52316284179688,-29.94985961914062
234907,0.3650054931640625,1.070083618164062,-0.5730133056640625,0.6819945573806763,-0.481175422668457,0.6258348822593689,66.66133117675781,96.55821228027344,-30.89546203613281
234908,0.39923095703125,0.9176025390625,-0.5915069580078125,0.8503665328025818,-0.7241179943084717,0.7393816709518433,67.01399230957031,96.37969970703124,-31.20938110351562
234909,0.4036712646484375,0.802001953125,-0.4327392578125,0.8503665328025818,-0.7241179943084717,0.7393816709518433,67.25753784179688,96.02670288085938,-31.32498168945312
234910,0.4036712646484375,0.802001953125,-0.4327392578125,0.8503665328025818,-0.7241179943084717,0.7393816709518433,67.25753784179688,96.02670288085938,-31.32498168945312
234911,0.3678131103515625,0.7006988525390625,-0.2467193603515625,1.029752731323242,-0.6001526713371277,0.8073583245277405,67.49984741210938,95.9079132080078,-31.70278930664062
234912,0.207000732421875,0.489654541015625,0.003814697265625,1.169625401496887,-0.2002963423728943,0.6795029044151306,67.84770202636719,95.35809326171876,-32.71969604492188
234913,0.1277618408203125,0.38519287109375,0.1373443603515625,1.09396505355835,0.0047108656726777,0.5454707741737366,68.06498718261719,94.93746948242188,-33.14741516113281
234914,0.1277618408203125,0.38519287109375,0.1373443603515625,1.09396505355835,0.0047108656726777,0.5454707741737366,68.06498718261719,94.93746948242188,-33.14741516113281
234915,0.0621490478515625,0.293243408203125,0.246551513671875,0.9008360505104064,0.3533705770969391,0.3734838366508484,68.3297119140625,94.69227600097656,-33.51693725585938
234916,0.022857666015625,0.1841278076171875,0.2296600341796875,0.6516358256340027,0.7123881578445435,0.2043273001909256,68.61929321289062,94.48292541503906,-33.9852294921875
234917,-0.0274658203125,-0.02923583984375,-0.0560760498046875,0.4941197037696838,0.6380582451820374,-0.0916494950652122,69.09503173828125,94.06423950195312,-34.34828186035156
234918,-0.0274658203125,-0.02923583984375,-0.0560760498046875,0.4941197037696838,0.6380582451820374,-0.0916494950652122,69.09503173828125,94.06423950195312,-34.34828186035156
234919,-0.0461273193359375,-0.1138763427734375,-0.104583740234375,0.5887383818626404,-0.0918151438236236,-0.3127318024635315,69.55776977539062,93.94894409179688,-34.37049865722656
234920,-0.0416717529296875,-0.10858154296875,-0.0420989990234375,0.5761296153068542,-0.2486249953508377,-0.4159359633922577,69.54832458496094,93.93106079101562,-34.55300903320312
234921,-0.0435638427734375,-0.107025146484375,-0.02020263671875,0.5363382697105408,-0.3032091557979584,-0.5220695734024048,69.42855834960938,93.99371337890624,-34.46965026855469
234922,-0.0435638427734375,-0.107025146484375,-0.02020263671875,0.5363382697105408,-0.3032091557979584,-0.5220695734024048,69.42855834960938,93.99371337890624,-34.46965026855469
234923,-0.03961181640625,-0.115142822265625,0.0087738037109375,0.3328655660152435,-0.3564774394035339,-0.7244448065757751,69.19610595703125,93.88491821289062,-34.387451171875
234924,-0.0388031005859375,-0.159759521484375,0.0921173095703125,0.1874436587095261,-0.3888811767101288,-0.8101357221603394,68.85722351074219,94.12173461914062,-34.31123352050781
234925,-0.0457763671875,-0.1930694580078125,0.13763427734375,0.0176804605871439,-0.3792253434658051,-0.872709333896637,68.594970703125,94.12301635742188,-33.9810791015625
234926,-0.0457763671875,-0.1930694580078125,0.13763427734375,0.0176804605871439,-0.3792253434658051,-0.872709333896637,68.594970703125,94.12301635742188,-33.9810791015625
234927,-0.0567474365234375,-0.2203521728515625,0.1605224609375,-0.3754377961158752,-0.1940347254276276,-0.948606014251709,68.45867919921875,94.15339660644533,-33.66372680664062
234928,-0.0673980712890625,-0.2213592529296875,0.1695404052734375,-0.5814231634140015,-0.0357295013964176,-0.9795660376548768,68.38107299804688,94.12469482421876,-33.31991577148438
234929,-0.05694580078125,-0.2186737060546875,0.1418609619140625,-0.7936816811561584,0.104513093829155,-1.007307887077332,67.95724487304688,93.60687255859376,-32.09358215332031
234930,-0.05694580078125,-0.2186737060546875,0.1418609619140625,-0.7936816811561584,0.104513093829155,-1.007307887077332,67.95724487304688,93.60687255859376,-32.09358215332031
234931,-0.0376434326171875,-0.2252044677734375,0.119354248046875,-0.9747211933135986,0.1612682491540909,-1.015894174575806,67.60566711425781,93.52565002441406,-31.42559814453125
234932,-0.018157958984375,-0.2186431884765625,0.0680999755859375,-1.31234347820282,-0.142654612660408,-0.9813964366912842,66.57513427734375,93.74203491210938,-30.30154418945312
234933,-0.005706787109375,-0.020721435546875,0.0797119140625,-1.457518815994263,-0.5274571776390076,-0.9027636647224426,66.03157043457031,94.13485717773438,-29.87696838378906
234934,-0.005706787109375,-0.020721435546875,0.0797119140625,-1.457518815994263,-0.5274571776390076,-0.9027636647224426,66.03157043457031,94.13485717773438,-29.87696838378906
234935,-0.0153045654296875,0.15533447265625,0.1308746337890625,-1.540212273597717,-0.9920812845230104,-0.9311423301696776,65.48863220214844,94.57254028320312,-29.29165649414062
234936,-0.0591888427734375,0.3021697998046875,0.37408447265625,-1.642999649047852,-1.942222356796265,-1.132070302963257,64.159423828125,95.7728271484375,-28.37057495117188
234937,-0.065032958984375,0.424835205078125,0.6390228271484375,-1.55540132522583,-2.110237121582031,-1.238244414329529,63.19905090332031,96.66217041015624,-28.11346435546875
234938,-0.065032958984375,0.424835205078125,0.6390228271484375,-1.55540132522583,-2.110237121582031,-1.238244414329529,63.19905090332031,96.66217041015624,-28.11346435546875
234939,-0.158660888671875,0.7093505859375,0.96014404296875,-1.428447961807251,-2.171510934829712,-1.313625812530518,62.052001953125,97.4706573486328,-28.02230834960938
234940,-0.03912353515625,7.403488159179688,1.223007202148438,-1.25139331817627,0.4359408318996429,0.1186933591961861,59.52052307128906,99.0111846923828,-29.1724853515625
234941,-0.615997314453125,8.138290405273438,0.4071502685546875,-0.8286399245262146,-0.1105526089668274,2.628408670425415,58.78384399414062,99.86167907714844,-30.42765808105469
234942,-0.615997314453125,8.138290405273438,0.4071502685546875,-0.8286399245262146,-0.1105526089668274,2.628408670425415,58.78384399414062,99.86167907714844,-30.42765808105469
234943,-0.59234619140625,7.575210571289062,-0.5944671630859375,0.0698206275701522,-1.029824376106262,0.2976804077625275,58.98995971679688,100.2799530029297,-31.31391906738281
234944,0.4459228515625,1.597991943359375,-0.84295654296875,1.368420839309692,-2.124472856521606,1.245598793029785,59.81480407714844,100.0875854492188,-30.97331237792969
234945,0.4361724853515625,1.1046142578125,-0.17041015625,1.891644358634949,-0.6782922148704529,1.295651078224182,59.5570068359375,99.84567260742188,-30.90830993652344
234946,0.4361724853515625,1.1046142578125,-0.17041015625,1.891644358634949,-0.6782922148704529,1.295651078224182,59.5570068359375,99.84567260742188,-30.90830993652344
234947,0.4834747314453125,0.8810882568359375,-0.124969482421875,1.801523566246033,0.4999429881572723,1.200647592544556,59.72749328613281,99.4273681640625,-31.14501953125
234948,0.5240631103515625,1.086761474609375,-0.369232177734375,1.210512399673462,-0.0510629191994667,0.8833798766136169,60.84919738769531,98.12176513671876,-32.23318481445312
234949,0.5394134521484375,1.122726440429688,-0.26519775390625,1.099729418754578,-0.4563472867012024,0.6629095077514648,61.53660583496094,97.59361267089844,-32.75607299804688
234950,0.5081329345703125,1.019515991210938,-0.1571807861328125,1.192290782928467,-0.5035824775695801,0.5322569608688354,62.01943969726562,97.14962768554688,-33.09259033203125
234951,0.5081329345703125,1.019515991210938,-0.1571807861328125,1.192290782928467,-0.5035824775695801,0.5322569608688354,62.01943969726562,97.14962768554688,-33.09259033203125
234952,0.371551513671875,0.8477325439453125,-0.0924835205078125,1.365406394004822,-0.3601043820381165,0.5011605620384216,62.26779174804688,96.88563537597656,-33.70030212402344
234953,0.146759033203125,0.6387786865234375,-0.0453948974609375,1.435788989067078,-0.1600953936576843,0.5888739228248596,62.61508178710938,96.32571411132812,-34.95082092285156
234954,0.146759033203125,0.6387786865234375,-0.0453948974609375,1.435788989067078,-0.1600953936576843,0.5888739228248596,62.61508178710938,96.32571411132812,-34.95082092285156
234955,0.0665435791015625,0.54046630859375,0.027252197265625,1.336290121078491,-0.084615021944046,0.5098254084587097,62.81283569335938,95.9171142578125,-35.54243469238281
234956,-0.0702056884765625,0.290496826171875,0.1321868896484375,1.007566452026367,0.2868916988372803,0.1227789148688316,63.28807067871094,95.3166961669922,-37.0142822265625
234957,-0.1341094970703125,0.1671142578125,0.147216796875,0.8317890763282776,0.4975365400314331,-0.142561137676239,63.63774108886719,95.10125732421876,-37.55497741699219
234958,-0.2168426513671875,0.0553436279296875,0.143341064453125,0.5786665678024292,0.9380143284797668,-0.6276437044143677,63.80624389648438,94.82183837890624,-37.81541442871094
234959,-0.2168426513671875,0.0553436279296875,0.143341064453125,0.5786665678024292,0.9380143284797668,-0.6276437044143677,63.80624389648438,94.82183837890624,-37.81541442871094
234960,-0.3762359619140625,-0.080718994140625,0.150848388671875,0.5786665678024292,0.9380143284797668,-0.6276437044143677,63.98469543457031,94.58268737792967,-38.14701843261719
234961,-0.523529052734375,-0.288848876953125,0.118072509765625,0.3881067335605621,1.917934536933899,-0.4602411091327667,64.174072265625,94.46614074707033,-38.36866760253906
234962,-0.523529052734375,-0.288848876953125,0.118072509765625,0.3881067335605621,1.917934536933899,-0.4602411091327667,64.174072265625,94.46614074707033,-38.36866760253906
234963,-0.3240966796875,-0.2412109375,-0.0737152099609375,0.2357291728258133,1.944011926651001,-0.2744619250297546,64.36276245117188,94.5513916015625,-38.39891052246094
234964,-0.240264892578125,-0.210357666015625,-0.0882110595703125,0.1209876760840416,1.511114120483398,-0.2932403981685638,64.70970153808594,94.55166625976562,-38.25416564941406
234965,-0.193695068359375,-0.192718505859375,-0.0432891845703125,-0.0412869863212108,0.9953471422195436,-0.3417288362979889,64.97297668457031,94.63044738769533,-38.00022888183594
234966,-0.193695068359375,-0.192718505859375,-0.0432891845703125,-0.0412869863212108,0.9953471422195436,-0.3417288362979889,64.97297668457031,94.63044738769533,-38.00022888183594
234967,-0.179229736328125,-0.1902923583984375,0.062469482421875,-0.4529334008693695,0.4275827705860138,-0.4243060052394867,65.3153076171875,94.92141723632812,-37.50747680664062
234968,-0.15625,-0.1827239990234375,0.07037353515625,-0.4529334008693695,0.4275827705860138,-0.4243060052394867,65.46754455566406,95.11477661132812,-37.1904296875
234969,-0.116973876953125,-0.1703033447265625,0.0659332275390625,-0.5498806834220886,0.4608469605445862,-0.4373048841953278,65.55133056640625,95.28099060058594,-36.76972961425781
234970,-0.116973876953125,-0.1703033447265625,0.0659332275390625,-0.5498806834220886,0.4608469605445862,-0.4373048841953278,65.55133056640625,95.28099060058594,-36.76972961425781
234971,-0.0730133056640625,-0.153167724609375,0.0552215576171875,-0.6451385021209717,0.5015363693237305,-0.444571316242218,65.5113525390625,95.51448059082033,-36.33544921875
234972,-0.0393218994140625,-0.1342926025390625,0.0328826904296875,-0.7228724360466003,0.5138348340988159,-0.4548636376857758,65.55072021484375,95.74494934082033,-35.84999084472656
234973,-0.000518798828125,-0.108734130859375,-0.0252532958984375,-1.169567942619324,-0.0684530958533287,-0.5073322057723999,65.5164794921875,96.0595703125,-34.57307434082031
234974,0.0159759521484375,-0.0969085693359375,-0.04150390625,-1.169567942619324,-0.0684530958533287,-0.5073322057723999,65.49922180175781,96.23106384277344,-33.88946533203125
234975,0.04345703125,-0.0644378662109375,-0.0534515380859375,-1.473147749900818,-0.5071526765823364,-0.5198668837547302,65.41860961914062,96.29714965820312,-33.22715759277344
234976,0.0545501708984375,0.00384521484375,-0.0427093505859375,-1.799219846725464,-1.084043383598328,-0.5107194781303406,65.24095153808594,96.41552734375,-32.50904846191406
234977,0.036712646484375,0.037872314453125,0.0265350341796875,-2.05034327507019,-1.600560545921326,-0.4752962291240692,64.95651245117188,96.51084899902344,-31.78727722167969
234978,0.036712646484375,0.037872314453125,0.0265350341796875,-2.05034327507019,-1.600560545921326,-0.4752962291240692,64.95651245117188,96.51084899902344,-31.78727722167969
234979,0.0513458251953125,0.0957183837890625,0.35284423828125,-1.79514467716217,-0.8415602445602417,-0.5795248746871948,63.89900207519531,97.12359619140624,-31.10159301757812
234980,0.089202880859375,0.3231048583984375,0.7028350830078125,-1.79514467716217,-0.8415602445602417,-0.5795248746871948,63.02452087402344,97.52023315429688,-30.65106201171875
234981,0.1691131591796875,1.086212158203125,1.115310668945312,-1.833422899246216,0.3283632397651672,-0.6752069592475891,62.15170288085938,98.03114318847656,-30.20722961425781
234982,0.1691131591796875,1.086212158203125,1.115310668945312,-1.833422899246216,0.3283632397651672,-0.6752069592475891,62.15170288085938,98.03114318847656,-30.20722961425781
234983,0.1244659423828125,6.385391235351562,1.430755615234375,-1.265462517738342,3.634682416915894,1.06974732875824,60.628662109375,99.3732452392578,-29.79373168945312
234984,-0.787109375,7.925796508789062,0.72344970703125,-0.6293925642967224,2.771001100540161,0.6551765203475952,60.46971130371094,100.1844787597656,-29.86753845214844
234985,-0.9413909912109376,7.08343505859375,0.124969482421875,0.1338637918233871,0.2531012296676636,-1.012689113616943,61.01187133789062,100.5017242431641,-29.52349853515625
234986,-0.9413909912109376,7.08343505859375,0.124969482421875,0.1338637918233871,0.2531012296676636,-1.012689113616943,61.01187133789062,100.5017242431641,-29.52349853515625
234987,-0.0658416748046875,2.449020385742188,-0.5314178466796875,-0.0242257118225097,-3.633352279663086,-0.8350583910942078,61.95201110839844,100.4505004882812,-28.699951171875
234988,-0.0658416748046875,2.449020385742188,-0.5314178466796875,-0.0242257118225097,-3.633352279663086,-0.8350583910942078,61.95201110839844,100.4505004882812,-28.699951171875
234989,-0.1064453125,1.106582641601562,-0.69000244140625,0.9368723630905152,1.170582890510559,0.6549924612045288,60.05604553222656,100.7922210693359,-28.8797607421875
234990,-0.1064453125,1.106582641601562,-0.69000244140625,0.9368723630905152,1.170582890510559,0.6549924612045288,60.05604553222656,100.7922210693359,-28.8797607421875
234991,0.0526885986328125,1.405715942382812,-1.068771362304688,1.447391510009766,1.215719699859619,0.9431204199790956,59.30770874023438,100.9085693359375,-29.09602355957031
234992,0.142181396484375,1.481399536132812,-0.4117584228515625,1.348830580711365,0.3550601005554199,1.015522956848145,59.348876953125,100.6664886474609,-29.25958251953125
234993,0.1984405517578125,1.143218994140625,-0.2649688720703125,0.6836816668510437,-0.5415160059928894,1.186665654182434,60.93704223632812,99.50782775878906,-30.24560546875
234994,0.1984405517578125,1.143218994140625,-0.2649688720703125,0.6836816668510437,-0.5415160059928894,1.186665654182434,60.93704223632812,99.50782775878906,-30.24560546875
234995,0.2338409423828125,0.84503173828125,-0.50469970703125,1.033470034599304,-1.389235258102417,1.309838771820068,62.16964721679688,98.54107666015624,-30.99847412109375
234996,0.208251953125,0.7446441650390625,-0.3644866943359375,1.126438856124878,-0.8021560907363892,1.238881468772888,62.57623291015625,98.22003173828124,-31.45904541015625
234997,0.1439208984375,0.6567840576171875,-0.3963165283203125,1.12004828453064,0.051161453127861,1.115303874015808,62.93656921386719,97.87297058105467,-31.96617126464844
234998,0.1439208984375,0.6567840576171875,-0.3963165283203125,1.12004828453064,0.051161453127861,1.115303874015808,62.93656921386719,97.87297058105467,-31.96617126464844
234999,-0.0680694580078125,0.6528167724609375,-0.2042999267578125,1.260743618011475,0.4302512407302856,0.7428863644599915,63.78837585449219,97.22679138183594,-33.13058471679688
235000,-0.1397857666015625,0.597076416015625,0.0765380859375,1.210603833198547,0.574129045009613,0.4895646274089813,64.25581359863281,96.90211486816406,-33.7021484375
235001,-0.1784515380859375,0.4791412353515625,0.1659088134765625,1.109037756919861,0.7512540221214294,0.1962672472000122,64.78831481933594,96.47311401367188,-34.19783020019531
235002,-0.1784515380859375,0.4791412353515625,0.1659088134765625,1.109037756919861,0.7512540221214294,0.1962672472000122,64.78831481933594,96.47311401367188,-34.19783020019531
235003,-0.186065673828125,0.34515380859375,0.2021484375,1.038977742195129,0.8899160623550415,-0.088258221745491,65.26780700683594,96.16868591308594,-34.71159362792969
235004,-0.176544189453125,0.0461273193359375,0.3271331787109375,0.7266381978988647,1.503452181816101,-0.4413944482803345,65.87442016601562,95.60784912109376,-35.23797607421875
235005,-0.1799774169921875,-0.091583251953125,0.212371826171875,0.4798060059547424,1.750758647918701,-0.4351626634597778,66.1175537109375,95.30574035644533,-35.53935241699219
235006,-0.1799774169921875,-0.091583251953125,0.212371826171875,0.4798060059547424,1.750758647918701,-0.4351626634597778,66.1175537109375,95.30574035644533,-35.53935241699219
235007,-0.17144775390625,-0.1761932373046875,0.0322265625,0.3691149353981018,1.294043779373169,-0.2590973377227783,66.38127136230469,95.2220458984375,-35.54916381835938
235008,-0.10546875,-0.229339599609375,-0.122589111328125,0.5325397849082947,0.860889196395874,-0.1440810114145279,66.94161987304688,95.02809143066406,-35.54571533203125
235009,-0.06121826171875,-0.1846923828125,-0.0799560546875,0.6838691234588623,0.5273229479789734,-0.0808738097548484,67.26583862304688,95.10977172851562,-35.40670776367188
235010,-0.06121826171875,-0.1846923828125,-0.0799560546875,0.6838691234588623,0.5273229479789734,-0.0808738097548484,67.26583862304688,95.10977172851562,-35.40670776367188
235011,-0.0245361328125,-0.145233154296875,-0.0009918212890625,0.6521466374397278,0.3103855550289154,-0.1256740391254425,67.45596313476562,95.12213134765624,-35.12828063964844
235012,0.030303955078125,-0.1320953369140625,0.0774688720703125,0.4849177002906799,0.1500765830278397,-0.2277719080448151,67.58786010742188,94.9042510986328,-35.0745849609375
235013,0.056427001953125,-0.1391754150390625,0.1176910400390625,0.4849177002906799,0.1500765830278397,-0.2277719080448151,67.63179016113281,94.91062927246094,-34.90744018554688
235014,0.056427001953125,-0.1391754150390625,0.1176910400390625,0.4849177002906799,0.1500765830278397,-0.2277719080448151,67.63179016113281,94.91062927246094,-34.90744018554688
235015,0.0753021240234375,-0.1493988037109375,0.1536712646484375,0.3715612888336182,0.0453219413757324,-0.2972764074802399,67.57444763183594,94.73248291015624,-34.73231506347656
235016,0.1096649169921875,-0.1663970947265625,0.214630126953125,-0.1004706844687462,-0.1294685155153275,-0.4661701023578644,67.54177856445312,94.45880126953124,-34.32069396972656
235017,0.1324310302734375,-0.1678619384765625,0.247711181640625,-0.4044579863548279,-0.1779686659574509,-0.5738757848739624,67.48744201660156,94.1760711669922,-33.94671630859375
235018,0.1324310302734375,-0.1678619384765625,0.247711181640625,-0.4044579863548279,-0.1779686659574509,-0.5738757848739624,67.48744201660156,94.1760711669922,-33.94671630859375
235019,0.1576080322265625,-0.1596221923828125,0.2543792724609375,-0.7284019589424133,-0.1960163712501526,-0.6849426627159119,67.35284423828125,94.10357666015624,-33.66128540039062
235020,0.1913604736328125,-0.0648651123046875,0.220062255859375,-1.375464916229248,-0.2391476035118103,-0.9064497351646424,66.78970336914062,94.1977996826172,-32.98783874511719
235021,0.1468505859375,0.091827392578125,0.2094879150390625,-1.651339650154114,-0.2035680413246155,-1.043151140213013,66.37205505371094,94.35690307617188,-32.59194946289062
235022,0.0540618896484375,0.17315673828125,0.2130126953125,-1.884345173835754,-0.0994610786437988,-1.181080222129822,65.39208984375,95.3581085205078,-31.41679382324219
235023,0.0540618896484375,0.17315673828125,0.2130126953125,-1.884345173835754,-0.0994610786437988,-1.181080222129822,65.39208984375,95.3581085205078,-31.41679382324219
235024,0.0108795166015625,0.2108306884765625,0.233306884765625,-2.101359844207764,-0.0219891890883445,-1.314311742782593,64.78330993652344,95.89141845703124,-30.84255981445312
235025,0.0137939453125,0.6475372314453125,0.1506195068359375,-1.665420293807983,-0.7816689610481262,-1.773420810699463,63.2662353515625,97.2551727294922,-29.24386596679688
235026,-0.0876922607421875,5.669601440429688,0.9053192138671876,-0.970955491065979,-0.422786146402359,-2.647964239120483,60.89384460449219,98.96533203125,-29.42097473144531
235027,-0.0876922607421875,5.669601440429688,0.9053192138671876,-0.970955491065979,-0.422786146402359,-2.647964239120483,60.89384460449219,98.96533203125,-29.42097473144531
235028,-0.404083251953125,8.087387084960938,0.5914459228515625,-0.4417955279350281,-1.564074993133545,-0.9267563223838806,59.48097229003906,100.0684661865234,-30.55630493164062
235029,-1.6890869140625,7.998001098632812,1.096054077148438,-0.0817643702030181,-1.59152615070343,-0.7445218563079834,58.390869140625,100.9250183105469,-31.80137634277344
235030,-1.6890869140625,7.998001098632812,1.096054077148438,-0.0817643702030181,-1.59152615070343,-0.7445218563079834,58.390869140625,100.9250183105469,-31.80137634277344
235031,-1.819351196289062,5.905288696289062,0.6757049560546875,-0.1100468784570694,0.5137314796447754,-1.398653626441956,57.92599487304688,101.1149444580078,-32.50553894042969
235032,-0.727630615234375,2.227188110351562,-1.196258544921875,-0.3553471863269806,1.186081886291504,-0.3316567540168762,57.65350341796875,100.7565460205078,-32.49891662597656
235033,-0.1734161376953125,1.15240478515625,-1.017349243164062,1.585978150367737,-1.256376624107361,1.486990571022034,57.74082946777344,100.2470092773438,-31.52540588378906
235034,-0.1734161376953125,1.15240478515625,-1.017349243164062,1.585978150367737,-1.256376624107361,1.486990571022034,57.74082946777344,100.2470092773438,-31.52540588378906
235035,-0.03240966796875,1.347640991210938,-0.2671356201171875,2.202375173568726,-0.8952423930168152,1.379035949707031,58.11886596679688,99.9049072265625,-31.66584777832031
235036,0.2450103759765625,1.111602783203125,-0.2444915771484375,1.311022520065308,-1.411601305007935,0.9616315364837646,58.99282836914062,98.83273315429688,-33.222900390625
235037,0.4130096435546875,0.975860595703125,-0.63232421875,1.311022520065308,-1.411601305007935,0.9616315364837646,59.25532531738281,98.23780822753906,-33.95556640625
235038,0.4130096435546875,0.975860595703125,-0.63232421875,1.311022520065308,-1.411601305007935,0.9616315364837646,59.25532531738281,98.23780822753906,-33.95556640625
235039,0.4861602783203125,0.831298828125,-0.167694091796875,0.7649248242378235,-1.280087232589722,0.9526135325431824,59.51823425292969,97.44052124023438,-35.21658325195312
235040,0.4013671875,0.6491851806640625,-0.12774658203125,0.9724138379096984,-0.5653781890869141,0.8796924352645874,59.46247863769531,97.35247802734376,-35.48628234863281
235041,0.215667724609375,0.4957733154296875,0.005401611328125,1.38112461566925,-0.0062930495478212,0.7869039177894592,59.58915710449219,97.1250457763672,-35.80839538574219
235042,0.215667724609375,0.4957733154296875,0.005401611328125,1.38112461566925,-0.0062930495478212,0.7869039177894592,59.58915710449219,97.1250457763672,-35.80839538574219
235043,-0.0040740966796875,0.35986328125,0.2613067626953125,1.709159255027771,1.015803933143616,0.610583484172821,60.41122436523438,96.31297302246094,-36.86929321289062
235044,-0.0687103271484375,0.2787628173828125,0.2366180419921875,1.579408168792725,1.234213471412659,0.5081079602241516,61.01701354980469,95.7926788330078,-37.49801635742188
235045,-0.1202392578125,0.2009735107421875,0.256103515625,1.387808084487915,1.293197751045227,0.3698411583900452,61.62448120117188,95.29544067382812,-38.09480285644531
235046,-0.1202392578125,0.2009735107421875,0.256103515625,1.387808084487915,1.293197751045227,0.3698411583900452,61.62448120117188,95.29544067382812,-38.09480285644531
235047,-0.1561126708984375,0.12591552734375,0.3052215576171875,1.209366202354431,1.330523014068604,0.2007871717214584,62.27217102050781,94.7129364013672,-38.59063720703125
235048,-0.1717681884765625,0.0376434326171875,0.318267822265625,1.078477144241333,1.369568109512329,0.0307411346584558,62.81210327148438,94.413818359375,-38.96836853027344
235049,-0.1584320068359375,-0.1002349853515625,0.1468505859375,0.9187458157539368,1.136383295059204,-0.1818331778049469,63.71865844726562,93.85528564453124,-39.53248596191406
235050,-0.1584320068359375,-0.1002349853515625,0.1468505859375,0.9187458157539368,1.136383295059204,-0.1818331778049469,63.71865844726562,93.85528564453124,-39.53248596191406
235051,-0.1682891845703125,-0.15728759765625,0.0493316650390625,0.8425362706184387,0.4993592202663422,-0.243726372718811,64.32235717773438,93.58233642578124,-39.94210815429688
235052,-0.2129364013671875,-0.2040252685546875,0.080078125,0.7374854683876038,0.3902982473373413,-0.2007179260253906,64.46867370605469,93.472900390625,-40.23918151855469
235053,-0.2411956787109375,-0.2487030029296875,0.0941314697265625,0.5984911322593689,0.407618910074234,-0.1219813004136086,64.66024780273438,93.3739776611328,-40.41224670410156
235054,-0.254150390625,-0.2813262939453125,0.0972747802734375,0.3972301781177521,0.4966539740562439,-0.0463163666427135,64.67994689941406,93.37583923339844,-40.64645385742188
235055,-0.254150390625,-0.2813262939453125,0.0972747802734375,0.3972301781177521,0.4966539740562439,-0.0463163666427135,64.67994689941406,93.37583923339844,-40.64645385742188
235056,-0.2342376708984375,-0.283050537109375,0.1007537841796875,0.1200339943170547,0.6313470602035522,-0.0003797667741309,64.80024719238281,93.32820129394533,-40.51426696777344
235057,-0.1337738037109375,-0.238983154296875,0.0716705322265625,-0.628821611404419,1.025996685028076,-0.0624338164925575,65.37734985351562,93.53759765625,-39.78646850585938
235058,-0.090667724609375,-0.22088623046875,0.022491455078125,-1.045980215072632,1.207142472267151,-0.128605917096138,65.70643615722656,93.68240356445312,-38.86196899414062
235059,-0.090667724609375,-0.22088623046875,0.022491455078125,-1.045980215072632,1.207142472267151,-0.128605917096138,65.70643615722656,93.68240356445312,-38.86196899414062
235060,-0.0210113525390625,-0.180023193359375,-0.1181640625,-1.416012048721313,0.6379333138465881,-0.3257765173912048,66.48777770996094,93.918212890625,-36.59941101074219
235061,-0.0039825439453125,-0.1661376953125,-0.1616363525390625,-1.553560614585876,0.1435678154230118,-0.4331959187984467,66.79078674316406,93.9597625732422,-35.37852478027344
235062,-0.0039825439453125,-0.1661376953125,-0.1616363525390625,-1.553560614585876,0.1435678154230118,-0.4331959187984467,66.79078674316406,93.9597625732422,-35.37852478027344
235063,0.1131439208984375,-0.21417236328125,-0.5921630859375,-1.765986800193787,-1.473062872886658,-0.5551596283912659,67.02459716796875,94.14735412597656,-33.02792358398438
235064,0.2562713623046875,-0.1972808837890625,-0.80181884765625,-1.674917101860046,-3.087819576263428,-0.4554173350334167,66.73115539550781,94.29006958007812,-32.16567993164062
235065,0.2482757568359375,-0.0099334716796875,-0.3827056884765625,-1.506921768188477,-4.198320388793945,-0.3913552463054657,66.18588256835938,94.51083374023438,-31.5980224609375
235066,0.2482757568359375,-0.0099334716796875,-0.3827056884765625,-1.506921768188477,-4.198320388793945,-0.3913552463054657,66.18588256835938,94.51083374023438,-31.5980224609375
235067,0.124755859375,0.0897216796875,0.3828582763671875,-1.311759471893311,-2.548758029937744,-0.5648684501647949,65.50689697265625,94.89175415039062,-31.35107421875
235068,0.102325439453125,0.1480865478515625,0.74603271484375,-1.311759471893311,-2.548758029937744,-0.5648684501647949,64.36454772949219,95.4500732421875,-31.55802917480469
235069,0.1305694580078125,0.70599365234375,1.458297729492188,-1.645424246788025,0.7129644155502319,-0.9210273623466492,61.76495361328125,96.9616241455078,-32.06376647949219
235070,0.1305694580078125,0.70599365234375,1.458297729492188,-1.645424246788025,0.7129644155502319,-0.9210273623466492,61.76495361328125,96.9616241455078,-32.06376647949219
235071,0.1868743896484375,2.443038940429688,1.702285766601562,-2.306394100189209,2.469441890716553,-1.293700575828552,60.67536926269531,97.72865295410156,-32.4005126953125
235072,0.024444580078125,6.776962280273438,1.930862426757812,-3.076743125915527,3.699700832366943,-0.4532298147678375,59.87506103515625,98.6395263671875,-32.833251953125
235073,-2.5159912109375,7.923324584960938,-0.9559326171875,-1.668758034706116,0.9772629141807556,-2.002339124679565,60.39273071289062,100.3621368408203,-32.74385070800781
235074,-1.07159423828125,5.50738525390625,-2.284164428710938,1.779118418693542,-5.120711326599121,-2.877172470092773,61.10401916503906,100.6408996582031,-31.26295471191406
235075,-1.07159423828125,5.50738525390625,-2.284164428710938,1.779118418693542,-5.120711326599121,-2.877172470092773,61.10401916503906,100.6408996582031,-31.26295471191406
235076,-0.153228759765625,0.692169189453125,-1.919219970703125,0.5209478735923767,1.3112633228302,1.549409508705139,58.553466796875,100.986083984375,-31.59506225585938
235077,-0.1233367919921875,1.270004272460938,-1.180923461914062,1.219860434532166,0.553813636302948,2.212257623672485,57.69206237792969,100.6927947998047,-31.95114135742188
235078,-0.120452880859375,1.257476806640625,-0.0247039794921875,1.114727020263672,0.5770156383514404,1.65740442276001,58.36247253417969,100.2129058837891,-31.89447021484375
235079,-0.120452880859375,1.257476806640625,-0.0247039794921875,1.114727020263672,0.5770156383514404,1.65740442276001,58.36247253417969,100.2129058837891,-31.89447021484375
235080,0.0530853271484375,0.9744720458984376,0.014129638671875,0.8592396378517151,0.4174076318740845,1.504809021949768,59.50846862792969,99.49436950683594,-32.02366638183594
235081,0.247894287109375,0.896148681640625,-0.4558868408203125,0.8179643750190735,0.0234999991953373,1.413145184516907,61.49421691894531,98.28387451171876,-32.50349426269531
235082,0.39105224609375,0.9554443359375,-0.76849365234375,1.288707375526428,-0.9729430079460144,1.382398128509521,62.23394775390625,97.91072082519533,-32.91720581054688
235083,0.39105224609375,0.9554443359375,-0.76849365234375,1.288707375526428,-0.9729430079460144,1.382398128509521,62.23394775390625,97.91072082519533,-32.91720581054688
235084,0.2734222412109375,0.8052520751953125,-0.1709747314453125,1.327788949012756,-0.0606015622615814,1.12689745426178,62.8660888671875,97.48806762695312,-33.74383544921875
235085,0.0908966064453125,0.5899200439453125,-0.0391693115234375,1.290322303771973,0.7073161602020264,0.9619982242584229,63.25596618652344,97.15200805664062,-34.41810607910156
235086,0.0908966064453125,0.5899200439453125,-0.0391693115234375,1.290322303771973,0.7073161602020264,0.9619982242584229,63.25596618652344,97.15200805664062,-34.41810607910156
235087,-0.034210205078125,0.5230255126953125,0.1006927490234375,1.109466195106506,1.126799702644348,0.8544403314590454,63.78599548339844,96.81895446777344,-35.14598083496094
235088,-0.09674072265625,0.4134368896484375,0.1177215576171875,0.8659380078315735,1.317867159843445,0.7011147141456604,64.36604309082031,96.27175903320312,-35.41903686523438
235089,-0.172760009765625,0.14849853515625,0.06646728515625,0.8569205403327942,0.9763073921203612,0.3402020633220673,65.63311767578125,95.47088623046876,-35.99522399902344
235090,-0.172760009765625,0.14849853515625,0.06646728515625,0.8569205403327942,0.9763073921203612,0.3402020633220673,65.63311767578125,95.47088623046876,-35.99522399902344
235091,-0.16192626953125,-0.0803985595703125,0.0826873779296875,1.376980543136597,0.2695936560630798,-0.0453800000250339,66.57205200195312,95.0635223388672,-36.21795654296875
235092,-0.1186981201171875,-0.1463775634765625,0.0895843505859375,1.376980543136597,0.2695936560630798,-0.0453800000250339,66.78086853027344,94.82154846191406,-36.40721130371094
235093,-0.082427978515625,-0.1721649169921875,0.09454345703125,1.408387660980225,0.187876433134079,-0.0753368288278579,66.93002319335938,94.53932189941406,-36.90361022949219
235094,-0.082427978515625,-0.1721649169921875,0.09454345703125,1.408387660980225,0.187876433134079,-0.0753368288278579,66.93002319335938,94.53932189941406,-36.90361022949219
235095,-0.0682220458984375,-0.1679229736328125,0.0863494873046875,1.238981366157532,0.3068741858005524,-0.1016659066081047,67.11231994628906,94.06103515625,-38.12155151367188
235096,-0.052581787109375,-0.1798858642578125,0.0906829833984375,1.061943411827087,0.4473831057548523,-0.1215898171067238,67.17445373535156,93.88465881347656,-38.55238342285156
235097,-0.0252227783203125,-0.1861419677734375,0.0929107666015625,0.8457560539245605,0.5841281414031982,-0.1214364171028137,67.21592712402344,93.7681884765625,-38.90386962890625
235098,0.00201416015625,-0.16796875,0.1005401611328125,0.4904567897319794,0.6964004039764404,-0.1683314889669418,67.322265625,93.75398254394533,-39.15060424804688
235099,0.00201416015625,-0.16796875,0.1005401611328125,0.4904567897319794,0.6964004039764404,-0.1683314889669418,67.322265625,93.75398254394533,-39.15060424804688
235100,0.05487060546875,-0.1868438720703125,0.0658721923828125,0.2948926389217377,0.5758321285247803,-0.2314760982990265,67.6041259765625,93.64128112792967,-38.80415344238281
235101,0.0683746337890625,-0.1884613037109375,0.056732177734375,0.0842096880078315,0.3709935247898102,-0.3114870488643646,67.9049072265625,93.29957580566406,-38.32730102539062
235102,0.07611083984375,-0.1778411865234375,0.0491790771484375,-0.1410343497991562,0.0991042107343673,-0.415952205657959,68.04353332519531,93.02131652832033,-37.89201354980469
235103,0.07611083984375,-0.1778411865234375,0.0491790771484375,-0.1410343497991562,0.0991042107343673,-0.415952205657959,68.04353332519531,93.02131652832033,-37.89201354980469
235104,0.084442138671875,-0.1740875244140625,0.054931640625,-0.4198201894760132,-0.1991629004478455,-0.5377708077430725,68.08872985839844,92.61679077148438,-37.25340270996094
235105,0.1236724853515625,-0.1753997802734375,0.081878662109375,-1.105912566184998,-0.684477686882019,-0.8482442498207092,67.71058654785156,92.27346801757812,-36.44316101074219
235106,0.1236724853515625,-0.1753997802734375,0.081878662109375,-1.105912566184998,-0.684477686882019,-0.8482442498207092,67.71058654785156,92.27346801757812,-36.44316101074219
235107,0.1514434814453125,-0.156280517578125,0.0586090087890625,-1.44259786605835,-0.8507766127586365,-1.037484407424927,67.39625549316406,92.25090026855467,-35.95893859863281
235108,0.29736328125,0.0530853271484375,-0.8095550537109375,-1.32292366027832,-2.689971446990967,-1.277533054351807,66.10598754882812,92.94361877441406,-34.79757690429688
235109,0.1966400146484375,0.219635009765625,-0.403656005859375,-1.04636561870575,-3.912742614746094,-1.396331310272217,65.26039123535156,93.45449829101562,-34.2386474609375
235110,0.10174560546875,0.2173614501953125,0.348876953125,-1.515219926834106,-2.084670305252075,-1.602881550788879,64.13169860839844,94.04100036621094,-34.00863647460938
235111,0.10174560546875,0.2173614501953125,0.348876953125,-1.515219926834106,-2.084670305252075,-1.602881550788879,64.13169860839844,94.04100036621094,-34.00863647460938
235112,0.0695953369140625,0.2451629638671875,0.7177734375,-1.515219926834106,-2.084670305252075,-1.602881550788879,62.81953430175781,94.53536987304688,-33.95675659179688
235113,0.0316009521484375,0.765869140625,0.4378204345703125,-1.61244523525238,0.5696514844894409,-2.072679758071899,60.09461975097656,95.92837524414062,-33.54023742675781
235114,0.0316009521484375,0.765869140625,0.4378204345703125,-1.61244523525238,0.5696514844894409,-2.072679758071899,60.09461975097656,95.92837524414062,-33.54023742675781
235115,0.00634765625,2.49884033203125,0.47857666015625,-1.88499128818512,0.7433305978775024,-2.780985355377197,58.84698486328125,96.70118713378906,-33.23698425292969
235116,-1.544235229492188,8.149337768554688,-0.444610595703125,-0.6306349635124207,-3.224078178405762,-2.182215452194214,55.78544616699219,98.70838928222656,-34.08306884765625
235117,-3.709304809570312,7.743438720703125,0.935699462890625,-1.221553921699524,1.190606117248535,-0.6538294553756714,54.0535888671875,99.79208374023438,-35.64186096191406
235118,-3.709304809570312,7.743438720703125,0.935699462890625,-1.221553921699524,1.190606117248535,-0.6538294553756714,54.0535888671875,99.79208374023438,-35.64186096191406
235119,-1.741348266601562,4.500640869140625,-1.134963989257812,0.1158120855689049,1.494634389877319,-0.2423985302448273,52.73104858398438,100.5440063476562,-36.84861755371094
235120,-0.3734893798828125,1.242599487304688,-0.44683837890625,1.608518600463867,0.1507570147514343,1.219223141670227,53.31071472167969,100.2265167236328,-35.88595581054688
235121,-0.181640625,0.9606475830078124,-0.29534912109375,1.874278426170349,0.1422878950834274,1.142081141471863,54.026611328125,99.65924072265624,-35.469482421875
235122,-0.1115570068359375,0.8249969482421875,-0.159027099609375,1.703996419906616,-0.4241597950458527,0.7885558605194092,54.80894470214844,98.85758972167967,-35.68519592285156
235123,-0.1115570068359375,0.8249969482421875,-0.159027099609375,1.703996419906616,-0.4241597950458527,0.7885558605194092,54.80894470214844,98.85758972167967,-35.68519592285156
235124,0.171417236328125,0.6219329833984375,-0.6020660400390625,1.638688325881958,-1.268544554710388,0.8733090758323669,55.77586364746094,97.69747924804688,-36.67646789550781
235125,0.2264862060546875,0.5849456787109375,-0.4929046630859375,1.470381617546082,-1.583567261695862,0.9367618560791016,55.87641906738281,97.28433227539062,-37.45030212402344
235126,0.2264862060546875,0.5849456787109375,-0.4929046630859375,1.470381617546082,-1.583567261695862,0.9367618560791016,55.87641906738281,97.28433227539062,-37.45030212402344
235127,0.2476043701171875,0.49993896484375,-0.287139892578125,0.9581015110015868,-0.547086775302887,0.8527764081954956,55.88755798339844,96.98904418945312,-38.1990966796875
235128,0.1370697021484375,0.4933624267578125,0.0009918212890625,1.117274880409241,0.510468602180481,0.6554667949676514,55.82759094238281,96.54035949707033,-39.30201721191406
235129,0.0632171630859375,0.395111083984375,0.137908935546875,1.25472092628479,0.7531027793884277,0.5599554181098938,56.16232299804688,96.2867431640625,-39.63163757324219
235130,0.0632171630859375,0.395111083984375,0.137908935546875,1.25472092628479,0.7531027793884277,0.5599554181098938,56.16232299804688,96.2867431640625,-39.63163757324219
235131,0.0419158935546875,0.2871856689453125,0.1568450927734375,0.953907549381256,0.9848470687866212,0.5536067485809326,56.59346008300781,95.94309997558594,-39.93832397460938
235132,0.0531005859375,0.0858306884765625,0.234405517578125,0.7117830514907837,1.086146593093872,0.5742776393890381,57.51873779296875,95.17962646484376,-40.81936645507812
235133,0.0535125732421875,-0.010223388671875,0.22607421875,0.5226997137069702,1.161053538322449,0.5881391763687134,58.06103515625,94.88191223144533,-41.08390808105469
235134,0.0445709228515625,-0.0981597900390625,0.160491943359375,0.4389898777008057,1.133384585380554,0.5759575963020325,58.63349914550781,94.62950134277344,-41.40074157714844
235135,0.0445709228515625,-0.0981597900390625,0.160491943359375,0.4389898777008057,1.133384585380554,0.5759575963020325,58.63349914550781,94.62950134277344,-41.40074157714844
235136,0.0236358642578125,-0.1617279052734375,-0.0111236572265625,0.4767106175422668,0.6003441214561462,0.5421825647354126,59.85574340820312,94.0390167236328,-41.38572692871094
235137,0.0125579833984375,-0.141082763671875,-0.033294677734375,0.4947918951511383,0.2994394302368164,0.5304990410804749,60.39242553710938,93.83294677734376,-41.36030578613281
235138,0.0125579833984375,-0.141082763671875,-0.033294677734375,0.4947918951511383,0.2994394302368164,0.5304990410804749,60.39242553710938,93.83294677734376,-41.36030578613281
235139,-0.0039215087890625,-0.1283111572265625,0.03509521484375,0.4320097267627716,-0.0290494952350854,0.4966624975204468,61.24085998535156,93.61628723144533,-41.28178405761719
235140,-0.014862060546875,-0.1254119873046875,0.0902862548828125,0.2833763062953949,-0.0519809089601039,0.4461039900779724,61.55679321289062,93.48829650878906,-41.26142883300781
235141,-0.0254364013671875,-0.1257476806640625,0.13299560546875,0.0588878169655799,0.0534917190670967,0.3840195834636688,61.86349487304688,93.32902526855467,-40.9747314453125
235142,-0.036712646484375,-0.1427459716796875,0.13800048828125,-0.2323626726865768,0.2077667713165283,0.3097189664840698,62.19084167480469,93.27726745605467,-40.85220336914062
235143,-0.036712646484375,-0.1427459716796875,0.13800048828125,-0.2323626726865768,0.2077667713165283,0.3097189664840698,62.19084167480469,93.27726745605467,-40.85220336914062
235144,-0.0637664794921875,-0.1834259033203125,0.074493408203125,-0.8641369342803955,0.3855897784233093,0.1839658468961716,63.02525329589844,93.37623596191406,-39.97885131835938
235145,-0.0836334228515625,-0.189178466796875,0.0471038818359375,-1.137914896011353,0.4012489020824432,0.1393965035676956,63.56663513183594,93.43165588378906,-39.16435241699219
235146,-0.0836334228515625,-0.189178466796875,0.0471038818359375,-1.137914896011353,0.4012489020824432,0.1393965035676956,63.56663513183594,93.43165588378906,-39.16435241699219
235147,-0.125732421875,-0.2259521484375,0.023529052734375,-1.369852304458618,0.4641487598419189,0.1374790370464325,64.17845153808594,93.25730895996094,-38.05123901367188
235148,-0.145172119140625,-0.2877960205078125,-0.2264862060546875,-1.625092029571533,0.2803522944450378,0.1846489459276199,65.27978515625,92.82164001464844,-35.78260803222656
235149,-0.1451263427734375,-0.307861328125,-0.5488433837890625,-1.540994167327881,-0.6406207084655762,0.1359748840332031,65.56240844726562,92.68414306640624,-34.66560363769531
235150,-0.1451263427734375,-0.307861328125,-0.5488433837890625,-1.540994167327881,-0.6406207084655762,0.1359748840332031,65.56240844726562,92.68414306640624,-34.66560363769531
235151,-0.080108642578125,-0.2342529296875,-0.6215057373046875,-1.295703768730164,-1.982362031936646,0.020447751507163,65.81809997558594,92.44395446777344,-33.69613647460938
235152,0.0701904296875,0.1118621826171875,0.2010345458984375,-1.147291660308838,-2.415602922439575,-0.1817599385976791,65.3875732421875,92.5491180419922,-32.53327941894531
235153,0.06353759765625,0.144073486328125,0.4974517822265625,-1.299820780754089,-1.610802054405212,-0.2370551526546478,65.01310729980469,93.0054168701172,-32.31745910644531
235154,0.06353759765625,0.144073486328125,0.4974517822265625,-1.299820780754089,-1.610802054405212,-0.2370551526546478,65.01310729980469,93.0054168701172,-32.31745910644531
235155,0.0768585205078125,0.217071533203125,0.66534423828125,-1.424446582794189,-0.6766232252120972,-0.3506024777889252,64.34812927246094,93.68875122070312,-32.29647827148438
235156,0.076019287109375,0.6502838134765625,1.178787231445312,-2.078724145889282,1.314847588539124,-0.6618623733520508,62.76969909667969,95.57185363769533,-32.24855041503906
235157,0.0358428955078125,1.860260009765625,1.433502197265625,-2.79576301574707,2.016236066818237,-1.176811218261719,61.85540771484375,96.41001892089844,-32.29768371582031
235158,-0.0542755126953125,5.643081665039062,1.653167724609375,-3.334061622619629,2.131496429443359,1.204930663108826,61.22142028808594,97.24610900878906,-32.5882568359375
235159,-0.8413848876953125,8.179473876953125,1.758010864257812,-3.334061622619629,2.131496429443359,1.204930663108826,60.86296081542969,98.16184997558594,-33.0845947265625
235160,-2.188369750976562,7.964096069335938,0.52044677734375,-2.016771078109741,1.786025047302246,0.313065767288208,61.00215148925781,99.08479309082033,-33.55120849609375
235161,-0.93304443359375,5.744857788085938,-1.630111694335938,0.3179710507392883,-1.835224032402039,-1.729135036468506,61.77787780761719,99.87136840820312,-33.41844177246094
235162,0.099853515625,1.956634521484375,-1.423751831054688,0.5219476222991943,-0.4769798815250397,1.424480080604553,62.23316955566406,100.3900451660156,-32.40846252441406
235163,0.099853515625,1.956634521484375,-1.423751831054688,0.5219476222991943,-0.4769798815250397,1.424480080604553,62.23316955566406,100.3900451660156,-32.40846252441406
235164,-0.091705322265625,0.7130889892578125,-0.672119140625,0.5219476222991943,-0.4769798815250397,1.424480080604553,61.56468200683594,100.7106018066406,-31.6175537109375
235165,0.1453857421875,0.8392486572265625,-0.151214599609375,1.127479910850525,0.4026369452476501,1.779775142669678,59.96662902832031,100.5688934326172,-31.62013244628906
235166,0.1453857421875,0.8392486572265625,-0.151214599609375,1.127479910850525,0.4026369452476501,1.779775142669678,59.96662902832031,100.5688934326172,-31.62013244628906
235167,0.245819091796875,0.8348541259765625,-0.15936279296875,1.053953766822815,0.2599458396434784,1.504130482673645,60.78024291992188,99.94076538085938,-31.44914245605469
235168,0.324462890625,1.063201904296875,-0.683990478515625,0.7478939294815063,-1.146866917610168,0.7410064339637756,62.67793273925781,98.516845703125,-31.76055908203125
235169,0.2132415771484375,0.9054107666015624,-0.6019287109375,0.8482138514518738,-1.38358199596405,0.5205976366996765,63.30596923828125,98.0303192138672,-32.14544677734375
235170,0.2132415771484375,0.9054107666015624,-0.6019287109375,0.8482138514518738,-1.38358199596405,0.5205976366996765,63.30596923828125,98.0303192138672,-32.14544677734375
235171,-0.031005859375,0.695404052734375,-0.5039520263671875,1.016659021377563,-0.6612234711647034,0.488911360502243,63.58135986328125,97.67903137207033,-32.59451293945312
235172,-0.1998138427734375,0.5859222412109375,-0.53289794921875,1.149279713630676,0.1021508723497391,0.5555844306945801,63.68397521972656,97.52529907226562,-33.15524291992188
235173,-0.200531005859375,0.549896240234375,-0.263458251953125,1.000874280929565,0.4757060706615448,0.4097398519515991,63.93186950683594,96.98121643066406,-34.32997131347656
235174,-0.1840667724609375,0.4898834228515625,-0.078033447265625,1.000874280929565,0.4757060706615448,0.4097398519515991,64.329833984375,96.67355346679688,-34.60353088378906
235175,-0.1840667724609375,0.4898834228515625,-0.078033447265625,1.000874280929565,0.4757060706615448,0.4097398519515991,64.329833984375,96.67355346679688,-34.60353088378906
235176,-0.1091156005859375,0.311492919921875,0.134735107421875,0.9986199140548706,0.7296541929244995,0.1378393620252609,64.97068786621094,95.95040893554688,-35.21293640136719
235177,-0.075836181640625,0.2098236083984375,0.2457427978515625,0.9522143006324768,1.001471281051636,0.0156628489494323,65.35140991210938,95.68125915527344,-35.57394409179688
235178,-0.075836181640625,0.2098236083984375,0.2457427978515625,0.9522143006324768,1.001471281051636,0.0156628489494323,65.35140991210938,95.68125915527344,-35.57394409179688
235179,-0.009002685546875,0.0016937255859375,0.2111968994140625,0.6395323276519775,1.656108856201172,-0.1450637131929398,65.70199584960938,95.25698852539062,-36.33372497558594
235180,0.0161285400390625,-0.09564208984375,0.022491455078125,0.5875300765037537,1.579726219177246,-0.170114204287529,65.89704895019531,95.20100402832033,-36.61146545410156
235181,0.02850341796875,-0.1493988037109375,-0.0915374755859375,0.6738678812980652,1.256510257720947,-0.160884216427803,66.16328430175781,95.17416381835938,-36.65235900878906
235182,0.038330078125,-0.167633056640625,-0.0999755859375,0.83116215467453,0.8789270520210266,-0.1141481399536133,66.4423828125,94.90811157226562,-36.44692993164062
235183,0.038330078125,-0.167633056640625,-0.0999755859375,0.83116215467453,0.8789270520210266,-0.1141481399536133,66.4423828125,94.90811157226562,-36.44692993164062
235184,0.0380096435546875,-0.1108856201171875,0.039947509765625,1.031716823577881,0.5501763224601746,-0.0700517892837524,66.90777587890625,94.7574462890625,-36.29518127441406
235185,0.038818359375,-0.104156494140625,0.0679779052734375,1.011119723320007,0.4784858822822571,-0.123267337679863,67.12449645996094,94.57829284667967,-36.22334289550781
235186,0.0462646484375,-0.1111602783203125,0.0659942626953125,0.9185484647750854,0.3444409966468811,-0.1898306608200073,67.27436828613281,94.10885620117188,-36.23576354980469
235187,0.0462646484375,-0.1111602783203125,0.0659942626953125,0.9185484647750854,0.3444409966468811,-0.1898306608200073,67.27436828613281,94.10885620117188,-36.23576354980469
235188,0.0639190673828125,-0.133056640625,0.0861053466796875,0.5044280290603638,-0.1351029574871063,-0.3612522184848785,67.41943359375,93.44906616210938,-35.92903137207031
235189,0.0745849609375,-0.1517333984375,0.1110076904296875,0.1593425124883652,-0.4096421003341675,-0.4506590366363525,67.38885498046875,93.168212890625,-35.71369934082031
235190,0.0745849609375,-0.1517333984375,0.1110076904296875,0.1593425124883652,-0.4096421003341675,-0.4506590366363525,67.38885498046875,93.168212890625,-35.71369934082031
235191,0.0850982666015625,-0.1444244384765625,0.144805908203125,-0.5990464091300964,-0.8084920048713684,-0.6275075674057007,67.05705261230469,92.84553527832033,-35.20249938964844
235192,0.0929718017578125,-0.138427734375,0.1796112060546875,-0.9491692185401917,-0.7874200344085693,-0.70533287525177,66.64906311035156,92.79360961914062,-34.95405578613281
235193,0.1130828857421875,-0.0758819580078125,0.16973876953125,-1.321191549301147,-0.7217600345611572,-0.7898999452590942,66.25277709960938,92.99974060058594,-34.62802124023438
235194,0.1130828857421875,-0.0758819580078125,0.16973876953125,-1.321191549301147,-0.7217600345611572,-0.7898999452590942,66.25277709960938,92.99974060058594,-34.62802124023438
235195,0.072357177734375,0.11090087890625,0.185577392578125,-1.666293501853943,-0.6834608912467957,-0.9118010997772216,65.85235595703125,93.35659790039062,-34.238525390625
235196,0.01416015625,0.1652374267578125,0.2442169189453125,-2.319060087203979,-0.5797595381736755,-1.144182443618774,65.27792358398438,93.78038024902344,-33.74263000488281
235197,-0.0127410888671875,0.320281982421875,0.6104278564453125,-2.466817140579224,-0.5055571794509888,-1.304106831550598,64.00825500488281,95.20808410644533,-32.38215637207031
235198,0.0090179443359375,0.825897216796875,1.067398071289062,-2.560416221618652,-0.0290329828858375,-1.654117584228516,63.1630859375,96.23675537109376,-31.74520874023438
235199,0.0090179443359375,0.825897216796875,1.067398071289062,-2.560416221618652,-0.0290329828858375,-1.654117584228516,63.1630859375,96.23675537109376,-31.74520874023438
235200,0.0905609130859375,7.264999389648438,1.215072631835938,-2.055220365524292,0.2809427082538605,-1.149428844451904,61.27421569824219,98.4819793701172,-31.50080871582031
235201,-1.015777587890625,8.121063232421875,1.135726928710938,-1.68714714050293,-1.252232432365417,0.3311305344104767,60.71949768066406,99.41705322265624,-31.8765869140625
235202,-1.015777587890625,8.121063232421875,1.135726928710938,-1.68714714050293,-1.252232432365417,0.3311305344104767,60.71949768066406,99.41705322265624,-31.8765869140625
235203,-0.6180877685546875,4.759902954101562,-0.4550018310546875,0.7744680047035217,-2.511353015899658,-2.57602858543396,60.48898315429688,99.86508178710938,-31.75495910644531
235204,-0.1321258544921875,1.744964599609375,-1.57672119140625,1.133373737335205,-3.991185188293457,-1.665320992469788,59.40626525878906,99.85099792480467,-31.89065551757812
235205,-0.0679168701171875,0.4087066650390625,-1.910385131835938,0.5554594993591309,-3.382960796356201,0.367874950170517,57.65354919433594,99.883056640625,-32.31527709960938
235206,-0.0679168701171875,0.4087066650390625,-1.910385131835938,0.5554594993591309,-3.382960796356201,0.367874950170517,57.65354919433594,99.883056640625,-32.31527709960938
235207,0.192718505859375,0.8758697509765625,-1.062744140625,1.154639840126038,-0.7596725821495056,1.127092957496643,56.31674194335938,99.95301818847656,-32.82209777832031
235208,0.1893310546875,1.398056030273438,-0.082183837890625,2.924780368804932,0.4612104892730713,0.7048817276954651,56.44416809082031,99.14138793945312,-33.65968322753906
235209,0.20611572265625,1.195785522460938,-0.0541229248046875,2.522950649261475,0.1378659904003143,0.7189874649047852,57.08406066894531,98.35165405273438,-34.76300048828125
235210,0.1592864990234375,0.928375244140625,0.036468505859375,1.813519716262817,0.0087309069931507,0.7165994048118591,57.60783386230469,97.6337890625,-35.91717529296875
235211,0.1592864990234375,0.928375244140625,0.036468505859375,1.813519716262817,0.0087309069931507,0.7165994048118591,57.60783386230469,97.6337890625,-35.91717529296875
235212,0.2086029052734375,0.377105712890625,-0.3462371826171875,1.079062223434448,-0.5293746590614319,0.8607778549194336,58.36021423339844,96.51585388183594,-37.53120422363281
235213,0.2019805908203125,0.2219696044921875,-0.257354736328125,1.379714488983154,-0.7987056970596313,0.9425358176231384,58.534423828125,96.2770538330078,-37.84916687011719
235214,0.1724090576171875,0.1413421630859375,0.03497314453125,1.379714488983154,-0.7987056970596313,0.9425358176231384,58.71981811523438,95.9905242919922,-38.19467163085938
235215,0.146087646484375,0.0298004150390625,0.1104888916015625,1.410509943962097,-0.2307874113321304,0.8619038462638855,58.90696716308594,95.68789672851562,-38.73674011230469
235216,0.115936279296875,-0.0888824462890625,0.008697509765625,1.294450759887695,0.1260737776756287,0.7915862798690796,59.03730773925781,95.35069274902344,-39.30955505371094
235217,0.0794677734375,-0.164886474609375,-0.013824462890625,1.127433776855469,0.2025991827249527,0.7384756803512573,59.43582153320312,94.85368347167967,-39.86567687988281
235218,0.0390777587890625,-0.1976318359375,0.0552215576171875,0.959366500377655,0.2574307322502136,0.6949987411499023,59.82713317871094,94.41227722167967,-40.42170715332031
235219,0.0390777587890625,-0.1976318359375,0.0552215576171875,0.959366500377655,0.2574307322502136,0.6949987411499023,59.82713317871094,94.41227722167967,-40.42170715332031
235220,-0.0110626220703125,-0.183746337890625,0.1212921142578125,0.6634680032730103,0.4627040028572083,0.6010022163391113,60.64178466796875,93.78135681152344,-40.94395446777344
235221,-0.02508544921875,-0.176422119140625,0.0573883056640625,0.5163906812667847,0.4663874208927155,0.5485741496086121,60.998779296875,93.587158203125,-41.07498168945312
235222,-0.02508544921875,-0.176422119140625,0.0573883056640625,0.5163906812667847,0.4663874208927155,0.5485741496086121,60.998779296875,93.587158203125,-41.07498168945312
235223,-0.063140869140625,-0.1910247802734375,-0.013702392578125,0.2284137308597565,0.0824426785111427,0.4238862991333008,61.81031799316406,93.2490692138672,-41.34326171875
235224,-0.0896148681640625,-0.205657958984375,0.01837158203125,0.0623254254460334,0.0161334294825792,0.3370121121406555,62.1712646484375,93.11228942871094,-41.2452392578125
235225,-0.1218414306640625,-0.2185211181640625,0.052642822265625,-0.1091832146048546,0.1529421508312225,0.2224202901124954,62.427001953125,93.10972595214844,-41.14494323730469
235226,-0.1631927490234375,-0.237030029296875,0.0542449951171875,-0.2796348333358765,0.4797141253948212,0.0740278884768486,62.63595581054688,93.13919067382812,-40.92005920410156
235227,-0.1631927490234375,-0.237030029296875,0.0542449951171875,-0.2796348333358765,0.4797141253948212,0.0740278884768486,62.63595581054688,93.13919067382812,-40.92005920410156
235228,-0.3671875,-0.282562255859375,-0.0362701416015625,-0.5413026809692383,1.149563074111938,-0.3711842000484467,63.61880493164062,93.349365234375,-40.11296081542969
235229,-0.3953857421875,-0.309814453125,-0.0467987060546875,-0.6443994641304016,1.460601687431335,-0.6212475895881653,64.09681701660156,93.477783203125,-39.44232177734375
235230,-0.3953857421875,-0.309814453125,-0.0467987060546875,-0.6443994641304016,1.460601687431335,-0.6212475895881653,64.09681701660156,93.477783203125,-39.44232177734375
235231,-0.192169189453125,-0.3269500732421875,-0.05902099609375,-0.934326946735382,1.395669221878052,-0.5378949046134949,64.94627380371094,93.91423034667967,-37.582275390625
235232,-0.1164398193359375,-0.282196044921875,-0.08599853515625,-1.119547367095947,1.055440068244934,-0.3913757503032684,65.28007507324219,93.95329284667967,-36.53082275390625
235233,-0.0491180419921875,-0.2276458740234375,-0.1291656494140625,-1.243601202964783,0.5666953921318054,-0.2950846254825592,65.54521179199219,94.06867980957033,-35.58137512207031
235234,-0.0491180419921875,-0.2276458740234375,-0.1291656494140625,-1.243601202964783,0.5666953921318054,-0.2950846254825592,65.54521179199219,94.06867980957033,-35.58137512207031
235235,0.02642822265625,-0.1103668212890625,-0.1815032958984375,-1.299844145774841,-0.0228022523224353,-0.245631068944931,65.66786193847656,94.08006286621094,-34.73052978515625
235236,0.0269622802734375,0.0814666748046875,-0.139251708984375,-1.373098373413086,-1.171862006187439,-0.2041709721088409,65.63648986816406,94.41432189941406,-33.54835510253906
235237,0.0176544189453125,0.0979156494140625,0.0570068359375,-1.406395077705383,-1.333530783653259,-0.1861834526062012,65.28691101074219,94.82997131347656,-33.09150695800781
235238,0.0176544189453125,0.0979156494140625,0.0570068359375,-1.406395077705383,-1.333530783653259,-0.1861834526062012,65.28691101074219,94.82997131347656,-33.09150695800781
235239,0.0098114013671875,0.0934600830078125,0.2352142333984375,-1.427548289299011,-1.055537819862366,-0.164877638220787,64.85005187988281,95.44400024414062,-32.99327087402344
235240,0.0142974853515625,0.117095947265625,0.3988800048828125,-1.384862422943115,-0.5144782662391663,-0.1531056612730026,64.13847351074219,95.98112487792967,-32.90226745605469
235241,0.03729248046875,0.9340057373046876,1.104263305664062,-1.432394504547119,1.13630747795105,-0.4401549994945526,62.47184753417969,97.1845703125,-33.13688659667969
235242,0.10528564453125,4.649185180664062,1.56756591796875,-1.883764624595642,3.788195133209229,1.977260708808899,61.92973327636719,97.74188232421876,-33.58489990234375
235243,0.10528564453125,4.649185180664062,1.56756591796875,-1.883764624595642,3.788195133209229,1.977260708808899,61.92973327636719,97.74188232421876,-33.58489990234375
235244,-1.126937866210938,8.05584716796875,0.9260101318359376,-1.762728452682495,2.962031841278076,1.254763841629028,62.28456115722656,99.04762268066406,-34.8138427734375
235245,-0.9045257568359376,7.006439208984375,-0.1634674072265625,-0.71295166015625,0.3799103200435638,-1.511152982711792,63.58689880371094,99.21360778808594,-34.26371765136719
235246,0.04937744140625,3.5458984375,-0.882659912109375,-0.4029037654399872,-2.57528018951416,-1.304645299911499,64.46693420410156,99.0976104736328,-33.05551147460938
235247,0.04937744140625,3.5458984375,-0.882659912109375,-0.4029037654399872,-2.57528018951416,-1.304645299911499,64.46693420410156,99.0976104736328,-33.05551147460938
235248,0.45751953125,0.856658935546875,-0.733245849609375,-0.0937166363000869,-2.743904113769531,0.3303209245204926,62.77870178222656,99.400634765625,-32.07733154296875
235249,0.649993896484375,0.6963348388671875,-0.9068603515625,0.3320269286632538,0.7461431622505188,0.958551824092865,61.76033020019531,99.50944519042967,-32.08651733398438
235250,0.649993896484375,0.6963348388671875,-0.9068603515625,0.3320269286632538,0.7461431622505188,0.958551824092865,61.76033020019531,99.50944519042967,-32.08651733398438
235251,0.414581298828125,1.28607177734375,-0.8045654296875,1.415192127227783,0.533261239528656,1.268350481987,61.38798522949219,99.32728576660156,-32.02413940429688
235252,0.233551025390625,1.425460815429688,-0.3477935791015625,1.294895172119141,-0.753671407699585,0.7159152030944824,62.58073425292969,98.4492645263672,-32.48660278320312
235253,0.16717529296875,1.1143798828125,-0.23638916015625,0.7447553873062134,-0.8284273743629456,0.709662675857544,63.21405029296875,97.89578247070312,-33.23712158203125
235254,0.1495819091796875,0.875213623046875,-0.330230712890625,0.7616792321205139,-0.4569321274757385,1.023229360580444,63.6134033203125,97.45109558105467,-33.92875671386719
235255,0.1495819091796875,0.875213623046875,-0.330230712890625,0.7616792321205139,-0.4569321274757385,1.023229360580444,63.6134033203125,97.45109558105467,-33.92875671386719
235256,0.1153411865234375,0.742340087890625,-0.57940673828125,0.7616792321205139,-0.4569321274757385,1.023229360580444,63.84896850585938,97.07989501953124,-34.41737365722656
235257,-0.155670166015625,0.607574462890625,-0.275787353515625,1.267584562301636,-0.2415748089551926,0.9246556758880616,64.41017150878906,96.58926391601562,-35.18217468261719
235258,-0.2131500244140625,0.5466766357421875,-0.02130126953125,1.226845860481262,0.127056747674942,0.7553268074989319,64.79733276367188,96.04670715332033,-35.71626281738281
235259,-0.2241363525390625,0.443084716796875,0.110321044921875,1.106229424476624,0.4392311573028564,0.5516743659973145,65.22305297851562,95.61564636230467,-36.24937438964844
235260,-0.2219696044921875,0.3131561279296875,0.167388916015625,1.008362293243408,0.6311249732971191,0.3322133719921112,65.55398559570312,95.32875061035156,-36.57241821289062
235261,-0.214141845703125,0.162689208984375,0.185638427734375,0.9656715393066406,0.7482739686965942,0.1179045289754868,65.98213195800781,94.75364685058594,-36.88690185546875
235262,-0.214141845703125,0.162689208984375,0.185638427734375,0.9656715393066406,0.7482739686965942,0.1179045289754868,65.98213195800781,94.75364685058594,-36.88690185546875
235263,-0.194091796875,0.0158538818359375,0.122589111328125,0.9995315074920654,0.6306344270706177,-0.1938570886850357,66.4219970703125,94.43142700195312,-37.13316345214844
235264,-0.096710205078125,-0.1929473876953125,0.095001220703125,1.024627208709717,0.5196578502655029,-0.2744829654693604,66.94866943359375,93.95140075683594,-37.66949462890625
235265,-0.0527191162109375,-0.203826904296875,0.092437744140625,1.026367664337158,0.467094212770462,-0.3204405903816223,67.07470703125,93.87086486816406,-37.99955749511719
235266,-0.0527191162109375,-0.203826904296875,0.092437744140625,1.026367664337158,0.467094212770462,-0.3204405903816223,67.07470703125,93.87086486816406,-37.99955749511719
235267,-0.0222625732421875,-0.193572998046875,0.0618438720703125,0.9709839820861816,0.3793875277042389,-0.368130624294281,67.13743591308594,93.74996948242188,-38.51536560058594
235268,0.023040771484375,-0.157196044921875,0.0143280029296875,0.8772841095924377,0.2917676568031311,-0.393575519323349,66.99836730957031,93.5626983642578,-39.14509582519531
235269,0.031341552734375,-0.14337158203125,0.04681396484375,0.7456701993942261,0.2764230668544769,-0.4228817522525787,66.89871215820312,93.5831298828125,-39.45545959472656
235270,0.031341552734375,-0.14337158203125,0.04681396484375,0.7456701993942261,0.2764230668544769,-0.4228817522525787,66.89871215820312,93.5831298828125,-39.45545959472656
235271,0.0384979248046875,-0.1336212158203125,0.0841064453125,0.4502449333667755,0.507626473903656,-0.4840529561042786,66.72488403320312,93.59674072265624,-39.50715637207031
235272,0.0580902099609375,-0.124603271484375,0.0700836181640625,0.1575241088867188,0.5826432108879089,-0.544398307800293,66.67494201660156,93.5474090576172,-39.38143920898438
235273,0.073577880859375,-0.142242431640625,0.0213470458984375,0.0020080234389752,0.3771859109401703,-0.5658487677574158,66.68435668945312,93.46185302734376,-38.99983215332031
235274,0.1046142578125,-0.171112060546875,-0.08673095703125,0.0020080234389752,0.3771859109401703,-0.5658487677574158,66.59587097167969,93.2707061767578,-38.35066223144531
235275,0.1046142578125,-0.171112060546875,-0.08673095703125,0.0020080234389752,0.3771859109401703,-0.5658487677574158,66.59587097167969,93.2707061767578,-38.35066223144531
235276,0.20233154296875,-0.224639892578125,-0.424407958984375,-0.2823331654071808,-1.254878878593445,-0.4938081204891205,66.59869384765625,92.97389221191406,-37.33621215820312
235277,0.25469970703125,-0.210784912109375,-0.3700408935546875,-0.5027549862861633,-2.261646032333374,-0.4569374620914459,66.34788513183594,92.79533386230467,-36.89273071289062
235278,0.30767822265625,-0.1269073486328125,-0.11944580078125,-0.8502644896507263,-2.694180011749268,-0.4780139625072479,65.78718566894531,92.90016174316406,-36.92343139648438
235279,0.30767822265625,-0.1269073486328125,-0.11944580078125,-0.8502644896507263,-2.694180011749268,-0.4780139625072479,65.78718566894531,92.90016174316406,-36.92343139648438
235280,0.26861572265625,0.22991943359375,0.355804443359375,-1.406782388687134,-1.368658661842346,-0.7502154111862183,64.11642456054688,93.1685791015625,-37.03086853027344
235281,0.1709747314453125,0.3239593505859375,0.4858856201171875,-1.509052276611328,-0.2139756679534912,-0.9405299425125122,63.20722961425781,93.45538330078124,-36.76272583007812
235282,0.1709747314453125,0.3239593505859375,0.4858856201171875,-1.509052276611328,-0.2139756679534912,-0.9405299425125122,63.20722961425781,93.45538330078124,-36.76272583007812
235283,0.1258544921875,0.360748291015625,0.7087249755859375,-2.026375532150269,2.303619623184204,-1.460866093635559,62.43881225585938,93.90602111816406,-36.44638061523438
235284,0.1232147216796875,1.428497314453125,1.109786987304688,-2.665909290313721,3.56001615524292,-2.101603269577026,61.41207885742188,95.12681579589844,-35.32913208007812
235285,0.0272216796875,4.02142333984375,0.756103515625,-3.136286735534668,3.690215587615967,-3.197340488433838,61.06758117675781,95.85975646972656,-34.32943725585938
235286,0.0272216796875,4.02142333984375,0.756103515625,-3.136286735534668,3.690215587615967,-3.197340488433838,61.06758117675781,95.85975646972656,-34.32943725585938
235287,-0.1737518310546875,7.19122314453125,-0.0647430419921875,-2.610795497894287,1.067626953125,-3.568058252334595,60.56201171875,96.88395690917967,-33.69291687011719
235288,-1.783050537109375,6.976226806640625,1.411483764648438,-0.0973390713334083,-4.643092632293701,-3.753848075866699,58.73698425292969,99.14981079101562,-33.04324340820312
235289,-1.1962890625,3.614974975585938,0.8436126708984375,0.8604627847671509,-3.460171461105347,-3.358181238174438,56.89411926269531,99.89871215820312,-33.29412841796875
235290,-1.1962890625,3.614974975585938,0.8436126708984375,0.8604627847671509,-3.460171461105347,-3.358181238174438,56.89411926269531,99.89871215820312,-33.29412841796875
235291,-1.199203491210938,1.04254150390625,0.0498199462890625,0.7952707409858704,-1.128374457359314,-1.638497114181519,54.71888732910156,100.3858947753906,-33.94122314453125
235292,-0.3096466064453125,1.431625366210938,-2.007415771484375,1.709711909294128,-0.1588698029518127,1.377596974372864,51.10890197753906,100.8729553222656,-35.11012268066406
235293,-0.1914825439453125,1.761993408203125,-0.1856689453125,1.729670643806458,0.2060628831386566,1.104449152946472,51.08174133300781,100.5560607910156,-35.32260131835938
235294,-0.1914825439453125,1.761993408203125,-0.1856689453125,1.729670643806458,0.2060628831386566,1.104449152946472,51.08174133300781,100.5560607910156,-35.32260131835938
235295,-0.02972412109375,1.47802734375,-0.25006103515625,1.372631788253784,0.1678430587053299,1.020547866821289,51.80685424804688,99.87205505371094,-35.50782775878906
235296,-0.0006561279296875,1.155181884765625,-0.4691925048828125,1.348343849182129,-1.332224249839783,0.8105676770210266,53.11726379394531,98.6196746826172,-36.64306640625
235297,-0.0028076171875,0.957916259765625,-0.3163299560546875,1.492261290550232,-1.448354244232178,0.8291856050491333,53.56192016601562,98.119873046875,-37.036865234375
235298,-0.0028076171875,0.957916259765625,-0.3163299560546875,1.492261290550232,-1.448354244232178,0.8291856050491333,53.56192016601562,98.119873046875,-37.036865234375
235299,-0.0457763671875,0.805999755859375,-0.1407012939453125,1.635751605033875,-0.9768006205558776,0.8795643448829651,53.72578430175781,97.7755126953125,-37.53216552734375
235300,-0.068206787109375,0.683349609375,0.075225830078125,1.558419585227966,-0.1228393688797951,0.8485954999923706,53.71202087402344,97.44717407226562,-38.09359741210938
235301,-0.01080322265625,0.2397613525390625,-0.168060302734375,1.227451205253601,0.4388814866542816,0.8801062703132629,54.01239013671875,96.81924438476562,-39.33839416503906
235302,-0.01080322265625,0.2397613525390625,-0.168060302734375,1.227451205253601,0.4388814866542816,0.8801062703132629,54.01239013671875,96.81924438476562,-39.33839416503906
235303,-0.0196380615234375,0.1271209716796875,0.0103912353515625,1.086404085159302,0.7869396209716797,0.8163816332817078,54.43690490722656,96.43083190917967,-39.89599609375
235304,-0.0079193115234375,-0.09014892578125,0.0763702392578125,1.000649690628052,0.9186185002326964,0.7658082246780396,55.38211059570312,95.7778778076172,-40.63597106933594
235305,0.001007080078125,-0.1767120361328125,0.06390380859375,0.9762173891067504,0.9150900840759276,0.7452776432037354,55.96429443359375,95.37306213378906,-40.90110778808594
235306,0.001007080078125,-0.1767120361328125,0.06390380859375,0.9762173891067504,0.9150900840759276,0.7452776432037354,55.96429443359375,95.37306213378906,-40.90110778808594
235307,0.002685546875,-0.188262939453125,0.096771240234375,1.002087593078613,0.9148560166358948,0.7430669665336609,56.59559631347656,94.97496032714844,-41.07647705078125
235308,-0.010223388671875,-0.1392669677734375,0.1063232421875,0.9120423793792723,1.104409456253052,0.7270592451095581,57.72444152832031,94.33291625976562,-41.60488891601562
235309,-0.0161285400390625,-0.15948486328125,0.0177459716796875,0.7988119721412659,1.115364074707031,0.7248410582542419,58.3148193359375,93.8804168701172,-41.59619140625
235310,-0.0161285400390625,-0.15948486328125,0.0177459716796875,0.7988119721412659,1.115364074707031,0.7248410582542419,58.3148193359375,93.8804168701172,-41.59619140625
235311,-0.039093017578125,-0.2376556396484375,-0.1768646240234375,0.4276445508003235,0.5088856220245361,0.7925415635108948,59.6871337890625,93.41316223144533,-41.85005187988281
235312,-0.0458526611328125,-0.25604248046875,-0.1143341064453125,0.2573553621768951,0.243015319108963,0.8688459396362305,60.35910034179688,93.27896118164062,-41.85023498535156
235313,-0.0319061279296875,-0.242828369140625,-0.0225982666015625,-0.0385724268853664,0.2229726314544678,0.9077888131141664,60.92143249511719,93.17892456054688,-41.48031616210938
235314,-0.0319061279296875,-0.242828369140625,-0.0225982666015625,-0.0385724268853664,0.2229726314544678,0.9077888131141664,60.92143249511719,93.17892456054688,-41.48031616210938
235315,-0.00762939453125,-0.2014007568359375,0.05047607421875,-0.1829034984111786,0.3303605914115906,0.8567583560943604,62.32759094238281,93.08975219726562,-40.66801452636719
235316,0.002960205078125,-0.1842193603515625,0.044342041015625,-0.3404894173145294,0.4399906992912292,0.7875864505767822,63.17005920410156,93.08772277832033,-40.27236938476562
235317,0.0145111083984375,-0.166900634765625,0.0408172607421875,-0.5332252979278564,0.521895706653595,0.6940722465515137,63.95820617675781,92.66368103027344,-39.71546936035156
235318,0.0145111083984375,-0.166900634765625,0.0408172607421875,-0.5332252979278564,0.521895706653595,0.6940722465515137,63.95820617675781,92.66368103027344,-39.71546936035156
235319,0.0343170166015625,-0.178375244140625,0.07147216796875,-1.200723171234131,0.5420762896537781,0.2161314934492111,65.27326965332031,91.8544921875,-38.553955078125
235320,0.0370025634765625,-0.189605712890625,0.0470733642578125,-1.533285737037659,0.2769293487071991,0.0225780140608549,65.73707580566406,91.35284423828124,-37.83953857421875
235321,0.040496826171875,-0.1911773681640625,0.0033111572265625,-1.533285737037659,0.2769293487071991,0.0225780140608549,66.06779479980469,91.10488891601562,-37.136474609375
235322,0.040496826171875,-0.1911773681640625,0.0033111572265625,-1.533285737037659,0.2769293487071991,0.0225780140608549,66.06779479980469,91.10488891601562,-37.136474609375
235323,0.0624237060546875,-0.1739501953125,-0.0554351806640625,-1.926705718040466,-0.1834079027175903,-0.1902120113372803,66.25440979003906,90.90121459960938,-36.6016845703125
235324,0.10791015625,0.1268310546875,-0.1211395263671875,-2.386779069900513,-1.918789744377136,-0.5180026888847351,65.9873046875,91.3133544921875,-35.341064453125
235325,0.070465087890625,0.1652374267578125,0.32354736328125,-2.462866067886353,-2.068088531494141,-0.5856091380119324,65.70982360839844,91.86412048339844,-34.5916748046875
235326,0.077178955078125,0.241119384765625,0.787872314453125,-2.38472843170166,0.4547888040542603,-0.8720701932907104,65.20396423339844,92.66783142089844,-33.77055358886719
235327,0.077178955078125,0.241119384765625,0.787872314453125,-2.38472843170166,0.4547888040542603,-0.8720701932907104,65.20396423339844,92.66783142089844,-33.77055358886719
235328,0.064697265625,0.5258636474609375,1.135269165039062,-2.341605663299561,2.027309417724609,-1.105013489723206,63.81625366210938,94.64215087890624,-32.13272094726562
235329,-0.00177001953125,1.5596923828125,1.252120971679688,-2.365312099456787,2.708494424819946,-1.538316965103149,62.99661254882812,95.87791442871094,-31.44424438476562
235330,-0.00177001953125,1.5596923828125,1.252120971679688,-2.365312099456787,2.708494424819946,-1.538316965103149,62.99661254882812,95.87791442871094,-31.44424438476562
235331,-0.0233001708984375,5.619293212890625,0.963775634765625,-2.12889575958252,2.204622268676758,-1.547092795372009,62.21817016601562,96.90806579589844,-31.05598449707031
235332,-1.860260009765625,7.97509765625,0.0584564208984375,-0.1972147971391678,-2.432271242141724,-0.3027180433273315,61.1904296875,98.9514617919922,-32.240478515625
235333,-1.118515014648438,5.956588745117188,-0.3215484619140625,0.3513369858264923,-0.5741794109344482,-0.935327172279358,60.9808349609375,99.76492309570312,-33.42263793945312
235334,-0.0065765380859375,1.976272583007812,-1.666351318359375,0.4977474808692932,0.264198362827301,0.9522177577018738,60.52949523925781,100.2459716796875,-33.96080017089844
235335,-0.0065765380859375,1.976272583007812,-1.666351318359375,0.4977474808692932,0.264198362827301,0.9522177577018738,60.52949523925781,100.2459716796875,-33.96080017089844
235336,0.08380126953125,0.8421783447265625,0.1319580078125,1.700997948646545,-0.789469838142395,1.897351503372192,59.954833984375,99.86224365234376,-33.40371704101562
235337,0.1770782470703125,0.422271728515625,0.217254638671875,1.569889783859253,0.0889349356293678,1.711315035820007,60.70635986328125,99.2203369140625,-32.93553161621094
235338,0.1770782470703125,0.422271728515625,0.217254638671875,1.569889783859253,0.0889349356293678,1.711315035820007,60.70635986328125,99.2203369140625,-32.93553161621094
235339,0.273284912109375,0.1756134033203125,-0.3664703369140625,1.034409284591675,0.0862832218408584,1.588723421096802,61.53648376464844,98.48101806640624,-33.03335571289062
235340,0.2608795166015625,0.5580596923828125,-0.368316650390625,0.2088821083307266,-0.6824355721473694,0.991204559803009,63.2025146484375,97.33663940429688,-33.73828125
235341,0.133087158203125,0.6329345703125,-0.4474639892578125,0.4390226304531097,-0.0418787412345409,0.9419049620628356,63.85026550292969,96.78860473632812,-33.77265930175781
235342,0.133087158203125,0.6329345703125,-0.4474639892578125,0.4390226304531097,-0.0418787412345409,0.9419049620628356,63.85026550292969,96.78860473632812,-33.77265930175781
235343,-0.0428619384765625,0.54925537109375,-0.6147003173828125,1.285032987594604,0.3554561138153076,1.022987246513367,64.3023681640625,96.5126495361328,-33.91587829589844
235344,-0.2030792236328125,0.5269927978515625,-0.291534423828125,1.386003613471985,0.343852698802948,0.8810762166976929,65.08818054199219,96.00123596191406,-34.68325805664062
235345,-0.22674560546875,0.45928955078125,-0.114349365234375,1.301722764968872,0.2955616116523743,0.7083286643028259,65.58155822753906,95.60113525390624,-35.12498474121094
235346,-0.1958770751953125,0.332916259765625,0.0292510986328125,1.157274007797241,0.2938933968544006,0.5500202775001526,65.99087524414062,95.18118286132812,-35.6610107421875
235347,-0.1958770751953125,0.332916259765625,0.0292510986328125,1.157274007797241,0.2938933968544006,0.5500202775001526,65.99087524414062,95.18118286132812,-35.6610107421875
235348,-0.119873046875,0.1334991455078125,0.2193450927734375,0.8803424835205078,0.6773595809936523,0.184217244386673,66.79197692871094,94.55436706542967,-36.95588684082031
235349,-0.08123779296875,0.0215911865234375,0.187408447265625,0.5231146216392517,0.8970391750335693,-0.0316170491278171,67.41287231445312,93.91716003417967,-37.47003173828125
235350,-0.036102294921875,-0.0744476318359375,0.1378631591796875,0.5231146216392517,0.8970391750335693,-0.0316170491278171,67.63510131835938,93.65299987792967,-37.67118835449219
235351,-0.036102294921875,-0.0744476318359375,0.1378631591796875,0.5231146216392517,0.8970391750335693,-0.0316170491278171,67.63510131835938,93.65299987792967,-37.67118835449219
235352,0.052764892578125,-0.2098388671875,0.0249786376953125,0.3198935687541962,0.5978357195854187,-0.1272162795066833,68.10751342773438,93.54002380371094,-37.81051635742188
235353,0.077789306640625,-0.220306396484375,0.045013427734375,0.3529095947742462,0.4019213318824768,-0.1593054980039597,68.2354736328125,93.4359893798828,-37.7264404296875
235354,0.0831756591796875,-0.2014617919921875,0.12359619140625,0.4538303315639496,0.365633636713028,-0.1918892711400986,68.20903015136719,93.42222595214844,-37.64979553222656
235355,0.0831756591796875,-0.2014617919921875,0.12359619140625,0.4538303315639496,0.365633636713028,-0.1918892711400986,68.20903015136719,93.42222595214844,-37.64979553222656
235356,0.083831787109375,-0.1670379638671875,0.2003326416015625,0.5338769555091858,0.6488741636276245,-0.277499258518219,68.34780883789062,93.2996063232422,-37.71726989746094
235357,0.0790557861328125,-0.1475372314453125,0.198455810546875,0.4552673995494843,0.7682077288627625,-0.3194940984249115,68.36198425292969,93.21833801269533,-37.6207275390625
235358,0.071380615234375,-0.1331634521484375,0.186309814453125,0.2941879630088806,0.8273530602455139,-0.3682760298252106,68.50521850585938,93.10252380371094,-37.41844177246094
235359,0.0594329833984375,-0.1211395263671875,0.1630706787109375,0.0531473755836486,0.7955256104469299,-0.4227781593799591,68.51307678222656,92.93278503417967,-37.2103271484375
235360,0.048614501953125,-0.1175994873046875,0.14215087890625,-0.5619325637817383,0.4965375959873199,-0.5624353885650635,68.57980346679688,92.90609741210938,-36.84381103515625
235361,0.03997802734375,-0.1195831298828125,0.1292724609375,-0.5619325637817383,0.4965375959873199,-0.5624353885650635,68.60218811035156,93.05485534667967,-36.44775390625
235362,0.03997802734375,-0.1195831298828125,0.1292724609375,-0.5619325637817383,0.4965375959873199,-0.5624353885650635,68.60218811035156,93.05485534667967,-36.44775390625
235363,0.034423828125,-0.10101318359375,0.0706939697265625,-1.214398264884949,0.0485861785709857,-0.7201991677284241,68.47332763671875,93.47952270507812,-35.48188781738281
235364,0.0449066162109375,-0.061370849609375,0.032989501953125,-1.473367810249329,-0.1717858761548996,-0.7974795699119568,68.31982421875,93.70330810546876,-34.97883605957031
235365,0.033905029296875,0.0568695068359375,-0.0529327392578125,-1.667817115783691,-0.3751235604286194,-0.8706321120262146,67.95217895507812,94.100341796875,-34.43693542480469
235366,0.033905029296875,0.0568695068359375,-0.0529327392578125,-1.667817115783691,-0.3751235604286194,-0.8706321120262146,67.95217895507812,94.100341796875,-34.43693542480469
235367,0.010009765625,0.156982421875,-0.360260009765625,-1.746412634849548,-0.9599888920783995,-0.9517796635627748,67.47630310058594,94.52180480957033,-33.82472229003906
235368,0.0208892822265625,0.328399658203125,-0.0084381103515625,-1.530635356903076,-2.745501279830933,-1.192790746688843,66.1435546875,95.67965698242188,-32.73391723632812
235369,-0.0251312255859375,0.771026611328125,0.7538604736328125,-1.795350074768066,-2.145853042602539,-1.440882205963135,65.10537719726562,96.32012939453124,-32.5732421875
235370,-0.0500030517578125,3.28460693359375,1.33203125,-1.961707592010498,0.3514970541000366,-2.171573400497437,63.82228088378906,97.03814697265624,-32.66084289550781
235371,-0.0500030517578125,3.28460693359375,1.33203125,-1.961707592010498,0.3514970541000366,-2.171573400497437,63.82228088378906,97.03814697265624,-32.66084289550781
235372,-0.3285675048828125,6.896514892578125,0.4172210693359375,-0.7796867489814758,1.825416088104248,-0.847444474697113,61.62457275390625,98.91629028320312,-32.91938781738281
235373,-0.8226318359375,6.526123046875,0.2815399169921875,0.2787996828556061,-0.1836763620376587,-0.586681067943573,61.42117309570312,99.42147827148438,-32.59068298339844
235374,-0.570526123046875,4.291595458984375,0.277252197265625,0.6640983819961548,-1.865276098251343,-0.6517998576164246,61.48054504394531,99.54705810546876,-32.36953735351562
235375,-0.570526123046875,4.291595458984375,0.277252197265625,0.6640983819961548,-1.865276098251343,-0.6517998576164246,61.48054504394531,99.54705810546876,-32.36953735351562
235376,-0.1893768310546875,1.941940307617188,0.1226348876953125,-0.0666008666157722,-1.779263257980347,-0.3288047909736633,60.72299194335938,99.4340362548828,-32.58724975585938
235377,0.0536041259765625,1.874267578125,-0.9184112548828124,-0.0838709324598312,-1.227118849754333,-0.0397141240537166,60.0396728515625,99.4077606201172,-32.50221252441406
235378,0.2446136474609375,2.300125122070312,-1.624526977539062,0.1662448942661285,-1.170208096504211,0.12472914904356,59.56356811523438,99.49880981445312,-32.70549011230469
235379,0.2446136474609375,2.300125122070312,-1.624526977539062,0.1662448942661285,-1.170208096504211,0.12472914904356,59.56356811523438,99.49880981445312,-32.70549011230469
235380,0.212615966796875,2.326736450195312,-0.683990478515625,1.221542716026306,-0.6671551465988159,0.0813499838113784,59.21864318847656,99.51011657714844,-32.91973876953125
235381,0.2142486572265625,1.653823852539062,-0.098663330078125,2.076613187789917,-0.6675106883049011,0.1642208993434906,59.45022583007812,98.7154541015625,-33.86894226074219
235382,0.2142486572265625,1.653823852539062,-0.098663330078125,2.076613187789917,-0.6675106883049011,0.1642208993434906,59.45022583007812,98.7154541015625,-33.86894226074219
235383,0.133697509765625,1.315185546875,0.0533905029296875,1.796277165412903,-0.743736743927002,0.2930555641651154,59.71092224121094,98.11776733398438,-34.73158264160156
235384,0.1353302001953125,0.70587158203125,-0.0944061279296875,1.473752617835999,-0.6597923040390015,0.6825615167617798,59.96296691894531,97.23722839355467,-36.37664794921875
235385,0.0782928466796875,0.4412994384765625,-0.168609619140625,1.507904648780823,-0.7463604807853699,0.8720718026161194,60.01234436035156,96.86158752441406,-37.10140991210938
235386,0.0782928466796875,0.4412994384765625,-0.168609619140625,1.507904648780823,-0.7463604807853699,0.8720718026161194,60.01234436035156,96.86158752441406,-37.10140991210938
235387,0.008575439453125,0.2750701904296875,-0.0812530517578125,1.644790649414062,-0.7251651883125305,0.9808568954467772,60.18965148925781,96.53060913085938,-37.75169372558594
235388,-0.0196380615234375,0.015350341796875,0.0381011962890625,1.720098972320557,-0.1866393834352493,0.9298703670501708,60.640380859375,95.50648498535156,-39.0792236328125
235389,-0.02655029296875,-0.0941162109375,0.05572509765625,1.534488081932068,0.0954527556896209,0.8692709803581238,60.96786499023438,94.98245239257812,-39.72616577148438
235390,-0.02655029296875,-0.0941162109375,0.05572509765625,1.534488081932068,0.0954527556896209,0.8692709803581238,60.96786499023438,94.98245239257812,-39.72616577148438
235391,-0.036102294921875,-0.1626434326171875,0.0946502685546875,1.290902853012085,0.3830136954784393,0.79006427526474,61.31137084960938,94.52525329589844,-40.45741271972656
235392,-0.025482177734375,-0.2255859375,0.2916717529296875,0.9643378257751464,1.056228280067444,0.6455912590026855,62.16009521484375,93.689697265625,-41.60404968261719
235393,-0.0294189453125,-0.2051239013671875,0.3499603271484375,0.8626673817634583,1.4977867603302,0.5716081261634827,62.75920104980469,93.26399230957033,-41.85650634765625
235394,-0.0294189453125,-0.2051239013671875,0.3499603271484375,0.8626673817634583,1.4977867603302,0.5716081261634827,62.75920104980469,93.26399230957033,-41.85650634765625
235395,-0.0428619384765625,-0.184539794921875,0.2825469970703125,0.7436270117759705,1.822868466377258,0.4889995157718658,63.36563110351562,92.9160614013672,-42.18751525878906
235396,-0.0948638916015625,-0.181793212890625,-0.06134033203125,0.4355003237724304,1.413883686065674,0.3009814023971558,64.80435180664062,92.4536590576172,-42.21633911132812
235397,-0.12652587890625,-0.203521728515625,-0.15899658203125,0.2875931560993195,0.7840750813484192,0.2123370319604874,65.49551391601562,92.27018737792967,-42.2403564453125
235398,-0.1756439208984375,-0.2318115234375,-0.1153411865234375,0.0942103862762451,0.3003286719322205,0.1329271644353867,65.98135375976562,92.26483154296876,-42.21295166015625
235399,-0.1756439208984375,-0.2318115234375,-0.1153411865234375,0.0942103862762451,0.3003286719322205,0.1329271644353867,65.98135375976562,92.26483154296876,-42.21295166015625
235400,-0.2872772216796875,-0.3110198974609375,0.038543701171875,-0.6038917303085327,1.058738350868225,0.1350044161081314,66.52239990234375,92.38810729980467,-41.84812927246094
235401,-0.29229736328125,-0.3270263671875,-0.002532958984375,-0.6038917303085327,1.058738350868225,0.1350044161081314,66.7127685546875,92.7245635986328,-41.54830932617188
235402,-0.2047882080078125,-0.285247802734375,-0.108428955078125,-0.7022302746772766,1.306272745132446,0.1160951778292656,66.93368530273438,92.86004638671876,-40.86247253417969
235403,-0.2047882080078125,-0.285247802734375,-0.108428955078125,-0.7022302746772766,1.306272745132446,0.1160951778292656,66.93368530273438,92.86004638671876,-40.86247253417969
235404,-0.1215057373046875,-0.2367706298828125,-0.09356689453125,-0.7282307147979736,1.226538062095642,0.0354072600603103,67.38638305664062,93.07211303710938,-40.18753051757812
235405,-0.05975341796875,-0.201629638671875,0.0113677978515625,-0.8598593473434448,0.8706491589546204,-0.2764481008052826,68.44415283203125,93.18342590332033,-38.33956909179688
235406,-0.0472564697265625,-0.2099151611328125,0.0040283203125,-1.248527765274048,0.3374592661857605,-0.5556046366691589,68.83882141113281,93.17063903808594,-37.50376892089844
235407,-0.0472564697265625,-0.2099151611328125,0.0040283203125,-1.248527765274048,0.3374592661857605,-0.5556046366691589,68.83882141113281,93.17063903808594,-37.50376892089844
235408,-0.0106353759765625,-0.18402099609375,-0.109710693359375,-1.505104064941406,0.0040173786692321,-0.5974099040031433,69.04244995117188,93.63217163085938,-36.00466918945312
235409,-0.0317840576171875,0.0600738525390625,-0.2173614501953125,-1.748822808265686,-0.2768585085868835,-0.5204588770866394,68.90518188476562,93.93923950195312,-35.18673706054688
235410,-0.0738983154296875,0.228912353515625,-0.2821197509765625,-1.908519268035889,-0.5297211408615112,-0.5012500286102295,68.63134765625,94.33680725097656,-34.59416198730469
235411,-0.0738983154296875,0.228912353515625,-0.2821197509765625,-1.908519268035889,-0.5297211408615112,-0.5012500286102295,68.63134765625,94.33680725097656,-34.59416198730469
235412,-0.0442047119140625,0.3046417236328125,0.18341064453125,-2.0322585105896,-0.2264549732208252,-0.4649586379528046,67.61024475097656,95.37478637695312,-33.42947387695312
235413,-0.0071563720703125,0.3076171875,0.5848846435546875,-1.977521419525146,0.4027559757232666,-0.5033068060874939,66.96598815917969,96.03044128417967,-32.90499877929688
235414,0.0233306884765625,0.55511474609375,0.8582305908203125,-1.727869272232056,1.304690361022949,-0.8431437611579895,66.29151916503906,96.38320922851562,-32.36912536621094
235415,-0.0273895263671875,2.146072387695312,1.056610107421875,-1.239895582199097,1.458951592445374,0.0446201972663402,65.76483154296875,96.80291748046876,-31.73432922363281
235416,0.0230712890625,6.738723754882812,1.044113159179688,-1.239895582199097,1.458951592445374,0.0446201972663402,65.29818725585938,97.34626770019533,-31.649658203125
235417,-0.4956817626953125,8.162261962890625,0.834991455078125,-1.092395663261414,0.0227109044790267,1.765989184379578,65.14077758789062,98.12457275390624,-32.13812255859375
235418,-0.9253082275390624,7.79742431640625,0.4429779052734375,-0.5996724963188171,-0.55903559923172,0.0981880873441696,65.36721801757812,98.45207214355467,-32.57417297363281
235419,-0.9253082275390624,7.79742431640625,0.4429779052734375,-0.5996724963188171,-0.55903559923172,0.0981880873441696,65.36721801757812,98.45207214355467,-32.57417297363281
235420,-0.1577606201171875,4.838241577148438,-0.5223388671875,-0.4786603152751923,-0.8930721282958984,-0.3781318664550781,65.7396240234375,98.53489685058594,-32.54306030273438
235421,0.3690643310546875,0.905853271484375,-0.930908203125,1.163889288902283,0.4289470911026001,0.9901811480522156,65.38572692871094,98.52528381347656,-31.65400695800781
235422,0.4791412353515625,1.027114868164062,-0.5031890869140625,1.489422678947449,0.1491636484861374,0.9635354280471802,65.19137573242188,98.29348754882812,-31.18087768554688
235423,0.4791412353515625,1.027114868164062,-0.5031890869140625,1.489422678947449,0.1491636484861374,0.9635354280471802,65.19137573242188,98.29348754882812,-31.18087768554688
