time_idx,accelerometerAccelerationX(G),accelerometerAccelerationY(G),accelerometerAccelerationZ(G),gyroRotationX(rad/s),gyroRotationY(rad/s),gyroRotationZ(rad/s),magnetometerX(µT),magnetometerY(µT),magnetometerZ(µT)
187939,-0.1517181396484375,1.134201049804688,-0.2580413818359375,-0.5581634044647217,-0.1002467125654221,-0.1482232958078384,57.7886962890625,100.0374145507812,-33.920166015625
187940,-0.1517181396484375,1.134201049804688,-0.2580413818359375,-0.5581634044647217,-0.1002467125654221,-0.1482232958078384,57.7886962890625,100.0374145507812,-33.920166015625
187941,-0.1866455078125,0.9447784423828124,-0.2650909423828125,-0.2746251821517944,0.0450518950819969,-0.0964676812291145,57.44314575195312,100.316650390625,-33.37429809570312
187942,-0.2029266357421875,0.8482513427734375,-0.2880706787109375,-0.2535691559314728,0.0317195802927017,-0.1212377473711967,57.40367126464844,100.5049591064453,-33.15690612792969
187943,-0.1779632568359375,0.7729339599609375,-0.3415374755859375,-0.2847252190113068,0.0224033091217279,-0.1196281313896179,57.37033081054688,100.5720367431641,-33.09429931640625
187944,-0.1779632568359375,0.7729339599609375,-0.3415374755859375,-0.2847252190113068,0.0224033091217279,-0.1196281313896179,57.37033081054688,100.5720367431641,-33.09429931640625
187945,-0.0333709716796875,0.7972869873046875,-0.311126708984375,-0.3511617481708527,0.1521165668964386,-0.0091325119137763,57.27790832519531,100.7192993164062,-32.88334655761719
187946,0.0567779541015625,0.859771728515625,-0.2706146240234375,-0.369220644235611,0.1537227183580399,0.0855260863900184,57.32255554199219,100.7245178222656,-32.61705017089844
187947,0.13995361328125,0.9483642578125,-0.21197509765625,-0.3491582572460175,0.1220998093485832,0.1712569743394852,57.29753112792969,100.6327514648438,-32.31182861328125
187948,0.13995361328125,0.9483642578125,-0.21197509765625,-0.3491582572460175,0.1220998093485832,0.1712569743394852,57.29753112792969,100.6327514648438,-32.31182861328125
187949,0.235198974609375,1.119476318359375,-0.107147216796875,-0.1446123123168945,0.0219899881631135,0.2049297094345093,57.54324340820312,100.6566925048828,-31.88652038574219
187950,0.2357025146484375,1.149276733398438,-0.0528564453125,0.0057481667026877,0.057324543595314,0.1719909310340881,57.72576904296875,100.5739288330078,-31.774169921875
187951,0.168365478515625,1.151473999023438,0.005523681640625,0.1544425636529922,0.2252203375101089,0.1463937014341354,57.74662780761719,100.6205444335938,-31.74934387207031
187952,0.072235107421875,1.16546630859375,0.0565032958984375,0.2454289346933365,0.4100676774978638,0.1251432746648788,57.84693908691406,100.4906463623047,-31.76350402832031
187953,-0.000579833984375,1.181976318359375,0.094207763671875,0.3016951382160187,0.5189148187637329,0.079287365078926,57.97142028808594,100.3968048095703,-31.85472106933594
187954,-0.0643463134765625,1.190170288085938,0.103240966796875,0.3383647203445435,0.5396403074264526,0.0226544458419084,58.1251220703125,100.2197570800781,-31.54884338378906
187955,-0.1246795654296875,1.188705444335938,0.1257171630859375,0.3753587007522583,0.5382624268531799,-0.0280300360172987,58.2337646484375,100.2881469726562,-31.68211364746094
187956,-0.1246795654296875,1.188705444335938,0.1257171630859375,0.3753587007522583,0.5382624268531799,-0.0280300360172987,58.2337646484375,100.2881469726562,-31.68211364746094
187957,-0.161102294921875,1.23681640625,0.1544952392578125,0.4091776609420776,0.4620019793510437,-0.0673137903213501,58.42771911621094,100.2165832519531,-31.844482421875
187958,-0.1279449462890625,1.228530883789062,0.142730712890625,0.4487658143043518,0.3240078985691071,-0.0140409842133522,58.58357238769531,100.2319946289062,-32.04995727539062
187959,-0.06622314453125,1.19903564453125,0.1175079345703125,0.5054200291633606,0.1277718096971512,0.0614353977143764,58.54574584960938,100.2818450927734,-32.33015441894531
187960,-0.06622314453125,1.19903564453125,0.1175079345703125,0.5054200291633606,0.1277718096971512,0.0614353977143764,58.54574584960938,100.2818450927734,-32.33015441894531
187961,0.01092529296875,1.050506591796875,0.06201171875,0.6479987502098083,-0.1964733749628067,0.1961956024169922,58.64755249023438,100.0652923583984,-32.76943969726562
187962,0.0055694580078125,0.9787750244140624,0.052734375,0.6939494609832764,-0.2422589808702469,0.2458148300647736,58.78927612304688,100.0090484619141,-33.12867736816406
187963,-0.020416259765625,0.924072265625,0.074798583984375,0.6667490005493164,-0.1709304600954056,0.2681576907634735,58.74696350097656,99.83976745605467,-33.42337036132812
187964,-0.020416259765625,0.924072265625,0.074798583984375,0.6667490005493164,-0.1709304600954056,0.2681576907634735,58.74696350097656,99.83976745605467,-33.42337036132812
187965,-0.117340087890625,0.8671722412109375,0.1425323486328125,0.3809303045272827,0.1784544289112091,0.2264610975980759,58.91154479980469,99.61076354980467,-34.24697875976562
187966,-0.1683349609375,0.837493896484375,0.155975341796875,0.1769896894693375,0.333459198474884,0.1826225370168686,58.98539733886719,99.52902221679688,-34.37953186035156
187967,-0.2053985595703125,0.8014373779296875,0.14263916015625,-0.0002308960683876,0.4275236427783966,0.154928594827652,59.13810729980469,99.45896911621094,-34.46748352050781
187968,-0.2053985595703125,0.8014373779296875,0.14263916015625,-0.0002308960683876,0.4275236427783966,0.154928594827652,59.13810729980469,99.45896911621094,-34.46748352050781
187969,-0.1817474365234375,0.7655487060546875,0.09088134765625,-0.1279776692390442,0.4260402619838715,0.2016319185495377,59.54444885253906,99.34506225585938,-34.60281372070312
187970,-0.1188507080078125,0.810882568359375,0.085357666015625,-0.1523064523935318,0.4646236002445221,0.2305972576141357,59.70372009277344,99.27033996582033,-34.44454956054688
187971,-0.0715789794921875,0.8779144287109375,0.036865234375,-0.186012476682663,0.5264672636985779,0.2355057299137115,59.80252075195312,99.20338439941406,-34.39210510253906
187972,-0.0715789794921875,0.8779144287109375,0.036865234375,-0.186012476682663,0.5264672636985779,0.2355057299137115,59.80252075195312,99.20338439941406,-34.39210510253906
187973,-0.0082855224609375,1.002532958984375,-0.085784912109375,-0.1461638659238815,0.4831141829490662,0.1816736608743668,60.18356323242188,99.13735961914062,-34.01620483398438
187974,0.030059814453125,1.054718017578125,-0.1136932373046875,-0.0605765283107757,0.4350249767303467,0.1391200721263885,60.24397277832031,99.1718292236328,-33.9207763671875
187975,0.0691986083984375,1.093673706054688,-0.1214141845703125,0.0316969417035579,0.4019493162631989,0.0893650352954864,60.42121887207031,99.22720336914062,-33.86907958984375
187976,0.0691986083984375,1.093673706054688,-0.1214141845703125,0.0316969417035579,0.4019493162631989,0.0893650352954864,60.42121887207031,99.22720336914062,-33.86907958984375
187977,0.0836639404296875,1.036819458007812,-0.097412109375,0.0915411040186882,0.4116503894329071,-0.0941805616021156,60.66792297363281,99.21200561523438,-33.81803894042969
187978,0.0299530029296875,0.9637298583984376,-0.0902252197265625,0.0473121218383312,0.3854896426200867,-0.2003685086965561,60.6619873046875,99.125,-33.76553344726562
187979,-0.0420379638671875,0.89117431640625,-0.0980224609375,-0.0129019496962428,0.3208177089691162,-0.2852296233177185,60.68074035644531,99.20436096191406,-33.74505615234375
187980,-0.112945556640625,0.8408966064453125,-0.114990234375,-0.0687505677342414,0.2319019436836243,-0.3410438597202301,60.57510375976562,99.26718139648438,-33.56282043457031
187981,-0.169525146484375,0.8127593994140625,-0.144683837890625,-0.0969289392232894,0.1444778144359589,-0.3778514266014099,60.54913330078125,99.37863159179688,-33.49403381347656
187982,-0.2050018310546875,0.791168212890625,-0.1761474609375,-0.0896699652075767,0.066205121576786,-0.407737135887146,60.34468078613281,99.42562866210938,-33.53526306152344
187983,-0.223236083984375,0.7707977294921875,-0.1863250732421875,-0.0578161627054214,0.0202900916337966,-0.4116514623165131,60.18557739257812,99.39875793457033,-33.67262268066406
187984,-0.223236083984375,0.7707977294921875,-0.1863250732421875,-0.0578161627054214,0.0202900916337966,-0.4116514623165131,60.18557739257812,99.39875793457033,-33.67262268066406
187985,-0.22308349609375,0.7587738037109375,-0.141387939453125,-0.0418305359780788,0.0163177195936441,-0.4481807053089142,59.80181884765625,99.68603515625,-33.46852111816406
187986,-0.2127532958984375,0.7683258056640625,-0.0966339111328125,-0.0757653340697288,0.0415855273604393,-0.470463901758194,59.66746520996094,99.69758605957033,-33.26858520507812
187987,-0.206085205078125,0.802398681640625,-0.051116943359375,-0.207289531826973,0.0910465493798255,-0.4884775280952454,59.49690246582031,99.748046875,-33.28363037109375
187988,-0.206085205078125,0.802398681640625,-0.051116943359375,-0.207289531826973,0.0910465493798255,-0.4884775280952454,59.49690246582031,99.748046875,-33.28363037109375
187989,-0.2127838134765625,0.92572021484375,0.00152587890625,-0.2874352335929871,0.0645278617739677,-0.4866383671760559,59.09205627441406,99.94660949707033,-33.22224426269531
187990,-0.2149200439453125,0.976226806640625,0.019378662109375,-0.3746002316474915,-0.0134620126336813,-0.490442156791687,58.87225341796875,100.1401062011719,-33.10450744628906
187991,-0.209259033203125,1.018463134765625,0.058258056640625,-0.4654872715473175,-0.1208486557006836,-0.4895068407058716,58.69882202148438,100.2538604736328,-33.0732421875
187992,-0.2117156982421875,1.047958374023438,0.1075286865234375,-0.5465258955955505,-0.2040708363056183,-0.5059542655944824,58.48872375488281,100.3230590820312,-32.9833984375
187993,-0.224700927734375,1.084991455078125,0.12188720703125,-0.6110170483589172,-0.3281296789646149,-0.5309613347053528,58.25946044921875,100.4099578857422,-32.74337768554688
187994,-0.2277069091796875,1.155242919921875,0.099884033203125,-0.6260343194007874,-0.5084246397018433,-0.5368061661720276,58.03868103027344,100.7453308105469,-32.56570434570312
187995,-0.21533203125,1.220016479492188,0.0576171875,-0.5889024138450623,-0.7019554376602173,-0.5046011209487915,57.65830993652344,100.802978515625,-32.35789489746094
187996,-0.21533203125,1.220016479492188,0.0576171875,-0.5889024138450623,-0.7019554376602173,-0.5046011209487915,57.65830993652344,100.802978515625,-32.35789489746094
187997,-0.211151123046875,1.300796508789062,9.1552734375e-05,-0.4735814034938812,-0.7638038992881775,-0.4162960052490234,57.38081359863281,100.8834381103516,-32.12730407714844
187998,-0.1612091064453125,1.24462890625,-0.087890625,-0.3029268383979797,-0.7699781656265259,-0.2701348066329956,57.05715942382812,101.0612030029297,-31.78240966796875
187999,-0.1348419189453125,1.12884521484375,-0.106781005859375,-0.0874619409441947,-0.7103968858718872,-0.1198971122503281,56.75497436523438,101.2015838623047,-31.50920104980469
188000,-0.1701507568359375,1.031265258789062,-0.1051177978515625,0.2375590205192566,-0.5553916096687317,-0.0143128931522369,56.49172973632812,101.264404296875,-31.41989135742188
188001,-0.217529296875,0.867279052734375,-0.132232666015625,0.2620353400707245,-0.5241165161132812,0.0290971659123897,56.22068786621094,101.4293518066406,-31.545654296875
188002,-0.217529296875,0.867279052734375,-0.132232666015625,0.2620353400707245,-0.5241165161132812,0.0290971659123897,56.22068786621094,101.4293518066406,-31.545654296875
188003,-0.1793975830078125,0.777557373046875,-0.2843017578125,0.292367160320282,-0.5928812026977539,0.0798990949988365,56.05110168457031,101.0780944824219,-31.89356994628906
188004,-0.1793975830078125,0.777557373046875,-0.2843017578125,0.292367160320282,-0.5928812026977539,0.0798990949988365,56.05110168457031,101.0780944824219,-31.89356994628906
188005,-0.1356964111328125,0.7859039306640625,-0.3061065673828125,0.385539710521698,-0.5228307247161865,0.1287201642990112,56.01585388183594,100.9390716552734,-31.93490600585938
188006,-0.0738067626953125,0.8170318603515625,-0.287109375,0.4130522906780243,-0.3661087453365326,0.1964757740497589,55.94966125488281,100.8541564941406,-32.16935729980469
188007,-0.0056304931640625,0.8819122314453125,-0.2496795654296875,0.3448998630046844,-0.2430957406759262,0.2678362429141998,55.87420654296875,100.7290802001953,-32.28921508789062
188008,-0.0056304931640625,0.8819122314453125,-0.2496795654296875,0.3448998630046844,-0.2430957406759262,0.2678362429141998,55.87420654296875,100.7290802001953,-32.28921508789062
188009,0.115753173828125,1.0543212890625,-0.0966796875,0.1579382419586182,-0.1437616944313049,0.4138706624507904,55.93359375,100.4693298339844,-32.60916137695312
188010,0.138885498046875,1.170547485351562,0.0040740966796875,0.1005321964621544,-0.1374761015176773,0.4573121666908264,56.01313781738281,100.3917694091797,-32.73834228515625
188011,0.1223297119140625,1.30548095703125,0.09979248046875,0.0463837422430515,-0.1186454221606255,0.4662856757640839,56.23255920410156,100.3994903564453,-32.74855041503906
188012,0.1223297119140625,1.30548095703125,0.09979248046875,0.0463837422430515,-0.1186454221606255,0.4662856757640839,56.23255920410156,100.3994903564453,-32.74855041503906
188013,0.064453125,1.537628173828125,0.1918182373046875,0.1175053268671036,-0.1421307772397995,0.4279409646987915,56.69906616210938,100.1476593017578,-32.96829223632812
188014,0.035064697265625,1.606292724609375,0.2274169921875,0.2379057705402374,-0.1477897316217422,0.3876143097877502,56.95565795898438,100.1077117919922,-33.07373046875
188015,-0.00115966796875,1.634414672851562,0.2617950439453125,0.4230780303478241,-0.0030208237003535,0.2426818907260895,57.15873718261719,100.0233459472656,-33.11857604980469
188016,-0.0535888671875,1.614822387695312,0.276336669921875,0.4230780303478241,-0.0030208237003535,0.2426818907260895,57.36170959472656,99.9102020263672,-33.078125
188017,-0.1158599853515625,1.48590087890625,0.26483154296875,0.6419547200202942,0.0332189388573169,0.1227751895785332,57.55329895019531,99.79347229003906,-33.18119812011719
188018,-0.1648712158203125,1.32012939453125,0.213165283203125,0.6419547200202942,0.0332189388573169,0.1227751895785332,57.68260192871094,99.75857543945312,-33.34165954589844
188019,-0.1825103759765625,1.177093505859375,0.120391845703125,0.9152179360389708,-0.0515710487961769,0.0498184226453304,57.81082153320312,99.56295776367188,-33.59941101074219
188020,-0.1825103759765625,1.177093505859375,0.120391845703125,0.9152179360389708,-0.0515710487961769,0.0498184226453304,57.81082153320312,99.56295776367188,-33.59941101074219
188021,-0.17718505859375,0.939544677734375,-0.063690185546875,0.998078227043152,-0.0313800275325775,-0.0400512777268886,58.21240234375,99.22299194335938,-33.95315551757812
188022,-0.1888580322265625,0.85162353515625,-0.1092987060546875,0.998078227043152,-0.0313800275325775,-0.0400512777268886,58.2598876953125,98.99557495117188,-34.21076965332031
188023,-0.20343017578125,0.779144287109375,-0.137542724609375,0.9512798190116882,-0.0234358180314302,-0.0757259204983711,58.28837585449219,98.8649444580078,-34.70770263671875
188024,-0.20343017578125,0.779144287109375,-0.137542724609375,0.9512798190116882,-0.0234358180314302,-0.0757259204983711,58.28837585449219,98.8649444580078,-34.70770263671875
188025,-0.207183837890625,0.695831298828125,-0.1525726318359375,0.8023366332054138,-0.0365582779049873,-0.1154450997710228,58.11419677734375,98.74635314941406,-36.0242919921875
188026,-0.1799774169921875,0.668609619140625,-0.16656494140625,0.7373046875,-0.0671324282884597,-0.0980123132467269,58.10768127441406,98.61227416992188,-36.39930725097656
188027,-0.1396942138671875,0.6616363525390625,-0.1679840087890625,0.6787399053573608,-0.0880166739225387,-0.0339459814131259,58.08555603027344,98.42459106445312,-36.73812866210938
188028,-0.1396942138671875,0.6616363525390625,-0.1679840087890625,0.6787399053573608,-0.0880166739225387,-0.0339459814131259,58.08555603027344,98.42459106445312,-36.73812866210938
188029,-0.049224853515625,0.706268310546875,-0.1142730712890625,0.4533946514129639,-0.0827867612242698,0.1722380816936493,57.99507141113281,97.9591827392578,-37.49179077148438
188030,-0.00433349609375,0.7468109130859375,-0.09454345703125,0.3224294483661652,-0.1209514513611794,0.2629179060459137,58.03953552246094,97.82608032226562,-37.74960327148438
188031,0.0409393310546875,0.77191162109375,-0.06695556640625,0.2380306720733643,-0.2113434076309204,0.3399415910243988,58.06336975097656,97.80906677246094,-38.11659240722656
188032,0.0409393310546875,0.77191162109375,-0.06695556640625,0.2380306720733643,-0.2113434076309204,0.3399415910243988,58.06336975097656,97.80906677246094,-38.11659240722656
188033,0.1097869873046875,0.7926483154296875,0.01904296875,0.1813988238573074,-0.3035660088062286,0.4459228813648224,58.24366760253906,97.63957214355467,-38.50338745117188
188034,0.12701416015625,0.7978515625,0.0390472412109375,0.1731033325195312,-0.3106689155101776,0.4626174569129944,58.36589050292969,97.54852294921876,-38.46527099609375
188035,0.1371002197265625,0.8021240234375,0.0608673095703125,0.1537064760923386,-0.3241346776485443,0.4426895380020142,58.5338134765625,97.52670288085938,-38.54922485351562
188036,0.1371002197265625,0.8021240234375,0.0608673095703125,0.1537064760923386,-0.3241346776485443,0.4426895380020142,58.5338134765625,97.52670288085938,-38.54922485351562
188037,0.1197357177734375,0.83721923828125,0.1298065185546875,0.0405444949865341,-0.2752648591995239,0.2839677929878235,58.79229736328125,97.48274230957033,-38.68905639648438
188038,0.05859375,0.884735107421875,0.19866943359375,-0.0626556575298309,-0.2067965865135193,0.1945124864578247,58.90234375,97.44407653808594,-38.84725952148438
188039,-0.023223876953125,0.960968017578125,0.2546539306640625,-0.2813539206981659,0.0067433901131153,-0.0087751159444451,58.87823486328125,97.39581298828124,-38.88580322265625
188040,-0.023223876953125,0.960968017578125,0.2546539306640625,-0.2813539206981659,0.0067433901131153,-0.0087751159444451,58.87823486328125,97.39581298828124,-38.88580322265625
188041,-0.1762542724609375,1.096023559570312,0.228118896484375,-0.3575144708156586,0.0041603902354836,-0.137257993221283,59.05166625976562,97.19155883789062,-38.81407165527344
188042,-0.2354583740234375,1.153671264648438,0.1804962158203125,-0.3675380647182465,-0.069454438984394,-0.2490276694297791,59.12429809570312,97.2642059326172,-38.72883605957031
188043,-0.2868499755859375,1.201980590820312,0.1567230224609375,-0.2756763100624084,-0.0577128306031227,-0.3163281381130219,59.08837890625,97.41287231445312,-38.50361633300781
188044,-0.2868499755859375,1.201980590820312,0.1567230224609375,-0.2756763100624084,-0.0577128306031227,-0.3163281381130219,59.08837890625,97.41287231445312,-38.50361633300781
188045,-0.320343017578125,1.248046875,0.063201904296875,-0.2439210563898087,0.1019793599843979,-0.2700386643409729,58.7972412109375,97.6947784423828,-38.35824584960938
188046,-0.313140869140625,1.2547607421875,-0.0498046875,-0.192302331328392,0.2236701101064682,-0.2232218980789185,58.60025024414062,97.73207092285156,-38.14715576171875
188047,-0.292205810546875,1.2467041015625,-0.1571502685546875,-0.1414079964160919,0.2575905323028564,-0.1809072047472,58.48832702636719,97.80665588378906,-37.94122314453125
188048,-0.292205810546875,1.2467041015625,-0.1571502685546875,-0.1414079964160919,0.2575905323028564,-0.1809072047472,58.48832702636719,97.80665588378906,-37.94122314453125
188049,-0.1887054443359375,1.180740356445312,-0.29296875,-0.0431373491883277,0.2797464430332184,-0.1016304865479469,58.27778625488281,97.98231506347656,-37.86744689941406
188050,-0.14141845703125,1.1195068359375,-0.3318939208984375,-0.0119802299886941,0.3633832633495331,-0.112759567797184,58.25538635253906,97.96038818359376,-37.57728576660156
188051,-0.1096649169921875,1.060836791992188,-0.352813720703125,0.0045992792584002,0.4285305738449097,-0.1423222571611404,58.29400634765625,97.9796905517578,-37.55615234375
188052,-0.1096649169921875,1.060836791992188,-0.352813720703125,0.0045992792584002,0.4285305738449097,-0.1423222571611404,58.29400634765625,97.9796905517578,-37.55615234375
188053,-0.0687103271484375,0.900634765625,-0.3353424072265625,-0.0348136387765407,0.4361522793769836,-0.2348687052726746,58.21075439453125,97.94692993164062,-37.33515930175781
188054,-0.0485687255859375,0.7891998291015625,-0.3231353759765625,-0.0581876710057258,0.4379248917102814,-0.2535766065120697,58.23760986328125,97.86878967285156,-37.36627197265625
188055,-0.031280517578125,0.6860504150390625,-0.34075927734375,-0.1081086248159409,0.4076769649982452,-0.1671016365289688,58.20082092285156,97.96450805664062,-37.33612060546875
188056,-0.031280517578125,0.6860504150390625,-0.34075927734375,-0.1081086248159409,0.4076769649982452,-0.1671016365289688,58.20082092285156,97.96450805664062,-37.33612060546875
188057,0.0091552734375,0.5848388671875,-0.4690704345703125,-0.1110287830233574,0.3507412374019623,0.0090960264205932,58.24090576171875,97.89369201660156,-37.04766845703125
188058,0.04681396484375,0.5991668701171875,-0.49395751953125,-0.1110287830233574,0.3507412374019623,0.0090960264205932,58.26756286621094,97.84359741210938,-36.97950744628906
188059,0.091705322265625,0.640869140625,-0.4667510986328125,-0.1271824538707733,0.3746678829193115,0.0991449579596519,58.26962280273438,97.8377685546875,-36.81730651855469
188060,0.1333770751953125,0.703643798828125,-0.4089508056640625,-0.1593302637338638,0.4202199280261993,0.1865256726741791,58.31231689453125,97.91270446777344,-36.67698669433594
188061,0.1615447998046875,0.7938385009765625,-0.3632965087890625,-0.1749680787324905,0.4576663672924042,0.2598435580730438,58.42887878417969,97.9178466796875,-36.62884521484375
188062,0.1615447998046875,0.7938385009765625,-0.3632965087890625,-0.1749680787324905,0.4576663672924042,0.2598435580730438,58.42887878417969,97.9178466796875,-36.62884521484375
188063,0.185882568359375,1.033432006835938,-0.3056488037109375,-0.1139737069606781,0.5780023336410522,0.2307272255420685,58.72874450683594,97.88099670410156,-36.45655822753906
188064,0.1994781494140625,1.124176025390625,-0.274169921875,-0.1139737069606781,0.5780023336410522,0.2307272255420685,58.89138793945312,97.88044738769533,-36.27662658691406
188065,0.19891357421875,1.186325073242188,-0.2225494384765625,-0.090331494808197,0.6074681282043457,0.1809170544147491,59.08656311035156,97.85157775878906,-36.17210388183594
188066,0.170379638671875,1.235916137695312,-0.1504364013671875,-0.0802868530154228,0.6086881160736084,0.105682484805584,59.38871765136719,97.8763427734375,-36.12051391601562
188067,0.121978759765625,1.265304565429688,-0.0618896484375,-0.078860193490982,0.4208279252052307,-0.0838914364576339,59.47232055664062,98.04783630371094,-36.01950073242188
188068,0.121978759765625,1.265304565429688,-0.0618896484375,-0.078860193490982,0.4208279252052307,-0.0838914364576339,59.47232055664062,98.04783630371094,-36.01950073242188
188069,-0.0023956298828125,1.268646240234375,0.0751190185546875,-0.0752718523144722,0.3017105758190155,-0.1526153683662415,59.77638244628906,98.29713439941406,-35.84262084960938
188070,-0.0708770751953125,1.240127563476562,0.0810089111328125,-0.0475826971232891,0.1630901247262955,-0.1946810632944107,59.84773254394531,98.2335205078125,-35.865478515625
188071,-0.1423797607421875,1.196731567382812,0.0862579345703125,0.0075199678540229,-0.0775243490934371,-0.1336691081523895,59.93453979492188,98.13943481445312,-35.82180786132812
188072,-0.2036590576171875,1.137832641601562,0.0876312255859375,0.0075199678540229,-0.0775243490934371,-0.1336691081523895,59.92662048339844,98.272705078125,-35.810546875
188073,-0.230621337890625,1.087249755859375,0.100433349609375,0.0001294296234846,-0.0893509164452552,-0.0407463647425174,59.93330383300781,98.29518127441406,-35.81295776367188
188074,-0.23101806640625,1.037704467773438,0.101318359375,-0.0072461948730051,-0.0349718332290649,0.0437331013381481,59.93478393554688,98.3560028076172,-35.79376220703125
188075,-0.2294158935546875,0.9873504638671876,0.083099365234375,-0.0058826566673815,-0.0190583802759647,0.1495032012462616,59.90884399414062,98.23976135253906,-35.80863952636719
188076,-0.2294158935546875,0.9873504638671876,0.083099365234375,-0.0058826566673815,-0.0190583802759647,0.1495032012462616,59.90884399414062,98.23976135253906,-35.80863952636719
188077,-0.25286865234375,0.8884124755859375,0.0657958984375,-0.0419796742498874,0.0594356283545494,0.1994537264108658,60.09774780273438,98.13899230957033,-36.00685119628906
188078,-0.262115478515625,0.8529205322265625,0.0604400634765625,-0.0419796742498874,0.0594356283545494,0.1994537264108658,60.15658569335938,98.10281372070312,-35.86122131347656
188079,-0.2607421875,0.842559814453125,0.071014404296875,-0.1421142667531967,0.282882034778595,0.1903062909841537,60.33418273925781,98.04164123535156,-35.76637268066406
188080,-0.2487335205078125,0.89495849609375,0.080047607421875,-0.1421142667531967,0.282882034778595,0.1903062909841537,60.33418273925781,98.04164123535156,-35.76637268066406
188081,-0.2114105224609375,0.9548797607421876,0.053436279296875,-0.205693244934082,0.3706483840942383,0.160960391163826,60.48341369628906,97.85310363769533,-35.52456665039062
188082,-0.1649627685546875,0.9851226806640624,0.010162353515625,-0.241788923740387,0.4153242409229279,0.1136975362896919,60.59107971191406,97.84315490722656,-35.41741943359375
188083,-0.09100341796875,1.0345458984375,-0.067840576171875,-0.2183970510959625,0.3942426443099976,0.0050296462140977,60.96891784667969,97.8932647705078,-35.14546203613281
188084,-0.09100341796875,1.0345458984375,-0.067840576171875,-0.2183970510959625,0.3942426443099976,0.0050296462140977,60.96891784667969,97.8932647705078,-35.14546203613281
188085,-0.0623931884765625,1.047409057617188,-0.0737457275390625,-0.1937510967254639,0.404670774936676,-0.0538224838674068,60.96910095214844,97.8840789794922,-35.10218811035156
188086,-0.0423431396484375,1.052658081054688,-0.080718994140625,-0.1758618354797363,0.3985750675201416,-0.1251760274171829,60.99681091308594,97.95979309082033,-34.84262084960938
188087,-0.047515869140625,1.046371459960938,-0.0765533447265625,-0.1820486336946487,0.3618868291378021,-0.1981724798679352,61.04719543457031,98.23043823242188,-34.72039794921875
188088,-0.047515869140625,1.046371459960938,-0.0765533447265625,-0.1820486336946487,0.3618868291378021,-0.1981724798679352,61.04719543457031,98.23043823242188,-34.72039794921875
188089,-0.147735595703125,0.974365234375,-0.0406951904296875,-0.2361379712820053,0.2894422113895416,-0.2913788557052612,60.96640014648438,98.2952880859375,-34.58741760253906
188090,-0.2169036865234375,0.9296417236328124,-0.0457305908203125,-0.259527176618576,0.2088520079851151,-0.3234893679618835,60.89248657226562,98.27003479003906,-34.36448669433594
188091,-0.2664794921875,0.8853302001953125,-0.0684967041015625,-0.2597338259220123,0.111639715731144,-0.3385860323905945,60.8428955078125,98.41744995117188,-34.29632568359375
188092,-0.2664794921875,0.8853302001953125,-0.0684967041015625,-0.2597338259220123,0.111639715731144,-0.3385860323905945,60.8428955078125,98.41744995117188,-34.29632568359375
188093,-0.28375244140625,0.8316497802734375,-0.116668701171875,-0.212196409702301,0.0248472932726144,-0.3304338455200195,60.56330871582031,98.4860382080078,-34.045654296875
188094,-0.2835540771484375,0.8287811279296875,-0.1324005126953125,-0.1912290751934052,0.0383164957165718,-0.3176141679286957,60.48194885253906,98.65000915527344,-33.85504150390625
188095,-0.2770538330078125,0.828399658203125,-0.1246795654296875,-0.184891551733017,0.057745587080717,-0.3067857623100281,60.28756713867188,98.77961730957033,-33.83232116699219
188096,-0.2770538330078125,0.828399658203125,-0.1246795654296875,-0.184891551733017,0.057745587080717,-0.3067857623100281,60.28756713867188,98.77961730957033,-33.83232116699219
188097,-0.242401123046875,0.8495330810546875,-0.070709228515625,-0.179695725440979,0.1125150918960571,-0.2686128318309784,59.98709106445312,99.09207153320312,-33.61508178710938
188098,-0.21258544921875,0.893096923828125,-0.053192138671875,-0.194918617606163,0.0948692560195922,-0.2378881871700287,59.82011413574219,99.18397521972656,-33.55574035644531
188099,-0.1855316162109375,0.9438629150390624,-0.023590087890625,-0.2346061170101166,0.0859924033284187,-0.2010185867547989,59.73748779296875,99.19273376464844,-33.46696472167969
188100,-0.167022705078125,0.98736572265625,0.00897216796875,-0.2910973429679871,0.1146908923983574,-0.1629250049591064,59.57963562011719,99.428955078125,-33.52108764648438
188101,-0.163848876953125,1.020767211914062,0.0346221923828125,-0.3489180505275726,0.1569131910800934,-0.1339191794395447,59.46279907226562,99.54354858398438,-33.22496032714844
188102,-0.17236328125,1.04217529296875,0.058380126953125,-0.4029421210289001,0.1709722727537155,-0.1173239648342133,59.41268920898438,99.68862915039062,-33.08026123046875
188103,-0.18487548828125,1.055267333984375,0.07000732421875,-0.4481202661991119,0.1528651863336563,-0.0972202941775322,59.29315185546875,99.72247314453124,-32.94029235839844
188104,-0.18487548828125,1.055267333984375,0.07000732421875,-0.4481202661991119,0.1528651863336563,-0.0972202941775322,59.29315185546875,99.72247314453124,-32.94029235839844
188105,-0.1943359375,1.061203002929688,0.0050506591796875,-0.4843709468841553,-0.0844030305743217,-0.0488311871886253,59.20172119140625,100.0302124023438,-32.53802490234375
188106,-0.16986083984375,1.063369750976562,-0.0371551513671875,-0.4510555863380432,-0.284748375415802,-0.0207356382161378,59.18196105957031,100.1732177734375,-32.37673950195312
188107,-0.112457275390625,1.068939208984375,-0.0154266357421875,-0.3850573897361755,-0.4093893766403198,0.0162910893559455,59.12242126464844,100.1127319335938,-32.24908447265625
188108,-0.112457275390625,1.068939208984375,-0.0154266357421875,-0.3850573897361755,-0.4093893766403198,0.0162910893559455,59.12242126464844,100.1127319335938,-32.24908447265625
188109,0.02618408203125,1.06781005859375,0.06475830078125,-0.1830039024353027,-0.5012929439544678,0.0616985186934471,58.96546936035156,99.99920654296876,-31.81367492675781
188110,0.092742919921875,1.05950927734375,0.0763397216796875,-0.0857077166438102,-0.584445595741272,0.0670663863420486,58.82215881347656,100.080810546875,-31.73567199707031
188111,0.13995361328125,1.048355102539062,0.04351806640625,0.0119232386350631,-0.6533788442611694,0.0874978899955749,58.80625915527344,99.99105834960938,-31.59207153320312
188112,0.13995361328125,1.048355102539062,0.04351806640625,0.0119232386350631,-0.6533788442611694,0.0874978899955749,58.80625915527344,99.99105834960938,-31.59207153320312
188113,0.202789306640625,1.02056884765625,-0.15911865234375,0.3152466416358948,-0.8705047965049744,0.1530255079269409,58.74650573730469,100.0241851806641,-31.67869567871094
188114,0.2020721435546875,1.006622314453125,-0.2395172119140625,0.5240879654884338,-0.8857287764549255,0.171009823679924,58.6658935546875,99.9405517578125,-31.82229614257812
188115,0.1860504150390625,0.9658050537109376,-0.3385467529296875,0.730444073677063,-0.9119430780410768,0.1630419194698334,58.60395812988281,99.88565063476562,-32.02386474609375
188116,0.1860504150390625,0.9658050537109376,-0.3385467529296875,0.730444073677063,-0.9119430780410768,0.1630419194698334,58.60395812988281,99.88565063476562,-32.02386474609375
188117,0.1534881591796875,0.888580322265625,-0.4599609375,1.030298471450806,-0.8128513693809509,0.0661185681819915,58.43186950683594,99.71800231933594,-32.57070922851562
188118,0.1270751953125,0.892608642578125,-0.504241943359375,1.030298471450806,-0.8128513693809509,0.0661185681819915,58.37872314453125,99.6085205078125,-33.05274963378906
188119,0.0919342041015625,0.9241943359375,-0.5191802978515625,0.9665719270706176,-0.7100501656532288,0.0230611115694046,58.32051086425781,99.37362670898438,-33.50492858886719
188120,0.0919342041015625,0.9241943359375,-0.5191802978515625,0.9665719270706176,-0.7100501656532288,0.0230611115694046,58.32051086425781,99.37362670898438,-33.50492858886719
188121,0.037811279296875,1.031051635742188,-0.394989013671875,0.7137277126312256,-0.4600267112255096,-0.085447259247303,58.12353515625,98.98379516601562,-34.21540832519531
188122,0.009674072265625,1.087554931640625,-0.3065338134765625,0.5795416831970215,-0.401152491569519,-0.1240420565009117,58.02975463867188,98.83946228027344,-34.65505981445312
188123,-0.044921875,1.133377075195312,-0.2065887451171875,0.4687160849571228,-0.3819156587123871,-0.1278085559606552,57.87577819824219,98.71612548828124,-35.23306274414062
188124,-0.044921875,1.133377075195312,-0.2065887451171875,0.4687160849571228,-0.3819156587123871,-0.1278085559606552,57.87577819824219,98.71612548828124,-35.23306274414062
188125,-0.1664886474609375,1.180679321289062,-0.0692901611328125,0.4142528474330902,-0.2673917710781097,-0.0261104293167591,57.622802734375,98.51620483398438,-35.86367797851562
188126,-0.1664886474609375,1.180679321289062,-0.0692901611328125,0.4142528474330902,-0.2673917710781097,-0.0261104293167591,57.622802734375,98.51620483398438,-35.86367797851562
188127,-0.2075042724609375,1.190902709960938,-0.0317230224609375,0.4461513757705688,-0.1743044257164001,0.0400882959365844,57.67178344726562,98.4222412109375,-36.12663269042969
188128,-0.3186798095703125,1.182540893554688,-0.0308380126953125,0.5400664210319519,-0.0162958819419145,0.1232644096016884,57.70860290527344,98.42694091796876,-36.81773376464844
188129,-0.36309814453125,1.158111572265625,-0.05615234375,0.6030262112617493,0.0321584679186344,0.1277819275856018,57.79112243652344,98.41014099121094,-36.86590576171875
188130,-0.394775390625,1.095657348632812,-0.075408935546875,0.6686062812805176,0.0756417661905288,0.0902598574757576,57.87724304199219,98.28376770019533,-37.157958984375
188131,-0.4080810546875,1.025405883789062,-0.09466552734375,0.7024510502815247,0.104449175298214,0.0357872918248176,57.94219970703125,98.3025360107422,-37.59686279296875
188132,-0.4080810546875,1.025405883789062,-0.09466552734375,0.7024510502815247,0.104449175298214,0.0357872918248176,57.94219970703125,98.3025360107422,-37.59686279296875
188133,-0.3947601318359375,0.8805694580078125,-0.104583740234375,0.5775357484817505,0.1747800707817078,-0.0920388475060463,58.10792541503906,97.98141479492188,-38.04118347167969
188134,-0.375701904296875,0.8189849853515625,-0.12200927734375,0.4479596614837646,0.2272560596466064,-0.1414777636528015,58.15190124511719,97.76676940917967,-38.27769470214844
188135,-0.3475494384765625,0.7880401611328125,-0.1450653076171875,0.2910451591014862,0.3029620051383972,-0.1819026917219162,58.18074035644531,97.77061462402344,-38.64178466796875
188136,-0.3475494384765625,0.7880401611328125,-0.1450653076171875,0.2910451591014862,0.3029620051383972,-0.1819026917219162,58.18074035644531,97.77061462402344,-38.64178466796875
188137,-0.247039794921875,0.8577728271484375,-0.1369476318359375,0.0035457327030599,0.5054506659507751,-0.1722322255373001,58.17758178710938,97.60313415527344,-39.01422119140625
188138,-0.186126708984375,0.9429168701171876,-0.1008453369140625,-0.0952072069048881,0.6533461213111877,-0.1196206733584404,58.19551086425781,97.55856323242188,-39.00114440917969
188139,-0.148773193359375,1.035507202148438,-0.0422821044921875,-0.1736032068729401,0.7975746393203735,-0.047256726771593,58.20553588867188,97.60354614257812,-38.95608520507812
188140,-0.148773193359375,1.035507202148438,-0.0422821044921875,-0.1736032068729401,0.7975746393203735,-0.047256726771593,58.20553588867188,97.60354614257812,-38.95608520507812
188141,-0.1011505126953125,1.153549194335938,0.0742645263671875,-0.2954218089580536,0.8562355637550354,0.1127257496118546,58.51319885253906,97.69602966308594,-38.74247741699219
188142,-0.0695648193359375,1.142974853515625,0.1072845458984375,-0.3031335175037384,0.7529685497283936,0.1659764498472214,58.78216552734375,97.68962097167967,-38.61026000976562
188143,-0.0364532470703125,1.086532592773438,0.1260833740234375,-0.1366092413663864,0.3049396574497223,0.2253151386976242,59.03787231445312,97.65170288085938,-38.39701843261719
188144,-0.0364532470703125,1.086532592773438,0.1260833740234375,-0.1366092413663864,0.3049396574497223,0.2253151386976242,59.03787231445312,97.65170288085938,-38.39701843261719
188145,0.04107666015625,0.8897705078125,0.1604766845703125,-0.0334927141666412,0.0214144773781299,0.2195121198892593,59.65638732910156,97.6352996826172,-37.90982055664062
188146,0.0751800537109375,0.781707763671875,0.15838623046875,0.0006466155173256,-0.2594142556190491,0.1913526505231857,59.80674743652344,97.74783325195312,-37.91014099121094
188147,0.099822998046875,0.697723388671875,0.141448974609375,-0.0682506933808326,-0.5157586932182312,0.1468168795108795,59.89508056640625,97.67294311523438,-37.93438720703125
188148,0.099822998046875,0.697723388671875,0.141448974609375,-0.0682506933808326,-0.5157586932182312,0.1468168795108795,59.89508056640625,97.67294311523438,-37.93438720703125
188149,0.1114959716796875,0.8383026123046875,0.048828125,-0.5740752816200256,-0.9679828882217408,-0.1053029894828796,59.82847595214844,97.47492980957033,-37.89852905273438
188150,0.0648956298828125,0.9072113037109376,0.0267333984375,-0.5740752816200256,-0.9679828882217408,-0.1053029894828796,59.65374755859375,97.57977294921876,-37.90225219726562
188151,0.00982666015625,0.899932861328125,-0.0232696533203125,-0.6763749718666077,-0.9283978939056396,-0.1706050336360931,59.563720703125,97.61692810058594,-37.76266479492188
188152,0.00982666015625,0.899932861328125,-0.0232696533203125,-0.6763749718666077,-0.9283978939056396,-0.1706050336360931,59.563720703125,97.61692810058594,-37.76266479492188
188153,-0.0666656494140625,0.9209442138671876,-0.088775634765625,-0.6713094115257263,-0.8583061695098877,-0.253221869468689,59.02937316894531,97.8844757080078,-37.44233703613281
188154,-0.0962677001953125,0.961669921875,-0.085662841796875,-0.6344594955444336,-0.8208043575286865,-0.2753929495811462,58.77484130859375,98.06239318847656,-37.12106323242188
188155,-0.127044677734375,1.012298583984375,-0.051849365234375,-0.5994107127189636,-0.5259274244308472,-0.2852149605751038,58.39398193359375,98.19830322265624,-36.77236938476562
188156,-0.127044677734375,1.012298583984375,-0.051849365234375,-0.5994107127189636,-0.5259274244308472,-0.2852149605751038,58.39398193359375,98.19830322265624,-36.77236938476562
188157,-0.2078857421875,1.120223999023438,0.0257720947265625,-0.5817161202430725,-0.3547327816486359,-0.2981443405151367,57.79266357421875,98.58273315429688,-36.31584167480469
188158,-0.2567291259765625,1.146469116210938,0.0485382080078125,-0.5136212110519409,-0.2386309504508972,-0.3584108650684357,57.60499572753906,98.83163452148438,-36.11349487304688
188159,-0.2948455810546875,1.168685913085938,0.0249481201171875,-0.5136212110519409,-0.2386309504508972,-0.3584108650684357,57.33941650390625,98.95657348632812,-35.80294799804688
188160,-0.2948455810546875,1.168685913085938,0.0249481201171875,-0.5136212110519409,-0.2386309504508972,-0.3584108650684357,57.33941650390625,98.95657348632812,-35.80294799804688
188161,-0.274627685546875,1.175994873046875,-0.0775299072265625,-0.3768817782402039,-0.2886776030063629,-0.3199883997440338,56.92132568359375,99.33506774902344,-35.29695129394531
188162,-0.2254791259765625,1.141769409179688,-0.130767822265625,-0.2618182897567749,-0.2794260382652283,-0.2644489705562592,56.65596008300781,99.54766845703124,-35.17874145507812
188163,-0.1847381591796875,1.111831665039062,-0.150390625,-0.1438575685024261,-0.2540983259677887,-0.2243428230285645,56.48464965820312,99.53971862792967,-35.04277038574219
188164,-0.1847381591796875,1.111831665039062,-0.150390625,-0.1438575685024261,-0.2540983259677887,-0.2243428230285645,56.48464965820312,99.53971862792967,-35.04277038574219
188165,-0.1527252197265625,1.043472290039062,-0.186187744140625,0.0836797133088111,-0.1955519169569016,-0.1672340035438538,56.15956115722656,99.76913452148438,-34.66790771484375
188166,-0.1450653076171875,0.99371337890625,-0.2140655517578125,0.1577448844909668,-0.1689320355653763,-0.1493828296661377,56.00979614257812,99.80636596679688,-34.69464111328125
188167,-0.127899169921875,0.9214324951171876,-0.2392120361328125,0.1577448844909668,-0.1689320355653763,-0.1493828296661377,55.91925048828125,99.7318115234375,-34.57742309570312
188168,-0.127899169921875,0.9214324951171876,-0.2392120361328125,0.1577448844909668,-0.1689320355653763,-0.1493828296661377,55.91925048828125,99.7318115234375,-34.57742309570312
188169,-0.0926055908203125,0.7626495361328125,-0.2829437255859375,0.2718261778354645,-0.0794761851429939,-0.0982187092304229,55.74520874023438,99.7997589111328,-34.72265625
188170,-0.064544677734375,0.69647216796875,-0.3217620849609375,0.267977386713028,-0.0244209207594394,-0.0648719370365142,55.70079040527344,99.77294921875,-34.88815307617188
188171,-0.0404815673828125,0.6456756591796875,-0.3557891845703125,0.2410885095596313,0.0399285070598125,-0.007455519400537,55.58122253417969,99.5950164794922,-35.01463317871094
188172,-0.0404815673828125,0.6456756591796875,-0.3557891845703125,0.2410885095596313,0.0399285070598125,-0.007455519400537,55.58122253417969,99.5950164794922,-35.01463317871094
188173,-0.0100555419921875,0.6600494384765625,-0.3309783935546875,0.1444024592638016,0.2376413196325302,0.1372899413108826,55.54258728027344,99.46685791015624,-35.181640625
188174,-0.0002899169921875,0.7267913818359375,-0.3257904052734375,0.0874403640627861,0.334958016872406,0.2095255255699158,55.62057495117188,99.4094696044922,-35.20735168457031
188175,-0.0103302001953125,0.8240509033203125,-0.3137359619140625,0.020428042858839,0.3952953815460205,0.2581125199794769,55.61749267578125,99.51130676269533,-35.36227416992188
188176,-0.0103302001953125,0.8240509033203125,-0.3137359619140625,0.020428042858839,0.3952953815460205,0.2581125199794769,55.61749267578125,99.51130676269533,-35.36227416992188
188177,-0.0474395751953125,1.046905517578125,-0.2600555419921875,-0.0320918895304203,0.5023337006568909,0.2690807282924652,55.94923400878906,99.43789672851562,-35.30953979492188
188178,-0.050140380859375,1.136581420898438,-0.249237060546875,0.0312681756913662,0.5584981441497803,0.2459389269351959,56.13031005859375,99.42807006835938,-35.31126403808594
188179,-0.045074462890625,1.214370727539062,-0.18402099609375,0.0629880204796791,0.6276096105575562,0.2207299768924713,56.30062866210938,99.4831085205078,-35.33834838867188
188180,-0.045074462890625,1.214370727539062,-0.18402099609375,0.0629880204796791,0.6276096105575562,0.2207299768924713,56.30062866210938,99.4831085205078,-35.33834838867188
188181,-0.0152587890625,1.28582763671875,0.019378662109375,-0.0071183633990585,0.5925672054290771,0.1988523751497269,56.69667053222656,99.45509338378906,-35.18801879882812
188182,0.0131683349609375,1.280532836914062,0.10125732421875,0.0050416300073266,0.498628169298172,0.2001003324985504,56.8662109375,99.45794677734376,-35.22007751464844
188183,0.0315093994140625,1.251846313476562,0.1167144775390625,0.0321147926151752,0.3986395299434662,0.2197845578193665,57.12763977050781,99.36338806152344,-35.15235900878906
188184,0.0315093994140625,1.251846313476562,0.1167144775390625,0.0321147926151752,0.3986395299434662,0.2197845578193665,57.12763977050781,99.36338806152344,-35.15235900878906
188185,0.085906982421875,1.182159423828125,0.0577850341796875,0.1331809610128403,0.2231547832489014,0.3192467093467712,57.57479858398438,99.298095703125,-35.17486572265625
188186,0.0513458251953125,1.166519165039062,0.0525054931640625,0.1982899159193039,0.1875845491886139,0.3638285398483276,57.6556396484375,99.16867065429688,-35.13394165039062
188187,-0.024200439453125,1.1602783203125,0.1028900146484375,0.2365004271268845,0.1614781022071838,0.3704001605510712,57.86946105957031,99.06819152832033,-35.18318176269531
188188,-0.024200439453125,1.1602783203125,0.1028900146484375,0.2365004271268845,0.1614781022071838,0.3704001605510712,57.86946105957031,99.06819152832033,-35.18318176269531
188189,-0.14642333984375,1.07708740234375,0.18670654296875,0.1108551472425461,0.3034783899784088,0.3316501080989838,58.27085876464844,98.91253662109376,-35.31109619140625
188190,-0.14642333984375,1.07708740234375,0.18670654296875,0.1108551472425461,0.3034783899784088,0.3316501080989838,58.27085876464844,98.91253662109376,-35.31109619140625
188191,-0.1536407470703125,1.003753662109375,0.1501312255859375,-0.0396912209689617,0.3563445210456848,0.3352017104625702,58.49705505371094,98.80369567871094,-35.341796875
188192,-0.0563507080078125,0.8926544189453125,0.050201416015625,-0.0560374371707439,0.4019551575183868,0.347058892250061,58.9998779296875,98.76042175292967,-35.30064392089844
188193,-0.00103759765625,0.8591461181640625,0.007598876953125,-0.0553056001663208,0.4513948857784271,0.34261354804039,59.16287231445312,98.75196838378906,-35.30125427246094
188194,0.0263519287109375,0.8488922119140625,-0.0069732666015625,-0.0656879320740699,0.4954017400741577,0.313995748758316,59.29965209960938,98.78700256347656,-35.42601013183594
188195,0.0335693359375,0.8668975830078125,0.003936767578125,-0.0964591577649116,0.5266989469528198,0.2566677331924438,59.53173828125,98.67425537109376,-35.34271240234375
188196,0.0335693359375,0.8668975830078125,0.003936767578125,-0.0964591577649116,0.5266989469528198,0.2566677331924438,59.53173828125,98.67425537109376,-35.34271240234375
188197,-0.0021820068359375,0.96331787109375,0.052764892578125,-0.2263079732656479,0.5212200284004211,0.0278627909719944,59.91719055175781,98.6672821044922,-35.1705322265625
188198,-0.02313232421875,1.015090942382812,0.077362060546875,-0.3045327365398407,0.4317660629749298,-0.1087384670972824,60.21272277832031,98.7161865234375,-35.09600830078125
188199,-0.03643798828125,1.048553466796875,0.1016998291015625,-0.3526797592639923,0.3224246501922607,-0.2341722846031189,60.35809326171875,98.65382385253906,-34.99307250976562
188200,-0.03643798828125,1.048553466796875,0.1016998291015625,-0.3526797592639923,0.3224246501922607,-0.2341722846031189,60.35809326171875,98.65382385253906,-34.99307250976562
188201,-0.0539093017578125,0.979949951171875,0.0887603759765625,-0.2591508626937866,0.1102716475725174,-0.4171380996704102,60.42173767089844,98.7388916015625,-34.69169616699219
188202,-0.0539093017578125,0.979949951171875,0.0887603759765625,-0.2591508626937866,0.1102716475725174,-0.4171380996704102,60.42173767089844,98.7388916015625,-34.69169616699219
188203,-0.0822296142578125,0.89312744140625,0.0349578857421875,-0.1207099035382271,-0.0225481856614351,-0.4623812139034271,60.26470947265625,98.89244079589844,-34.5797119140625
188204,-0.130950927734375,0.8131866455078125,-0.0263671875,0.024074176326394,-0.1793220937252045,-0.4777026474475861,60.14985656738281,98.97483825683594,-34.37763977050781
188205,-0.2631988525390625,0.737335205078125,-0.059814453125,0.1639638990163803,-0.2239974141120911,-0.4498172402381897,59.80743408203125,99.05168151855467,-34.16949462890625
188206,-0.3151702880859375,0.730926513671875,-0.046966552734375,0.1311729401350021,-0.113412581384182,-0.4213626682758331,59.45364379882812,99.10321044921876,-34.19651794433594
188207,-0.3425750732421875,0.7509918212890625,-0.015411376953125,-0.0636026784777641,-0.0088699245825409,-0.3532533943653107,59.226806640625,99.14537048339844,-34.40965270996094
188208,-0.3672027587890625,0.7834320068359375,0.011810302734375,-0.211473360657692,-0.0400667265057563,-0.3106425702571869,58.97470092773438,99.16432189941406,-34.46281433105469
188209,-0.38763427734375,0.838897705078125,0.0104522705078125,-0.211473360657692,-0.0400667265057563,-0.3106425702571869,58.720703125,99.28205871582033,-34.52182006835938
188210,-0.383453369140625,0.9071502685546876,0.0030059814453125,-0.3883144557476044,-0.1447502672672272,-0.2662458121776581,58.61741638183594,99.47096252441406,-34.54054260253906
188211,-0.3538818359375,0.9810028076171876,0.0207061767578125,-0.5473049283027649,-0.2850386500358582,-0.2244815677404404,58.39714050292969,99.54054260253906,-34.43867492675781
188212,-0.29254150390625,1.043655395507812,0.0515899658203125,-0.6716145873069763,-0.374675065279007,-0.1932911723852158,58.28083801269531,99.6422882080078,-34.37913513183594
188213,-0.218719482421875,1.087936401367188,0.0746002197265625,-0.7415609359741211,-0.4361858367919922,-0.1702849119901657,58.11589050292969,99.7667999267578,-34.1488037109375
188214,-0.1491546630859375,1.116897583007812,0.0912933349609375,-0.7439923882484436,-0.4857318103313446,-0.1509919166564941,57.9952392578125,99.93804931640624,-33.89553833007812
188215,-0.0908050537109375,1.127395629882812,0.1081085205078125,-0.5695044994354248,-0.5428885817527771,-0.0476708486676216,57.7445068359375,99.97967529296876,-33.67364501953125
188216,-0.0420989990234375,1.142578125,0.1024017333984375,-0.5695044994354248,-0.5428885817527771,-0.0476708486676216,57.52301025390625,100.0935516357422,-33.31114196777344
188217,0.0001373291015625,1.154708862304688,0.0417327880859375,-0.1979913711547852,-0.6074340343475342,0.0649864599108696,57.39985656738281,100.1157531738281,-32.976806640625
188218,0.0001373291015625,1.154708862304688,0.0417327880859375,-0.1979913711547852,-0.6074340343475342,0.0649864599108696,57.39985656738281,100.1157531738281,-32.976806640625
188219,0.0265655517578125,1.1376953125,-0.0303802490234375,-0.0305270161479711,-0.6321617364883423,0.1221299022436142,57.26683044433594,100.2234039306641,-32.60475158691406
188220,0.020721435546875,1.08209228515625,-0.066986083984375,0.1091195642948151,-0.6250449419021606,0.1447723656892776,57.22528076171875,100.3096618652344,-32.3538818359375
188221,-0.03271484375,0.9053802490234376,-0.0923614501953125,0.2096451073884964,-0.5928859710693359,0.1485623121261597,57.08332824707031,100.3786773681641,-31.93412780761719
188222,-0.0688934326171875,0.8253173828125,-0.1346435546875,0.2734081149101257,-0.5399854779243469,0.1244852021336555,57.03971862792969,100.3894500732422,-31.777587890625
188223,-0.099029541015625,0.758453369140625,-0.2208709716796875,0.3127571046352386,-0.5385507941246033,0.0852946564555168,57.02804565429688,100.3027496337891,-32.0478515625
188224,-0.134613037109375,0.7110137939453125,-0.31280517578125,0.3508973121643066,-0.5713939666748047,0.0384235568344593,56.87193298339844,100.3484497070312,-32.43672180175781
188225,-0.160369873046875,0.700347900390625,-0.4214935302734375,0.4996875822544098,-0.6821151971817017,-0.0108161624521017,56.83970642089844,100.2333679199219,-32.61599731445312
188226,-0.1632843017578125,0.728118896484375,-0.5183563232421875,0.4996875822544098,-0.6821151971817017,-0.0108161624521017,56.85279846191406,100.0504608154297,-32.7572021484375
188227,-0.1287994384765625,0.77459716796875,-0.52587890625,0.6027321815490723,-0.6624229550361633,0.0065375277772545,56.785400390625,100.0759582519531,-32.90802001953125
188228,-0.1287994384765625,0.77459716796875,-0.52587890625,0.6027321815490723,-0.6624229550361633,0.0065375277772545,56.785400390625,100.0759582519531,-32.90802001953125
188229,-0.0125885009765625,0.905059814453125,-0.3852081298828125,0.5071167349815369,-0.3545151948928833,0.0925640240311622,56.45454406738281,99.8856964111328,-33.42247009277344
188230,0.0608978271484375,0.9636383056640624,-0.3163909912109375,0.3349646627902985,-0.2862141728401184,0.158440500497818,56.31680297851562,99.7360382080078,-33.75865173339844
188231,0.121490478515625,1.051315307617188,-0.251373291015625,0.1941734701395035,-0.2575383186340332,0.225648045539856,56.31341552734375,99.7523193359375,-34.01274108886719
188232,0.121490478515625,1.051315307617188,-0.251373291015625,0.1941734701395035,-0.2575383186340332,0.225648045539856,56.31341552734375,99.7523193359375,-34.01274108886719
188233,0.131256103515625,1.31195068359375,-0.11181640625,0.0795595422387123,-0.1713387221097946,0.3385103940963745,56.48397827148438,99.48518371582033,-34.40525817871094
188234,0.0943603515625,1.439865112304688,-0.0624847412109375,0.0980767682194709,-0.0795496851205825,0.375080406665802,56.54695129394531,99.37196350097656,-34.44442749023438
188235,0.054168701171875,1.537368774414062,-0.0206146240234375,0.1840180456638336,-0.0182056352496147,0.3834395408630371,56.66572570800781,99.29261779785156,-34.58753967285156
188236,0.054168701171875,1.537368774414062,-0.0206146240234375,0.1840180456638336,-0.0182056352496147,0.3834395408630371,56.66572570800781,99.29261779785156,-34.58753967285156
188237,-0.02679443359375,1.623367309570312,0.0959625244140625,0.4747382998466492,0.0202482808381319,0.3132452666759491,57.14166259765625,99.1286163330078,-34.61660766601562
188238,-0.02679443359375,1.623367309570312,0.0959625244140625,0.4747382998466492,0.0202482808381319,0.3132452666759491,57.14166259765625,99.1286163330078,-34.61660766601562
188239,-0.0735626220703125,1.5992431640625,0.1455078125,0.6406286954879761,0.0900976657867431,0.1110929623246193,57.27903747558594,99.30802917480467,-34.79489135742188
188240,-0.147705078125,1.36004638671875,0.1314849853515625,0.7070037722587585,0.1146978214383125,0.0214301906526088,57.63967895507812,99.17970275878906,-35.35591125488281
188241,-0.1581573486328125,1.204910278320312,0.0753326416015625,0.7777761816978455,0.120167151093483,-0.0327885709702968,57.788330078125,99.04837036132812,-35.47398376464844
188242,-0.155487060546875,1.061676025390625,0.008270263671875,0.8187941908836365,0.0913126021623611,-0.071771390736103,57.93342590332031,98.89996337890624,-35.83004760742188
188243,-0.135345458984375,0.9359588623046876,-0.04449462890625,0.818819522857666,0.0125962188467383,-0.1036076173186302,57.90988159179688,98.69497680664062,-36.114501953125
188244,-0.135345458984375,0.9359588623046876,-0.04449462890625,0.818819522857666,0.0125962188467383,-0.1036076173186302,57.90988159179688,98.69497680664062,-36.114501953125
188245,-0.108612060546875,0.766754150390625,-0.0970611572265625,0.737464964389801,-0.1492249071598053,-0.1183873638510704,57.92951965332031,98.37969970703124,-37.0
188246,-0.108612060546875,0.766754150390625,-0.0970611572265625,0.737464964389801,-0.1492249071598053,-0.1183873638510704,57.92951965332031,98.37969970703124,-37.0
188247,-0.1169586181640625,0.678192138671875,-0.1237945556640625,0.6792442798614502,-0.2804239392280579,-0.1038704738020897,57.90582275390625,97.7739715576172,-37.99282836914062
188248,-0.1245269775390625,0.667205810546875,-0.1236114501953125,0.6369045376777649,-0.3109738528728485,-0.1008350029587746,57.77272033691406,97.62673950195312,-38.29295349121094
188249,-0.1293487548828125,0.6827545166015625,-0.10418701171875,0.555897057056427,-0.2921985685825348,-0.0898950025439262,57.71955871582031,97.44598388671876,-38.65901184082031
188250,-0.11907958984375,0.7268829345703125,-0.0644073486328125,0.4065626859664917,-0.2241851687431335,-0.0571775361895561,57.50576782226562,97.28044128417967,-38.76466369628906
188251,-0.110015869140625,0.7796783447265625,-0.0126800537109375,0.2001309543848038,-0.141928106546402,0.0119024654850363,57.48593139648438,97.23995971679688,-39.16014099121094
188252,-0.09283447265625,0.83087158203125,0.0380706787109375,-0.0001989381271414,-0.1167583093047142,0.0941656455397605,57.43138122558594,97.21424865722656,-39.43026733398438
188253,-0.0607452392578125,0.8663482666015625,0.1031494140625,-0.1637042462825775,-0.1251930743455887,0.1805087924003601,57.47828674316406,97.33821105957033,-39.52769470214844
188254,-0.025604248046875,0.892578125,0.1539154052734375,-0.2839821875095367,-0.1162371262907982,0.2664332985877991,57.48219299316406,97.22067260742188,-39.46356201171875
188255,-4.57763671875e-05,0.904022216796875,0.17022705078125,-0.3711104393005371,-0.1194526255130768,0.3193135559558868,57.50198364257812,97.23934936523438,-39.50608825683594
188256,-4.57763671875e-05,0.904022216796875,0.17022705078125,-0.3711104393005371,-0.1194526255130768,0.3193135559558868,57.50198364257812,97.23934936523438,-39.50608825683594
188257,0.0548095703125,0.861541748046875,0.144744873046875,-0.4414815306663513,-0.1701725274324417,0.3538749814033508,57.86750793457031,97.2502899169922,-39.25712585449219
188258,0.0805816650390625,0.837677001953125,0.1627197265625,-0.4624512493610382,-0.1883808225393295,0.3453957438468933,57.94058227539062,97.22998046875,-38.98023986816406
188259,0.095245361328125,0.839111328125,0.21441650390625,-0.5093982815742493,-0.1578519493341446,0.3431277871131897,58.10142517089844,97.35002136230467,-38.762939453125
188260,0.095245361328125,0.839111328125,0.21441650390625,-0.5093982815742493,-0.1578519493341446,0.3431277871131897,58.10142517089844,97.35002136230467,-38.762939453125
188261,0.05169677734375,0.9514617919921876,0.3395843505859375,-0.6702835559844971,0.0612199492752552,0.2772422432899475,58.30520629882812,97.61720275878906,-38.40911865234375
188262,0.05169677734375,0.9514617919921876,0.3395843505859375,-0.6702835559844971,0.0612199492752552,0.2772422432899475,58.30520629882812,97.61720275878906,-38.40911865234375
188263,-0.0854339599609375,1.089508056640625,0.345977783203125,-0.8198578357696533,0.0520168617367744,0.0673971474170684,58.60427856445312,97.92196655273438,-37.94534301757812
188264,-0.142181396484375,1.133468627929688,0.3434906005859375,-0.8444838523864746,-0.0482634045183658,-0.0683670714497566,58.81242370605469,97.85781860351562,-37.54998779296875
188265,-0.1767578125,1.160430908203125,0.3262176513671875,-0.854611337184906,-0.1258599311113358,-0.1972526162862778,58.81585693359375,97.975830078125,-37.09504699707031
188266,-0.1767578125,1.160430908203125,0.3262176513671875,-0.854611337184906,-0.1258599311113358,-0.1972526162862778,58.81585693359375,97.975830078125,-37.09504699707031
188267,-0.2051544189453125,1.194808959960938,0.17431640625,-0.8098723292350769,-0.0459405928850174,-0.3669244647026062,58.522216796875,98.39268493652344,-36.28996276855469
188268,-0.209136962890625,1.204391479492188,0.043060302734375,-0.6921569108963013,0.148405984044075,-0.3719996511936188,58.32913208007812,98.56224060058594,-35.82098388671875
188269,-0.2044525146484375,1.183517456054688,-0.0665283203125,-0.4964710175991058,0.514203667640686,-0.3144887089729309,58.09317016601562,98.8766632080078,-35.52285766601562
188270,-0.2128143310546875,1.150741577148438,-0.118804931640625,-0.2984724342823029,0.796856701374054,-0.2532447874546051,57.85687255859375,99.16192626953124,-35.20425415039062
188271,-0.208282470703125,1.086593627929688,-0.0751495361328125,-0.2107111662626266,0.8648072481155396,-0.181861937046051,57.76968383789062,99.27960205078124,-34.9215087890625
188272,-0.2032318115234375,1.037811279296875,-0.077545166015625,-0.2107111662626266,0.8648072481155396,-0.181861937046051,57.76336669921875,99.35305786132812,-34.70965576171875
188273,-0.189422607421875,1.010269165039062,-0.1563568115234375,-0.2460566461086273,0.7857723236083984,-0.131053626537323,57.77568054199219,99.44064331054688,-34.483642578125
188274,-0.1707763671875,0.9993896484375,-0.2068939208984375,-0.2164265811443329,0.7148073315620422,-0.0908875614404678,57.87078857421875,99.40493774414062,-34.29391479492188
188275,-0.1653289794921875,0.98406982421875,-0.1986236572265625,-0.1439236104488373,0.7108405828475952,-0.0611099600791931,57.83706665039062,99.58180236816406,-34.21566772460938
188276,-0.1653289794921875,0.98406982421875,-0.1986236572265625,-0.1439236104488373,0.7108405828475952,-0.0611099600791931,57.83706665039062,99.58180236816406,-34.21566772460938
188277,-0.1678009033203125,0.906890869140625,-0.209381103515625,-0.0011182613670825,0.7458124160766602,-0.0166583396494388,58.08367919921875,99.77842712402344,-33.90707397460938
188278,-0.118072509765625,0.83770751953125,-0.2836151123046875,0.0610031671822071,0.7071486115455627,0.0152439335361123,58.17518615722656,99.6290283203125,-33.67073059082031
188279,-0.05426025390625,0.7900543212890625,-0.3533477783203125,0.1500827074050903,0.6610333323478699,0.0685329884290695,58.28688049316406,99.6135711669922,-33.48332214355469
188280,-0.05426025390625,0.7900543212890625,-0.3533477783203125,0.1500827074050903,0.6610333323478699,0.0685329884290695,58.28688049316406,99.6135711669922,-33.48332214355469
188281,0.0606231689453125,0.8173828125,-0.41522216796875,0.3383290469646454,0.6395972967147827,0.178559884428978,58.55535888671875,99.5438232421875,-33.45118713378906
188282,0.123382568359375,0.8628082275390625,-0.420257568359375,0.3960576057434082,0.6685367822647095,0.2190045118331909,58.6243896484375,99.60104370117188,-33.53785705566406
188283,0.1866912841796875,0.9168548583984376,-0.422515869140625,0.4261845946311951,0.6864361763000488,0.2578619122505188,58.84152221679688,99.53645324707033,-33.79354858398438
188284,0.1866912841796875,0.9168548583984376,-0.422515869140625,0.4261845946311951,0.6864361763000488,0.2578619122505188,58.84152221679688,99.53645324707033,-33.79354858398438
188285,0.2408447265625,1.041183471679688,-0.31976318359375,0.379338264465332,0.687629759311676,0.2480936944484711,59.26145935058594,99.3058624267578,-33.96125793457031
188286,0.2027435302734375,1.151565551757812,-0.2662200927734375,0.2912691235542297,0.6722534894943237,0.2142800688743591,59.50283813476562,99.02476501464844,-34.03680419921875
188287,0.1470489501953125,1.256027221679688,-0.2064056396484375,0.1931201964616776,0.5826189517974854,0.1609417498111725,59.71432495117188,98.9120635986328,-34.12234497070312
188288,0.1470489501953125,1.256027221679688,-0.2064056396484375,0.1931201964616776,0.5826189517974854,0.1609417498111725,59.71432495117188,98.9120635986328,-34.12234497070312
188289,-0.00677490234375,1.384979248046875,-0.0731201171875,0.1910330653190613,0.459804356098175,0.0777344778180122,60.06513977050781,98.99578857421876,-34.3380126953125
188290,-0.0412445068359375,1.371353149414062,-0.086883544921875,0.3099986016750336,0.3982451260089874,0.0716134682297706,60.16505432128906,98.92146301269533,-34.23899841308594
188291,-0.0419921875,1.31134033203125,-0.13824462890625,0.4435563981533051,0.2550855576992035,0.0962612852454185,60.34010314941406,98.828369140625,-34.39202880859375
188292,-0.0419921875,1.31134033203125,-0.13824462890625,0.4435563981533051,0.2550855576992035,0.0962612852454185,60.34010314941406,98.828369140625,-34.39202880859375
188293,-0.032196044921875,1.1187744140625,-0.1275634765625,0.5769972801208496,-0.0850981175899505,0.2513382136821747,60.49998474121094,98.70693969726562,-34.67634582519531
188294,-0.033416748046875,1.015304565429688,-0.076080322265625,0.5255221128463745,-0.1195748671889305,0.3562049865722656,60.75753784179688,98.51837158203124,-35.03233337402344
188295,-0.0308990478515625,0.947784423828125,-0.0713043212890625,0.4243701994419098,-0.134415328502655,0.4512854218482971,60.85105895996094,98.36749267578124,-35.26541137695312
188296,-0.0308990478515625,0.947784423828125,-0.0713043212890625,0.4243701994419098,-0.134415328502655,0.4512854218482971,60.85105895996094,98.36749267578124,-35.26541137695312
188297,0.0038604736328125,0.9310455322265624,-0.0206756591796875,0.2801752090454102,-0.3687418103218079,0.4908767640590668,61.23997497558594,98.20272827148438,-35.73890686035156
188298,0.0038604736328125,0.9310455322265624,-0.0206756591796875,0.2801752090454102,-0.3687418103218079,0.4908767640590668,61.23997497558594,98.20272827148438,-35.73890686035156
188299,0.074127197265625,0.96875,0.04052734375,0.0231268908828496,-0.4447614848613739,0.3856542110443115,61.74769592285156,97.79896545410156,-35.95057678222656
188300,0.1109771728515625,0.976776123046875,0.0369415283203125,0.0231268908828496,-0.4447614848613739,0.3856542110443115,61.91497802734375,97.67575073242188,-36.14662170410156
188301,0.133575439453125,0.942535400390625,0.006622314453125,-0.0638202577829361,-0.3769305050373077,0.3782735466957092,62.1063232421875,97.38687133789062,-36.116943359375
188302,0.133575439453125,0.942535400390625,0.006622314453125,-0.0638202577829361,-0.3769305050373077,0.3782735466957092,62.1063232421875,97.38687133789062,-36.116943359375
188303,0.0882568359375,0.8047943115234375,-0.030914306640625,-0.0317922830581665,-0.1330629736185074,0.3844723105430603,62.35214233398438,97.14646911621094,-36.32315063476562
188304,0.0882568359375,0.8047943115234375,-0.030914306640625,-0.0317922830581665,-0.1330629736185074,0.3844723105430603,62.35214233398438,97.14646911621094,-36.32315063476562
188305,-0.0483245849609375,0.8426055908203125,-0.0151824951171875,-0.0140644200146198,0.1093235611915588,0.3143906891345978,62.70414733886719,96.99839782714844,-36.41923522949219
188306,-0.1166229248046875,0.9098358154296876,0.01336669921875,-0.0909237787127494,0.168261706829071,0.1994981914758682,62.84678649902344,96.88648986816406,-36.2525634765625
188307,-0.1621856689453125,0.9599761962890624,0.0288848876953125,-0.155580535531044,0.2150920629501343,0.0657233521342277,62.93391418457031,96.93862915039062,-36.1102294921875
188308,-0.1621856689453125,0.9599761962890624,0.0288848876953125,-0.155580535531044,0.2150920629501343,0.0657233521342277,62.93391418457031,96.93862915039062,-36.1102294921875
188309,-0.14703369140625,1.003311157226562,0.0719451904296875,-0.1480192840099335,0.2469575852155685,-0.1639428585767746,63.17642211914062,96.99070739746094,-35.95982360839844
188310,-0.117828369140625,1.007583618164062,0.1157684326171875,-0.159543588757515,0.3114210069179535,-0.229587659239769,63.16545104980469,97.05099487304688,-35.79222106933594
188311,-0.1040802001953125,1.0009765625,0.159210205078125,-0.2838943004608154,0.5080493688583374,-0.3003758192062378,63.10067749023438,97.16709899902344,-35.8463134765625
188312,-0.1040802001953125,1.0009765625,0.159210205078125,-0.2838943004608154,0.5080493688583374,-0.3003758192062378,63.10067749023438,97.16709899902344,-35.8463134765625
188313,-0.17144775390625,0.95477294921875,0.214263916015625,-0.3413618505001068,0.6182070374488831,-0.3203039765357971,63.06254577636719,97.29202270507812,-35.49681091308594
188314,-0.2337799072265625,0.9194793701171876,0.180084228515625,-0.371564507484436,0.6744325160980225,-0.3368113040924072,63.11309814453125,97.33439636230467,-35.3470458984375
188315,-0.295074462890625,0.8637542724609375,0.1100921630859375,-0.3556491732597351,0.4462403357028961,-0.3399109542369843,63.06825256347656,97.39492797851562,-35.13526916503906
188316,-0.295074462890625,0.8637542724609375,0.1100921630859375,-0.3556491732597351,0.4462403357028961,-0.3399109542369843,63.06825256347656,97.39492797851562,-35.13526916503906
188317,-0.3318939208984375,0.7503509521484375,0.0018463134765625,-0.3504166007041931,0.2932885885238647,-0.3439685702323914,63.07508850097656,97.6727294921875,-34.60783386230469
188318,-0.2974090576171875,0.7342681884765625,-0.042572021484375,-0.3825247287750244,0.2233113795518875,-0.3641220331192017,62.9820556640625,97.7353515625,-34.28141784667969
188319,-0.266632080078125,0.723602294921875,-0.08758544921875,-0.4108921885490417,0.2007568031549454,-0.3897432386875153,62.87527465820312,97.79377746582033,-33.9080810546875
188320,-0.266632080078125,0.723602294921875,-0.08758544921875,-0.4108921885490417,0.2007568031549454,-0.3897432386875153,62.87527465820312,97.79377746582033,-33.9080810546875
188321,-0.2009124755859375,0.7424774169921875,-0.12799072265625,-0.4052108824253082,0.2949695885181427,-0.418346643447876,62.55668640136719,98.21002197265624,-33.45608520507812
188322,-0.2009124755859375,0.7424774169921875,-0.12799072265625,-0.4052108824253082,0.2949695885181427,-0.418346643447876,62.55668640136719,98.21002197265624,-33.45608520507812
188323,-0.1514892578125,0.8017120361328125,-0.1126708984375,-0.6349697709083557,0.3412792980670929,-0.4400716423988342,62.05143737792969,98.54446411132812,-33.1685791015625
188324,-0.1440887451171875,0.83551025390625,-0.088714599609375,-0.6349697709083557,0.3412792980670929,-0.4400716423988342,61.82635498046875,98.77418518066406,-33.13690185546875
188325,-0.1313323974609375,0.8652801513671875,-0.0629730224609375,-0.741572916507721,0.2603341042995453,-0.4184747636318207,61.62274169921875,99.1385498046875,-32.89064025878906
188326,-0.1137237548828125,0.902618408203125,-0.048492431640625,-0.8222086429595947,0.1665548980236053,-0.3785845935344696,61.31440734863281,99.35800170898438,-32.60406494140625
188327,-0.0919189453125,0.9546356201171876,-0.0607757568359375,-0.8349049687385559,-0.1461867690086365,-0.267265260219574,61.206787109375,99.48809814453124,-32.20384216308594
188328,-0.0919189453125,0.9546356201171876,-0.0607757568359375,-0.8349049687385559,-0.1461867690086365,-0.267265260219574,61.206787109375,99.48809814453124,-32.20384216308594
188329,-0.0289306640625,1.060409545898438,-0.101593017578125,-0.7733369469642639,-0.3114138245582581,-0.1897664666175842,60.69621276855469,99.8565673828125,-31.34397888183594
188330,0.0223236083984375,1.10760498046875,-0.1277923583984375,-0.669242262840271,-0.4298214018344879,-0.1072636023163795,60.48355102539062,99.95457458496094,-30.84762573242188
188331,0.072998046875,1.150604248046875,-0.161376953125,-0.3930564820766449,-0.5320050120353699,0.0345065779983997,60.3001708984375,100.2354278564453,-30.59214782714844
188332,0.072998046875,1.150604248046875,-0.161376953125,-0.3930564820766449,-0.5320050120353699,0.0345065779983997,60.3001708984375,100.2354278564453,-30.59214782714844
188333,0.1399078369140625,1.199920654296875,-0.1750640869140625,-0.2417005151510239,-0.5204676985740662,0.0582177676260471,59.96849060058594,100.3302764892578,-29.99247741699219
188334,0.1479034423828125,1.178924560546875,-0.1696929931640625,0.0536645613610744,-0.5425253510475159,0.09578537940979,59.89950561523438,100.2676239013672,-29.79783630371094
188335,0.1484222412109375,1.125030517578125,-0.1935577392578125,0.0536645613610744,-0.5425253510475159,0.09578537940979,59.82057189941406,100.3079833984375,-29.73953247070312
188336,0.1484222412109375,1.125030517578125,-0.1935577392578125,0.0536645613610744,-0.5425253510475159,0.09578537940979,59.82057189941406,100.3079833984375,-29.73953247070312
188337,0.12811279296875,0.97509765625,-0.3320770263671875,0.4075509905815125,-0.5977057814598083,0.103035569190979,59.79541015625,100.3354644775391,-29.76284790039062
188338,0.1164093017578125,0.945037841796875,-0.39691162109375,0.522796094417572,-0.6034690737724304,0.1052814126014709,59.80523681640625,100.2618103027344,-29.86737060546875
188339,0.098114013671875,0.938018798828125,-0.4464569091796875,0.5981686115264893,-0.58160001039505,0.1091872081160545,59.7119140625,100.1821899414062,-30.07606506347656
188340,0.07611083984375,0.959075927734375,-0.4730377197265625,0.6616554260253906,-0.5406198501586914,0.1038441061973572,59.67127990722656,100.0569763183594,-30.43492126464844
188341,0.05987548828125,1.003463745117188,-0.465972900390625,0.6971670985221863,-0.4946171939373016,0.0956258550286293,59.70521545410156,99.98957824707033,-30.61927795410156
188342,0.050384521484375,1.053253173828125,-0.428009033203125,0.6582929491996765,-0.357632964849472,0.1203509122133255,59.73930358886719,99.83819580078124,-31.00987243652344
188343,0.0552978515625,1.11126708984375,-0.3797454833984375,0.5648040175437927,-0.3341638743877411,0.1513447761535645,59.71965026855469,99.69699096679688,-31.3209228515625
188344,0.0552978515625,1.11126708984375,-0.3797454833984375,0.5648040175437927,-0.3341638743877411,0.1513447761535645,59.71965026855469,99.69699096679688,-31.3209228515625
188345,0.0774688720703125,1.221969604492188,-0.244415283203125,0.3222787082195282,-0.2764678001403809,0.2281199842691422,59.71063232421875,99.60946655273438,-32.17950439453125
188346,0.0752105712890625,1.254074096679688,-0.1082916259765625,0.3222787082195282,-0.2764678001403809,0.2281199842691422,59.72848510742188,99.47981262207033,-32.52922058105469
188347,0.0578765869140625,1.32025146484375,0.0358734130859375,0.2120624631643295,-0.211788147687912,0.2602624893188477,59.84803771972656,99.38687133789062,-32.95146179199219
188348,0.0344085693359375,1.38720703125,0.144378662109375,0.1680033802986145,-0.1892551481723785,0.2562954425811768,59.96478271484375,99.17794799804688,-33.11219787597656
188349,-0.0056915283203125,1.46063232421875,0.2206573486328125,0.1914655715227127,-0.2253540307283401,0.2205965518951416,60.10893249511719,99.21449279785156,-33.18084716796875
188350,-0.0579071044921875,1.518753051757812,0.271942138671875,0.2865870296955109,-0.2452007085084915,0.1474368572235107,60.284423828125,99.08384704589844,-33.20944213867188
188351,-0.112945556640625,1.516647338867188,0.268218994140625,0.4401366412639618,-0.2506071925163269,0.0723351836204528,60.49755859375,99.05552673339844,-33.53390502929688
188352,-0.112945556640625,1.516647338867188,0.268218994140625,0.4401366412639618,-0.2506071925163269,0.0723351836204528,60.49755859375,99.05552673339844,-33.53390502929688
188353,-0.155303955078125,1.35760498046875,0.118316650390625,0.7822902202606201,-0.3584034144878387,-0.1151809170842171,60.60763549804688,99.01853942871094,-34.04891967773438
188354,-0.136077880859375,1.21099853515625,0.045745849609375,0.9123814105987548,-0.4689448475837708,-0.1810723096132278,60.64979553222656,98.83860778808594,-34.31674194335938
188355,-0.103912353515625,1.068344116210938,-0.00933837890625,0.9651050567626952,-0.5642359256744385,-0.2127942889928818,60.58662414550781,98.68112182617188,-34.7685546875
188356,-0.080780029296875,0.95648193359375,-0.0435791015625,0.8220185041427612,-0.6998515725135803,-0.1916085779666901,60.55374145507812,98.5688934326172,-34.94364929199219
188357,-0.0863189697265625,0.8748779296875,-0.056396484375,0.8220185041427612,-0.6998515725135803,-0.1916085779666901,60.38835144042969,98.48184204101562,-35.55882263183594
188358,-0.1195831298828125,0.825775146484375,-0.0441436767578125,0.6996944546699524,-0.7189069986343384,-0.1742149442434311,60.26124572753906,98.21278381347656,-35.93913269042969
188359,-0.1591033935546875,0.8040313720703125,-0.0246734619140625,0.4118488132953644,-0.6854113936424255,-0.1313891857862473,60.01150512695312,98.13200378417967,-36.34176635742188
188360,-0.1591033935546875,0.8040313720703125,-0.0246734619140625,0.4118488132953644,-0.6854113936424255,-0.1313891857862473,60.01150512695312,98.13200378417967,-36.34176635742188
188361,-0.2308349609375,0.8191375732421875,0.0297393798828125,0.2776854038238525,-0.5991736650466919,-0.1112953647971153,59.70680236816406,98.0238037109375,-37.17854309082031
188362,-0.2578125,0.8594818115234375,0.079254150390625,0.15948686003685,-0.4865480661392212,-0.0898111090064048,59.57044982910156,97.85678100585938,-37.31915283203125
188363,-0.271453857421875,0.883697509765625,0.142303466796875,-0.0433211103081703,-0.2557886242866516,-0.0018407768802717,59.40237426757812,97.78704833984376,-37.57083129882812
188364,-0.271453857421875,0.883697509765625,0.142303466796875,-0.0433211103081703,-0.2557886242866516,-0.0018407768802717,59.40237426757812,97.78704833984376,-37.57083129882812
188365,-0.2204132080078125,0.8469390869140625,0.2220916748046875,-0.1912820786237717,-0.1993011236190796,0.1349780559539795,59.17967224121094,97.65689086914062,-37.87968444824219
188366,-0.17535400390625,0.7862548828125,0.2270355224609375,-0.1912820786237717,-0.1993011236190796,0.1349780559539795,59.18997192382812,97.74235534667967,-37.8328857421875
188367,-0.12030029296875,0.7030487060546875,0.19293212890625,-0.210795059800148,-0.2535257339477539,0.1974392980337143,59.16871643066406,97.73928833007812,-37.78713989257812
188368,-0.12030029296875,0.7030487060546875,0.19293212890625,-0.210795059800148,-0.2535257339477539,0.1974392980337143,59.16871643066406,97.73928833007812,-37.78713989257812
188369,0.0278167724609375,0.561767578125,0.1006011962890625,-0.1808025389909744,-0.3790287971496582,0.3021795749664307,59.25239562988281,97.76263427734376,-37.56797790527344
188370,0.10443115234375,0.581756591796875,0.086883544921875,-0.1819128096103668,-0.3136945366859436,0.3301946818828583,59.29515075683594,97.79600524902344,-37.49308776855469
188371,0.148712158203125,0.6736602783203125,0.087860107421875,-0.2960902452468872,-0.111046090722084,0.3109134137630463,59.24575805664062,97.86508178710938,-37.47354125976562
188372,0.1255035400390625,0.790496826171875,0.105987548828125,-0.2960902452468872,-0.111046090722084,0.3109134137630463,59.29240417480469,97.89605712890624,-37.46336364746094
188373,0.10333251953125,0.8669281005859375,0.1563873291015625,-0.368800938129425,-0.0948319733142852,0.2393872886896133,59.39643859863281,97.79830932617188,-37.39067077636719
188374,0.0925750732421875,0.9234771728515624,0.195953369140625,-0.4213368594646454,-0.0501105710864067,0.1536082029342651,59.40660095214844,97.87239074707033,-37.25962829589844
188375,0.0736846923828125,0.981781005859375,0.198486328125,-0.4905694425106049,-0.0007323693134821,0.0520096719264984,59.53871154785156,97.9875030517578,-37.15206909179688
188376,0.039825439453125,1.03619384765625,0.2039337158203125,-0.562177836894989,0.0404901690781116,-0.0570643506944179,59.58973693847656,97.93177795410156,-36.89060974121094
188377,-0.0007781982421875,1.084564208984375,0.2363433837890625,-0.6339218020439148,0.102810800075531,-0.1664491593837738,59.61894226074219,98.0194854736328,-36.74691772460938
188378,-0.050689697265625,1.11138916015625,0.2612762451171875,-0.6983293294906616,0.183395117521286,-0.2686834037303925,59.58375549316406,98.150390625,-36.40794372558594
188379,-0.109130859375,1.119155883789062,0.255096435546875,-0.7222461104393005,0.2339373975992203,-0.3410004675388336,59.46986389160156,98.2935028076172,-36.08723449707031
188380,-0.1634674072265625,1.12713623046875,0.220794677734375,-0.7152047157287598,0.2586009204387665,-0.3642945885658264,59.37351989746094,98.4610595703125,-35.8653564453125
188381,-0.2118072509765625,1.159881591796875,0.150146484375,-0.641678512096405,0.2638276517391205,-0.3523969352245331,59.263671875,98.6134796142578,-35.38694763183594
188382,-0.247039794921875,1.208160400390625,0.0524749755859375,-0.5163856148719788,0.2542037963867188,-0.3309837877750397,59.15769958496094,98.805908203125,-35.01792907714844
188383,-0.258636474609375,1.238555908203125,-0.0157470703125,-0.3459427654743195,0.2601365149021149,-0.3022053837776184,58.98667907714844,98.95240783691406,-34.66995239257812
188384,-0.258636474609375,1.238555908203125,-0.0157470703125,-0.3459427654743195,0.2601365149021149,-0.3022053837776184,58.98667907714844,98.95240783691406,-34.66995239257812
188385,-0.2108001708984375,1.24383544921875,-0.0564117431640625,0.0346149690449237,0.3611089289188385,-0.196452870965004,58.742919921875,99.17213439941406,-34.24322509765625
188386,-0.2108001708984375,1.24383544921875,-0.0564117431640625,0.0346149690449237,0.3611089289188385,-0.196452870965004,58.742919921875,99.17213439941406,-34.24322509765625
188387,-0.143951416015625,1.212356567382812,-0.1184844970703125,0.1291558593511581,0.3598516583442688,-0.1637330055236816,58.52272033691406,99.26872253417967,-33.98263549804688
188388,-0.10205078125,1.144134521484375,-0.1677093505859375,0.1291558593511581,0.3598516583442688,-0.1637330055236816,58.40045166015625,99.43019104003906,-33.99119567871094
188389,-0.0597381591796875,1.035873413085938,-0.191436767578125,0.1625431030988693,0.3718350827693939,-0.1529136449098587,58.31524658203125,99.52276611328124,-33.91447448730469
188390,-0.0350189208984375,0.9312286376953124,-0.19427490234375,0.1820033639669418,0.4124876856803894,-0.1268956363201141,58.2587890625,99.5799560546875,-33.88636779785156
188391,-0.011932373046875,0.8535003662109375,-0.243194580078125,0.1724324822425842,0.3941643536090851,-0.095953956246376,58.29153442382812,99.49842834472656,-33.90409851074219
188392,0.011932373046875,0.8126220703125,-0.320159912109375,0.1571773737668991,0.34384685754776,-0.0501989871263504,58.205322265625,99.43153381347656,-33.93144226074219
188393,0.0373077392578125,0.8130035400390625,-0.4051971435546875,0.1798983961343765,0.2932260036468506,-0.0063593625091016,58.2550048828125,99.45050048828124,-33.91094970703125
188394,0.0595245361328125,0.8490447998046875,-0.4610137939453125,0.308129608631134,0.3016754388809204,0.0816770195960998,58.21662902832031,99.32034301757812,-33.88499450683594
188395,0.081878662109375,0.897796630859375,-0.488128662109375,0.3793401420116425,0.3578358888626099,0.1193636804819107,58.4276123046875,99.19808959960938,-33.83541870117188
188396,0.1016387939453125,0.9607391357421876,-0.4924774169921875,0.3793401420116425,0.3578358888626099,0.1193636804819107,58.44630432128906,99.19419860839844,-34.01094055175781
188397,0.101959228515625,1.025787353515625,-0.4961700439453125,0.4244229197502136,0.4035453200340271,0.1322848051786423,58.45404052734375,99.16258239746094,-34.17282104492188
188398,0.08502197265625,1.088699340820312,-0.4918212890625,0.4457130134105682,0.4500691592693329,0.1254894882440567,58.50212097167969,99.019775390625,-34.11822509765625
188399,0.0680999755859375,1.128829956054688,-0.48858642578125,0.4567446410655975,0.4506361484527588,0.1070050150156021,58.64820861816406,98.88897705078124,-34.329345703125
188400,0.0680999755859375,1.128829956054688,-0.48858642578125,0.4567446410655975,0.4506361484527588,0.1070050150156021,58.64820861816406,98.88897705078124,-34.329345703125
188401,0.0335235595703125,1.129562377929688,-0.442413330078125,0.4751686453819275,0.386182576417923,0.073581539094448,58.89268493652344,98.88839721679688,-34.79301452636719
188402,0.0335235595703125,1.129562377929688,-0.442413330078125,0.4751686453819275,0.386182576417923,0.073581539094448,58.89268493652344,98.88839721679688,-34.79301452636719
188403,0.0102081298828125,1.121490478515625,-0.3775787353515625,0.4349251091480255,0.2727769315242767,0.0502929985523223,58.90476989746094,98.89744567871094,-35.00721740722656
188404,-0.022735595703125,1.067916870117188,-0.2318115234375,0.3683479428291321,0.1683924794197083,0.0607323236763477,59.17294311523438,98.6218719482422,-35.34898376464844
188405,-0.0324859619140625,1.035186767578125,-0.1852874755859375,0.3024152517318726,8.788431296125054e-05,0.0981673151254653,59.277587890625,98.45930480957033,-35.47624206542969
188406,-0.031097412109375,1.013519287109375,-0.1215057373046875,0.233582928776741,-0.1813660562038422,0.150370329618454,59.31636047363281,98.45866394042967,-35.69842529296875
188407,-0.02264404296875,0.989715576171875,-0.0342254638671875,0.157504141330719,-0.3100848793983459,0.2089175283908844,59.40560913085938,98.37599182128906,-35.90155029296875
188408,-0.0009002685546875,0.9730224609375,0.0521240234375,0.1004973128437996,-0.3706707358360291,0.2810263335704803,59.5687255859375,98.24356079101562,-36.00003051757812
188409,0.023651123046875,0.968536376953125,0.116241455078125,0.0992805138230323,-0.3697602152824402,0.3386009633541107,59.67750549316406,98.03547668457033,-36.13066101074219
188410,0.0381622314453125,0.973724365234375,0.130523681640625,0.153691828250885,-0.3603861331939697,0.405006617307663,59.7789306640625,98.01010131835938,-36.18782043457031
188411,0.036376953125,0.9776611328125,0.12042236328125,0.2490444481372833,-0.3213364779949188,0.4421648979187012,60.04928588867188,97.76702880859376,-36.32769775390625
188412,0.036376953125,0.9776611328125,0.12042236328125,0.2490444481372833,-0.3213364779949188,0.4421648979187012,60.04928588867188,97.76702880859376,-36.32769775390625
188413,-0.021392822265625,0.9318695068359376,0.1142425537109375,0.3628301322460175,-0.1342622041702271,0.433217465877533,60.32028198242188,97.42073059082033,-36.55845642089844
188414,-0.05926513671875,0.8823394775390625,0.11187744140625,0.3231298625469208,-0.0062909191474318,0.3950663506984711,60.58866882324219,97.32875061035156,-36.78791809082031
188415,-0.078948974609375,0.8245391845703125,0.0912017822265625,0.2228788882493973,0.0886398553848266,0.352369487285614,60.76161193847656,97.25120544433594,-37.06939697265625
188416,-0.0721435546875,0.7798004150390625,0.0691070556640625,0.1312786638736725,0.1537868976593018,0.3223514258861542,60.94363403320312,97.15396118164062,-37.22853088378906
188417,-0.0439605712890625,0.7589111328125,0.0540008544921875,-0.0050272489897906,0.2304478585720062,0.25400111079216,61.19902038574219,96.94776916503906,-37.18913269042969
188418,-0.0439605712890625,0.7589111328125,0.0540008544921875,-0.0050272489897906,0.2304478585720062,0.25400111079216,61.19902038574219,96.94776916503906,-37.18913269042969
188419,0.0240631103515625,0.7813262939453125,0.025177001953125,-0.0672988817095756,0.2541497349739075,0.1964100003242493,61.5279541015625,96.9174346923828,-37.10867309570312
188420,0.002044677734375,0.8601531982421875,0.0231781005859375,-0.1208159029483795,0.3158003091812134,0.0944466069340705,61.65859985351562,96.846923828125,-36.91822814941406
188421,-0.0722503662109375,0.9696502685546876,0.0211944580078125,-0.1759662330150604,0.387186586856842,-0.0061191450804471,61.83515930175781,96.81657409667967,-36.47041320800781
188422,-0.0722503662109375,0.9696502685546876,0.0211944580078125,-0.1759662330150604,0.387186586856842,-0.0061191450804471,61.83515930175781,96.81657409667967,-36.47041320800781
188423,-0.141632080078125,1.062088012695312,0.041595458984375,-0.2354037314653397,0.4443915784358978,-0.1178810968995094,61.88560485839844,96.91111755371094,-36.53811645507812
188424,-0.2234954833984375,1.087493896484375,0.13800048828125,-0.3025268316268921,0.5864996910095215,-0.3423147201538086,61.89811706542969,97.12947082519533,-36.73231506347656
188425,-0.2423248291015625,1.0616455078125,0.157867431640625,-0.2965840101242065,0.6421771049499512,-0.4267942011356354,61.91511535644531,97.24407958984376,-36.44976806640625
188426,-0.2423248291015625,1.0616455078125,0.157867431640625,-0.2965840101242065,0.6421771049499512,-0.4267942011356354,61.91511535644531,97.24407958984376,-36.44976806640625
188427,-0.2730865478515625,0.951812744140625,0.11822509765625,-0.2592480778694153,0.5331792235374451,-0.510923445224762,61.876953125,97.43942260742188,-35.98533630371094
188428,-0.2827606201171875,0.8874664306640625,0.0854949951171875,-0.2338492423295975,0.4133598804473877,-0.5140073895454407,61.74073791503906,97.56306457519533,-35.82669067382812
188429,-0.2798919677734375,0.8318939208984375,0.043792724609375,-0.2040564566850662,0.3011177778244019,-0.508604109287262,61.56744384765625,97.69654846191406,-35.77781677246094
188430,-0.2772064208984375,0.7957305908203125,0.003936767578125,-0.1826041638851166,0.2509959936141968,-0.4978246986865997,61.38583374023438,97.84577941894533,-35.52775573730469
188431,-0.2775115966796875,0.780242919921875,-0.04473876953125,-0.1770293712615967,0.249125137925148,-0.4774328768253326,61.18559265136719,98.09385681152344,-35.49455261230469
188432,-0.2808074951171875,0.7793731689453125,-0.0908203125,-0.1854795813560486,0.2349099814891815,-0.4668779671192169,61.00775146484375,98.23521423339844,-35.47221374511719
188433,-0.2743377685546875,0.7765350341796875,-0.1001434326171875,-0.2202814966440201,0.2620547711849213,-0.4530212879180908,60.80488586425781,98.41969299316406,-35.31768798828125
188434,-0.2519378662109375,0.789764404296875,-0.12139892578125,-0.2845539748668671,0.2360937595367432,-0.4460419416427612,60.53231811523438,98.51492309570312,-35.1209716796875
188435,-0.2245941162109375,0.816925048828125,-0.118072509765625,-0.3822813332080841,0.1567312926054001,-0.4431750476360321,60.2452392578125,98.708251953125,-34.95333862304688
188436,-0.1959686279296875,0.8628082275390625,-0.1060791015625,-0.522659182548523,0.069687470793724,-0.4276429414749146,60.07881164550781,98.93319702148438,-34.84922790527344
188437,-0.1606903076171875,0.928375244140625,-0.1103973388671875,-0.6619260311126709,-0.011904596351087,-0.4156320989131927,59.87077331542969,99.00201416015624,-34.43116760253906
188438,-0.1606903076171875,0.928375244140625,-0.1103973388671875,-0.6619260311126709,-0.011904596351087,-0.4156320989131927,59.87077331542969,99.00201416015624,-34.43116760253906
188439,-0.081390380859375,1.058364868164062,-0.1165924072265625,-0.8127523064613342,-0.099560409784317,-0.3927941620349884,59.35368347167969,99.32669067382812,-34.05580139160156
188440,-0.081390380859375,1.058364868164062,-0.1165924072265625,-0.8127523064613342,-0.099560409784317,-0.3927941620349884,59.35368347167969,99.32669067382812,-34.05580139160156
188441,-0.008636474609375,1.17242431640625,-0.1186370849609375,-0.8288286924362183,-0.0868597999215126,-0.3701170682907104,58.8837890625,99.76361083984376,-33.27529907226562
188442,0.0246124267578125,1.211929321289062,-0.1330108642578125,-0.7832817435264587,-0.1638619005680084,-0.3430300652980804,58.65840148925781,99.78004455566406,-32.82102966308594
188443,0.044525146484375,1.249191284179688,-0.1308441162109375,-0.6917688846588135,-0.274954080581665,-0.2973464727401733,58.42221069335938,100.0590057373047,-32.50730895996094
188444,0.0451202392578125,1.259674072265625,-0.1234283447265625,-0.5848624110221863,-0.3695913553237915,-0.2346495240926743,58.18511962890625,100.1969909667969,-32.10420227050781
188445,0.014556884765625,1.244918823242188,-0.1375274658203125,-0.4522193968296051,-0.448528528213501,-0.1658590137958527,58.00062561035156,100.3600921630859,-31.80155944824219
188446,-0.04095458984375,1.199386596679688,-0.16851806640625,-0.27029088139534,-0.5251612663269043,-0.1053799539804459,57.88186645507812,100.3482666015625,-31.41282653808594
188447,-0.0985260009765625,1.105499267578125,-0.222900390625,0.2148300111293793,-0.5419191718101501,-0.0487869791686534,57.77806091308594,100.4293823242188,-31.22720336914062
188448,-0.1180419921875,0.9845123291015624,-0.3011016845703125,0.2148300111293793,-0.5419191718101501,-0.0487869791686534,57.75520324707031,100.53759765625,-31.25035095214844
188449,-0.1135711669921875,0.88421630859375,-0.357635498046875,0.3893991410732269,-0.5541961193084717,-0.0378051698207855,57.59822082519531,100.5246276855469,-31.21194458007812
188450,-0.1107025146484375,0.8365478515625,-0.394195556640625,0.4842910468578339,-0.5634665489196777,-0.0324186608195304,57.51895141601562,100.6115112304688,-31.39170837402344
188451,-0.09539794921875,0.8233795166015625,-0.4298858642578125,0.5414169430732727,-0.5324702858924866,-0.031317975372076,57.45614624023438,100.4360198974609,-31.52595520019531
188452,-0.0629425048828125,0.8256988525390625,-0.4490814208984375,0.5765333771705627,-0.4567699432373047,-0.0316159836947917,57.36016845703125,100.4606781005859,-31.86526489257812
188453,-0.0224456787109375,0.8577728271484375,-0.425506591796875,0.5712800025939941,-0.366971880197525,-0.0121421506628394,57.26043701171875,100.4595489501953,-32.07675170898438
188454,0.015869140625,0.910308837890625,-0.3641510009765625,0.5172444581985474,-0.2832607328891754,0.0239913519471883,57.15086364746094,100.3340759277344,-32.47746276855469
188455,0.0506439208984375,0.96136474609375,-0.2975921630859375,0.4576160311698914,-0.1741592884063721,0.0806250721216201,57.10282897949219,100.2115478515625,-32.71221923828125
188456,0.07818603515625,1.027786254882812,-0.2362213134765625,0.3933712542057037,-0.0440529435873031,0.1581840515136719,57.09062194824219,100.2149200439453,-33.05043029785156
188457,0.078582763671875,1.124771118164062,-0.151519775390625,0.2940265536308289,0.0903221741318702,0.2250413745641708,57.07437133789062,100.0610198974609,-33.30303955078125
188458,0.0297088623046875,1.247894287109375,-0.0200958251953125,0.1251824200153351,0.2231571823358536,0.2488297969102859,57.2530517578125,99.8931121826172,-33.47564697265625
188459,-0.0689849853515625,1.384262084960938,0.1403656005859375,-0.0807076320052146,0.3534624576568604,0.2293897867202759,57.35171508789062,99.77499389648438,-33.63619995117188
188460,-0.155303955078125,1.5140380859375,0.2913665771484375,-0.2541752755641937,0.4781822860240936,0.1694918274879456,57.56813049316406,99.84123229980467,-33.76351928710938
188461,-0.228057861328125,1.633407592773438,0.3866424560546875,-0.3125299513339996,0.5724211931228638,0.0732302740216255,57.81210327148438,99.83229064941406,-33.59019470214844
188462,-0.3013763427734375,1.695648193359375,0.3921966552734375,-0.2279197126626968,0.5605645179748535,-0.0445168688893318,58.03228759765625,99.80113220214844,-33.42520141601562
188463,-0.34716796875,1.651702880859375,0.3744049072265625,-0.0095666069537401,0.4569225311279297,-0.1136559918522835,58.21409606933594,99.8878173828125,-33.37760925292969
188464,-0.3160400390625,1.510238647460938,0.32415771484375,0.2454750090837479,0.4233454167842865,-0.1269446313381195,58.40211486816406,99.8350830078125,-33.36143493652344
188465,-0.2305145263671875,1.339569091796875,0.1887664794921875,0.4507959485054016,0.383264571428299,-0.1196933761239052,58.540771484375,99.8181610107422,-33.34657287597656
188466,-0.2305145263671875,1.339569091796875,0.1887664794921875,0.4507959485054016,0.383264571428299,-0.1196933761239052,58.540771484375,99.8181610107422,-33.34657287597656
188467,-0.169189453125,1.189239501953125,0.06060791015625,0.5717630982398987,0.3199159502983093,-0.0815784856677055,58.56816101074219,99.70095825195312,-33.24961853027344
188468,-0.1474456787109375,0.9892730712890624,-0.117401123046875,0.6875720024108887,0.1582322418689728,-0.0109160309657454,58.68951416015625,99.81431579589844,-33.57406616210938
188469,-0.1460723876953125,0.9173583984375,-0.156402587890625,0.7125977277755737,0.0043265712447464,-0.0144580351188778,58.81291198730469,99.5930633544922,-33.84431457519531
188470,-0.1460723876953125,0.9173583984375,-0.156402587890625,0.7125977277755737,0.0043265712447464,-0.0144580351188778,58.81291198730469,99.5930633544922,-33.84431457519531
188471,-0.144805908203125,0.800628662109375,-0.1422882080078125,0.6641377806663513,-0.2954332530498505,-0.0409519597887992,58.8905029296875,99.19277954101562,-34.48016357421875
188472,-0.1697845458984375,0.780853271484375,-0.1339111328125,0.5905826091766357,-0.3803529441356659,-0.0605376474559307,58.93203735351562,99.09121704101562,-34.69888305664062
188473,-0.2108154296875,0.7765045166015625,-0.1446380615234375,0.4964539706707001,-0.410875141620636,-0.0861101150512695,58.91300964355469,98.81333923339844,-34.89495849609375
188474,-0.2108154296875,0.7765045166015625,-0.1446380615234375,0.4964539706707001,-0.410875141620636,-0.0861101150512695,58.91300964355469,98.81333923339844,-34.89495849609375
188475,-0.223480224609375,0.763671875,-0.182342529296875,0.2544125616550446,-0.224634975194931,-0.0494200140237808,58.72837829589844,98.6891632080078,-35.56781005859375
188476,-0.213592529296875,0.718292236328125,-0.150604248046875,0.2544125616550446,-0.224634975194931,-0.0494200140237808,58.71113586425781,98.49713134765624,-35.63539123535156
188477,-0.1859893798828125,0.67144775390625,-0.062835693359375,0.1836212277412415,-0.0690472424030304,0.0394941456615924,58.65486145019531,98.36819458007812,-35.70059204101562
188478,-0.1358642578125,0.6389007568359375,0.0062408447265625,0.1256814897060394,0.0974980592727661,0.1468871831893921,58.70220947265625,98.380126953125,-36.00271606445312
188479,-0.0754547119140625,0.606719970703125,0.06109619140625,0.0877311825752258,0.2172026187181473,0.2525052130222321,58.64469909667969,98.26629638671876,-36.07283020019531
188480,-0.0754547119140625,0.606719970703125,0.06109619140625,0.0877311825752258,0.2172026187181473,0.2525052130222321,58.64469909667969,98.26629638671876,-36.07283020019531
188481,0.0545196533203125,0.565704345703125,0.0714874267578125,0.0474018715322017,0.3110737204551697,0.4454629719257355,58.92225646972656,98.13479614257812,-36.13909912109375
188482,0.1131439208984375,0.5567474365234375,0.0694732666015625,0.0245631337165832,0.2767349183559418,0.5054290890693665,59.14715576171875,98.08084106445312,-36.11445617675781
188483,0.1653900146484375,0.5550079345703125,0.0881195068359375,-0.0271770264953374,0.2651991844177246,0.5479656457901001,59.32342529296875,98.0281982421875,-36.1844482421875
188484,0.1653900146484375,0.5550079345703125,0.0881195068359375,-0.0271770264953374,0.2651991844177246,0.5479656457901001,59.32342529296875,98.0281982421875,-36.1844482421875
188485,0.2079010009765625,0.6773681640625,0.1563873291015625,-0.2342178225517273,0.3355095684528351,0.5449607968330383,59.82939147949219,97.88948059082033,-36.07110595703125
188486,0.1905975341796875,0.8453216552734375,0.192626953125,-0.3644125759601593,0.3848763108253479,0.4413345158100128,60.04075622558594,97.87971496582033,-35.98220825195312
188487,0.120635986328125,0.9983062744140624,0.207489013671875,-0.5124441385269165,0.225287452340126,0.2335264682769775,60.32249450683594,97.9678955078125,-35.90699768066406
188488,0.120635986328125,0.9983062744140624,0.207489013671875,-0.5124441385269165,0.225287452340126,0.2335264682769775,60.32249450683594,97.9678955078125,-35.90699768066406
188489,-0.02301025390625,1.163986206054688,0.2462310791015625,-0.5571498274803162,0.1012491211295128,0.1169069111347198,60.69773864746094,98.17416381835938,-35.61006164550781
188490,-0.0609130859375,1.241348266601562,0.3386993408203125,-0.6538281440734863,0.123124860227108,-0.030680414289236,60.82447814941406,98.26936340332033,-35.31808471679688
188491,-0.105621337890625,1.305770874023438,0.396697998046875,-0.8478652834892273,0.3498669266700745,-0.3300034701824188,60.77946472167969,98.40994262695312,-35.02825927734375
188492,-0.105621337890625,1.305770874023438,0.396697998046875,-0.8478652834892273,0.3498669266700745,-0.3300034701824188,60.77946472167969,98.40994262695312,-35.02825927734375
188493,-0.2311553955078125,1.285064697265625,0.2929229736328125,-0.8437325954437256,0.3210983872413635,-0.4173429012298584,60.70530700683594,98.77633666992188,-34.22596740722656
188494,-0.26702880859375,1.223007202148438,0.19732666015625,-0.7345997095108032,0.2339139580726624,-0.4514279067516327,60.51863098144531,99.0638427734375,-33.88204956054688
188495,-0.27105712890625,1.155166625976562,0.0983734130859375,-0.3883583843708038,0.1757926046848297,-0.3371391594409943,60.41404724121094,99.3076171875,-33.43806457519531
188496,-0.27105712890625,1.155166625976562,0.0983734130859375,-0.3883583843708038,0.1757926046848297,-0.3371391594409943,60.41404724121094,99.3076171875,-33.43806457519531
188497,-0.2046661376953125,1.075836181640625,-0.0784759521484375,-0.2548274993896484,0.2462092339992523,-0.250451385974884,59.97093200683594,99.624267578125,-32.6846923828125
188498,-0.2046661376953125,1.075836181640625,-0.0784759521484375,-0.2548274993896484,0.2462092339992523,-0.250451385974884,59.97093200683594,99.624267578125,-32.6846923828125
188499,-0.1791534423828125,1.07684326171875,-0.1331024169921875,-0.1869738847017288,0.2790398895740509,-0.2041861563920975,59.81703186035156,99.7689971923828,-32.47039794921875
188500,-0.1759033203125,1.074752807617188,-0.158294677734375,-0.1755854040384293,0.2677321135997772,-0.1886564642190933,59.71946716308594,99.9053955078125,-32.36729431152344
188501,-0.168304443359375,1.0048828125,-0.21331787109375,-0.2046167850494385,0.2067028433084488,-0.2121343612670898,59.473876953125,99.9412841796875,-31.73246765136719
188502,-0.168304443359375,1.0048828125,-0.21331787109375,-0.2046167850494385,0.2067028433084488,-0.2121343612670898,59.473876953125,99.9412841796875,-31.73246765136719
188503,-0.1261444091796875,0.9247894287109376,-0.2636871337890625,-0.1733305007219315,0.1728998720645905,-0.2023504376411438,59.42520141601562,99.966796875,-31.69845581054688
188504,-0.0203094482421875,0.8210601806640625,-0.349395751953125,-0.0658354684710502,0.1988566368818283,-0.1272026896476746,59.34474182128906,100.0521697998047,-31.50381469726562
188505,0.02178955078125,0.8142242431640625,-0.360107421875,-0.0347494594752788,0.2324649393558502,-0.0881485044956207,59.20378112792969,100.0567626953125,-31.38363647460938
188506,0.0597686767578125,0.8257598876953125,-0.357513427734375,-0.0186091046780347,0.2887902557849884,-0.0371404439210891,59.13294982910156,99.96563720703124,-31.27650451660156
188507,0.0920257568359375,0.8721160888671875,-0.3469696044921875,0.0358259081840515,0.4456286132335663,0.0597589388489723,59.06521606445312,99.96302795410156,-31.31062316894531
188508,0.11956787109375,0.94189453125,-0.335052490234375,0.0358259081840515,0.4456286132335663,0.0597589388489723,59.12303161621094,100.044677734375,-31.29864501953125
188509,0.138031005859375,1.030853271484375,-0.3199005126953125,0.0514072626829147,0.5219273567199707,0.0895634368062019,59.10734558105469,100.0568542480469,-31.18763732910156
188510,0.138031005859375,1.030853271484375,-0.3199005126953125,0.0514072626829147,0.5219273567199707,0.0895634368062019,59.10734558105469,100.0568542480469,-31.18763732910156
188511,0.155975341796875,1.204971313476562,-0.311737060546875,0.0665955394506454,0.5601040720939636,0.1436610221862793,59.38571166992188,99.89656066894533,-31.14439392089844
188512,0.154449462890625,1.286468505859375,-0.26776123046875,0.0665955394506454,0.5601040720939636,0.1436610221862793,59.5155029296875,99.80575561523438,-31.11660766601562
188513,0.119842529296875,1.342636108398438,-0.2081146240234375,0.102803610265255,0.5912992358207703,0.1545014232397079,59.63821411132812,99.868896484375,-31.12013244628906
188514,0.062591552734375,1.352615356445312,-0.1502838134765625,0.1589859277009964,0.601553738117218,0.1492206454277039,59.78678894042969,100.0166778564453,-31.26185607910156
188515,0.011749267578125,1.316619873046875,-0.104949951171875,0.2460028529167175,0.58241868019104,0.1420993506908417,59.90562438964844,99.98973083496094,-31.30628967285156
