time_idx,accelerometerAccelerationX(G),accelerometerAccelerationY(G),accelerometerAccelerationZ(G),gyroRotationX(rad/s),gyroRotationY(rad/s),gyroRotationZ(rad/s),magnetometerX(µT),magnetometerY(µT),magnetometerZ(µT)
289358,0.0648651123046875,0.5019378662109375,-0.058837890625,0.8050584197044373,0.2230804860591888,-0.4299795925617218,65.31993103027344,99.04695129394533,-6.28631591796875
289359,0.0648651123046875,0.5019378662109375,-0.058837890625,0.8050584197044373,0.2230804860591888,-0.4299795925617218,65.31993103027344,99.04695129394533,-6.28631591796875
289360,0.01861572265625,0.3842926025390625,-0.1534423828125,0.7432302236557007,-0.5275897979736328,-0.3364991843700409,65.00486755371094,99.20724487304688,-6.842819213867188
289361,-0.011199951171875,0.2862396240234375,-0.1647186279296875,0.6974973082542419,-0.7226378321647644,-0.2211994975805283,64.802734375,99.39225769042967,-7.29315185546875
289362,-0.017822265625,0.1661529541015625,-0.1667633056640625,0.7219722867012024,-0.6728708148002625,-0.0594880953431129,64.76797485351562,99.47111511230467,-7.802627563476562
289363,-0.017822265625,0.1661529541015625,-0.1667633056640625,0.7219722867012024,-0.6728708148002625,-0.0594880953431129,64.76797485351562,99.47111511230467,-7.802627563476562
289364,0.0294952392578125,0.0448455810546875,-0.1624908447265625,0.8513692021369934,-0.2427548617124557,0.2339176833629608,64.73414611816406,99.58213806152344,-8.74566650390625
289365,0.0294952392578125,0.0448455810546875,-0.1624908447265625,0.8513692021369934,-0.2427548617124557,0.2339176833629608,64.73414611816406,99.58213806152344,-8.74566650390625
289366,0.054779052734375,0.14605712890625,-0.1640472412109375,0.7721790075302124,-0.6171984672546387,0.0541077107191085,64.91043090820312,99.63557434082033,-9.842239379882812
289367,0.0596771240234375,0.2396697998046875,-0.188446044921875,0.7721790075302124,-0.6171984672546387,0.0541077107191085,64.97012329101562,99.73597717285156,-10.26597595214844
289368,0.08062744140625,0.3805084228515625,-0.2120819091796875,0.6790093779563904,-1.033414125442505,-0.1279486417770386,64.87269592285156,99.75569152832033,-10.57771301269531
289369,0.076873779296875,0.596435546875,-0.1973876953125,0.5775048732757568,-1.423188209533691,-0.342019647359848,64.86604309082031,99.99851989746094,-11.08685302734375
289370,0.0424957275390625,0.878936767578125,-0.1425323486328125,0.4713968336582184,-1.639174342155457,-0.6060361266136169,64.64739990234375,100.1591644287109,-11.4688720703125
289371,0.0424957275390625,0.878936767578125,-0.1425323486328125,0.4713968336582184,-1.639174342155457,-0.6060361266136169,64.64739990234375,100.1591644287109,-11.4688720703125
289372,-0.0389251708984375,1.626480102539062,0.26934814453125,0.055590558797121,-0.9429483413696288,-1.397165179252625,63.9044189453125,100.7800750732422,-12.36140441894531
289373,-0.000823974609375,2.084518432617188,0.4711761474609375,-0.4233230352401733,-0.3014232218265533,-1.83086895942688,63.24046325683594,101.2152252197266,-12.68736267089844
289374,0.0089263916015625,2.6490478515625,0.5307464599609375,-1.33270275592804,-0.6518214344978333,-2.126480340957642,62.32992553710938,101.61962890625,-12.92530822753906
289375,0.0089263916015625,2.6490478515625,0.5307464599609375,-1.33270275592804,-0.6518214344978333,-2.126480340957642,62.32992553710938,101.61962890625,-12.92530822753906
289376,-0.3878173828125,3.433853149414062,1.092422485351562,-2.782718420028687,-2.219109773635864,-1.797475814819336,60.20674133300781,101.83056640625,-12.27474975585938
289377,-0.87164306640625,3.259750366210938,1.630355834960938,-1.92956268787384,-1.901704430580139,-1.100025296211243,59.16984558105469,101.8827514648438,-11.635986328125
289378,-0.901214599609375,2.601181030273438,1.755508422851562,-0.5757554769515991,-0.6313816905021667,-0.638087272644043,58.36097717285156,102.0820159912109,-10.75233459472656
289379,-0.901214599609375,2.601181030273438,1.755508422851562,-0.5757554769515991,-0.6313816905021667,-0.638087272644043,58.36097717285156,102.0820159912109,-10.75233459472656
289380,-0.683624267578125,2.123748779296875,0.9638519287109376,0.6009742617607117,0.5818045735359192,-0.3153566122055054,57.70425415039062,102.0541076660156,-9.2921142578125
289381,-0.683624267578125,2.123748779296875,0.9638519287109376,0.6009742617607117,0.5818045735359192,-0.3153566122055054,57.70425415039062,102.0541076660156,-9.2921142578125
289382,-0.6325836181640625,2.333770751953125,0.2626953125,0.9433342814445496,0.450920045375824,-0.2118792235851288,57.5499267578125,102.0300750732422,-9.007843017578123
289383,-0.4735870361328125,2.433074951171875,-0.18408203125,1.278061151504517,-0.0019409117521718,-0.0020274645648896,57.388427734375,102.0562133789062,-9.110748291015623
289384,-0.1094818115234375,2.019134521484375,-0.410675048828125,1.170820951461792,0.6373117566108704,0.5330620408058167,57.26988220214844,101.9985504150391,-9.943832397460938
289385,0.0554962158203125,1.708206176757812,-0.5308990478515625,0.9542657136917114,0.5213087201118469,0.716683030128479,57.45449829101562,102.0089721679688,-10.83657836914062
289386,0.14154052734375,1.36163330078125,-0.4577484130859375,0.6617827415466309,0.2046506106853485,0.7456493973731995,57.8551025390625,101.9207611083984,-11.40423583984375
289387,0.14154052734375,1.36163330078125,-0.4577484130859375,0.6617827415466309,0.2046506106853485,0.7456493973731995,57.8551025390625,101.9207611083984,-11.40423583984375
289388,0.1547698974609375,0.9227752685546876,-0.350677490234375,0.5130718350410461,0.1965631246566772,0.6673447489738464,58.79537963867188,101.5692138671875,-12.24150085449219
289389,0.104095458984375,0.8005218505859375,-0.29742431640625,0.2673531472682953,0.1448501348495483,0.5442180037498474,59.39753723144531,101.4209594726562,-12.59968566894531
289390,0.028076171875,0.7116241455078125,-0.231109619140625,-0.1435963064432144,-0.0295861214399337,0.2949983477592468,60.02189636230469,101.2407989501953,-12.82743835449219
289391,-0.0899200439453125,0.615020751953125,-0.17120361328125,-0.1435963064432144,-0.0295861214399337,0.2949983477592468,60.49052429199219,101.1810455322266,-13.00889587402344
289392,-0.2086029052734375,0.5599365234375,-0.120574951171875,-0.1382542848587036,-0.1690337657928467,0.2814998626708984,60.94915771484375,100.9461364746094,-13.03199768066406
289393,-0.2406158447265625,0.535980224609375,-0.0661468505859375,-0.0412054918706417,-0.3210435211658478,0.2686501145362854,61.35020446777344,100.8284912109375,-12.91358947753906
289394,-0.1981353759765625,0.473785400390625,-0.024871826171875,0.0716619342565536,-0.4550026655197144,0.2421119660139084,61.70491027832031,100.7949523925781,-12.98394775390625
289395,-0.1494293212890625,0.3558349609375,0.0118865966796875,0.1701799929141998,-0.5428715348243713,0.2005735784769058,62.02346801757812,100.7131500244141,-13.15205383300781
289396,-0.1134033203125,0.2319183349609375,0.0504608154296875,0.2244426906108856,-0.5012684464454651,0.159146249294281,62.30996704101562,100.5672607421875,-13.13307189941406
289397,-0.094696044921875,0.1345977783203125,0.06640625,0.2207209318876266,-0.3198848068714142,0.1120386570692062,62.53279113769531,100.4208068847656,-13.26686096191406
289398,-0.07220458984375,0.0290679931640625,0.012542724609375,0.192732959985733,-0.1433803290128708,0.0743565186858177,62.81927490234375,100.4353942871094,-13.56979370117188
289399,-0.07220458984375,0.0290679931640625,0.012542724609375,0.192732959985733,-0.1433803290128708,0.0743565186858177,62.81927490234375,100.4353942871094,-13.56979370117188
289400,0.015899658203125,-0.213714599609375,-0.4068450927734375,0.3637553155422211,-0.5704941153526306,0.1970504820346832,63.12306213378906,100.2156524658203,-13.95257568359375
289401,0.0171051025390625,-0.250213623046875,-0.4001617431640625,0.5961986780166626,-0.9774250984191896,0.359058290719986,63.2274169921875,99.8603973388672,-13.95257568359375
289402,-0.0063018798828125,-0.2203216552734375,-0.1876678466796875,0.7514910697937012,-0.6992108225822449,0.4489170908927917,63.373779296875,99.86766052246094,-14.23600769042969
289403,-0.014739990234375,-0.1462860107421875,-0.1288299560546875,0.8415967226028442,-0.0605746619403362,0.4359442889690399,63.47671508789062,99.89285278320312,-14.46080017089844
289404,-0.0183258056640625,-0.031890869140625,-0.2252197265625,0.928969144821167,0.2838615477085114,0.3274886608123779,63.66609191894531,99.86134338378906,-15.00076293945312
289405,-0.008575439453125,0.0660400390625,-0.2761688232421875,1.005176305770874,0.2632500231266022,0.273583859205246,63.79902648925781,99.77243041992188,-15.39202880859375
289406,0.009033203125,0.1196441650390625,-0.2240447998046875,1.0299232006073,0.1826161444187164,0.3238899111747742,63.97126770019531,99.69802856445312,-15.81523132324219
289407,0.009033203125,0.1196441650390625,-0.2240447998046875,1.0299232006073,0.1826161444187164,0.3238899111747742,63.97126770019531,99.69802856445312,-15.81523132324219
289408,0.00146484375,0.2209930419921875,-0.049041748046875,0.9347032308578492,0.4747979342937469,0.3897786438465118,64.13589477539062,99.55596923828124,-16.59709167480469
289409,0.0017242431640625,0.3873748779296875,0.1189422607421875,0.8722196221351624,0.9266804456710817,0.4854370057582855,64.27029418945312,99.6164093017578,-17.0924072265625
289410,-0.0064697265625,0.7380218505859375,0.325592041015625,0.7576743960380554,1.685585498809814,0.6478120684623718,64.41751098632812,99.68646240234376,-17.70587158203125
289411,-0.0064697265625,0.7380218505859375,0.325592041015625,0.7576743960380554,1.685585498809814,0.6478120684623718,64.41751098632812,99.68646240234376,-17.70587158203125
289412,-0.10894775390625,1.075698852539062,0.4254150390625,0.1734809726476669,3.223811388015747,0.6283265352249146,64.96820068359375,99.54449462890624,-18.53759765625
289413,-0.180816650390625,1.234695434570312,0.404937744140625,-0.1536204516887665,3.276108026504517,0.3856419622898102,65.54705810546875,99.30734252929688,-18.46504211425781
289414,-0.31787109375,1.407791137695312,0.45220947265625,-0.1367759555578232,2.57215690612793,0.1721613854169846,66.12406921386719,98.95933532714844,-18.05502319335938
289415,-0.4783935546875,1.575546264648438,0.638031005859375,0.1250545829534531,1.612854242324829,0.0645044222474098,66.58015441894531,98.84611511230467,-17.49626159667969
289416,-0.5862579345703125,1.776153564453125,0.9285888671875,0.4046185910701752,0.8451003432273865,0.1028574034571648,66.95889282226562,98.57908630371094,-16.9044189453125
289417,-0.649261474609375,2.019882202148438,1.241897583007812,0.6070526242256165,0.5612116456031799,0.2146726250648499,67.06440734863281,98.60379028320312,-16.5169677734375
289418,-0.6797943115234375,2.240951538085938,1.461380004882812,0.6851759552955627,0.6816171407699585,0.3047316670417786,67.15542602539062,98.64830017089844,-16.48016357421875
289419,-0.6797943115234375,2.240951538085938,1.461380004882812,0.6851759552955627,0.6816171407699585,0.3047316670417786,67.15542602539062,98.64830017089844,-16.48016357421875
289420,-0.78460693359375,2.172348022460938,1.4776611328125,0.034355841577053,1.31743860244751,0.1532817035913467,67.44944763183594,98.66741943359376,-16.79586791992188
289421,-0.78460693359375,2.172348022460938,1.4776611328125,0.034355841577053,1.31743860244751,0.1532817035913467,67.44944763183594,98.66741943359376,-16.79586791992188
289422,-0.769256591796875,1.872940063476562,1.225494384765625,-1.185576677322388,1.670445084571838,-0.3808847665786743,67.60723876953125,98.65901184082033,-16.88623046875
289423,-0.5541534423828125,1.2890625,0.5352935791015625,-1.52670156955719,1.375352740287781,-0.411914587020874,67.78143310546875,98.76138305664062,-16.52519226074219
289424,-0.4051361083984375,1.227340698242188,0.242156982421875,-1.618646144866943,0.8380744457244873,-0.3799228370189667,67.61495971679688,98.92489624023438,-15.80924987792969
289425,-0.303802490234375,1.25933837890625,0.078338623046875,-1.59043824672699,0.256693571805954,-0.4190819561481476,67.42628479003906,98.96159362792967,-15.01240539550781
289426,-0.2371826171875,1.261581420898438,-0.009796142578125,-1.5757896900177,-0.2710405588150024,-0.4756706655025482,67.19129943847656,99.19503784179688,-14.09461975097656
289427,-0.2371826171875,1.261581420898438,-0.009796142578125,-1.5757896900177,-0.2710405588150024,-0.4756706655025482,67.19129943847656,99.19503784179688,-14.09461975097656
289428,-0.09405517578125,1.126419067382812,-0.08087158203125,-1.746995091438293,-1.071312427520752,-0.4978233575820923,66.62625122070312,99.62150573730467,-12.649169921875
289429,-0.0193328857421875,0.9776153564453124,-0.15191650390625,-1.746995091438293,-1.071312427520752,-0.4978233575820923,66.29254150390625,99.64216613769533,-11.96151733398438
289430,0.049835205078125,0.794403076171875,-0.3001556396484375,-1.822089314460754,-1.457015991210938,-0.4246309101581573,66.03703308105469,99.6249542236328,-11.28468322753906
289431,0.049835205078125,0.794403076171875,-0.3001556396484375,-1.822089314460754,-1.457015991210938,-0.4246309101581573,66.03703308105469,99.6249542236328,-11.28468322753906
289432,0.0664825439453125,0.50543212890625,-0.0671539306640625,-1.749456882476807,-1.785094976425171,-0.2128875106573105,65.57028198242188,99.49717712402344,-9.950408935546877
289433,0.07928466796875,0.425048828125,0.0186309814453125,-1.602721214294434,-1.438316583633423,-0.0957797914743423,65.3538818359375,99.44612121582033,-9.230117797851562
289434,0.093170166015625,0.3913116455078125,-0.0171661376953125,-1.382366180419922,-1.075297832489014,-0.0301427226513624,65.22621154785156,99.3710479736328,-8.513626098632812
289435,0.093170166015625,0.3913116455078125,-0.0171661376953125,-1.382366180419922,-1.075297832489014,-0.0301427226513624,65.22621154785156,99.3710479736328,-8.513626098632812
289436,0.1478424072265625,0.4636077880859375,-0.262939453125,-0.1363077759742737,-1.085398197174072,-0.141253262758255,65.0987548828125,98.97943115234376,-7.27056884765625
289437,0.1819915771484375,0.513763427734375,-0.365692138671875,-0.1363077759742737,-1.085398197174072,-0.141253262758255,64.96403503417969,98.81674194335938,-6.604400634765625
289438,0.17095947265625,0.53338623046875,-0.3222808837890625,0.3832501769065857,-1.152723431587219,-0.2113130390644073,64.94834899902344,98.74514770507812,-6.18731689453125
289439,0.1571807861328125,0.5098419189453125,-0.1917572021484375,0.7926288843154907,-0.6750223636627197,-0.2908382415771484,64.70146179199219,98.80821228027344,-5.767898559570312
289440,0.1245574951171875,0.45855712890625,-0.1925506591796875,1.02615749835968,0.0270776897668838,-0.379118025302887,64.50236511230469,98.93815612792967,-5.986160278320312
289441,0.100799560546875,0.36224365234375,-0.2964935302734375,1.074326634407043,0.3593142330646515,-0.3785063028335571,64.28556823730469,99.10108947753906,-6.604400634765625
289442,0.086639404296875,0.2892608642578125,-0.3418426513671875,0.947265326976776,0.259602278470993,-0.2412501722574234,63.99050903320312,99.35482788085938,-7.340011596679688
289443,0.086639404296875,0.2892608642578125,-0.3418426513671875,0.947265326976776,0.259602278470993,-0.2412501722574234,63.99050903320312,99.35482788085938,-7.340011596679688
289444,0.04052734375,0.2794189453125,-0.271087646484375,0.478971391916275,-0.2425290197134018,0.0824011340737342,63.80540466308594,99.50184631347656,-8.281890869140625
289445,0.04052734375,0.2794189453125,-0.271087646484375,0.478971391916275,-0.2425290197134018,0.0824011340737342,63.80540466308594,99.50184631347656,-8.281890869140625
289446,0.130401611328125,0.215606689453125,-0.2644500732421875,0.4407574236392975,-0.436989039182663,0.2237521409988403,63.94601440429688,99.5498504638672,-8.974197387695312
289447,0.130126953125,0.19659423828125,-0.2288665771484375,0.5837449431419373,-0.4792185127735138,0.2488646805286407,64.08403015136719,99.5272979736328,-9.233566284179688
289448,0.12158203125,0.19183349609375,-0.1823577880859375,0.729841947555542,-0.4760392308235168,0.2343722879886627,64.23265075683594,99.447265625,-9.448867797851562
289449,0.112884521484375,0.22308349609375,-0.165985107421875,0.7988969087600708,-0.5383439064025879,0.1802129149436951,64.28350830078125,99.45515441894533,-9.837677001953123
289450,0.1112518310546875,0.29864501953125,-0.1661376953125,0.76047682762146,-0.7183461785316467,0.0896675661206245,64.33702087402344,99.468994140625,-10.22381591796875
289451,0.1015472412109375,0.42047119140625,-0.1790008544921875,0.658481776714325,-1.046014308929443,-0.0086845681071281,64.33863830566406,99.70904541015624,-10.72222900390625
289452,0.079345703125,0.562164306640625,-0.17095947265625,0.5622191429138184,-1.439790844917297,-0.1167199611663818,64.1260986328125,99.88201904296876,-11.18904113769531
289453,0.079345703125,0.562164306640625,-0.17095947265625,0.5622191429138184,-1.439790844917297,-0.1167199611663818,64.1260986328125,99.88201904296876,-11.18904113769531
289454,0.0282135009765625,0.991729736328125,0.07391357421875,0.0632324963808059,-1.438961267471313,-0.7590770721435547,63.68098449707031,100.3663330078125,-11.9942626953125
289455,-0.005218505859375,1.335342407226562,0.396728515625,0.0632324963808059,-1.438961267471313,-0.7590770721435547,63.38240051269531,100.5516662597656,-12.50846862792969
289456,0.029205322265625,1.81024169921875,0.6337738037109375,-0.4288445711135864,-0.6397205591201782,-1.061816692352295,62.72502136230469,100.9333038330078,-12.79055786132812
289457,0.088165283203125,2.622817993164062,0.76544189453125,-1.241630911827087,-0.2663014531135559,-1.30673348903656,62.00857543945312,101.1672058105469,-13.11349487304688
289458,0.17059326171875,3.637802124023438,0.9817657470703124,-2.760153770446777,-0.7518711090087891,-1.361023426055908,61.20018005371094,101.4080657958984,-13.330078125
289459,-0.0829315185546875,4.140411376953125,1.345306396484375,-3.727361679077148,-2.493691921234131,-1.230022788047791,60.3431396484375,101.4102783203125,-12.9600830078125
289460,-0.32049560546875,3.716751098632812,1.881591796875,-2.638159036636353,-2.758836507797241,-1.066182971000671,59.73980712890625,101.2437286376953,-11.84423828125
289461,-0.25311279296875,2.549057006835938,2.031784057617188,-1.044183373451233,-1.98958158493042,-1.034860730171204,59.19839477539062,101.1187591552734,-10.43804931640625
289462,-0.222625732421875,1.685653686523438,1.81622314453125,0.0309294201433658,-1.235469937324524,-0.8925216794013977,59.04051208496094,101.1680755615234,-9.552734375
289463,-0.3475799560546875,1.452438354492188,1.414535522460938,0.698526918888092,-0.7116251587867737,-0.7743883728981018,58.84333801269531,101.1121826171875,-8.888107299804688
289464,-0.47576904296875,1.747344970703125,0.822357177734375,1.009479999542236,-0.7823057174682617,-0.9637090563774108,58.8271484375,101.1844940185547,-8.785858154296875
289465,-0.6255340576171875,2.030471801757812,0.271148681640625,1.145673274993896,-1.343154668807983,-1.143752098083496,58.62200927734375,101.3421325683594,-8.931289672851562
289466,-0.86663818359375,2.0303955078125,-0.0253448486328125,1.25629985332489,-1.241331577301025,-0.6740878820419312,58.2735595703125,101.5305480957031,-9.495880126953123
289467,-0.6892547607421875,1.9278564453125,-0.2779388427734375,1.312656164169312,-0.1901611536741257,0.0958929732441902,57.933837890625,101.5886535644531,-10.08219909667969
289468,-0.2414093017578125,1.866470336914062,-0.65325927734375,1.160007953643799,0.7433804273605347,0.7302720546722412,57.75454711914062,101.5327911376953,-10.75759887695312
289469,0.01324462890625,1.782577514648438,-0.6819305419921875,0.9085347652435304,0.4230718910694122,0.9779806733131408,58.01724243164062,101.4655151367188,-11.53392028808594
289470,0.1402740478515625,1.496017456054688,-0.310699462890625,0.6335705518722534,0.0081711104139685,1.024347066879272,58.66159057617188,101.2133026123047,-11.85928344726562
289471,0.192474365234375,1.19024658203125,-0.09375,0.4605156779289246,0.0573812685906887,0.9932642579078674,59.25691223144531,101.0684814453125,-12.14549255371094
289472,0.1887664794921875,0.9485321044921876,-0.0636444091796875,0.398474395275116,0.387260377407074,0.7853379845619202,60.02009582519531,100.8501739501953,-12.23814392089844
289473,0.15960693359375,0.773223876953125,-0.06646728515625,0.398474395275116,0.387260377407074,0.7853379845619202,60.67042541503906,100.67041015625,-12.39373779296875
289474,0.10467529296875,0.6728668212890625,-0.077362060546875,0.391818106174469,0.3851402401924133,0.5396640300750732,61.15367126464844,100.5303802490234,-12.76344299316406
289475,0.10467529296875,0.6728668212890625,-0.077362060546875,0.391818106174469,0.3851402401924133,0.5396640300750732,61.15367126464844,100.5303802490234,-12.76344299316406
289476,-0.0562286376953125,0.500335693359375,-0.1024322509765625,0.4137029051780701,0.2926284074783325,0.4254050850868225,62.29389953613281,100.1984100341797,-13.22189331054688
289477,-0.0755157470703125,0.39532470703125,-0.1213226318359375,0.466985285282135,0.1189871057868004,0.4199765026569366,62.67645263671875,100.0789794921875,-13.43478393554688
289478,-0.0678253173828125,0.3016815185546875,-0.0956573486328125,0.5165480375289917,-0.0477078668773174,0.4519283175468445,62.97450256347656,99.9873504638672,-13.64836120605469
289479,-0.05560302734375,0.212646484375,-0.0253143310546875,0.5031560659408569,-0.0615222156047821,0.4789354205131531,63.2933349609375,99.85023498535156,-13.8985595703125
289480,-0.0537567138671875,0.1276702880859375,0.0287322998046875,0.4121420085430145,0.1115773916244507,0.478636622428894,63.81300354003906,99.62359619140624,-14.262939453125
289481,-0.0537567138671875,0.1276702880859375,0.0287322998046875,0.4121420085430145,0.1115773916244507,0.478636622428894,63.81300354003906,99.62359619140624,-14.262939453125
289482,-0.039520263671875,-0.0376129150390625,-0.048004150390625,0.1515786051750183,0.2574182152748108,0.4392253160476685,64.48468017578125,99.3355712890625,-14.71607971191406
289483,-0.0144195556640625,-0.115234375,-0.2137451171875,0.1515786051750183,0.2574182152748108,0.4392253160476685,64.84709167480469,99.0289306640625,-14.69895935058594
289484,0.0163421630859375,-0.1793212890625,-0.40155029296875,0.4307676255702972,-0.226025402545929,0.5372703671455383,65.1798095703125,98.9659423828125,-14.77769470214844
289485,0.036590576171875,-0.214813232421875,-0.4696807861328125,0.8518519997596741,-0.8707758784294128,0.6931380033493042,65.47015380859375,98.91844177246094,-14.92254638671875
289486,0.0345458984375,-0.195709228515625,-0.3468780517578125,1.271248459815979,-1.214822769165039,0.8403114676475525,65.65077209472656,99.00143432617188,-15.19099426269531
289487,0.0345458984375,-0.195709228515625,-0.3468780517578125,1.271248459815979,-1.214822769165039,0.8403114676475525,65.65077209472656,99.00143432617188,-15.19099426269531
289488,-0.0042266845703125,-0.0697174072265625,-0.048492431640625,1.675957083702087,-0.2131572812795639,0.8199361562728882,66.3109130859375,98.81512451171876,-16.29981994628906
289489,-0.0042266845703125,-0.0697174072265625,-0.048492431640625,1.675957083702087,-0.2131572812795639,0.8199361562728882,66.3109130859375,98.81512451171876,-16.29981994628906
289490,0.0137939453125,-0.0004730224609375,-0.0880279541015625,1.618441104888916,0.4289574921131134,0.6784930229187012,66.64418029785156,98.67340087890624,-17.09489440917969
289491,0.0649871826171875,0.145721435546875,-0.2235565185546875,1.020983815193176,0.397834986448288,0.6003257632255554,67.24174499511719,98.47698974609376,-18.53976440429688
289492,0.0284423828125,0.1981658935546875,-0.041595458984375,0.6181849241256714,0.2358767092227936,0.5301101803779602,67.62687683105469,98.20945739746094,-19.01930236816406
289493,0.012176513671875,0.2289581298828125,0.286041259765625,0.2406482994556427,0.5212002992630005,0.3908132910728455,67.86338806152344,98.06089782714844,-19.45408630371094
289494,0.0432586669921875,0.6208343505859375,0.609619140625,-0.3110156655311584,2.872449159622192,0.2572751939296722,68.07569885253906,98.05699157714844,-19.85289001464844
289495,0.0432586669921875,0.6208343505859375,0.609619140625,-0.3110156655311584,2.872449159622192,0.2572751939296722,68.07569885253906,98.05699157714844,-19.85289001464844
289496,0.1115875244140625,1.833206176757812,0.84100341796875,-0.6900585889816284,3.769628286361694,0.5109785795211792,68.44319152832031,97.7776336669922,-19.72389221191406
289497,-0.0913238525390625,2.34552001953125,0.834259033203125,-0.6291784644126892,3.676791667938232,0.5575804114341736,68.79606628417969,97.70799255371094,-19.26107788085938
289498,-0.3220367431640625,2.6395263671875,0.8316192626953125,-0.0972077772021293,2.676636934280396,0.4291505515575409,69.41085815429688,97.45637512207033,-18.25653076171875
289499,-0.3220367431640625,2.6395263671875,0.8316192626953125,-0.0972077772021293,2.676636934280396,0.4291505515575409,69.41085815429688,97.45637512207033,-18.25653076171875
289500,-0.5773468017578125,2.7645263671875,1.310943603515625,1.153379917144775,0.3817292451858521,0.4572780728340149,70.54380798339844,97.05462646484376,-16.87007141113281
289501,-0.5624847412109375,2.433944702148438,1.534164428710938,1.093318939208984,0.5132492184638977,0.3679298162460327,71.00282287597656,96.8726043701172,-16.95875549316406
289502,-0.55767822265625,2.001785278320312,1.545684814453125,0.4225912094116211,1.155206799507141,-0.0298487097024917,71.13487243652344,96.81173706054688,-17.20455932617188
289503,-0.55767822265625,2.001785278320312,1.545684814453125,0.4225912094116211,1.155206799507141,-0.0298487097024917,71.13487243652344,96.81173706054688,-17.20455932617188
289504,-0.666412353515625,1.414840698242188,1.226760864257812,-0.9261451363563538,2.391148090362549,-0.6791870594024658,71.27696228027344,96.78256225585938,-16.98463439941406
289505,-0.62091064453125,1.203857421875,0.8897857666015625,-1.140647292137146,2.488110542297363,-0.6931015253067017,71.19033813476562,96.94309997558594,-16.55506896972656
289506,-0.5184478759765625,1.135040283203125,0.512725830078125,-1.114821076393127,2.121486663818359,-0.5668681859970093,71.01812744140625,97.13058471679688,-15.82223510742188
289507,-0.5184478759765625,1.135040283203125,0.512725830078125,-1.114821076393127,2.121486663818359,-0.5668681859970093,71.01812744140625,97.13058471679688,-15.82223510742188
289508,-0.3092041015625,1.136642456054688,0.0987548828125,-0.909401834011078,0.8030719757080078,-0.501501202583313,70.43081665039062,97.50283813476562,-14.0316162109375
289509,-0.234039306640625,1.100982666015625,0.0091705322265625,-0.8814205527305603,0.223891943693161,-0.5819385051727295,70.11203002929688,97.6877899169922,-13.39981079101562
289510,-0.17669677734375,1.0126953125,-0.0536956787109375,-0.9144003391265868,-0.2073902040719986,-0.7043184638023376,69.7784423828125,97.9912567138672,-12.97900390625
289511,-0.17669677734375,1.0126953125,-0.0536956787109375,-0.9144003391265868,-0.2073902040719986,-0.7043184638023376,69.7784423828125,97.9912567138672,-12.97900390625
289512,-0.0455474853515625,0.7925262451171875,-0.142730712890625,-1.202483534812927,-0.7869875431060791,-0.9934229850769044,68.85462951660156,98.35667419433594,-12.15902709960938
289513,0.050323486328125,0.639373779296875,-0.3358154296875,-1.37348747253418,-1.081788778305054,-1.021009564399719,68.35987854003906,98.4794464111328,-11.64163208007812
289514,0.2216949462890625,0.5155792236328125,-0.9353790283203124,-1.546212911605835,-2.379775524139404,-0.9649152159690856,67.80795288085938,98.52732849121094,-10.99790954589844
289515,0.3119964599609375,0.4679107666015625,-0.9180755615234376,-1.618871927261353,-3.948145151138306,-0.8584126830101013,67.2891845703125,98.69723510742188,-10.90664672851562
289516,0.3288116455078125,0.4738616943359375,-0.3775787353515625,-1.455669403076172,-4.177833080291748,-0.5809552669525146,66.73983764648438,98.76939392089844,-10.6923828125
289517,0.37762451171875,0.4685516357421875,0.04583740234375,-1.0528324842453,-2.957426786422729,-0.1013700291514397,66.31489562988281,98.80101013183594,-10.5714111328125
289518,0.52587890625,0.4452972412109375,0.17718505859375,-0.5271762013435364,-0.8016729950904846,0.603945255279541,65.87654113769531,98.83479309082033,-10.539794921875
289519,0.52587890625,0.4452972412109375,0.17718505859375,-0.5271762013435364,-0.8016729950904846,0.603945255279541,65.87654113769531,98.83479309082033,-10.539794921875
289520,0.4786529541015625,0.6385955810546875,-0.13623046875,0.4406948387622833,1.051709771156311,1.555889248847961,65.72674560546875,98.88768005371094,-10.03739929199219
289521,0.3639068603515625,0.7245025634765625,-0.0884246826171875,0.9125683307647704,0.8351982235908508,1.052271127700806,66.15068054199219,98.61343383789062,-9.67889404296875
289522,0.32568359375,0.7061309814453125,-0.12567138671875,0.921713411808014,0.2463469207286835,0.7358617782592773,66.6993408203125,98.32063293457033,-9.448654174804688
289523,0.32568359375,0.7061309814453125,-0.12567138671875,0.921713411808014,0.2463469207286835,0.7358617782592773,66.6993408203125,98.32063293457033,-9.448654174804688
289524,0.322784423828125,0.578338623046875,-0.1926116943359375,0.7895953059196472,-0.5265902876853943,0.4829621315002441,67.77047729492188,97.75714111328124,-9.5120849609375
289525,0.322784423828125,0.578338623046875,-0.1926116943359375,0.7895953059196472,-0.5265902876853943,0.4829621315002441,67.77047729492188,97.75714111328124,-9.5120849609375
289526,0.154937744140625,0.3252716064453125,-0.1461181640625,0.5777256488800049,-1.4291752576828,0.0100467754527926,68.42918395996094,97.39830017089844,-10.13771057128906
289527,0.0532073974609375,0.18084716796875,-0.1926422119140625,0.5777256488800049,-1.4291752576828,0.0100467754527926,68.56520080566406,97.37565612792967,-10.58970642089844
289528,-0.010009765625,0.0700531005859375,-0.2096405029296875,0.5855593681335449,-1.192271113395691,0.0094741955399513,68.71217346191406,97.43673706054688,-11.14152526855469
289529,-0.0290374755859375,-0.01202392578125,-0.2461090087890625,0.5732411742210388,-0.8366946578025818,0.0433160476386547,68.7708740234375,97.4584503173828,-11.58444213867188
289530,-0.0026092529296875,-0.0400390625,-0.2931671142578125,0.6005998253822327,-0.634648323059082,0.0823103189468383,68.72280883789062,97.62515258789062,-12.09544372558594
289531,0.05804443359375,0.0065155029296875,-0.30322265625,0.6671804189682007,-0.695021390914917,0.053341519087553,68.83656311035156,97.593017578125,-12.60148620605469
289532,0.11663818359375,0.1372833251953125,-0.240386962890625,0.7146509885787964,-0.8712520599365234,-0.0763496309518814,68.92462158203125,97.56141662597656,-12.90065002441406
289533,0.11663818359375,0.1372833251953125,-0.240386962890625,0.7146509885787964,-0.8712520599365234,-0.0763496309518814,68.92462158203125,97.56141662597656,-12.90065002441406
289534,0.1510162353515625,0.370361328125,-0.127899169921875,0.6251069903373718,-1.336520195007324,-0.406350165605545,68.89070129394531,97.6603546142578,-13.76701354980469
289535,0.1518096923828125,0.5034027099609375,-0.0536651611328125,0.3216933310031891,-1.65609335899353,-0.8005744218826294,68.75285339355469,97.73063659667967,-14.316650390625
289536,0.1528167724609375,0.69317626953125,0.0321044921875,0.3216933310031891,-1.65609335899353,-0.8005744218826294,68.50112915039062,97.87948608398438,-14.71331787109375
289537,0.17926025390625,0.9430084228515624,0.1561737060546875,0.075673721730709,-1.577962636947632,-1.092830777168274,68.107421875,98.25296020507812,-15.18867492675781
289538,0.237579345703125,1.23883056640625,0.33099365234375,-0.2804489731788635,-1.259661912918091,-1.401871800422668,67.63853454589844,98.64689636230467,-15.61618041992188
289539,0.237579345703125,1.23883056640625,0.33099365234375,-0.2804489731788635,-1.259661912918091,-1.401871800422668,67.63853454589844,98.64689636230467,-15.61618041992188
289540,0.328887939453125,2.330917358398438,0.77008056640625,-1.12942898273468,0.3144766986370087,-1.72361433506012,65.9493408203125,99.36569213867188,-15.94206237792969
289541,0.328887939453125,2.330917358398438,0.77008056640625,-1.12942898273468,0.3144766986370087,-1.72361433506012,65.9493408203125,99.36569213867188,-15.94206237792969
289542,0.0961761474609375,3.937255859375,0.79071044921875,-2.563818216323853,-0.3863216042518616,-1.996609091758728,63.98678588867188,100.0062103271484,-15.64064025878906
289543,-0.418426513671875,3.83380126953125,1.476715087890625,-2.964421510696411,-2.266058206558228,-1.77406895160675,63.07478332519531,100.2581481933594,-15.48980712890625
289544,-0.720123291015625,3.06317138671875,2.052154541015625,-2.027796030044556,-1.701565742492676,-1.731036067008972,62.2769775390625,100.2510223388672,-14.80319213867188
289545,-0.720123291015625,3.06317138671875,2.052154541015625,-2.027796030044556,-1.701565742492676,-1.731036067008972,62.2769775390625,100.2510223388672,-14.80319213867188
289546,-0.5559539794921875,1.503067016601562,1.64617919921875,0.4262138903141022,-0.8306756019592285,-1.050105452537537,60.88436889648438,100.5411682128906,-12.76608276367188
289547,-0.5609130859375,1.645050048828125,1.185104370117188,0.4262138903141022,-0.8306756019592285,-1.050105452537537,60.36430358886719,100.7911682128906,-12.04100036621094
289548,-0.4494171142578125,2.030563354492188,0.4405975341796875,0.8484452962875366,-1.32675039768219,-1.199121594429016,59.81680297851562,101.0793762207031,-11.86329650878906
289549,-0.4285888671875,2.212387084960938,-0.068450927734375,1.167734622955322,-2.10503888130188,-1.344815135002136,59.161376953125,101.3446502685547,-11.98445129394531
289550,-0.5890350341796875,2.079116821289062,-0.148345947265625,1.361957311630249,-1.511358499526978,-0.6727696061134338,58.53097534179688,101.5959167480469,-12.53440856933594
289551,-0.5890350341796875,2.079116821289062,-0.148345947265625,1.361957311630249,-1.511358499526978,-0.6727696061134338,58.53097534179688,101.5959167480469,-12.53440856933594
289552,-0.02294921875,1.880966186523438,-0.9118499755859376,1.409157037734985,1.345043301582336,0.9096506237983704,57.351318359375,101.9439239501953,-14.05886840820312
289553,0.165679931640625,1.605010986328125,-0.86614990234375,1.191122531890869,0.7757053375244141,0.9999826550483704,57.459716796875,101.9290618896484,-14.76689147949219
289554,0.1879119873046875,1.242507934570312,-0.5010528564453125,0.7270360589027405,0.461075484752655,0.8676405549049377,57.92242431640625,101.7360534667969,-15.43629455566406
289555,0.1879119873046875,1.242507934570312,-0.5010528564453125,0.7270360589027405,0.461075484752655,0.8676405549049377,57.92242431640625,101.7360534667969,-15.43629455566406
289556,0.1000823974609375,0.769287109375,-0.212249755859375,-0.0358485430479049,0.6535629034042358,0.4676207304000854,59.18864440917969,101.3113708496094,-16.23606872558594
289557,0.002410888671875,0.6006317138671875,-0.1880340576171875,-0.1757633090019226,0.5492721796035767,0.2663078606128693,59.82124328613281,100.9707946777344,-16.22218322753906
289558,-0.1007232666015625,0.4808502197265625,-0.197967529296875,-0.1508052200078964,0.3453235626220703,0.1393392533063889,60.35585021972656,100.9176330566406,-16.2286376953125
289559,-0.1007232666015625,0.4808502197265625,-0.197967529296875,-0.1508052200078964,0.3453235626220703,0.1393392533063889,60.35585021972656,100.9176330566406,-16.2286376953125
289560,-0.192535400390625,0.3201446533203125,-0.1584930419921875,0.2953168749809265,-0.2549603879451752,0.2315037995576859,61.15609741210938,100.8019256591797,-16.07366943359375
289561,-0.22393798828125,0.2348480224609375,-0.0219268798828125,0.4611524343490601,-0.2109444588422775,0.3188773095607758,61.453857421875,100.6278991699219,-16.09251403808594
289562,-0.1998443603515625,0.143707275390625,0.03955078125,0.4476805627346039,0.074935495853424,0.3483087122440338,61.74497985839844,100.6080474853516,-16.25723266601562
289563,-0.1548309326171875,0.0800323486328125,0.0434112548828125,0.0716566070914268,0.586602509021759,0.2360836416482925,61.93316650390625,100.5170593261719,-16.66632080078125
289564,-0.1228179931640625,0.0106201171875,0.0559539794921875,0.0716566070914268,0.586602509021759,0.2360836416482925,62.25495910644531,100.2971954345703,-16.81207275390625
289565,-0.1228179931640625,0.0106201171875,0.0559539794921875,0.0716566070914268,0.586602509021759,0.2360836416482925,62.25495910644531,100.2971954345703,-16.81207275390625
289566,-0.0357208251953125,-0.1728668212890625,-0.2980194091796875,0.1860300600528717,-0.11912452429533,0.2382663637399673,62.90666198730469,100.0721435546875,-16.95344543457031
289567,0.0208587646484375,-0.2939910888671875,-0.63775634765625,0.1860300600528717,-0.11912452429533,0.2382663637399673,63.12442016601562,99.88308715820312,-16.76492309570312
289568,0.0572357177734375,-0.3268585205078125,-0.5803985595703125,0.5892699360847473,-0.6033327579498291,0.4146211445331573,63.34744262695312,99.76199340820312,-16.48106384277344
289569,0.0529937744140625,-0.2092437744140625,-0.2768707275390625,0.909532368183136,-0.1272943019866943,0.4811253547668457,63.47419738769531,99.6961669921875,-16.5145263671875
289570,0.057525634765625,-0.0064239501953125,-0.223419189453125,1.087282061576843,0.4388346076011658,0.4018518328666687,63.62022399902344,99.75860595703124,-16.89173889160156
289571,0.0719757080078125,0.1226348876953125,-0.2652130126953125,1.093998312950134,0.4804340004920959,0.4167546033859253,63.72149658203125,99.6324462890625,-17.31459045410156
289572,0.0517578125,0.165802001953125,-0.2276611328125,0.9938512444496156,0.2602265179157257,0.4532441794872284,63.90234375,99.61099243164062,-17.80859375
289573,0.0534515380859375,0.1881561279296875,-0.133880615234375,0.8722225427627563,0.1387118101119995,0.4491511583328247,64.0831298828125,99.5079345703125,-18.25189208984375
289574,0.062896728515625,0.2184600830078125,-0.04461669921875,0.6947305798530579,0.5324079990386963,0.4670630693435669,64.32305908203125,99.33853149414062,-18.867431640625
289575,0.062896728515625,0.2184600830078125,-0.04461669921875,0.6947305798530579,0.5324079990386963,0.4670630693435669,64.32305908203125,99.33853149414062,-18.867431640625
289576,0.1149139404296875,0.5621337890625,0.0983123779296875,0.5940662622451782,0.8423985838890076,0.6129217147827148,64.70649719238281,99.19230651855467,-19.72689819335938
289577,0.106597900390625,0.8589935302734375,0.3491668701171875,0.4503045976161957,1.411748290061951,0.7823805212974548,64.93754577636719,99.2259521484375,-20.00701904296875
289578,0.081512451171875,1.126754760742188,0.573944091796875,0.0932569727301597,2.870731353759766,0.8811734318733215,65.10676574707031,99.25778198242188,-20.31915283203125
289579,0.081512451171875,1.126754760742188,0.573944091796875,0.0932569727301597,2.870731353759766,0.8811734318733215,65.10676574707031,99.25778198242188,-20.31915283203125
289580,0.0759735107421875,1.683151245117188,0.61260986328125,0.0487113483250141,2.692493677139282,0.8282516002655029,66.11412048339844,98.95582580566406,-20.47413635253906
289581,0.0759735107421875,1.683151245117188,0.61260986328125,0.0487113483250141,2.692493677139282,0.8282516002655029,66.11412048339844,98.95582580566406,-20.47413635253906
289582,-0.126220703125,2.197418212890625,0.9130706787109376,0.2467157691717148,-0.3423203229904175,0.4616086483001709,67.54209899902344,98.3715362548828,-19.70957946777344
289583,-0.2589569091796875,2.465011596679688,1.253631591796875,0.2467157691717148,-0.3423203229904175,0.4616086483001709,68.2322998046875,98.09625244140624,-19.12809753417969
289584,-0.4285736083984375,2.668502807617188,1.665374755859375,0.4003676474094391,-0.7965232729911804,0.3610524833202362,68.6962890625,97.84342956542967,-18.83810424804688
289585,-0.6780548095703125,2.549453735351562,2.067825317382812,0.2360002845525742,-0.1584351807832718,0.1466206014156342,68.98658752441406,97.6177215576172,-18.91691589355469
289586,-0.843597412109375,2.1920166015625,2.174468994140625,-0.4009026885032654,1.549991726875305,-0.3308261334896088,69.311279296875,97.53034973144533,-19.13493347167969
289587,-0.8489837646484375,1.790451049804688,1.80316162109375,-1.104689359664917,2.973917961120605,-0.7509256601333618,69.50926208496094,97.43878173828124,-19.22891235351562
289588,-0.804290771484375,1.443603515625,1.242340087890625,-1.486968278884888,3.557920694351196,-0.9085541963577272,69.59884643554688,97.3527374267578,-18.85452270507812
289589,-0.6963653564453125,1.193069458007812,0.684295654296875,-1.535194635391235,3.336366653442383,-0.7881785035133362,69.59291076660156,97.47637939453124,-17.99714660644531
289590,-0.5625152587890625,1.084747314453125,0.2487945556640625,-1.369940161705017,2.598647832870483,-0.5720861554145813,69.41658020019531,97.662841796875,-16.86767578125
289591,-0.4293212890625,1.062393188476562,-0.0080718994140625,-1.129709959030151,1.719778060913086,-0.4234572649002075,69.0523681640625,98.0274658203125,-15.646484375
289592,-0.30804443359375,1.047592163085938,-0.165191650390625,-0.9241267442703248,0.8688781261444092,-0.3745450973510742,68.749267578125,98.41693115234376,-14.44990539550781
289593,-0.2006683349609375,1.005462646484375,-0.4105377197265625,-0.8050834536552429,0.0101509047672152,-0.4157005250453949,68.44706726074219,98.82296752929688,-13.62507629394531
289594,-0.0035552978515625,0.8980712890625,-1.1279296875,-0.9226210117340088,-1.883796334266663,-0.573828935623169,68.04153442382812,99.21871948242188,-12.98501586914062
289595,0.091705322265625,0.7713623046875,-0.9373931884765624,-1.158270478248596,-4.039199829101562,-0.7962396144866943,67.64230346679688,99.46551513671876,-12.67192077636719
289596,0.0228424072265625,0.678253173828125,-0.0909576416015625,-1.228680729866028,-4.24188756942749,-0.8647579550743103,67.24368286132812,99.5978546142578,-12.43357849121094
289597,0.03466796875,0.5800628662109375,0.2085723876953125,-1.319965720176697,-3.347657680511475,-0.7530591487884521,66.78288269042969,99.8279266357422,-12.5487060546875
289598,0.082427978515625,0.4795379638671875,0.25616455078125,-1.407513618469238,-1.949256777763367,-0.450468897819519,66.29100036621094,99.98739624023438,-12.65640258789062
289599,0.1102294921875,0.4296112060546875,0.0223541259765625,-1.431206226348877,-0.7633737921714783,-0.1417858898639679,65.83255004882812,100.0260314941406,-12.6573486328125
289600,0.14703369140625,0.5175018310546875,-0.308746337890625,-1.38836395740509,-0.3206661641597748,0.0188546478748321,65.44425964355469,99.84284973144533,-12.17753601074219
289601,0.18377685546875,0.654815673828125,-0.369140625,-1.229774832725525,-0.2487757354974747,0.0185790099203586,65.31869506835938,99.70504760742188,-11.53669738769531
289602,0.247802734375,0.701171875,-0.2585906982421875,-0.8088288903236389,0.0076573868282139,0.0576997809112072,65.18815612792969,99.4714813232422,-11.10760498046875
289603,0.247802734375,0.701171875,-0.2585906982421875,-0.8088288903236389,0.0076573868282139,0.0576997809112072,65.18815612792969,99.4714813232422,-11.10760498046875
289604,0.1678466796875,0.6147308349609375,-0.135467529296875,0.2814620435237885,0.1131720915436745,-0.1090916022658348,65.03854370117188,99.34646606445312,-9.945724487304688
289605,0.1295928955078125,0.5105438232421875,-0.056396484375,0.72491854429245,0.2070541083812714,-0.2420520484447479,64.845703125,99.09539794921876,-9.330703735351562
289606,0.1253814697265625,0.3512420654296875,-0.0768585205078125,1.0503009557724,0.2177291363477707,-0.2823651134967804,64.73977661132812,99.23077392578124,-9.646209716796877
289607,0.1253814697265625,0.3512420654296875,-0.0768585205078125,1.0503009557724,0.2177291363477707,-0.2823651134967804,64.73977661132812,99.23077392578124,-9.646209716796877
289608,0.16644287109375,0.1150360107421875,-0.098175048828125,1.101027488708496,-0.243108257651329,0.0313659124076366,64.48641967773438,99.41932678222656,-10.28343200683594
289609,0.161834716796875,0.05621337890625,-0.1046142578125,0.9101837873458862,-0.5610913038253784,0.2524908483028412,64.38255310058594,99.46803283691406,-10.76907348632812
289610,0.127960205078125,0.02349853515625,-0.122039794921875,0.5840722322463989,-0.8583351969718933,0.4031285643577576,64.47195434570312,99.45899963378906,-11.35041809082031
289611,0.127960205078125,0.02349853515625,-0.122039794921875,0.5840722322463989,-0.8583351969718933,0.4031285643577576,64.47195434570312,99.45899963378906,-11.35041809082031
289612,0.097259521484375,0.0317230224609375,-0.19036865234375,0.5412387251853943,-0.7321684956550598,0.3507577478885651,64.74961853027344,99.40861511230467,-12.22761535644531
289613,0.097259521484375,0.0317230224609375,-0.19036865234375,0.5412387251853943,-0.7321684956550598,0.3507577478885651,64.74961853027344,99.40861511230467,-12.22761535644531
289614,0.0789794921875,0.176116943359375,-0.25262451171875,0.5276294946670532,-0.5309275388717651,0.0783331543207168,64.96942138671875,99.49420166015624,-12.98373413085938
289615,0.0283966064453125,0.2923736572265625,-0.2383575439453125,0.4866117238998413,-0.5791988968849182,-0.0672173872590065,65.03929138183594,99.5136260986328,-13.1422119140625
289616,-0.032470703125,0.39166259765625,-0.1974945068359375,0.4224782884120941,-0.6965380311012268,-0.2401537448167801,65.00799560546875,99.62356567382812,-13.35066223144531
289617,-0.0437164306640625,0.5418243408203125,-0.175750732421875,0.3534688651561737,-0.8715463876724243,-0.4986662566661835,64.85826110839844,99.76780700683594,-13.660400390625
289618,-0.04736328125,0.7713165283203125,-0.1714935302734375,0.2811469733715057,-1.156062245368958,-0.8053390979766846,64.62626647949219,100.0296478271484,-14.07307434082031
289619,-0.0794219970703125,1.049819946289062,-0.094329833984375,0.0526714660227298,-1.396030902862549,-1.470644116401672,64.10447692871094,100.4642028808594,-14.47152709960938
289620,-0.124786376953125,1.340606689453125,0.1452789306640625,0.0526714660227298,-1.396030902862549,-1.470644116401672,63.43504333496094,100.7909545898438,-14.90557861328125
289621,-0.124786376953125,1.340606689453125,0.1452789306640625,0.0526714660227298,-1.396030902862549,-1.470644116401672,63.43504333496094,100.7909545898438,-14.90557861328125
289622,-0.1691741943359375,2.222366333007812,0.6797332763671875,-1.170467853546143,-0.3067823052406311,-1.543193459510803,61.47006225585938,101.6997985839844,-15.63204956054688
289623,-0.074432373046875,2.973312377929688,0.88494873046875,-2.522638320922852,-0.5952950716018677,-1.17709219455719,60.44639587402344,102.0023803710938,-15.92558288574219
289624,-0.19561767578125,3.4998779296875,1.27777099609375,-3.55242133140564,-1.711876153945923,-0.6812853217124939,59.50001525878906,102.0833129882812,-15.65107727050781
289625,-0.3161773681640625,3.573883056640625,1.746566772460938,-2.938036203384399,-1.568910837173462,-0.5589498281478882,58.79481506347656,102.2068481445312,-14.96658325195312
289626,-0.16754150390625,2.942062377929688,1.710906982421875,-1.533137083053589,-1.103292226791382,-0.7818716168403625,58.25621032714844,102.2569274902344,-13.91600036621094
289627,-0.16754150390625,2.942062377929688,1.710906982421875,-1.533137083053589,-1.103292226791382,-0.7818716168403625,58.25621032714844,102.2569274902344,-13.91600036621094
289628,-0.2246246337890625,1.656723022460938,1.369216918945312,0.2419955879449844,-0.7235627770423889,-0.9581957459449768,57.6961669921875,102.3612213134766,-12.0648193359375
289629,-0.2246246337890625,1.656723022460938,1.369216918945312,0.2419955879449844,-0.7235627770423889,-0.9581957459449768,57.6961669921875,102.3612213134766,-12.0648193359375
289630,-0.2444610595703125,1.871444702148438,0.7213134765625,0.8658682107925415,-1.816868185997009,-1.115944862365723,57.14707946777344,102.5770263671875,-11.39932250976562
289631,-0.174224853515625,2.063690185546875,0.459136962890625,0.8658682107925415,-1.816868185997009,-1.115944862365723,56.72850036621094,102.6856689453125,-11.1910400390625
289632,-0.1128082275390625,2.134628295898438,0.245635986328125,0.8617509603500366,-1.950270891189575,-1.075480580329895,56.29100036621094,102.7559051513672,-11.21755981445312
289633,-0.1128082275390625,2.134628295898438,0.245635986328125,0.8617509603500366,-1.950270891189575,-1.075480580329895,56.29100036621094,102.7559051513672,-11.21755981445312
289634,-0.1638336181640625,2.15167236328125,-0.2536163330078125,1.24986457824707,0.2982993423938751,-0.0537460520863533,55.36032104492188,103.1894378662109,-12.17051696777344
