time_idx,accelerometerAccelerationX(G),accelerometerAccelerationY(G),accelerometerAccelerationZ(G),gyroRotationX(rad/s),gyroRotationY(rad/s),gyroRotationZ(rad/s),magnetometerX(µT),magnetometerY(µT),magnetometerZ(µT)
208705,0.27728271484375,2.067108154296875,-0.28717041015625,1.430666923522949,-0.2043912261724472,0.7050705552101135,53.68582153320312,100.7701721191406,-23.38186645507812
208706,0.2235870361328125,2.441192626953125,-0.59539794921875,1.430666923522949,-0.2043912261724472,0.7050705552101135,54.07295227050781,100.7433166503906,-23.66705322265625
208707,0.041534423828125,2.8507080078125,-0.7030487060546875,2.255433559417725,-0.1519320011138916,0.4989128708839417,54.40786743164062,100.5733947753906,-23.93348693847656
208708,0.041534423828125,2.8507080078125,-0.7030487060546875,2.255433559417725,-0.1519320011138916,0.4989128708839417,54.40786743164062,100.5733947753906,-23.93348693847656
208709,-0.630401611328125,3.33795166015625,-0.96142578125,2.771602869033813,3.167882442474365,-0.5705545544624329,54.7811279296875,100.3827819824219,-25.31491088867188
208710,-0.78411865234375,3.650070190429688,-1.312835693359375,1.956220149993896,2.720768690109253,-1.490851998329163,54.74826049804688,100.2391662597656,-26.51210021972656
208711,-0.8509368896484375,3.898117065429688,-0.928802490234375,1.155929565429688,1.375532269477844,-2.249462366104126,54.7598876953125,99.98886108398438,-27.91926574707031
208712,-0.8509368896484375,3.898117065429688,-0.928802490234375,1.155929565429688,1.375532269477844,-2.249462366104126,54.7598876953125,99.98886108398438,-27.91926574707031
208713,-1.020645141601562,3.559661865234375,-0.296661376953125,1.285524129867554,0.885028064250946,-1.896674513816833,53.95477294921875,99.67312622070312,-30.2120361328125
208714,-1.033599853515625,2.67059326171875,-0.2931060791015625,1.870956897735596,1.099566221237183,-0.590790867805481,52.03024291992188,99.73338317871094,-32.50820922851562
208715,-0.74261474609375,1.961349487304688,-0.2475128173828125,2.29654860496521,1.391283512115479,0.8292878270149231,51.45240783691406,99.78839111328124,-33.68266296386719
208716,-0.74261474609375,1.961349487304688,-0.2475128173828125,2.29654860496521,1.391283512115479,0.8292878270149231,51.45240783691406,99.78839111328124,-33.68266296386719
208717,-0.33917236328125,1.99566650390625,-0.004669189453125,2.648011207580566,1.410781025886536,1.106703162193298,51.7169189453125,99.45321655273438,-34.94856262207031
208718,-0.2199554443359375,1.88177490234375,0.6003570556640625,3.006592988967896,2.005770921707153,0.9786813259124756,52.49664306640625,98.9210205078125,-36.08186340332031
208719,0.0480499267578125,1.40264892578125,0.7802581787109375,3.354527711868286,2.987380981445312,0.9332254528999328,54.90394592285156,97.20706176757812,-38.16970825195312
208720,0.0480499267578125,1.40264892578125,0.7802581787109375,3.354527711868286,2.987380981445312,0.9332254528999328,54.90394592285156,97.20706176757812,-38.16970825195312
208721,0.056488037109375,1.040939331054688,0.7794952392578125,2.296874046325684,1.687816619873047,0.7878309488296509,57.78945922851562,95.04364013671876,-40.250732421875
208722,-0.00372314453125,0.9146575927734376,0.8758697509765625,1.537200212478638,1.02876877784729,0.3518517911434174,58.86520385742188,94.11753845214844,-40.94259643554688
208723,-0.0787353515625,0.7941741943359375,0.9664764404296876,0.8078954815864563,0.5654375553131104,-0.2091452330350876,59.6658935546875,93.45004272460938,-41.47953796386719
208724,-0.0787353515625,0.7941741943359375,0.9664764404296876,0.8078954815864563,0.5654375553131104,-0.2091452330350876,59.6658935546875,93.45004272460938,-41.47953796386719
208725,-0.28887939453125,0.4787445068359375,1.178756713867188,-0.3163955211639404,0.7534855008125305,-0.5931533575057983,60.11430358886719,92.97291564941406,-41.93904113769531
208726,-0.350921630859375,0.3810882568359375,1.157745361328125,-0.6605464816093445,1.163251996040344,-0.4461037218570709,60.01263427734375,93.15652465820312,-41.86602783203125
208727,-0.445159912109375,0.34979248046875,1.094894409179688,-0.879337728023529,1.551091909408569,-0.3156181573867798,60.12858581542969,93.42872619628906,-41.48263549804688
208728,-0.445159912109375,0.34979248046875,1.094894409179688,-0.879337728023529,1.551091909408569,-0.3156181573867798,60.12858581542969,93.42872619628906,-41.48263549804688
208729,-0.6044464111328125,0.3440399169921875,0.7704315185546875,-1.290795564651489,1.636326313018799,-0.3481260240077972,60.37678527832031,94.41891479492188,-40.49391174316406
208730,-0.6574859619140625,0.3323211669921875,0.5742950439453125,-1.529518604278564,1.196085333824158,-0.5006460547447205,60.68406677246094,94.92863464355467,-39.67805480957031
208731,-0.6698760986328125,0.286468505859375,0.3894195556640625,-1.756330966949463,0.5439264178276062,-0.7227677702903748,60.83293151855469,95.38961791992188,-38.96134948730469
208732,-0.6698760986328125,0.286468505859375,0.3894195556640625,-1.756330966949463,0.5439264178276062,-0.7227677702903748,60.83293151855469,95.38961791992188,-38.96134948730469
208733,-0.6919097900390625,0.1613006591796875,0.2642059326171875,-1.990833282470703,-0.1101475432515144,-0.9353221654891968,60.80949401855469,95.9800262451172,-38.17913818359375
208734,-0.7975616455078125,-0.0776214599609375,0.2179718017578125,-2.256299257278442,-0.4581654369831085,-0.8923845291137695,60.54237365722656,96.77218627929688,-37.41622924804688
208735,-0.8057708740234375,-0.22332763671875,0.0068206787109375,-2.561996221542358,-0.4037911593914032,-0.5454995632171631,59.61329650878906,98.1704559326172,-35.54450988769531
208736,-0.8057708740234375,-0.22332763671875,0.0068206787109375,-2.561996221542358,-0.4037911593914032,-0.5454995632171631,59.61329650878906,98.1704559326172,-35.54450988769531
208737,-0.7008514404296875,-0.114410400390625,-0.6028594970703125,-2.406436681747437,-1.120633721351624,-0.6167601346969604,59.2645263671875,98.71170043945312,-34.42050170898438
208738,-0.5596923828125,0.060150146484375,-1.082931518554688,-1.870788931846619,-3.242380857467651,-0.7929772734642029,58.85385131835938,99.15234375,-33.29794311523438
208739,-0.4512176513671875,0.2542877197265625,0.16986083984375,-1.377367734909058,-4.018916606903076,-1.003673195838928,57.18089294433594,99.83651733398438,-31.8653564453125
208740,-0.4512176513671875,0.2542877197265625,0.16986083984375,-1.377367734909058,-4.018916606903076,-1.003673195838928,57.18089294433594,99.83651733398438,-31.8653564453125
208741,-0.341644287109375,0.4186248779296875,0.2340087890625,-1.41196084022522,-3.178223133087158,-1.155118703842163,56.06167602539062,100.1274108886719,-31.39657592773438
208742,-0.16802978515625,0.7069091796875,-0.07086181640625,-1.431927680969238,-1.969568967819214,-1.267364501953125,54.04486083984375,100.2193756103516,-30.55691528320312
208743,-0.1588897705078125,0.8203582763671875,-0.20159912109375,-1.234166145324707,-0.95936381816864,-1.157439589500427,53.30850219726562,100.2628021240234,-30.07814025878906
208744,-0.1588897705078125,0.8203582763671875,-0.20159912109375,-1.234166145324707,-0.95936381816864,-1.157439589500427,53.30850219726562,100.2628021240234,-30.07814025878906
208745,-0.188385009765625,0.888641357421875,-0.3021392822265625,-0.8281653523445129,0.0375337935984134,-0.9719310402870178,52.630126953125,100.1544494628906,-29.58683776855469
208746,-0.146759033203125,0.8114471435546875,-0.3183441162109375,-0.4297023713588715,0.7039659023284912,-0.7730189561843872,51.90208435058594,100.2682495117188,-29.14201354980469
208747,-0.1313629150390625,0.5697784423828125,-0.2675323486328125,-0.2901319563388824,0.6506621837615967,-0.1657109409570694,50.74588012695312,100.8798980712891,-28.64285278320312
208748,-0.1313629150390625,0.5697784423828125,-0.2675323486328125,-0.2901319563388824,0.6506621837615967,-0.1657109409570694,50.74588012695312,100.8798980712891,-28.64285278320312
208749,0.0146942138671875,0.2979736328125,-0.4253082275390625,-0.6163468360900879,-0.1221181824803352,0.1590232104063034,50.69139099121094,100.9479522705078,-28.4866943359375
208750,0.0847320556640625,0.1693267822265625,-0.4214935302734375,-0.7016992568969727,-0.6412505507469177,0.42525514960289,50.79428100585938,101.0305023193359,-28.26222229003906
208751,0.0831451416015625,0.0960540771484375,-0.3568115234375,-0.7373837828636169,-0.9654536843299866,0.6246178150177002,50.829833984375,101.0228576660156,-27.85765075683594
208752,0.0266876220703125,0.0933837890625,-0.310821533203125,-0.7215850949287415,-1.005061268806458,0.6042038798332214,51.05601501464844,101.2294006347656,-27.342529296875
208753,0.0266876220703125,0.0933837890625,-0.310821533203125,-0.7215850949287415,-1.005061268806458,0.6042038798332214,51.05601501464844,101.2294006347656,-27.342529296875
208754,-0.0284576416015625,0.1265869140625,-0.27783203125,-0.6731088757514954,-0.7898427248001099,0.3597350120544434,51.30374145507812,101.2848510742188,-26.8795166015625
208755,-0.1967926025390625,0.29925537109375,-0.33673095703125,-0.6132258772850037,0.3129123747348785,-0.4672726392745972,51.40003967285156,101.6087951660156,-25.81703186035156
208756,-0.1967926025390625,0.29925537109375,-0.33673095703125,-0.6132258772850037,0.3129123747348785,-0.4672726392745972,51.40003967285156,101.6087951660156,-25.81703186035156
208757,-0.3078155517578125,0.4712066650390625,-0.42071533203125,-0.473634660243988,0.4259025752544403,-0.6471025943756104,51.27442932128906,101.7205810546875,-25.49107360839844
208758,-0.332489013671875,0.6466522216796875,-0.1942138671875,-0.3119360506534576,0.5522264242172241,-0.9373794198036194,50.64274597167969,102.1116485595703,-25.00810241699219
208759,-0.352264404296875,0.6597747802734375,-0.2090911865234375,-0.3240896463394165,0.5926728844642639,-0.9560034275054932,50.2064208984375,102.3521881103516,-24.78208923339844
208760,-0.352264404296875,0.6597747802734375,-0.2090911865234375,-0.3240896463394165,0.5926728844642639,-0.9560034275054932,50.2064208984375,102.3521881103516,-24.78208923339844
208761,-0.4242095947265625,0.6071929931640625,-0.3740234375,-0.0028447885997593,-0.0002820287481881,-0.5829710364341736,49.32917785644531,102.7131958007812,-24.4083251953125
208762,-0.49261474609375,0.6536865234375,-0.3024444580078125,0.2540985941886902,-0.1337311714887619,-0.3549509048461914,48.94650268554688,102.7626647949219,-24.26052856445312
208763,-0.5141754150390625,0.7225189208984375,-0.293365478515625,0.5335643291473389,0.0388808213174343,-0.1055908724665642,48.57809448242188,102.614501953125,-24.14418029785156
208764,-0.5141754150390625,0.7225189208984375,-0.293365478515625,0.5335643291473389,0.0388808213174343,-0.1055908724665642,48.57809448242188,102.614501953125,-24.14418029785156
208765,-0.488922119140625,1.03692626953125,-0.5914154052734375,1.270269274711609,0.3079562187194824,0.2305879443883896,48.1317138671875,102.5988922119141,-24.64555358886719
208766,-0.488922119140625,1.03692626953125,-0.5914154052734375,1.270269274711609,0.3079562187194824,0.2305879443883896,48.1317138671875,102.5988922119141,-24.64555358886719
208767,-0.34259033203125,1.401779174804688,-0.7362060546875,1.705722451210022,0.3415940701961517,0.4692798852920532,48.18824768066406,102.1944122314453,-25.745361328125
208768,-0.34259033203125,1.401779174804688,-0.7362060546875,1.705722451210022,0.3415940701961517,0.4692798852920532,48.18824768066406,102.1944122314453,-25.745361328125
208769,-0.264434814453125,1.608963012695312,-0.9553070068359376,1.786039590835571,0.2245646715164185,0.625381350517273,48.24015808105469,101.9794464111328,-26.39250183105469
208770,-0.2685089111328125,1.81396484375,-1.130691528320312,1.971480131149292,-0.1405270248651505,0.6482043266296387,48.38301086425781,101.8924865722656,-27.21305847167969
208771,-0.3360748291015625,2.273834228515625,-1.201263427734375,1.861347436904907,-0.0210711974650621,0.5530391931533813,48.59434509277344,101.5210571289062,-28.96221923828125
208772,-0.3360748291015625,2.273834228515625,-1.201263427734375,1.861347436904907,-0.0210711974650621,0.5530391931533813,48.59434509277344,101.5210571289062,-28.96221923828125
208773,-0.29107666015625,2.626327514648438,-1.279861450195312,1.358835816383362,0.0535164885222911,0.6564561724662781,48.70298767089844,101.3192901611328,-29.93074035644531
208774,-0.3390960693359375,2.953582763671875,-0.9133758544921876,0.6301547884941101,0.1602077782154083,0.7415886521339417,48.86572265625,101.0924377441406,-30.69375610351562
208775,-0.5760498046875,4.053543090820312,0.2233428955078125,0.0129352398216724,0.4058457612991333,0.8300905227661133,49.44598388671875,100.7088317871094,-31.66816711425781
208776,-0.5760498046875,4.053543090820312,0.2233428955078125,0.0129352398216724,0.4058457612991333,0.8300905227661133,49.44598388671875,100.7088317871094,-31.66816711425781
208777,-1.941864013671875,5.002273559570312,0.733612060546875,0.1310331225395203,2.460441589355469,1.922823548316956,50.5948486328125,100.7989501953125,-32.23002624511719
208778,-1.941864013671875,5.002273559570312,0.733612060546875,0.1310331225395203,2.460441589355469,1.922823548316956,50.5948486328125,100.7989501953125,-32.23002624511719
208779,-1.714920043945312,2.398849487304688,-0.3302154541015625,1.124955773353577,0.5332987904548645,1.941508293151855,53.09236145019531,100.6155548095703,-33.09269714355469
208780,-1.398300170898438,1.696426391601562,0.3917236328125,1.379079818725586,0.2139612883329391,1.667495965957642,54.84231567382812,100.3872833251953,-33.43934631347656
208781,-1.398300170898438,1.696426391601562,0.3917236328125,1.379079818725586,0.2139612883329391,1.667495965957642,54.84231567382812,100.3872833251953,-33.43934631347656
208782,-0.805389404296875,0.9967193603515624,0.706024169921875,1.61538827419281,1.534786701202393,1.127360343933105,57.12950134277344,99.59371948242188,-34.48553466796875
208783,-0.625396728515625,0.7631378173828125,0.717529296875,1.744089841842651,2.291274785995483,0.9892884492874146,57.84375,99.14372253417967,-34.91409301757812
208784,-0.625396728515625,0.7631378173828125,0.717529296875,1.744089841842651,2.291274785995483,0.9892884492874146,57.84375,99.14372253417967,-34.91409301757812
208785,-0.4128875732421875,0.6741180419921875,0.67633056640625,1.782017230987549,2.881954431533813,0.962730348110199,58.66667175292969,98.60945129394533,-35.50604248046875
208786,-0.2200775146484375,0.7339019775390625,0.557708740234375,1.604474425315857,3.017776966094971,1.025421619415283,59.55645751953125,98.02101135253906,-36.0665283203125
208787,-0.0615692138671875,1.023284912109375,0.425140380859375,0.818673312664032,2.03121280670166,1.142294764518738,61.33895874023438,97.08653259277344,-37.01797485351562
208788,-0.0615692138671875,1.023284912109375,0.425140380859375,0.818673312664032,2.03121280670166,1.142294764518738,61.33895874023438,97.08653259277344,-37.01797485351562
208789,-0.06658935546875,1.092559814453125,0.4520263671875,0.4715299904346466,1.287336111068726,0.957941710948944,62.33665466308594,96.62939453125,-37.34051513671875
208790,-0.112457275390625,0.9443817138671876,0.43450927734375,0.0788372904062271,-0.5423191785812378,0.0401258468627929,64.08380126953125,95.84841918945312,-37.56187438964844
208791,-0.0830230712890625,0.7244873046875,0.439971923828125,-0.1044662222266197,-1.543044328689575,-0.3759296834468842,64.64266967773438,95.46426391601562,-37.4345703125
208792,-0.0830230712890625,0.7244873046875,0.439971923828125,-0.1044662222266197,-1.543044328689575,-0.3759296834468842,64.64266967773438,95.46426391601562,-37.4345703125
208793,-0.043914794921875,0.5251312255859375,0.499542236328125,-0.2785181701183319,-2.38231635093689,-0.6701692938804626,64.85165405273438,95.31422424316406,-37.41525268554688
208794,0.0704193115234375,0.2525482177734375,0.61138916015625,-0.6504288911819458,-2.757186651229858,-0.922233521938324,64.03504943847656,94.94052124023438,-37.44972229003906
208795,0.151885986328125,0.13739013671875,0.5751190185546875,-0.8144348859786987,-2.562013387680054,-0.7685616612434387,63.09832763671875,94.98170471191406,-37.42381286621094
208796,0.151885986328125,0.13739013671875,0.5751190185546875,-0.8144348859786987,-2.562013387680054,-0.7685616612434387,63.09832763671875,94.98170471191406,-37.42381286621094
208797,0.2721405029296875,-0.0633392333984375,0.4701995849609375,-1.138825178146362,-2.29069185256958,-0.434070497751236,61.22972106933594,95.16871643066406,-37.1883544921875
208798,0.281402587890625,-0.0980987548828125,0.414459228515625,-1.138825178146362,-2.29069185256958,-0.434070497751236,60.40225219726562,95.25466918945312,-36.85917663574219
208799,0.2963714599609375,-0.1128082275390625,0.3759613037109375,-1.326661705970764,-2.26129150390625,-0.3407229483127594,59.66233825683594,95.41650390625,-36.34146118164062
208800,0.3253631591796875,-0.1109161376953125,0.373748779296875,-1.516978621482849,-2.338027000427246,-0.2323054075241089,59.10987854003906,95.62448120117188,-35.8187255859375
208801,0.3253631591796875,-0.1109161376953125,0.373748779296875,-1.516978621482849,-2.338027000427246,-0.2323054075241089,59.10987854003906,95.62448120117188,-35.8187255859375
208802,0.3748321533203125,-0.0197601318359375,0.6069488525390625,-1.744021892547607,-1.858852028846741,-0.0063130231574177,57.88638305664062,95.86065673828124,-34.54484558105469
208803,0.3530426025390625,0.0485076904296875,0.6536407470703125,-1.71561074256897,-0.8333257436752319,0.0614601634442806,57.22319030761719,96.1683349609375,-33.67774963378906
208804,0.3530426025390625,0.0485076904296875,0.6536407470703125,-1.71561074256897,-0.8333257436752319,0.0614601634442806,57.22319030761719,96.1683349609375,-33.67774963378906
208805,0.3471832275390625,0.1221923828125,0.6473846435546875,-1.803349614143372,1.428201079368591,0.136605516076088,56.77583312988281,96.47445678710938,-32.72821044921875
208806,0.4668426513671875,0.4532318115234375,0.497772216796875,-2.05682373046875,2.196713924407959,0.2944550812244415,56.23780822753906,97.14016723632812,-30.58952331542969
208807,0.47576904296875,0.745269775390625,0.3814239501953125,-2.423889875411987,2.536827564239502,0.4601790606975555,56.45771789550781,97.35281372070312,-29.44903564453125
208808,0.47576904296875,0.745269775390625,0.3814239501953125,-2.423889875411987,2.536827564239502,0.4601790606975555,56.45771789550781,97.35281372070312,-29.44903564453125
208809,0.120025634765625,1.151840209960938,-0.0223388671875,-2.81645393371582,2.661115169525146,-0.2123897522687912,57.24684143066406,97.90834045410156,-27.09829711914062
208810,-0.2730712890625,1.340957641601562,-2.22283935546875,0.600654661655426,-4.468558311462402,-2.384182453155518,57.84017944335938,98.16758728027344,-25.65476989746094
208811,-0.127288818359375,0.8906402587890625,-1.214874267578125,0.600654661655426,-4.468558311462402,-2.384182453155518,57.95259094238281,98.47085571289062,-24.15898132324219
208812,0.1173095703125,0.33868408203125,0.2886962890625,0.5146878361701965,-3.796318054199219,-2.147069692611694,57.29722595214844,98.8791961669922,-23.39601135253906
208813,0.1173095703125,0.33868408203125,0.2886962890625,0.5146878361701965,-3.796318054199219,-2.147069692611694,57.29722595214844,98.8791961669922,-23.39601135253906
208814,-0.0112457275390625,0.0090484619140625,0.2471923828125,0.4218897223472595,-2.543967723846436,-1.827547669410706,54.08982849121094,99.5146026611328,-24.42318725585938
208815,-0.053802490234375,-0.10211181640625,0.1235504150390625,0.5037965774536133,-1.270077228546143,-1.578489661216736,52.43359375,99.65641784667967,-25.02775573730469
208816,-0.053802490234375,-0.10211181640625,0.1235504150390625,0.5037965774536133,-1.270077228546143,-1.578489661216736,52.43359375,99.65641784667967,-25.02775573730469
208817,-0.1192779541015625,-0.3110809326171875,0.187957763671875,0.1321420520544052,1.171376466751099,-1.170052051544189,50.91416931152344,99.8585968017578,-25.54859924316406
208818,0.128814697265625,0.10540771484375,-1.028396606445312,-0.6611270904541016,1.814939975738525,-0.209324985742569,49.305908203125,100.0464935302734,-26.23228454589844
208819,0.1271514892578125,0.3208465576171875,-0.752166748046875,-0.8679795861244202,0.4892029762268066,-0.058300856500864,49.181640625,100.0367889404297,-25.970703125
208820,0.1271514892578125,0.3208465576171875,-0.752166748046875,-0.8679795861244202,0.4892029762268066,-0.058300856500864,49.181640625,100.0367889404297,-25.970703125
208821,0.1089324951171875,0.6041717529296875,-0.368194580078125,-1.125033259391785,-0.9364928603172302,0.1338629871606827,49.33341979980469,100.1794128417969,-25.292236328125
208822,0.130645751953125,0.6456298828125,-0.255584716796875,-0.867995023727417,-1.030678510665894,0.1893829703330994,49.22950744628906,100.2532043457031,-24.80563354492188
208823,0.1542510986328125,0.63616943359375,-0.0843963623046875,-0.5410746932029724,-0.6969298124313354,0.2419455200433731,49.36250305175781,100.265380859375,-24.24290466308594
208824,0.1542510986328125,0.63616943359375,-0.0843963623046875,-0.5410746932029724,-0.6969298124313354,0.2419455200433731,49.36250305175781,100.265380859375,-24.24290466308594
208825,0.202239990234375,0.712005615234375,0.1023406982421875,-0.4165841639041901,0.4577702283859253,0.3916982710361481,49.35647583007812,100.3617553710938,-23.36991882324219
208826,0.197174072265625,0.79498291015625,0.0960693359375,-0.6346065402030945,0.8499054908752441,0.4767950475215912,49.55317687988281,100.4891510009766,-23.14582824707031
208827,0.163055419921875,0.89434814453125,0.062347412109375,-0.905578076839447,1.044798851013184,0.5085697770118713,49.72535705566406,100.43798828125,-22.72669982910156
208828,0.163055419921875,0.89434814453125,0.062347412109375,-0.905578076839447,1.044798851013184,0.5085697770118713,49.72535705566406,100.43798828125,-22.72669982910156
208829,0.1026458740234375,1.147598266601562,0.01904296875,-1.183327436447144,0.9137777090072632,0.4261614382266998,50.53031921386719,100.4683685302734,-21.7178955078125
208830,0.0925140380859375,1.285110473632812,0.078369140625,-1.183327436447144,0.9137777090072632,0.4261614382266998,50.88160705566406,100.6552581787109,-21.18348693847656
208831,0.0881195068359375,1.452774047851562,0.13140869140625,-0.9037367701530457,0.9663825631141664,0.4839262068271637,51.23492431640625,100.5106658935547,-20.43295288085938
208832,0.0881195068359375,1.452774047851562,0.13140869140625,-0.9037367701530457,0.9663825631141664,0.4839262068271637,51.23492431640625,100.5106658935547,-20.43295288085938
208833,0.0653076171875,1.6951904296875,0.15997314453125,-0.4981828927993774,1.059555172920227,0.5873007774353027,51.61970520019531,100.5449829101562,-19.66470336914062
208834,-0.2509002685546875,2.474212646484375,-0.0317230224609375,1.055076241493225,1.180553436279297,0.2360593974590302,52.28338623046875,100.5997619628906,-18.78237915039062
208835,-0.4036407470703125,2.825347900390625,-0.2841796875,2.20741081237793,1.09957230091095,-0.3728851675987244,52.54670715332031,100.6997833251953,-18.80006408691406
208836,-0.4036407470703125,2.825347900390625,-0.2841796875,2.20741081237793,1.09957230091095,-0.3728851675987244,52.54670715332031,100.6997833251953,-18.80006408691406
208837,-0.5409698486328125,2.991119384765625,-0.578369140625,3.222169876098633,0.8861580491065979,-1.050345182418823,52.65794372558594,100.6861114501953,-19.12712097167969
208838,-0.8150482177734375,3.0604248046875,-0.795623779296875,3.737607717514038,0.918350875377655,-1.681351900100708,52.3751220703125,100.7487335205078,-20.12701416015625
208839,-1.2413330078125,2.85870361328125,-1.362655639648438,1.612636685371399,3.711628198623657,-1.999217391014099,50.49578857421875,100.7438812255859,-23.91204833984375
208840,-1.2413330078125,2.85870361328125,-1.362655639648438,1.612636685371399,3.711628198623657,-1.999217391014099,50.49578857421875,100.7438812255859,-23.91204833984375
208841,-1.045608520507812,2.455551147460938,-0.55255126953125,-0.3552806079387665,2.244718074798584,-1.446181654930115,48.67625427246094,100.3637237548828,-27.12867736816406
208842,-1.02294921875,2.294647216796875,-0.334381103515625,-0.206349179148674,1.69866669178009,-0.8445256352424622,48.23191833496094,100.4346771240234,-27.92799377441406
208843,-0.8675079345703125,2.00543212890625,-0.20416259765625,0.6134844422340393,1.230685353279114,0.1504630148410797,47.86744689941406,100.4500885009766,-28.39724731445312
208844,-0.8675079345703125,2.00543212890625,-0.20416259765625,0.6134844422340393,1.230685353279114,0.1504630148410797,47.86744689941406,100.4500885009766,-28.39724731445312
208845,-0.3497161865234375,2.090103149414062,0.3980712890625,2.624905347824097,1.764221429824829,1.167158246040344,47.62835693359375,100.6167144775391,-29.27505493164062
208846,-0.2821502685546875,2.015106201171875,0.6492767333984375,3.237713813781738,2.391441106796265,0.9821538329124452,48.25726318359375,100.3704986572266,-30.03388977050781
208847,-0.2503662109375,1.88726806640625,0.6977691650390625,3.505143642425537,2.690101385116577,0.8437901139259338,49.14093017578125,100.0887451171875,-31.20523071289062
208848,-0.1882781982421875,1.715927124023438,0.645843505859375,2.81740665435791,1.416741251945496,0.6718982458114624,50.25941467285156,99.49436950683594,-32.59091186523438
208849,-0.1882781982421875,1.715927124023438,0.645843505859375,2.81740665435791,1.416741251945496,0.6718982458114624,50.25941467285156,99.49436950683594,-32.59091186523438
208850,-0.073455810546875,1.4464111328125,0.61981201171875,2.04167652130127,0.2394509315490723,0.5203167200088501,52.73773193359375,97.850341796875,-35.33938598632812
208851,-0.0988311767578125,1.384506225585938,0.8043975830078125,1.192243099212646,-0.5505656599998474,0.1193817853927612,53.81198120117188,96.83966064453124,-36.41688537597656
208852,-0.0988311767578125,1.384506225585938,0.8043975830078125,1.192243099212646,-0.5505656599998474,0.1193817853927612,53.81198120117188,96.83966064453124,-36.41688537597656
208853,-0.1755828857421875,1.2069091796875,0.9809417724609376,-0.2057102769613266,-0.5304891467094421,-0.965568482875824,54.52577209472656,96.2519989013672,-37.27401733398438
208854,-0.3689727783203125,0.5409698486328125,1.126602172851562,-0.6770266890525818,0.1352654099464417,-1.038608551025391,54.52558898925781,95.82061767578124,-38.14346313476562
208855,-0.4169921875,0.308685302734375,1.013946533203125,-0.8815670609474182,0.7839081287384033,-0.9340699315071106,54.25495910644531,95.8774871826172,-38.15132141113281
208856,-0.4169921875,0.308685302734375,1.013946533203125,-0.8815670609474182,0.7839081287384033,-0.9340699315071106,54.25495910644531,95.8774871826172,-38.15132141113281
208857,-0.4713897705078125,0.1713714599609375,0.82232666015625,-0.9244332909584044,1.136932253837585,-0.8053116798400879,53.7470703125,96.10122680664062,-37.66928100585938
208858,-0.5696563720703125,0.060638427734375,0.4444732666015625,-1.021259903907776,0.7743479013442993,-0.8279855847358704,53.16215515136719,97.0771026611328,-37.00740051269531
208859,-0.738189697265625,-0.0807952880859375,0.4097442626953125,-1.303072690963745,0.5100454092025757,-0.6869083642959595,52.90695190429688,97.47708129882812,-36.50813293457031
208860,-0.9219818115234376,-0.1655426025390625,0.3874359130859375,-1.7082359790802,0.544097900390625,-0.3329278826713562,52.67544555664062,97.91314697265624,-36.06562805175781
208861,-0.9219818115234376,-0.1655426025390625,0.3874359130859375,-1.7082359790802,0.544097900390625,-0.3329278826713562,52.67544555664062,97.91314697265624,-36.06562805175781
208862,-0.894561767578125,0.0222625732421875,-0.3859710693359375,-1.932196378707886,-0.709968626499176,-0.3965846300125122,51.89114379882812,99.1689910888672,-34.90350341796875
208863,-0.8245849609375,0.0547637939453125,-0.015533447265625,-1.764945507049561,-1.447688460350037,-0.6800951957702637,51.7469482421875,99.8422393798828,-34.02505493164062
208864,-0.8245849609375,0.0547637939453125,-0.015533447265625,-1.764945507049561,-1.447688460350037,-0.6800951957702637,51.7469482421875,99.8422393798828,-34.02505493164062
208865,-0.5877685546875,-0.0914459228515625,0.32342529296875,-1.642842292785645,-1.055849671363831,-1.046217799186707,51.10150146484375,100.7036743164062,-32.06575012207031
208866,-0.58935546875,-0.1484375,0.342132568359375,-1.563240885734558,-0.8146495223045349,-1.072575569152832,50.54237365722656,101.074951171875,-31.24290466308594
208867,-0.6447296142578125,-0.1698455810546875,0.3595428466796875,-1.538796067237854,-0.5149991512298584,-1.106715440750122,50.17779541015625,101.0674743652344,-30.40573120117188
208868,-0.6447296142578125,-0.1698455810546875,0.3595428466796875,-1.538796067237854,-0.5149991512298584,-1.106715440750122,50.17779541015625,101.0674743652344,-30.40573120117188
208869,-0.68212890625,-0.1626129150390625,0.2560882568359375,-1.598148584365845,-0.5735146403312683,-1.199939966201782,49.74664306640625,101.1388549804688,-29.58465576171875
208870,-0.6755523681640625,-0.082672119140625,-0.1733551025390625,-1.388374805450439,-1.749530434608459,-1.237422585487366,49.36061096191406,100.9701995849609,-28.84144592285156
208871,-0.5951080322265625,0.142303466796875,-0.4032440185546875,-1.203738451004028,-2.712457180023193,-1.178359270095825,48.39312744140625,100.9579010009766,-27.23454284667969
208872,-0.4812164306640625,0.2895355224609375,-0.1540679931640625,-1.078153014183044,-2.808085441589355,-0.9176925420761108,47.75834655761719,101.0150909423828,-26.54547119140625
208873,-0.4812164306640625,0.2895355224609375,-0.1540679931640625,-1.078153014183044,-2.808085441589355,-0.9176925420761108,47.75834655761719,101.0150909423828,-26.54547119140625
208874,-0.3383636474609375,0.613616943359375,-0.0580596923828125,-0.8415818214416504,-0.360287070274353,0.1249107792973518,46.84408569335938,101.0693359375,-25.95924377441406
208875,-0.1810302734375,1.009902954101562,-0.1934051513671875,-0.970061719417572,1.376947164535522,0.4875771105289459,45.21113586425781,101.1335296630859,-24.8546142578125
208876,-0.0629730224609375,0.7518768310546875,-0.4520111083984375,-0.9484896063804626,1.78131365776062,0.4711257219314575,44.4822998046875,101.3766174316406,-24.3328857421875
208877,-0.0629730224609375,0.7518768310546875,-0.4520111083984375,-0.9484896063804626,1.78131365776062,0.4711257219314575,44.4822998046875,101.3766174316406,-24.3328857421875
208878,0.116485595703125,0.2043609619140625,-0.44659423828125,-1.319169878959656,0.9499828219413756,0.69442218542099,44.56147766113281,101.5672760009766,-23.50506591796875
208879,0.2018890380859375,0.1760711669921875,-0.429229736328125,-1.561700820922852,0.1385325789451599,0.9434495568275452,45.58430480957031,101.6976318359375,-22.45777893066406
208880,0.1796722412109375,0.249237060546875,-0.3592987060546875,-1.647769927978516,-0.610659658908844,1.073985695838928,46.10104370117188,101.6997528076172,-21.53269958496094
208881,0.0778350830078125,0.3539276123046875,-0.25701904296875,-1.501258254051208,-0.9024006724357604,0.801495373249054,46.61758422851562,101.7382965087891,-20.52011108398438
208882,0.00445556640625,0.373199462890625,-0.17474365234375,-1.256698608398438,-0.6083663702011108,0.2729521691799164,47.05506896972656,101.9339904785156,-19.60482788085938
208883,-0.11181640625,0.3776092529296875,-0.1690826416015625,-1.046254992485046,0.1306094080209732,-0.3156969845294952,47.17753601074219,101.9410400390625,-18.73275756835938
208884,-0.11181640625,0.3776092529296875,-0.1690826416015625,-1.046254992485046,0.1306094080209732,-0.3156969845294952,47.17753601074219,101.9410400390625,-18.73275756835938
208885,-0.292816162109375,0.419647216796875,-0.2834320068359375,-0.8993995785713196,0.8012951016426086,-0.641305685043335,47.05255126953125,102.115478515625,-18.09339904785156
208886,-0.4581756591796875,0.5809783935546875,-0.490081787109375,-0.7853971123695374,1.121589779853821,-0.9289209842681884,46.38803100585938,102.1381378173828,-17.25032043457031
208887,-0.4840087890625,0.658416748046875,-0.544830322265625,-0.7099665403366089,0.904976487159729,-0.9685285687446594,45.92556762695312,102.2105865478516,-16.89651489257812
208888,-0.4840087890625,0.658416748046875,-0.544830322265625,-0.7099665403366089,0.904976487159729,-0.9685285687446594,45.92556762695312,102.2105865478516,-16.89651489257812
208889,-0.4945831298828125,0.7222137451171875,-0.588104248046875,-0.4928818643093109,0.5788252949714661,-0.8753719925880432,45.32536315917969,102.418212890625,-16.66079711914062
208890,-0.4146881103515625,0.82940673828125,-0.5109710693359375,0.3297334313392639,0.0110119050368666,-0.3157587647438049,44.31663513183594,102.4959869384766,-16.29023742675781
208891,-0.3156890869140625,0.8507232666015625,-0.361083984375,0.7012380361557007,-0.0165898948907852,-0.0087058739736676,43.95828247070312,102.4457550048828,-16.45072937011719
208892,-0.3156890869140625,0.8507232666015625,-0.361083984375,0.7012380361557007,-0.0165898948907852,-0.0087058739736676,43.95828247070312,102.4457550048828,-16.45072937011719
208893,-0.20635986328125,0.8557281494140625,-0.249114990234375,1.03902006149292,-0.0719535499811172,0.4550516605377197,43.82290649414062,102.2298736572266,-16.6622314453125
208894,-0.170440673828125,0.962615966796875,-0.25128173828125,1.12036919593811,-0.3920716345310211,0.6319587826728821,43.92347717285156,102.1211700439453,-17.39700317382812
208895,-0.2429351806640625,1.128265380859375,-0.293365478515625,1.253483891487122,-0.8082552552223206,0.7440656423568726,44.18238830566406,102.0167694091797,-17.84762573242188
208896,-0.3688201904296875,1.403915405273438,-0.3614654541015625,1.551654100418091,-1.125320792198181,0.6853359937667847,44.51132202148438,101.8890991210938,-18.21188354492188
208897,-0.3688201904296875,1.403915405273438,-0.3614654541015625,1.551654100418091,-1.125320792198181,0.6853359937667847,44.51132202148438,101.8890991210938,-18.21188354492188
208898,-0.677947998046875,1.919265747070312,-0.4437103271484375,2.61348032951355,-0.8180264234542847,0.2883148789405823,44.86897277832031,101.7077026367188,-19.64601135253906
208899,-0.810089111328125,2.04931640625,-0.5257415771484375,3.121924161911011,-0.2428975999355316,0.0651643574237823,44.92292785644531,101.6562347412109,-20.70693969726562
208900,-0.810089111328125,2.04931640625,-0.5257415771484375,3.121924161911011,-0.2428975999355316,0.0651643574237823,44.92292785644531,101.6562347412109,-20.70693969726562
208901,-0.770599365234375,2.10272216796875,-0.704193115234375,3.389143943786621,0.1021793633699417,0.0040328246541321,44.72311401367188,101.5611572265625,-22.33731079101562
208902,-0.22344970703125,2.47735595703125,-0.7314300537109375,3.058740377426147,-0.8474351763725281,0.3341904878616333,44.59036254882812,100.9403686523438,-25.82185363769531
208903,0.0638580322265625,2.8062744140625,-0.4091033935546875,2.536237239837646,-1.412893533706665,0.5991531610488892,44.59521484375,100.6470184326172,-27.27189636230469
208904,0.186737060546875,3.257644653320312,-0.0903167724609375,2.205127000808716,-1.634340167045593,1.016333341598511,44.58354187011719,100.3182373046875,-28.6505126953125
208905,0.186737060546875,3.257644653320312,-0.0903167724609375,2.205127000808716,-1.634340167045593,1.016333341598511,44.58354187011719,100.3182373046875,-28.6505126953125
208906,-0.0334014892578125,4.463668823242188,0.186431884765625,2.285322427749634,-1.299132585525513,1.213571548461914,44.90007019042969,99.61282348632812,-30.69943237304688
208907,-0.4095916748046875,4.561965942382812,0.1905517578125,2.028513193130493,-0.945097267627716,0.7753835916519165,45.15713500976562,99.20442199707033,-31.64839172363281
208908,-0.4095916748046875,4.561965942382812,0.1905517578125,2.028513193130493,-0.945097267627716,0.7753835916519165,45.15713500976562,99.20442199707033,-31.64839172363281
208909,-0.9917449951171876,4.073623657226562,0.0068359375,1.187764525413513,-0.5097172856330872,0.3166139125823975,45.47555541992188,99.0043487548828,-32.6981201171875
208910,-1.81005859375,1.980499267578125,0.5561676025390625,-0.3969963490962982,1.48176097869873,0.5695321559906006,46.16059875488281,98.9130401611328,-34.83341979980469
208911,-1.756790161132812,1.219757080078125,0.293792724609375,-0.2318819612264633,1.56742262840271,0.8373734951019287,47.01187133789062,98.8993682861328,-35.22274780273438
208912,-1.756790161132812,1.219757080078125,0.293792724609375,-0.2318819612264633,1.56742262840271,0.8373734951019287,47.01187133789062,98.8993682861328,-35.22274780273438
208913,-1.228073120117188,0.507232666015625,0.147003173828125,0.5428840517997742,-0.2505105137825012,1.133386969566345,49.27247619628906,99.03134155273438,-35.20623779296875
208914,-0.8685150146484375,0.39178466796875,0.20574951171875,0.7715100646018982,-1.028367400169373,1.060483813285828,50.16653442382812,98.88766479492188,-35.19004821777344
208915,-0.5809783935546875,0.284454345703125,0.2705078125,0.9364776611328124,-1.393005847930908,0.9461564421653748,50.6304931640625,98.6453094482422,-35.42066955566406
208916,-0.5809783935546875,0.284454345703125,0.2705078125,0.9364776611328124,-1.393005847930908,0.9461564421653748,50.6304931640625,98.6453094482422,-35.42066955566406
208917,-0.162078857421875,0.037261962890625,0.268402099609375,0.9556609392166138,-0.9315106272697448,0.7680151462554932,51.07890319824219,98.10670471191406,-36.21595764160156
208918,0.0027618408203125,0.0326690673828125,0.3724517822265625,0.8740896582603455,-0.1876479238271713,0.7077808380126953,51.10307312011719,97.6975555419922,-36.52590942382812
208919,0.1322784423828125,0.0771636962890625,0.5531768798828125,0.7253566384315491,0.9182184934616088,0.7198731899261475,51.17617797851562,97.44190979003906,-36.86790466308594
208920,0.1322784423828125,0.0771636962890625,0.5531768798828125,0.7253566384315491,0.9182184934616088,0.7198731899261475,51.17617797851562,97.44190979003906,-36.86790466308594
208921,0.20135498046875,0.1057281494140625,0.587127685546875,0.5839049816131592,1.875929832458496,0.8010674118995667,51.491943359375,97.19395446777344,-37.14263916015625
208922,0.228912353515625,0.098968505859375,0.3596343994140625,0.2589508593082428,2.607349395751953,1.120862483978271,52.93826293945312,96.96035766601562,-37.46754455566406
208923,0.225982666015625,0.117889404296875,0.28277587890625,0.053500510752201,2.327861785888672,1.207906246185303,54.09967041015625,96.71224975585938,-37.27120971679688
208924,0.225982666015625,0.117889404296875,0.28277587890625,0.053500510752201,2.327861785888672,1.207906246185303,54.09967041015625,96.71224975585938,-37.27120971679688
208925,0.1282806396484375,0.2148895263671875,0.3332061767578125,-0.4428887367248535,1.055395245552063,0.8909559845924377,56.63653564453125,96.17208862304688,-36.67976379394531
208926,0.0797576904296875,0.217010498046875,0.412872314453125,-0.6465904712677002,0.5854397416114807,0.4477138519287109,57.6263427734375,95.9451141357422,-36.16378784179688
208927,0.0442962646484375,0.211395263671875,0.45562744140625,-0.9273337125778198,0.1485860049724579,-0.2088477611541748,58.30239868164062,95.90699768066406,-35.82035827636719
208928,0.0442962646484375,0.211395263671875,0.45562744140625,-0.9273337125778198,0.1485860049724579,-0.2088477611541748,58.30239868164062,95.90699768066406,-35.82035827636719
208929,-0.01873779296875,0.2425384521484375,0.5579071044921875,-1.484138131141663,0.1160560324788094,-0.0838240608572959,58.72209167480469,96.11390686035156,-35.07005310058594
208930,-0.05047607421875,0.3962554931640625,0.61407470703125,-1.484138131141663,0.1160560324788094,-0.0838240608572959,58.68032836914062,96.34036254882812,-34.64520263671875
208931,-0.1006927490234375,0.5619049072265625,0.643463134765625,-1.83969783782959,0.0863926783204078,-0.0720243901014328,58.64064025878906,96.51901245117188,-34.00401306152344
208932,-0.1797943115234375,0.7427520751953125,0.6543426513671875,-2.299724102020264,-0.1677503883838654,-0.18862184882164,58.62518310546875,96.7886962890625,-33.30715942382812
208933,-0.1797943115234375,0.7427520751953125,0.6543426513671875,-2.299724102020264,-0.1677503883838654,-0.18862184882164,58.62518310546875,96.7886962890625,-33.30715942382812
208934,-0.381439208984375,1.034530639648438,0.6976165771484375,-2.272668361663818,-0.2564331293106079,-0.3064137399196625,58.54681396484375,97.5130615234375,-31.58988952636719
208935,-0.43865966796875,1.069015502929688,0.655487060546875,-2.125136375427246,-0.2551172375679016,-0.4259824752807617,58.30842590332031,97.97471618652344,-30.42848205566406
208936,-0.43865966796875,1.069015502929688,0.655487060546875,-2.125136375427246,-0.2551172375679016,-0.4259824752807617,58.30842590332031,97.97471618652344,-30.42848205566406
208937,-0.4306488037109375,0.973724365234375,0.5407562255859375,-1.959456920623779,-0.242269366979599,-0.500762403011322,58.01734924316406,98.4638214111328,-29.54281616210938
208938,-0.2603759765625,0.6466064453125,0.228973388671875,-1.751938700675964,-0.4114410877227783,-0.6338261961936951,57.32301330566406,99.2215576171875,-27.73638916015625
208939,-0.21405029296875,0.5338592529296875,0.0969085693359375,-1.612526178359985,-0.5894044041633606,-0.7157884240150452,56.92459106445312,99.5023956298828,-26.91143798828125
208940,-0.21405029296875,0.5338592529296875,0.0969085693359375,-1.612526178359985,-0.5894044041633606,-0.7157884240150452,56.92459106445312,99.5023956298828,-26.91143798828125
208941,-0.1690826416015625,0.451751708984375,-0.167816162109375,-1.378050804138184,-0.8511188626289368,-0.7924920320510864,56.48561096191406,99.79841613769533,-26.02903747558594
208942,-0.0591583251953125,0.3629608154296875,-0.4898223876953125,-0.1681602448225021,-2.843968152999878,-0.9739262461662292,55.31781005859375,100.2623443603516,-24.92715454101562
208943,-0.0421600341796875,0.309478759765625,-0.21710205078125,0.2728509604930878,-3.12846040725708,-1.085785627365112,54.5927734375,100.3820648193359,-24.50199890136719
208944,-0.0421600341796875,0.309478759765625,-0.21710205078125,0.2728509604930878,-3.12846040725708,-1.085785627365112,54.5927734375,100.3820648193359,-24.50199890136719
208945,-0.012664794921875,0.2227935791015625,-0.1643829345703125,0.7448379397392273,-2.413652420043945,-1.055061340332031,53.66661071777344,100.5186309814453,-24.60688781738281
208946,0.1010589599609375,-0.01385498046875,-0.1146697998046875,0.6462756991386414,-0.821522057056427,-0.8746547698974609,51.56893920898438,100.6253662109375,-25.25221252441406
208947,0.135986328125,-0.0268707275390625,-0.429229736328125,0.2423340678215027,0.6652264595031738,-0.7093300223350525,50.81634521484375,100.5885925292969,-25.44525146484375
208948,0.135986328125,-0.0268707275390625,-0.429229736328125,0.2423340678215027,0.6652264595031738,-0.7093300223350525,50.81634521484375,100.5885925292969,-25.44525146484375
208949,0.1303558349609375,0.0466156005859375,-0.6840362548828125,-0.4081456661224365,-0.1691639870405197,-0.536916196346283,50.3216552734375,100.5018310546875,-25.79170227050781
208950,0.083221435546875,0.1580810546875,-0.3065948486328125,-0.6759123802185059,-0.690846860408783,-0.4791295826435089,49.82154846191406,100.4582214355469,-26.01158142089844
208951,0.0569610595703125,0.228179931640625,-0.18341064453125,-0.8100268244743347,-0.8884267807006836,-0.4575142860412598,49.57928466796875,100.4295806884766,-25.78353881835938
208952,0.0569610595703125,0.228179931640625,-0.18341064453125,-0.8100268244743347,-0.8884267807006836,-0.4575142860412598,49.57928466796875,100.4295806884766,-25.78353881835938
208953,0.0160064697265625,0.3335113525390625,-0.1314544677734375,-0.774890124797821,-0.8400424718856812,-0.4819578528404236,49.23539733886719,100.49853515625,-25.35386657714844
208954,-0.0406036376953125,0.4579925537109375,-0.1428070068359375,-0.5708845257759094,-0.6384294629096985,-0.5344953536987305,48.85652160644531,100.5614471435547,-24.9466552734375
208955,-0.1920318603515625,0.7740631103515625,-0.3248291015625,0.2013600170612335,-0.1784933060407639,-0.7503440380096436,48.13644409179688,100.8680267333984,-24.10063171386719
208956,-0.1920318603515625,0.7740631103515625,-0.3248291015625,0.2013600170612335,-0.1784933060407639,-0.7503440380096436,48.13644409179688,100.8680267333984,-24.10063171386719
208957,-0.401336669921875,1.074188232421875,-0.690032958984375,1.410030364990234,0.147101566195488,-0.8717913627624512,47.30194091796875,100.8993225097656,-23.91824340820312
208958,-0.5513153076171875,1.165390014648438,-0.7777099609375,1.410030364990234,0.147101566195488,-0.8717913627624512,46.75050354003906,100.7824859619141,-24.1417236328125
208959,-0.6866455078125,1.309371948242188,-0.81787109375,1.316298246383667,0.3217226266860962,-0.8641992211341858,46.28900146484375,100.6440887451172,-24.63471984863281
208960,-0.6866455078125,1.309371948242188,-0.81787109375,1.316298246383667,0.3217226266860962,-0.8641992211341858,46.28900146484375,100.6440887451172,-24.63471984863281
208961,-0.6745758056640625,1.7786865234375,-0.3462982177734375,0.6089426875114441,0.2785935401916504,-1.648046374320984,45.39964294433594,100.4082336425781,-25.85012817382812
208962,-0.7542877197265625,2.157821655273438,-0.387237548828125,0.6089426875114441,0.2785935401916504,-1.648046374320984,45.05467224121094,100.2876739501953,-26.34552001953125
208963,-0.94293212890625,2.566009521484375,-0.58013916015625,1.053619265556335,-0.0924979746341705,-2.079306125640869,44.48847961425781,100.0652465820312,-26.5899658203125
208964,-0.94293212890625,2.566009521484375,-0.58013916015625,1.053619265556335,-0.0924979746341705,-2.079306125640869,44.48847961425781,100.0652465820312,-26.5899658203125
208965,-1.39453125,2.84686279296875,-0.9139251708984376,1.688623666763306,0.1767153888940811,-1.250970125198364,42.73867797851562,99.79597473144533,-27.74392700195312
208966,-1.147781372070312,3.087173461914062,-1.157455444335938,0.9589813947677612,0.2010992914438248,-0.3122255504131317,41.65351867675781,99.51365661621094,-28.58255004882812
208967,-0.63177490234375,3.425613403320312,-0.899505615234375,0.0019326560432091,-0.0239561982452869,0.1938078254461288,40.97496032714844,99.21951293945312,-29.29304504394531
208968,-0.63177490234375,3.425613403320312,-0.899505615234375,0.0019326560432091,-0.0239561982452869,0.1938078254461288,40.97496032714844,99.21951293945312,-29.29304504394531
208969,-0.7080078125,3.5389404296875,0.154815673828125,0.0958157405257225,0.4166102707386017,0.8350786566734314,40.86518859863281,99.042724609375,-29.6827392578125
208970,-0.9462432861328124,3.469131469726562,0.30718994140625,0.5466409921646118,0.9235967993736268,1.043574333190918,41.09939575195312,99.12249755859376,-29.59356689453125
208971,-1.068496704101562,3.194595336914062,0.1483001708984375,0.7953373193740845,1.104660272598267,1.266469478607178,41.55035400390625,99.36795043945312,-29.99806213378906
208972,-1.068496704101562,3.194595336914062,0.1483001708984375,0.7953373193740845,1.104660272598267,1.266469478607178,41.55035400390625,99.36795043945312,-29.99806213378906
208973,-0.889923095703125,2.578353881835938,0.1056671142578125,0.9622434973716736,0.9040169715881348,1.195199847221375,42.29116821289062,99.41766357421876,-30.494384765625
208974,-0.4649200439453125,1.59588623046875,0.331756591796875,1.166357755661011,0.8023055195808411,0.8037675619125366,44.03811645507812,99.47257995605467,-32.00375366210938
208975,-0.2933807373046875,1.415878295898438,0.4397430419921875,1.237349152565002,0.8227322101593018,0.6366060376167297,44.97604370117188,99.3588409423828,-32.62193298339844
208976,-0.2933807373046875,1.415878295898438,0.4397430419921875,1.237349152565002,0.8227322101593018,0.6366060376167297,44.97604370117188,99.3588409423828,-32.62193298339844
208977,-0.152557373046875,1.219833374023438,0.4305877685546875,1.109996795654297,0.6737709641456604,0.7058979868888855,45.86538696289062,99.20697021484376,-33.35105895996094
208978,0.0085906982421875,0.7561492919921875,0.40911865234375,0.7801914215087891,-0.2053182721138,1.224523067474365,47.34483337402344,98.47555541992188,-34.49259948730469
208979,0.073974609375,0.547332763671875,0.400421142578125,0.6351809501647949,-0.6963492631912231,1.454435586929321,48.03634643554688,98.17701721191406,-34.80519104003906
208980,0.133544921875,0.3886260986328125,0.4621734619140625,0.4780118465423584,-0.9743363857269288,1.653231501579285,48.69004821777344,97.83805847167967,-35.05348205566406
208981,0.133544921875,0.3886260986328125,0.4621734619140625,0.4780118465423584,-0.9743363857269288,1.653231501579285,48.69004821777344,97.83805847167967,-35.05348205566406
208982,0.045501708984375,0.2484588623046875,0.6013946533203125,0.1076590865850449,-0.1967796385288239,1.548773288726807,49.92085266113281,97.40811157226562,-35.40000915527344
208983,-0.0414276123046875,0.2067718505859375,0.48358154296875,-0.2125633955001831,0.3959726393222809,1.221774935722351,50.51229858398438,97.36929321289062,-35.3507080078125
208984,-0.0414276123046875,0.2067718505859375,0.48358154296875,-0.2125633955001831,0.3959726393222809,1.221774935722351,50.51229858398438,97.36929321289062,-35.3507080078125
208985,-0.167083740234375,0.1791534423828125,0.3125152587890625,-0.5692993998527527,0.6860896944999695,0.8379303216934204,51.02626037597656,97.4144287109375,-35.37033081054688
208986,-0.2926177978515625,0.15771484375,0.352264404296875,-1.272276163101196,0.9052377343177797,0.1502454280853271,52.13101196289062,97.65492248535156,-35.01104736328125
208987,-0.3371734619140625,0.1224365234375,0.3830718994140625,-1.454442858695984,0.8925975561141968,-0.1496073305606842,52.57577514648438,97.89071655273438,-34.62570190429688
208988,-0.3371734619140625,0.1224365234375,0.3830718994140625,-1.454442858695984,0.8925975561141968,-0.1496073305606842,52.57577514648438,97.89071655273438,-34.62570190429688
208989,-0.3680267333984375,0.0595855712890625,0.350677490234375,-1.393764019012451,0.5080179572105408,-0.4887105524539948,53.01992797851562,98.0049285888672,-33.97425842285156
208990,-0.527069091796875,-0.27606201171875,0.3032073974609375,-1.367704749107361,0.345791220664978,-0.3214587271213531,53.44189453125,98.67933654785156,-32.80177307128906
208991,-0.60430908203125,-0.4026641845703125,0.3069000244140625,-1.430480003356934,0.4388394057750702,0.0093583483248949,53.41986083984375,99.0663604736328,-32.19558715820312
208992,-0.60430908203125,-0.4026641845703125,0.3069000244140625,-1.430480003356934,0.4388394057750702,0.0093583483248949,53.41986083984375,99.0663604736328,-32.19558715820312
208993,-0.583160400390625,-0.3573150634765625,0.233306884765625,-1.699833393096924,0.45323246717453,0.1743172109127045,53.42843627929688,99.39500427246094,-31.61946105957031
208994,-0.515106201171875,-0.065399169921875,-0.0375518798828125,-2.075882434844971,-0.421107292175293,-0.2907972037792206,53.61335754394531,100.0472717285156,-30.31903076171875
208995,-0.481842041015625,0.1520843505859375,0.075103759765625,-2.249837398529053,-0.5720056891441345,-0.4943774938583374,53.74314880371094,100.2744903564453,-29.39804077148438
208996,-0.256317138671875,0.656707763671875,0.42376708984375,-2.234822750091553,-0.1237304657697678,-0.8940977454185486,53.05259704589844,101.12890625,-26.30966186523438
208997,-0.256317138671875,0.656707763671875,0.42376708984375,-2.234822750091553,-0.1237304657697678,-0.8940977454185486,53.05259704589844,101.12890625,-26.30966186523438
208998,-0.256317138671875,0.656707763671875,0.42376708984375,-2.234822750091553,-0.1237304657697678,-0.8940977454185486,53.05259704589844,101.12890625,-26.30966186523438
208999,-0.177734375,0.72808837890625,0.4803314208984375,-2.234822750091553,-0.1237304657697678,-0.8940977454185486,52.77973937988281,101.3366394042969,-25.05131530761719
209000,-0.13604736328125,0.80401611328125,0.5144195556640625,-1.798449754714966,0.0679859742522239,-0.7380996346473694,52.18977355957031,101.5882873535156,-23.95370483398438
209001,-0.13604736328125,0.80401611328125,0.5144195556640625,-1.798449754714966,0.0679859742522239,-0.7380996346473694,52.18977355957031,101.5882873535156,-23.95370483398438
209002,-0.1182098388671875,0.897674560546875,0.470703125,-1.490755796432495,0.069214753806591,-0.7436968088150024,51.20014953613281,102.0880432128906,-21.94956970214844
209003,-0.1056365966796875,0.8345489501953125,0.3742828369140625,-1.258649587631226,-0.0427852794528007,-0.8498847484588623,50.71304321289062,102.2857208251953,-20.94631958007812
209004,-0.1056365966796875,0.8345489501953125,0.3742828369140625,-1.258649587631226,-0.0427852794528007,-0.8498847484588623,50.71304321289062,102.2857208251953,-20.94631958007812
209005,-0.094207763671875,0.6769866943359375,0.2447967529296875,-1.128478765487671,-0.7714865803718567,-1.190625309944153,50.29995727539062,102.5471496582031,-20.02032470703125
209006,-0.1531524658203125,0.4407806396484375,-0.04925537109375,-1.124988198280334,-1.241697192192078,-1.34619677066803,49.40937805175781,102.5932159423828,-18.758544921875
209007,-0.169647216796875,0.4168853759765625,-0.25177001953125,-0.7672130465507507,-2.451789617538452,-1.53433895111084,48.8089599609375,102.5927429199219,-18.36222839355469
209008,-0.169647216796875,0.4168853759765625,-0.25177001953125,-0.7672130465507507,-2.451789617538452,-1.53433895111084,48.8089599609375,102.5927429199219,-18.36222839355469
209009,-0.18804931640625,0.373504638671875,-0.30780029296875,-0.7672130465507507,-2.451789617538452,-1.53433895111084,48.2060546875,102.6009979248047,-17.8890380859375
209010,-0.2960968017578125,0.1643829345703125,-0.19805908203125,-0.2771096229553223,-1.939162135124207,-1.532479047775269,46.33271789550781,102.8265228271484,-17.01260375976562
209011,-0.341278076171875,0.0539703369140625,-0.1786956787109375,-0.0375154167413711,-0.8761240839958191,-1.453915476799011,45.37547302246094,102.9036712646484,-16.61434936523438
209012,-0.341278076171875,0.0539703369140625,-0.1786956787109375,-0.0375154167413711,-0.8761240839958191,-1.453915476799011,45.37547302246094,102.9036712646484,-16.61434936523438
209013,-0.2492218017578125,0.1390380859375,-0.4636993408203125,0.1588245332241058,0.5157629251480103,-0.9190065264701844,43.5330810546875,103.026123046875,-16.437255859375
209014,-0.1493682861328125,0.3150787353515625,-0.561187744140625,0.1373551934957504,0.1147518828511238,-0.6725555062294006,42.80000305175781,103.0263061523438,-16.53602600097656
209015,-0.1152496337890625,0.467132568359375,-0.517303466796875,0.0564819164574146,-0.6782775521278381,-0.5042538642883301,42.36968994140625,102.9571838378906,-16.69717407226562
209016,-0.1152496337890625,0.467132568359375,-0.517303466796875,0.0564819164574146,-0.6782775521278381,-0.5042538642883301,42.36968994140625,102.9571838378906,-16.69717407226562
209017,-0.122650146484375,0.615478515625,-0.3577880859375,-0.0584441348910331,-1.369698643684387,-0.3897115588188171,42.14106750488281,102.7783050537109,-16.88723754882812
209018,-0.141937255859375,0.8535919189453125,-0.072235107421875,-0.1727222353219986,-1.357721090316772,-0.2997733950614929,41.75642395019531,102.3988342285156,-16.55476379394531
209019,-0.161773681640625,0.93206787109375,-0.100433349609375,-0.0453163497149944,-0.8890435695648193,-0.3345406949520111,41.63729858398438,102.3163909912109,-16.2471923828125
209020,-0.161773681640625,0.93206787109375,-0.100433349609375,-0.0453163497149944,-0.8890435695648193,-0.3345406949520111,41.63729858398438,102.3163909912109,-16.2471923828125
209021,-0.2672576904296875,0.954803466796875,-0.2317352294921875,0.4306544363498688,-0.3223591446876526,-0.4622392654418945,41.28230285644531,102.3970336914062,-15.7630615234375
209022,-0.3653717041015625,0.9688568115234376,-0.1898193359375,0.6400926113128662,-0.243970051407814,-0.5081945061683655,41.16522216796875,102.286376953125,-15.83914184570312
209023,-0.4499359130859375,1.0489501953125,-0.1145477294921875,0.7758216857910156,-0.0752998143434524,-0.5832927227020264,41.03804016113281,102.2242584228516,-15.7919921875
209024,-0.4499359130859375,1.0489501953125,-0.1145477294921875,0.7758216857910156,-0.0752998143434524,-0.5832927227020264,41.03804016113281,102.2242584228516,-15.7919921875
209025,-0.70111083984375,1.41802978515625,0.0169677734375,0.8981577157974243,1.012192726135254,-1.042173266410828,40.66548156738281,102.1341247558594,-16.47004699707031
209026,-0.9225921630859376,1.6807861328125,0.0738372802734375,0.8981577157974243,1.012192726135254,-1.042173266410828,40.39945983886719,102.2128143310547,-17.04713439941406
209027,-1.271804809570312,1.871673583984375,0.211517333984375,0.8282265663146973,1.276520729064941,-1.0682293176651,39.98908996582031,102.3849029541016,-17.66238403320312
209028,-1.271804809570312,1.871673583984375,0.211517333984375,0.8282265663146973,1.276520729064941,-1.0682293176651,39.98908996582031,102.3849029541016,-17.66238403320312
209029,-2.058013916015625,2.247406005859375,0.65234375,0.6400063633918762,1.651649117469788,-0.4853376746177673,39.26478576660156,102.6576538085938,-19.30686950683594
209030,-2.209503173828125,2.558197021484375,0.6374664306640625,0.2827800214290619,1.283668160438538,-0.4698439240455627,39.12498474121094,102.7079925537109,-20.01406860351562
209031,-2.111083984375,2.752670288085938,0.62237548828125,-0.2681262493133545,0.1080606877803802,-0.3712869882583618,39.14738464355469,102.7823333740234,-20.45680236816406
209032,-2.111083984375,2.752670288085938,0.62237548828125,-0.2681262493133545,0.1080606877803802,-0.3712869882583618,39.14738464355469,102.7823333740234,-20.45680236816406
209033,-1.675643920898438,2.697174072265625,0.7618560791015625,-0.7440446019172668,-1.143158435821533,0.0523438975214958,39.12794494628906,102.8493957519531,-20.94296264648438
209034,-0.8612823486328125,2.277938842773438,1.235565185546875,-1.255339860916138,-1.13838255405426,0.7488601207733154,38.6300048828125,103.1458282470703,-20.46583557128906
209035,-0.6680755615234375,2.2479248046875,1.262435913085938,-0.8597312569618225,-0.7357999682426453,0.8117696046829224,38.11830139160156,103.6520538330078,-19.75650024414062
209036,-0.46630859375,2.265533447265625,1.317779541015625,-0.1579395681619644,-0.5896995067596436,0.763982355594635,37.79246520996094,104.1249389648438,-19.00616455078125
209037,-0.46630859375,2.265533447265625,1.317779541015625,-0.1579395681619644,-0.5896995067596436,0.763982355594635,37.79246520996094,104.1249389648438,-19.00616455078125
209038,-0.423309326171875,2.039779663085938,1.325469970703125,0.5177355408668518,-0.5076214075088501,0.3720499873161316,37.68070983886719,104.4526824951172,-18.37373352050781
209039,-0.6360015869140625,1.633758544921875,1.119674682617188,2.057764291763306,0.3046760261058807,-0.2020803987979889,38.21372985839844,104.3769989013672,-17.97007751464844
209040,-0.6360015869140625,1.633758544921875,1.119674682617188,2.057764291763306,0.3046760261058807,-0.2020803987979889,38.21372985839844,104.3769989013672,-17.97007751464844
209041,-0.7116546630859375,1.4024658203125,0.791534423828125,2.758405208587646,0.5013219714164734,-0.4069898724555969,38.57894897460938,104.259033203125,-18.27854919433594
209042,-0.603912353515625,1.155563354492188,0.474822998046875,2.663815498352051,-0.8899407982826233,0.1311178058385849,39.40132141113281,103.3236694335938,-20.31388854980469
209043,-0.6082916259765625,1.199478149414062,0.518218994140625,1.712417364120483,-1.14349901676178,0.4027503728866577,40.18295288085938,102.4076995849609,-21.57441711425781
209044,-0.3312225341796875,1.08209228515625,0.35540771484375,0.7937458157539368,-0.86529940366745,0.9425246715545654,41.38095092773438,100.8332672119141,-23.54463195800781
209045,-0.3312225341796875,1.08209228515625,0.35540771484375,0.7937458157539368,-0.86529940366745,0.9425246715545654,41.38095092773438,100.8332672119141,-23.54463195800781
209046,-0.124969482421875,0.5523834228515625,-0.7606964111328125,1.101028800010681,-1.371761560440063,1.548027634620667,41.80870056152344,100.8322906494141,-24.65869140625
209047,-0.11376953125,0.3470916748046875,-0.5462493896484375,1.913110256195068,-1.928291082382202,1.642938375473022,41.89862060546875,101.0394744873047,-24.99482727050781
209048,-0.1553497314453125,0.266571044921875,0.1917877197265625,2.260965347290039,-0.7799589037895203,1.469627380371094,42.08381652832031,101.1574859619141,-25.44085693359375
209049,-0.1553497314453125,0.266571044921875,0.1917877197265625,2.260965347290039,-0.7799589037895203,1.469627380371094,42.08381652832031,101.1574859619141,-25.44085693359375
209050,-0.0727691650390625,0.1441802978515625,0.1490020751953125,1.583146691322327,1.502527832984924,1.014515519142151,43.0296630859375,100.8228302001953,-27.19331359863281
209051,0.0107574462890625,0.104949951171875,0.0324859619140625,0.9956672191619872,1.306552410125732,0.930303394794464,43.81265258789062,100.4341278076172,-28.24754333496094
209052,0.0107574462890625,0.104949951171875,0.0324859619140625,0.9956672191619872,1.306552410125732,0.930303394794464,43.81265258789062,100.4341278076172,-28.24754333496094
209053,0.083587646484375,0.1090087890625,0.1275177001953125,0.408594161272049,0.7977964878082275,0.9090580344200134,44.60108947753906,100.1181030273438,-28.98748779296875
209054,0.17236328125,0.0935821533203125,0.36328125,-0.245073139667511,0.1985258758068085,1.068622350692749,45.92485046386719,99.694580078125,-29.18545532226562
209055,0.1949310302734375,0.114166259765625,0.347503662109375,-0.2643685340881348,0.096745453774929,1.135047197341919,46.59684753417969,99.75244140625,-29.05694580078125
209056,0.215728759765625,0.123779296875,0.2180938720703125,-0.0967574343085289,-0.1333023905754089,1.164124131202698,47.10244750976562,99.84747314453124,-28.9124755859375
209057,0.215728759765625,0.123779296875,0.2180938720703125,-0.0967574343085289,-0.1333023905754089,1.164124131202698,47.10244750976562,99.84747314453124,-28.9124755859375
209058,0.2003631591796875,0.191314697265625,0.3284149169921875,0.2631802260875702,-0.2755266427993774,1.157736301422119,48.12008666992188,99.875244140625,-28.61845397949219
209059,0.13262939453125,0.268218994140625,0.5025482177734375,0.2066943198442459,0.3368256986141205,1.100826740264893,48.48056030273438,99.84007263183594,-28.66262817382812
209060,0.13262939453125,0.268218994140625,0.5025482177734375,0.2066943198442459,0.3368256986141205,1.100826740264893,48.48056030273438,99.84007263183594,-28.66262817382812
209061,-0.0104522705078125,0.4509124755859375,0.543060302734375,-0.5794745683670044,1.9775550365448,0.7539435625076294,49.46292114257812,99.9209442138672,-28.79800415039062
209062,-0.102142333984375,0.554473876953125,0.525634765625,-1.89728045463562,3.041905641555786,0.04063531011343,50.104248046875,99.9772491455078,-28.59617614746094
209063,-0.2106170654296875,0.6103668212890625,0.50042724609375,-1.89728045463562,3.041905641555786,0.04063531011343,50.749267578125,100.1154632568359,-28.10987854003906
209064,-0.2106170654296875,0.6103668212890625,0.50042724609375,-1.89728045463562,3.041905641555786,0.04063531011343,50.749267578125,100.1154632568359,-28.10987854003906
209065,-0.3310089111328125,0.632080078125,0.4510498046875,-2.523750066757202,2.545607328414917,-0.5726552605628967,51.30157470703125,100.3887634277344,-27.51890563964844
209066,-0.62481689453125,0.5888671875,0.5947723388671875,-2.29245400428772,2.034266471862793,-0.6400875449180603,51.97579956054688,100.8159942626953,-25.49543762207031
209067,-0.731414794921875,0.5989227294921875,0.6268463134765625,-1.863234281539917,1.558138608932495,-0.5580039024353027,52.03009033203125,101.0907745361328,-24.29745483398438
209068,-0.731414794921875,0.5989227294921875,0.6268463134765625,-1.863234281539917,1.558138608932495,-0.5580039024353027,52.03009033203125,101.0907745361328,-24.29745483398438
209069,-0.76617431640625,0.6425933837890625,0.642120361328125,-1.489100337028503,1.174368262290955,-0.4416996538639069,51.87606811523438,101.5361938476562,-23.2093505859375
209070,-0.60528564453125,0.63299560546875,0.5908660888671875,-1.160869836807251,0.9357336163520812,-0.4574242830276489,51.36985778808594,102.0879974365234,-21.86541748046875
209071,-0.4052276611328125,0.569061279296875,0.3966217041015625,-1.092372536659241,0.5482098460197449,-0.5726504921913147,51.08770751953125,102.3447875976562,-21.23695373535156
209072,-0.4052276611328125,0.569061279296875,0.3966217041015625,-1.092372536659241,0.5482098460197449,-0.5726504921913147,51.08770751953125,102.3447875976562,-21.23695373535156
209073,-0.29541015625,0.496826171875,0.2434539794921875,-0.8949379920959473,-0.6613630056381226,-0.874488353729248,50.85775756835938,102.4841918945312,-20.76158142089844
209074,-0.163818359375,0.3370361328125,0.1102752685546875,-0.8576675653457642,-1.243662714958191,-0.9858300685882568,50.26016235351562,102.4701538085938,-19.77543640136719
209075,-0.10589599609375,0.2588653564453125,0.093414306640625,-0.8900635838508606,-1.665412068367004,-1.063060879707336,49.94271850585938,102.37158203125,-19.23161315917969
209076,-0.10589599609375,0.2588653564453125,0.093414306640625,-0.8900635838508606,-1.665412068367004,-1.063060879707336,49.94271850585938,102.37158203125,-19.23161315917969
209077,-0.05755615234375,0.1886138916015625,0.0661468505859375,-0.9525336027145386,-1.940373539924622,-1.089516997337341,49.4517822265625,102.1979522705078,-18.876708984375
209078,0.0689544677734375,0.1598663330078125,-0.078369140625,-0.968048930168152,-2.297918796539307,-0.8587077856063843,48.23228454589844,102.1090240478516,-17.82362365722656
209079,0.144805908203125,0.1996307373046875,-0.1466217041015625,-0.8104249238967896,-2.48597264289856,-0.503377377986908,47.68775939941406,102.0924224853516,-17.292236328125
209080,0.0890960693359375,0.3111419677734375,-0.1638031005859375,-0.5137136578559875,-2.389302730560303,-0.1374558657407761,47.04522705078125,102.1694030761719,-16.88697814941406
209081,0.0890960693359375,0.3111419677734375,-0.1638031005859375,-0.5137136578559875,-2.389302730560303,-0.1374558657407761,47.04522705078125,102.1694030761719,-16.88697814941406
209082,-0.089080810546875,0.476470947265625,-0.1306304931640625,0.153189018368721,-1.610235333442688,-0.3439983725547791,45.82518005371094,102.4437255859375,-16.077880859375
209083,-0.1029052734375,0.5181732177734375,-0.0997314453125,0.4740945994853973,-0.8618149161338806,-0.4518004953861237,45.34428405761719,102.7066497802734,-15.93768310546875
209084,-0.1029052734375,0.5181732177734375,-0.0997314453125,0.4740945994853973,-0.8618149161338806,-0.4518004953861237,45.34428405761719,102.7066497802734,-15.93768310546875
209085,-0.1393280029296875,0.57977294921875,-0.12982177734375,0.7849142551422119,0.1009356677532196,-0.4824143052101135,44.83064270019531,102.8724670410156,-15.91354370117188
209086,-0.1813507080078125,0.63677978515625,-0.2700347900390625,1.013857960700989,0.8739525079727173,-0.4495061635971069,44.30337524414062,102.960205078125,-16.24281311035156
209087,-0.2546844482421875,0.803955078125,-0.62359619140625,1.074013471603394,0.6470288038253784,-0.3880167007446289,43.70474243164062,102.8674163818359,-17.01309204101562
209088,-0.2546844482421875,0.803955078125,-0.62359619140625,1.074013471603394,0.6470288038253784,-0.3880167007446289,43.70474243164062,102.8674163818359,-17.01309204101562
209089,-0.3107147216796875,0.8772735595703125,-0.5522003173828125,0.8754183053970337,-0.0219811983406543,-0.4324808418750763,43.54388427734375,102.8589019775391,-17.38198852539062
209090,-0.3848876953125,0.9698333740234376,-0.32537841796875,0.519813597202301,-0.7680937647819519,-0.5693156719207764,43.1287841796875,102.5865631103516,-18.28141784667969
209091,-0.379638671875,1.0552978515625,-0.31939697265625,0.6424292922019958,-0.878528356552124,-0.55238938331604,42.80947875976562,102.4757537841797,-18.40339660644531
209092,-0.379638671875,1.0552978515625,-0.31939697265625,0.6424292922019958,-0.878528356552124,-0.55238938331604,42.80947875976562,102.4757537841797,-18.40339660644531
209093,-0.44793701171875,1.5379638671875,-0.2124176025390625,1.644284963607788,-0.376426100730896,-0.3858337104320526,42.07513427734375,102.1820983886719,-18.85264587402344
209094,-0.5531463623046875,1.835952758789062,-0.132476806640625,2.487444639205933,0.8790404796600342,-0.4679861068725586,41.72715759277344,102.0668029785156,-19.21717834472656
209095,-0.72943115234375,2.190353393554688,-0.0762939453125,2.434966325759888,1.161967039108276,-0.8560206890106201,41.43357849121094,102.0951232910156,-20.01695251464844
209096,-0.72943115234375,2.190353393554688,-0.0762939453125,2.434966325759888,1.161967039108276,-0.8560206890106201,41.43357849121094,102.0951232910156,-20.01695251464844
209097,-0.926361083984375,2.647048950195312,-0.27777099609375,2.434966325759888,1.161967039108276,-0.8560206890106201,41.07009887695312,101.9915771484375,-21.08610534667969
209098,-1.1732177734375,2.993972778320312,-0.5746002197265625,1.642776012420654,-0.1968547403812408,-0.9300885200500488,40.32209777832031,101.6652374267578,-23.3551025390625
209099,-1.075820922851562,2.87030029296875,-0.357208251953125,1.159995436668396,-0.4793055951595306,-0.0975257605314254,39.90135192871094,101.3026275634766,-24.40721130371094
209100,-1.075820922851562,2.87030029296875,-0.357208251953125,1.159995436668396,-0.4793055951595306,-0.0975257605314254,39.90135192871094,101.3026275634766,-24.40721130371094
209101,-0.6421051025390625,3.057540893554688,0.3363189697265625,1.210074067115784,-0.2349565923213959,1.04344117641449,39.4525146484375,101.1248168945312,-25.9891357421875
209102,-0.6421051025390625,3.057540893554688,0.3363189697265625,1.210074067115784,-0.2349565923213959,1.04344117641449,39.4525146484375,101.1248168945312,-25.9891357421875
209103,-0.745697021484375,3.437957763671875,0.531097412109375,1.843803882598877,0.8791790008544922,1.24738597869873,40.09780883789062,101.0680389404297,-27.40080261230469
209104,-0.7696990966796875,3.094619750976562,0.46954345703125,2.165871620178223,0.898924708366394,1.143310785293579,40.80683898925781,100.9950561523438,-28.26863098144531
209105,-0.7696990966796875,3.094619750976562,0.46954345703125,2.165871620178223,0.898924708366394,1.143310785293579,40.80683898925781,100.9950561523438,-28.26863098144531
209106,-0.6917266845703125,2.077804565429688,0.35540771484375,1.914000868797302,0.2767328023910522,0.7053765654563904,42.665283203125,100.7501525878906,-30.59809875488281
209107,-0.603057861328125,1.650970458984375,0.264068603515625,1.617126226425171,0.0027334685437381,0.6343261003494263,43.47047424316406,100.4785614013672,-31.80146789550781
209108,-0.603057861328125,1.650970458984375,0.264068603515625,1.617126226425171,0.0027334685437381,0.6343261003494263,43.47047424316406,100.4785614013672,-31.80146789550781
209109,-0.437164306640625,1.1392822265625,0.1832275390625,1.396445035934448,-0.4332542419433594,0.6036075949668884,44.78526306152344,99.76863098144533,-33.68731689453125
209110,-0.4036865234375,0.92303466796875,0.2088623046875,1.35508394241333,-0.4903508126735687,0.5182231664657593,45.29811096191406,99.42610168457033,-34.30868530273438
209111,-0.3727569580078125,0.686614990234375,0.1788330078125,1.30739951133728,-0.513232409954071,0.4928786754608154,45.72140502929688,99.04045104980467,-35.03271484375
209112,-0.3727569580078125,0.686614990234375,0.1788330078125,1.30739951133728,-0.513232409954071,0.4928786754608154,45.72140502929688,99.04045104980467,-35.03271484375
209113,-0.337554931640625,0.3058624267578125,0.123199462890625,1.292543888092041,-0.4924922585487366,0.6717629432678223,46.46974182128906,98.2771453857422,-36.26876831054688
209114,-0.3226318359375,0.2001495361328125,0.1079864501953125,1.293949007987976,-0.3565591871738434,0.7954720854759216,46.71342468261719,97.9840087890625,-36.75030517578125
209115,-0.2962799072265625,0.1308746337890625,0.1423797607421875,1.262601733207703,-0.1557360738515854,0.866054892539978,46.92857360839844,97.638916015625,-37.270751953125
209116,-0.2619476318359375,0.0964813232421875,0.2668914794921875,0.7861078977584839,0.9853965044021606,0.8327241539955139,47.22900390625,97.56735229492188,-38.06588745117188
209117,-0.2619476318359375,0.0964813232421875,0.2668914794921875,0.7861078977584839,0.9853965044021606,0.8327241539955139,47.22900390625,97.56735229492188,-38.06588745117188
209118,-0.235931396484375,0.059539794921875,0.3242950439453125,0.7861078977584839,0.9853965044021606,0.8327241539955139,47.56222534179688,97.28620910644533,-38.648681640625
209119,-0.1717376708984375,-0.026824951171875,0.204681396484375,0.0016985641559585,2.169243335723877,0.7669752240180969,48.66712951660156,96.6400146484375,-39.41275024414062
209120,-0.16253662109375,0.005615234375,0.1397247314453125,-0.2035440653562546,2.242377042770386,0.6954807639122009,49.38409423828125,96.55900573730467,-39.64462280273438
209121,-0.16253662109375,0.005615234375,0.1397247314453125,-0.2035440653562546,2.242377042770386,0.6954807639122009,49.38409423828125,96.55900573730467,-39.64462280273438
209122,-0.1261444091796875,0.103515625,0.2548065185546875,-0.3786274790763855,2.237484931945801,0.2312657088041306,51.24810791015625,96.53466796875,-39.62937927246094
209123,-0.076080322265625,0.1153564453125,0.28057861328125,-0.3786274790763855,2.237484931945801,0.2312657088041306,52.11688232421875,96.5594482421875,-39.46807861328125
209124,-0.076080322265625,0.1153564453125,0.28057861328125,-0.3786274790763855,2.237484931945801,0.2312657088041306,52.11688232421875,96.5594482421875,-39.46807861328125
209125,0.025482177734375,0.1460723876953125,0.3087310791015625,-0.7729873061180115,1.629609346389771,0.0945739075541496,53.47395324707031,96.8154754638672,-38.97421264648438
209126,0.0228729248046875,0.2299957275390625,0.410614013671875,-0.7729873061180115,1.629609346389771,0.0945739075541496,54.04301452636719,96.85911560058594,-38.72259521484375
209127,-0.0347747802734375,0.36444091796875,0.5422515869140625,-1.096894502639771,1.493752717971802,0.0025323999579995,54.49069213867188,96.99041748046876,-38.26321411132812
209128,-0.0347747802734375,0.36444091796875,0.5422515869140625,-1.096894502639771,1.493752717971802,0.0025323999579995,54.49069213867188,96.99041748046876,-38.26321411132812
209129,-0.1474456787109375,0.5252227783203125,0.6996612548828125,-1.887308716773987,1.462819457054138,-0.2922267913818359,54.86314392089844,97.32337951660156,-37.80558776855469
209130,-0.442108154296875,0.82958984375,0.9679718017578124,-2.263828754425049,1.467033982276917,-0.4291156828403473,55.36470031738281,97.88876342773438,-36.43367004394531
209131,-0.5859527587890625,0.9392242431640624,1.030929565429688,-2.519591331481934,1.450383067131042,-0.5345827341079712,55.61405944824219,98.41447448730467,-35.52568054199219
209132,-0.69940185546875,1.0101318359375,0.9253387451171876,-2.622730255126953,1.295360207557678,-0.6408412456512451,55.74114990234375,98.96456909179688,-34.27638244628906
209133,-0.69940185546875,1.0101318359375,0.9253387451171876,-2.622730255126953,1.295360207557678,-0.6408412456512451,55.74114990234375,98.96456909179688,-34.27638244628906
209134,-0.6960906982421875,0.9029083251953124,0.47650146484375,-2.411885499954224,-0.2359494119882584,-0.9915143251419068,55.42726135253906,100.1525115966797,-31.72755432128906
209135,-0.5447540283203125,0.733642578125,0.3049774169921875,-2.277420997619629,-0.6623830199241638,-1.104102849960327,55.19236755371094,100.5472869873047,-30.33856201171875
209136,-0.4162750244140625,0.5595855712890625,0.186981201171875,-2.164373159408569,-0.9861056804656982,-1.158025503158569,54.73573303222656,101.0184783935547,-29.13807678222656
209137,-0.4162750244140625,0.5595855712890625,0.186981201171875,-2.164373159408569,-0.9861056804656982,-1.158025503158569,54.73573303222656,101.0184783935547,-29.13807678222656
209138,-0.24761962890625,0.3338623046875,0.0241851806640625,-2.07408618927002,-1.225442886352539,-1.186107516288757,53.47450256347656,101.8337707519531,-26.94757080078125
209139,-0.1822357177734375,0.2792205810546875,-0.0667572021484375,-1.990370631217957,-1.435103178024292,-1.198151111602783,52.76762390136719,102.2290649414062,-26.00357055664062
209140,-0.1822357177734375,0.2792205810546875,-0.0667572021484375,-1.990370631217957,-1.435103178024292,-1.198151111602783,52.76762390136719,102.2290649414062,-26.00357055664062
209141,-0.0872802734375,0.2681884765625,-0.355560302734375,-1.827699184417725,-1.744659185409546,-1.174677491188049,51.93792724609375,102.4922180175781,-24.9788818359375
209142,0.1623992919921875,0.363037109375,-1.063507080078125,-0.0292835868895053,-5.144619941711426,-0.7613080143928528,50.44668579101562,102.6465454101562,-23.00840759277344
209143,0.083587646484375,0.36114501953125,-0.3242645263671875,0.6949396133422852,-5.26506233215332,-0.6409426927566528,49.60466003417969,102.6542663574219,-22.36517333984375
209144,0.0582427978515625,0.2845306396484375,0.238861083984375,0.9914778470993042,-3.186516761779785,-0.4436653256416321,48.62937927246094,102.5543823242188,-22.15016174316406
209145,0.0582427978515625,0.2845306396484375,0.238861083984375,0.9914778470993042,-3.186516761779785,-0.4436653256416321,48.62937927246094,102.5543823242188,-22.15016174316406
209146,0.0892181396484375,0.34857177734375,-0.62664794921875,1.072638154029846,1.928483843803406,-0.290876030921936,46.73316955566406,102.6773376464844,-22.69602966308594
209147,0.09893798828125,0.3081817626953125,-0.800262451171875,0.980368196964264,1.496652841567993,-0.4555882811546326,46.55563354492188,102.5303955078125,-23.13336181640625
209148,0.0877685546875,0.301849365234375,-0.64520263671875,0.5678679943084717,0.7846407294273376,-0.5685755610466003,46.55647277832031,102.4832916259766,-23.54019165039062
209149,0.0877685546875,0.301849365234375,-0.64520263671875,0.5678679943084717,0.7846407294273376,-0.5685755610466003,46.55647277832031,102.4832916259766,-23.54019165039062
209150,0.026947021484375,0.3669586181640625,-0.5258941650390625,-0.3415655791759491,-0.2323320358991623,-0.6994659304618835,46.48153686523438,102.2982482910156,-23.87115478515625
209151,-0.2056732177734375,0.56365966796875,-0.5101470947265625,-0.3876409232616425,-0.5435530543327332,-0.6823820471763611,46.04803466796875,102.1465301513672,-23.97206115722656
209152,-0.282379150390625,0.720916748046875,-0.51837158203125,0.2519872486591339,-0.3780927062034607,-0.6998071074485779,45.62374877929688,102.1512603759766,-23.7965087890625
209153,-0.282379150390625,0.720916748046875,-0.51837158203125,0.2519872486591339,-0.3780927062034607,-0.6998071074485779,45.62374877929688,102.1512603759766,-23.7965087890625
209154,-0.4727783203125,1.136459350585938,-0.6754150390625,0.785662055015564,-0.0858629792928695,-0.7133010625839233,44.67315673828125,102.5383605957031,-23.17352294921875
209155,-0.5518951416015625,1.353103637695312,-0.58245849609375,1.163792610168457,0.4575795531272888,-0.6763052344322205,44.25210571289062,102.3965301513672,-23.23265075683594
209156,-0.5518951416015625,1.353103637695312,-0.58245849609375,1.163792610168457,0.4575795531272888,-0.6763052344322205,44.25210571289062,102.3965301513672,-23.23265075683594
209157,-0.54278564453125,1.542312622070312,-0.33148193359375,1.070680975914001,1.231159329414368,-0.5683215260505676,43.85932922363281,102.388916015625,-23.43434143066406
209158,-0.434661865234375,1.805587768554688,0.1812591552734375,0.9409696459770204,1.12344753742218,-0.6083674430847168,43.33552551269531,101.9958648681641,-24.74131774902344
209159,-0.4843597412109375,2.077560424804688,0.0255279541015625,1.076992511749268,0.6470338702201843,-0.7288214564323425,43.29273986816406,101.8073120117188,-25.38560485839844
209160,-0.4843597412109375,2.077560424804688,0.0255279541015625,1.076992511749268,0.6470338702201843,-0.7288214564323425,43.29273986816406,101.8073120117188,-25.38560485839844
209161,-0.646514892578125,2.40289306640625,-0.1753082275390625,1.504038095474243,-0.3446705639362335,-0.9044001698493958,43.12330627441406,101.7017364501953,-26.01016235351562
209162,-1.0660400390625,2.5877685546875,-0.0436248779296875,1.773927092552185,-0.7178726196289062,-1.004077553749084,42.92962646484375,101.6094665527344,-26.72184753417969
209163,-1.773696899414062,2.530364990234375,-0.873382568359375,1.727418899536133,0.4677072763442993,0.0209026187658309,41.67198181152344,101.5382843017578,-28.78849792480469
209164,-1.773696899414062,2.530364990234375,-0.873382568359375,1.727418899536133,0.4677072763442993,0.0209026187658309,41.67198181152344,101.5382843017578,-28.78849792480469
209165,-1.066146850585938,2.475448608398438,-0.8388671875,1.688836693763733,0.0512301623821258,0.0729359909892082,41.24932861328125,101.5153350830078,-29.78115844726562
209166,-0.67059326171875,2.426422119140625,-0.3120880126953125,1.400470376014709,0.3904444575309753,0.5504783391952515,41.11065673828125,101.2273864746094,-31.584228515625
209167,-0.682952880859375,2.5283203125,-0.04730224609375,1.273577928543091,0.5512043237686157,0.8623483180999756,41.37120056152344,100.9156951904297,-32.41853332519531
209168,-0.682952880859375,2.5283203125,-0.04730224609375,1.273577928543091,0.5512043237686157,0.8623483180999756,41.37120056152344,100.9156951904297,-32.41853332519531
209169,-0.7870635986328125,2.585922241210938,0.4913482666015625,1.439352750778198,0.4812017679214478,1.294583916664124,42.071044921875,100.5001220703125,-33.85125732421875
209170,-0.6678009033203125,2.467926025390625,0.521728515625,1.438949108123779,0.5917120575904846,1.285474300384521,42.74620056152344,100.3888702392578,-34.62374877929688
209171,-0.53436279296875,2.21392822265625,0.390289306640625,1.379962205886841,0.5304009914398193,1.135330080986023,43.52043151855469,100.2157135009766,-35.30911254882812
209172,-0.53436279296875,2.21392822265625,0.390289306640625,1.379962205886841,0.5304009914398193,1.135330080986023,43.52043151855469,100.2157135009766,-35.30911254882812
209173,-0.4053955078125,1.351531982421875,0.397979736328125,1.577468633651733,0.1615529358386993,0.8510568141937256,45.16250610351562,99.60870361328124,-36.845458984375
209174,-0.3130645751953125,1.008010864257812,0.4009857177734375,1.80896258354187,0.1471548229455948,0.8315568566322327,45.81626892089844,99.26075744628906,-37.37113952636719
209175,-0.214508056640625,0.7841949462890625,0.2621002197265625,1.988654255867004,-0.0172903072088956,0.821524977684021,46.4691162109375,98.9582061767578,-38.04754638671875
209176,-0.214508056640625,0.7841949462890625,0.2621002197265625,1.988654255867004,-0.0172903072088956,0.821524977684021,46.4691162109375,98.9582061767578,-38.04754638671875
209177,-0.0975341796875,0.5875396728515625,-0.0400543212890625,1.222719311714172,-1.756537199020386,0.7484992742538452,47.54719543457031,97.77815246582033,-39.79071044921875
209178,-0.06854248046875,0.5604095458984375,-0.1095733642578125,1.222719311714172,-1.756537199020386,0.7484992742538452,47.93670654296875,97.23089599609376,-40.64363098144531
209179,-0.080078125,0.5491943359375,-0.027130126953125,0.5361731648445129,-1.898211717605591,0.6901824474334717,48.04118347167969,96.74177551269533,-41.32565307617188
209180,-0.153656005859375,0.4687042236328125,0.126373291015625,-0.3822003602981567,-0.1256607174873352,0.8238883018493652,47.94010925292969,96.24461364746094,-41.79421997070312
209181,-0.153656005859375,0.4687042236328125,0.126373291015625,-0.3822003602981567,-0.1256607174873352,0.8238883018493652,47.94010925292969,96.24461364746094,-41.79421997070312
209182,-0.3332366943359375,0.330718994140625,0.071929931640625,-0.1627854555845261,0.4929279386997223,0.8859742879867554,47.53717041015625,96.1321258544922,-42.03132629394531
209183,-0.3282318115234375,0.32611083984375,0.10162353515625,0.0457887947559356,0.7830308675765991,0.8106340169906616,47.75724792480469,96.12908935546876,-41.970947265625
209184,-0.3133087158203125,0.2939453125,0.1378326416015625,-0.052334576845169,0.8805342316627502,0.5932239294052124,48.25807189941406,96.11003112792967,-41.91561889648438
209185,-0.3133087158203125,0.2939453125,0.1378326416015625,-0.052334576845169,0.8805342316627502,0.5932239294052124,48.25807189941406,96.11003112792967,-41.91561889648438
209186,-0.2212982177734375,0.1997833251953125,0.1205596923828125,-0.1950746774673462,0.7325032353401184,0.5020356774330139,49.51145935058594,96.00787353515624,-41.827392578125
209187,-0.1507720947265625,0.17730712890625,0.163177490234375,-0.3101573288440704,0.594825804233551,0.4109108448028564,50.18363952636719,95.94938659667967,-41.87301635742188
209188,-0.1507720947265625,0.17730712890625,0.163177490234375,-0.3101573288440704,0.594825804233551,0.4109108448028564,50.18363952636719,95.94938659667967,-41.87301635742188
209189,-0.01861572265625,0.2448883056640625,0.302337646484375,-0.6174011826515198,0.508746862411499,0.2146960496902466,51.20051574707031,95.88905334472656,-41.54487609863281
209190,-0.0006866455078125,0.3428802490234375,0.38531494140625,-0.8847591280937195,0.5820612907409668,0.1145734488964081,51.64579772949219,95.95623779296876,-41.47068786621094
209191,-0.040924072265625,0.4768524169921875,0.4542236328125,-1.244669318199158,0.7378319501876831,-0.0357603952288627,51.97544860839844,96.07748413085938,-41.12435913085938
209192,-0.040924072265625,0.4768524169921875,0.4542236328125,-1.244669318199158,0.7378319501876831,-0.0357603952288627,51.97544860839844,96.07748413085938,-41.12435913085938
209193,-0.1460723876953125,0.5903167724609375,0.500274658203125,-1.65902841091156,0.9552226066589355,-0.1985035091638565,52.13247680664062,96.16744995117188,-40.69477844238281
209194,-0.3600616455078125,0.7044677734375,0.4556121826171875,-2.291875839233398,1.082184314727783,-0.4612997174263,52.51997375488281,96.9110870361328,-39.69877624511719
209195,-0.4313507080078125,0.7061920166015625,0.393798828125,-2.291875839233398,1.082184314727783,-0.4612997174263,52.58831787109375,97.43157958984376,-38.85615539550781
209196,-0.4802398681640625,0.6966400146484375,0.3161468505859375,-2.231564044952393,0.8335385322570801,-0.4918341934680939,52.72317504882812,97.85719299316406,-37.68739318847656
209197,-0.4802398681640625,0.6966400146484375,0.3161468505859375,-2.231564044952393,0.8335385322570801,-0.4918341934680939,52.72317504882812,97.85719299316406,-37.68739318847656
209198,-0.463836669921875,0.6385345458984375,0.036163330078125,-1.999800443649292,-0.1561499238014221,-0.5942079424858093,52.70359802246094,98.91644287109376,-35.2646484375
209199,-0.3656005859375,0.563629150390625,-0.039031982421875,-1.885629057884216,-0.6694297194480896,-0.6364965438842773,52.56431579589844,99.40022277832033,-33.97068786621094
209200,-0.2634429931640625,0.4830169677734375,0.0029144287109375,-1.728429317474365,-0.873140811920166,-0.6096207499504089,52.25108337402344,99.86471557617188,-32.95539855957031
209201,-0.2073822021484375,0.41461181640625,0.0396270751953125,-1.518212199211121,-0.6973271369934082,-0.5815451741218567,51.66860961914062,100.2451019287109,-32.29193115234375
209202,-0.177337646484375,0.3438720703125,-0.004974365234375,-1.248312830924988,-0.3935078680515289,-0.5811030864715576,51.11860656738281,100.5704956054688,-31.69015502929688
209203,-0.1615447998046875,0.266693115234375,-0.0825958251953125,-0.9733688831329346,-0.1698321849107742,-0.5979049801826477,50.52316284179688,100.9892883300781,-30.9718017578125
209204,-0.1615447998046875,0.266693115234375,-0.0825958251953125,-0.9733688831329346,-0.1698321849107742,-0.5979049801826477,50.52316284179688,100.9892883300781,-30.9718017578125
209205,-0.133331298828125,0.131317138671875,-0.227874755859375,-0.3920332789421082,-0.3150599300861359,-0.6084787845611572,49.85551452636719,101.1907501220703,-29.72274780273438
209206,-0.1140899658203125,0.074859619140625,-0.2673492431640625,-0.2875726521015167,-0.4483849704265594,-0.5605157613754272,49.51011657714844,101.2920532226562,-29.329833984375
209207,-0.09075927734375,0.0207977294921875,-0.2855682373046875,-0.2875726521015167,-0.4483849704265594,-0.5605157613754272,49.14413452148438,101.3527679443359,-28.82286071777344
209208,-0.09075927734375,0.0207977294921875,-0.2855682373046875,-0.2875726521015167,-0.4483849704265594,-0.5605157613754272,49.14413452148438,101.3527679443359,-28.82286071777344
209209,-0.0621795654296875,-0.0276641845703125,-0.2918853759765625,-0.2381686270236969,-0.4881070852279663,-0.4643926918506622,48.30497741699219,101.5174407958984,-28.20840454101562
209210,0.0326690673828125,0.0179901123046875,-0.401702880859375,-0.3753600418567657,-0.1463050097227097,-0.2110280841588974,47.62776184082031,101.6337738037109,-27.85964965820312
209211,0.0816802978515625,0.157135009765625,-0.5090179443359375,-0.6467241644859314,-0.3029516041278839,-0.1679112464189529,47.25483703613281,101.5755310058594,-27.51632690429688
209212,0.116851806640625,0.31011962890625,-0.567138671875,-0.6467241644859314,-0.3029516041278839,-0.1679112464189529,47.06539916992188,101.6775817871094,-27.32487487792969
209213,0.116851806640625,0.31011962890625,-0.567138671875,-0.6467241644859314,-0.3029516041278839,-0.1679112464189529,47.06539916992188,101.6775817871094,-27.32487487792969
209214,0.1262359619140625,0.5743255615234375,-0.44287109375,-0.9736258387565612,-0.6691426634788513,-0.1461428254842758,46.79190063476562,101.6749420166016,-26.44021606445312
209215,0.092437744140625,0.6998138427734375,-0.3255615234375,-1.025068521499634,-0.6569405794143677,-0.0892907306551933,46.66905212402344,101.7632293701172,-25.90968322753906
209216,0.092437744140625,0.6998138427734375,-0.3255615234375,-1.025068521499634,-0.6569405794143677,-0.0892907306551933,46.66905212402344,101.7632293701172,-25.90968322753906
209217,0.0513916015625,0.8500518798828125,-0.235504150390625,-0.9169103503227234,-0.5105586051940918,-0.0330998972058296,46.57830810546875,101.8099365234375,-25.39013671875
209218,-0.0461883544921875,1.154953002929688,-0.0927581787109375,-0.1523485332727432,-0.0844701454043388,-0.217861220240593,46.55775451660156,101.8363342285156,-24.16658020019531
209219,-0.1505584716796875,1.205093383789062,-0.168701171875,0.3636059165000916,-0.171756848692894,-0.4019325375556946,46.57608032226562,101.8789520263672,-23.93399047851562
209220,-0.1505584716796875,1.205093383789062,-0.168701171875,0.3636059165000916,-0.171756848692894,-0.4019325375556946,46.57608032226562,101.8789520263672,-23.93399047851562
209221,-0.2999420166015625,1.225082397460938,-0.2798004150390625,0.86971116065979,-0.4220694899559021,-0.5706645250320435,46.41110229492188,101.9168243408203,-23.87469482421875
209222,-0.5898895263671875,1.569717407226562,-0.4860382080078125,1.463564395904541,-0.6715096831321716,-0.8648077845573425,45.63681030273438,101.7217712402344,-24.53048706054688
209223,-0.7321014404296875,1.788497924804688,-0.4181976318359375,1.307895183563232,0.0747791677713394,-0.8468385934829712,45.02137756347656,101.6175079345703,-25.22322082519531
209224,-0.8069305419921875,1.999908447265625,-0.3681793212890625,1.069011211395264,0.5118046998977661,-0.9010352492332458,44.38363647460938,101.5239562988281,-26.02058410644531
209225,-0.8069305419921875,1.999908447265625,-0.3681793212890625,1.069011211395264,0.5118046998977661,-0.9010352492332458,44.38363647460938,101.5239562988281,-26.02058410644531
209226,-0.987548828125,2.31268310546875,-0.3209075927734375,0.9539032578468324,0.2254016995429993,-1.232342600822449,43.43507385253906,101.3873138427734,-27.72994995117188
209227,-1.230911254882812,2.255142211914062,-0.1872100830078125,1.207622885704041,0.2293224036693573,-1.004064440727234,42.77146911621094,101.4715576171875,-28.53082275390625
209228,-1.46875,2.26654052734375,-0.1518402099609375,1.47717821598053,0.5189515352249146,-0.4629130661487579,42.15234375,101.5872802734375,-29.27479553222656
209229,-1.46875,2.26654052734375,-0.1518402099609375,1.47717821598053,0.5189515352249146,-0.4629130661487579,42.15234375,101.5872802734375,-29.27479553222656
209230,-1.04046630859375,2.8173828125,-0.439666748046875,1.414831161499023,0.2380756735801697,0.0311579201370477,41.54676818847656,101.5064086914062,-30.85136413574219
209231,-0.92724609375,2.9312744140625,-0.317108154296875,1.102289795875549,-0.0111389374360442,0.2191714942455292,41.52052307128906,101.1981506347656,-31.56990051269531
209232,-0.92724609375,2.9312744140625,-0.317108154296875,1.102289795875549,-0.0111389374360442,0.2191714942455292,41.52052307128906,101.1981506347656,-31.56990051269531
209233,-0.8831787109375,2.9989013671875,0.0502777099609375,0.8554643392562866,0.0965560972690582,0.4685208797454834,41.68992614746094,101.0937805175781,-32.34309387207031
209234,-0.95904541015625,3.05548095703125,0.4604949951171875,1.091684341430664,0.3647904694080353,0.7223781943321228,42.2320556640625,100.8004760742188,-33.18116760253906
209235,-0.8319854736328125,2.854202270507812,0.45343017578125,1.351063966751099,0.1517133563756943,0.937943994998932,42.76713562011719,100.544189453125,-33.71493530273438
209236,-0.7272491455078125,2.480819702148438,0.5648040771484375,1.527307987213135,0.0903583914041519,0.9710662961006165,43.33625793457031,100.3679962158203,-34.49864196777344
209237,-0.5659027099609375,2.070480346679688,0.6113433837890625,1.75174081325531,0.1845458745956421,0.9103747010231018,44.03407287597656,99.97404479980467,-35.12490844726562
209238,-0.431488037109375,1.599563598632812,0.4487457275390625,1.918686151504517,0.052282378077507,0.896390438079834,44.71583557128906,99.69688415527344,-35.85887145996094
209239,-0.3697357177734375,1.2281494140625,0.33697509765625,1.990516066551208,-0.1032108068466187,0.9118344187736512,45.45707702636719,99.12049865722656,-36.78413391113281
209240,-0.3697357177734375,1.2281494140625,0.33697509765625,1.990516066551208,-0.1032108068466187,0.9118344187736512,45.45707702636719,99.12049865722656,-36.78413391113281
209241,-0.228851318359375,0.74664306640625,0.1115875244140625,2.008678674697876,-0.4990856945514679,0.8634325265884399,46.68791198730469,98.0110321044922,-38.48799133300781
209242,-0.1740875244140625,0.5852203369140625,0.0858154296875,1.887322068214417,-0.7345914244651794,0.7897015810012817,47.17198181152344,97.47210693359376,-39.27684020996094
209243,-0.1198272705078125,0.4416351318359375,0.106964111328125,1.653839230537415,-0.8418862223625183,0.7033096551895142,47.59170532226562,97.00938415527344,-40.11262512207031
209244,-0.1198272705078125,0.4416351318359375,0.106964111328125,1.653839230537415,-0.8418862223625183,0.7033096551895142,47.59170532226562,97.00938415527344,-40.11262512207031
209245,-0.074066162109375,0.2821807861328125,0.1084442138671875,1.347225308418274,-0.8447278141975403,0.6492360830307007,47.8162841796875,96.51824951171876,-40.92767333984375
209246,-0.051422119140625,-0.0273590087890625,0.12371826171875,0.7316225171089172,-0.3097197711467743,0.7130429744720459,48.08021545410156,95.80767822265624,-42.12100219726562
209247,-0.0845489501953125,-0.1103515625,0.1036376953125,0.5140670537948608,0.1526313573122025,0.7886120676994324,48.23562622070312,95.41122436523438,-42.38670349121094
209248,-0.0845489501953125,-0.1103515625,0.1036376953125,0.5140670537948608,0.1526313573122025,0.7886120676994324,48.23562622070312,95.41122436523438,-42.38670349121094
209249,-0.152252197265625,-0.0115203857421875,0.175140380859375,0.4139151573181152,0.9450557231903076,0.8548291921615601,48.77297973632812,95.14056396484376,-42.83937072753906
209250,-0.17401123046875,0.1184844970703125,0.2369537353515625,0.2914755344390869,1.152748227119446,0.7807173728942871,49.46504211425781,94.9779052734375,-42.9991455078125
209251,-0.176788330078125,0.18896484375,0.2391357421875,0.0341638289391994,1.207830667495728,0.6469454765319824,50.12672424316406,94.73960876464844,-43.11964416503906
209252,-0.176788330078125,0.18896484375,0.2391357421875,0.0341638289391994,1.207830667495728,0.6469454765319824,50.12672424316406,94.73960876464844,-43.11964416503906
209253,-0.1467437744140625,0.2070159912109375,0.1990966796875,-0.5128545165061951,0.8429815769195557,0.3706531524658203,50.79838562011719,94.626220703125,-43.21104431152344
209254,-0.0164794921875,0.2940216064453125,0.2579803466796875,-0.7246650457382202,0.6931135058403015,0.2235254943370819,51.98097229003906,94.66006469726562,-42.99395751953125
209255,0.0223846435546875,0.366943359375,0.3877105712890625,-0.9731454253196716,0.7600480318069458,0.0936260893940925,52.29609680175781,94.7924346923828,-42.69728088378906
209256,-0.004974365234375,0.49066162109375,0.4868011474609375,-1.671858787536621,1.215228319168091,-0.1727257072925568,52.49264526367188,94.9430694580078,-42.3480224609375
209257,-0.004974365234375,0.49066162109375,0.4868011474609375,-1.671858787536621,1.215228319168091,-0.1727257072925568,52.49264526367188,94.9430694580078,-42.3480224609375
209258,-0.25347900390625,0.7703094482421875,0.52728271484375,-1.988848686218262,1.349992871284485,-0.2920156121253967,52.87521362304688,95.63034057617188,-41.38873291015625
209259,-0.378692626953125,0.8665008544921875,0.49761962890625,-2.204858779907227,1.355391025543213,-0.4058063626289368,53.091796875,96.16006469726562,-40.56137084960938
209260,-0.4832305908203125,0.9020843505859376,0.433929443359375,-2.344728231430054,0.7742435336112976,-0.5240365862846375,53.24790954589844,96.83863830566406,-39.75538635253906
209261,-0.581085205078125,0.9182281494140624,0.3110504150390625,-2.309536218643188,0.1718601733446121,-0.54184889793396,53.28340148925781,97.38601684570312,-38.62896728515625
209262,-0.643341064453125,0.914581298828125,0.1552734375,-2.309536218643188,0.1718601733446121,-0.54184889793396,53.23356628417969,97.9602508544922,-37.54550170898438
209263,-0.6070709228515625,0.87957763671875,0.0815887451171875,-2.198818206787109,-0.3995553851127625,-0.5585213303565979,53.1082763671875,98.46690368652344,-36.43194580078125
209264,-0.6070709228515625,0.87957763671875,0.0815887451171875,-2.198818206787109,-0.3995553851127625,-0.5585213303565979,53.1082763671875,98.46690368652344,-36.43194580078125
209265,-0.46795654296875,0.8062286376953125,0.0827789306640625,-1.785038828849792,-0.5439562201499939,-0.5868142247200012,52.76387023925781,99.00022888183594,-35.37730407714844
209266,-0.2584228515625,0.64892578125,0.110595703125,-1.496237635612488,-0.1043357253074646,-0.600655734539032,51.76263427734375,99.92361450195312,-33.4268798828125
209267,-0.200958251953125,0.5184326171875,0.0308837890625,-1.169859528541565,0.2825337052345276,-0.6274077296257019,51.36415100097656,100.3093566894531,-32.66618347167969
209268,-0.200958251953125,0.5184326171875,0.0308837890625,-1.169859528541565,0.2825337052345276,-0.6274077296257019,51.36415100097656,100.3093566894531,-32.66618347167969
209269,-0.1728973388671875,0.370819091796875,-0.0989227294921875,-0.8695348501205444,0.3489651679992676,-0.638831377029419,51.006103515625,100.4873962402344,-32.05860900878906
209270,-0.1202850341796875,0.117950439453125,-0.3403472900390625,-0.4540327489376068,-0.3346427083015442,-0.6779252290725708,50.42643737792969,100.7403259277344,-30.98832702636719
209271,-0.0771484375,0.0003509521484375,-0.39886474609375,-0.3308759331703186,-0.7949064373970032,-0.6663154363632202,50.11677551269531,100.8289489746094,-30.56266784667969
209272,-0.0352325439453125,-0.113739013671875,-0.3873138427734375,-0.4421563744544983,-0.5538392066955566,-0.4818372130393982,49.72187805175781,100.8968811035156,-30.23883056640625
209273,-0.0352325439453125,-0.113739013671875,-0.3873138427734375,-0.4421563744544983,-0.5538392066955566,-0.4818372130393982,49.72187805175781,100.8968811035156,-30.23883056640625
209274,0.0908203125,-0.218017578125,-0.5357513427734375,-0.5842671990394592,-0.1817527562379837,-0.3444191515445709,48.77926635742188,100.9352722167969,-29.77484130859375
209275,0.15264892578125,-0.1283721923828125,-0.54693603515625,-0.6522688865661621,-0.1820797920227051,-0.2434443533420563,48.49530029296875,100.81787109375,-29.5145263671875
209276,0.185638427734375,-0.0124664306640625,-0.4616546630859375,-0.9006043672561646,-0.5373063087463379,-0.1332113146781921,48.2672119140625,100.8658294677734,-28.99667358398438
209277,0.185638427734375,-0.0124664306640625,-0.4616546630859375,-0.9006043672561646,-0.5373063087463379,-0.1332113146781921,48.2672119140625,100.8658294677734,-28.99667358398438
209278,0.21649169921875,0.2563018798828125,-0.46856689453125,-1.051087141036987,-0.7242677211761475,-0.0862728357315063,48.0037841796875,101.0525665283203,-28.01820373535156
209279,0.227142333984375,0.4168243408203125,-0.5141448974609375,-1.096105694770813,-0.8566150665283203,-0.0321587361395359,47.80548095703125,101.1093292236328,-27.36268615722656
209280,0.234100341796875,0.6134033203125,-0.496246337890625,-0.987022876739502,-0.8909099102020264,0.0314660482108593,47.75155639648438,101.2388458251953,-26.93043518066406
209281,0.234100341796875,0.6134033203125,-0.496246337890625,-0.987022876739502,-0.8909099102020264,0.0314660482108593,47.75155639648438,101.2388458251953,-26.93043518066406
209282,0.217864990234375,0.9101715087890624,-0.20892333984375,-0.2423098385334015,-0.1278903186321259,0.129336416721344,47.50628662109375,101.3183746337891,-25.66586303710938
209283,0.2020263671875,1.023300170898438,-0.1951141357421875,-0.2423098385334015,-0.1278903186321259,0.129336416721344,47.68975830078125,101.2506866455078,-25.03607177734375
209284,0.2020263671875,1.023300170898438,-0.1951141357421875,-0.2423098385334015,-0.1278903186321259,0.129336416721344,47.68975830078125,101.2506866455078,-25.03607177734375
209285,0.0059661865234375,1.072525024414062,-0.103973388671875,0.4974071085453033,-0.548870861530304,-0.3242656886577606,47.8636474609375,101.1285858154297,-24.3682861328125
209286,-0.1970367431640625,1.020401000976562,-0.052825927734375,0.4974071085453033,-0.548870861530304,-0.3242656886577606,48.02548217773438,101.1077575683594,-24.34979248046875
209287,-0.353424072265625,1.150619506835938,-0.17510986328125,0.7141556739807129,-0.6354656219482422,-0.5171999931335449,47.93278503417969,101.0821380615234,-24.46090698242188
209288,-0.519287109375,1.39605712890625,-0.309539794921875,0.8780143857002258,-0.8464628458023071,-0.8597826361656189,47.61015319824219,100.9833984375,-24.85830688476562
209289,-0.519287109375,1.39605712890625,-0.309539794921875,0.8780143857002258,-0.8464628458023071,-0.8597826361656189,47.61015319824219,100.9833984375,-24.85830688476562
209290,-0.936065673828125,2.06903076171875,-0.0306854248046875,0.8786974549293518,-0.1899659484624863,-1.879586935043335,46.34806823730469,101.2063903808594,-25.82933044433594
209291,-1.258331298828125,2.279998779296875,0.2070465087890625,0.6647750735282898,0.9856433868408204,-2.292892217636108,45.28192138671875,101.4188995361328,-26.55207824707031
209292,-1.981231689453125,2.172897338867188,0.452880859375,0.5228549242019653,2.190493583679199,-1.723994135856628,44.29063415527344,101.4733276367188,-27.490966796875
209293,-1.981231689453125,2.172897338867188,0.452880859375,0.5228549242019653,2.190493583679199,-1.723994135856628,44.29063415527344,101.4733276367188,-27.490966796875
209294,-2.225830078125,3.074737548828125,0.2791900634765625,1.085893034934998,1.930330991744995,0.0225005149841308,43.11593627929688,101.5214233398438,-29.029541015625
209295,-2.214859008789062,3.342559814453125,0.29571533203125,1.264427304267883,0.4726197421550751,0.0585669055581092,43.56631469726562,101.4291229248047,-29.66563415527344
209296,-1.857070922851562,3.196441650390625,0.338226318359375,0.9897670149803162,-0.1810371577739716,0.1083248779177666,44.1552734375,101.2071838378906,-30.24090576171875
209297,-1.311920166015625,2.553359985351562,0.3372650146484375,0.6975609660148621,-0.2396099269390106,0.0603094138205051,44.50094604492188,101.041748046875,-30.82943725585938
209298,-1.058822631835938,2.196029663085938,0.4589691162109375,0.777216374874115,-0.2006521373987198,0.1502110660076141,44.56735229492188,100.9783325195312,-31.32368469238281
209299,-0.8990020751953125,2.069320678710938,0.539794921875,1.000673770904541,-0.1338592618703842,0.1325721591711044,44.45620727539062,101.0194091796875,-31.65766906738281
209300,-0.668701171875,1.79071044921875,0.622283935546875,1.057734847068787,-0.629575252532959,0.1715246140956879,44.31813049316406,100.9878387451172,-32.77845764160156
209301,-0.668701171875,1.79071044921875,0.622283935546875,1.057734847068787,-0.629575252532959,0.1715246140956879,44.31813049316406,100.9878387451172,-32.77845764160156
209302,-0.56689453125,1.538528442382812,0.632843017578125,1.057734847068787,-0.629575252532959,0.1715246140956879,44.33302307128906,100.8386993408203,-33.33549499511719
209303,-0.4570159912109375,1.260223388671875,0.5256195068359375,0.9968249201774596,-0.9063413739204408,0.2625610530376434,44.54991149902344,100.3402709960938,-33.75247192382812
209304,-0.4570159912109375,1.260223388671875,0.5256195068359375,0.9968249201774596,-0.9063413739204408,0.2625610530376434,44.54991149902344,100.3402709960938,-33.75247192382812
209305,-0.1587371826171875,0.7667388916015625,0.0973358154296875,1.073977470397949,-1.781294107437134,0.508237898349762,45.11172485351562,99.55615234375,-34.37306213378906
209306,-0.07635498046875,0.6453857421875,-0.051605224609375,1.130935907363892,-1.812280297279358,0.7685635089874268,45.16238403320312,99.242431640625,-34.77732849121094
209307,-0.09722900390625,0.54095458984375,-0.1690521240234375,1.180298328399658,-1.535667061805725,0.9080886840820312,44.88192749023438,99.01335144042967,-35.08782958984375
209308,-0.09722900390625,0.54095458984375,-0.1690521240234375,1.180298328399658,-1.535667061805725,0.9080886840820312,44.88192749023438,99.01335144042967,-35.08782958984375
209309,-0.1124420166015625,0.2751922607421875,-0.3414306640625,1.270679116249084,-0.5208826065063477,0.8571876883506775,44.55259704589844,98.88027954101562,-35.76344299316406
209310,-0.0647735595703125,0.19769287109375,-0.4327239990234375,1.263408422470093,-0.3423530757427216,0.7429372668266296,44.63986206054688,98.5794677734375,-36.17405700683594
209311,0.0011444091796875,0.16839599609375,-0.42999267578125,1.154690742492676,-0.4051006138324738,0.643845796585083,44.99093627929688,98.25032043457033,-36.579833984375
209312,0.0011444091796875,0.16839599609375,-0.42999267578125,1.154690742492676,-0.4051006138324738,0.643845796585083,44.99093627929688,98.25032043457033,-36.579833984375
209313,0.1949462890625,0.184844970703125,-0.30340576171875,0.2696080505847931,-0.6007196307182312,0.585044264793396,45.69358825683594,97.66256713867188,-37.50364685058594
209314,0.281463623046875,0.247955322265625,-0.14398193359375,0.2696080505847931,-0.6007196307182312,0.585044264793396,45.94990539550781,97.35716247558594,-37.74310302734375
209315,0.343170166015625,0.310302734375,0.051727294921875,0.0944593921303749,-0.2821861505508423,0.6970760226249695,46.05805969238281,97.11793518066406,-37.97311401367188
209316,0.343170166015625,0.310302734375,0.051727294921875,0.0944593921303749,-0.2821861505508423,0.6970760226249695,46.05805969238281,97.11793518066406,-37.97311401367188
209317,0.3943939208984375,0.3481597900390625,0.159515380859375,0.1087022423744202,0.4831514656543732,1.111335277557373,46.20407104492188,97.00894165039062,-38.03532409667969
209318,0.419677734375,0.4122314453125,0.190216064453125,0.1395525634288788,0.6074318885803223,1.269937992095947,46.46328735351562,96.86654663085938,-38.16648864746094
209319,0.35943603515625,0.5170745849609375,0.107147216796875,0.1386854499578476,0.5855278968811035,1.296369314193726,47.47523498535156,96.89459228515624,-38.13211059570312
209320,0.249908447265625,0.600860595703125,0.1868133544921875,0.0513707809150219,0.646226704120636,1.146615266799927,48.20491027832031,96.8146514892578,-38.26907348632812
209321,0.249908447265625,0.600860595703125,0.1868133544921875,0.0513707809150219,0.646226704120636,1.146615266799927,48.20491027832031,96.8146514892578,-38.26907348632812
209322,-0.109222412109375,0.73291015625,0.533538818359375,-1.002530217170715,1.838690042495728,0.7132187485694885,49.52677917480469,96.97915649414062,-38.46543884277344
209323,-0.251373291015625,0.8926849365234375,0.749664306640625,-1.002530217170715,1.838690042495728,0.7132187485694885,50.26875305175781,97.02635192871094,-38.41433715820312
209324,-0.5811767578125,1.27294921875,0.8316802978515625,-1.904228091239929,2.843932628631592,-0.0386720299720764,51.71736145019531,97.3979034423828,-37.69026184082031
209325,-0.5811767578125,1.27294921875,0.8316802978515625,-1.904228091239929,2.843932628631592,-0.0386720299720764,51.71736145019531,97.3979034423828,-37.69026184082031
209326,-0.7684783935546875,1.347747802734375,0.7089080810546875,-2.196182727813721,2.70651388168335,-0.5194360017776489,52.46160888671875,97.53704833984376,-37.12298583984375
209327,-0.9044036865234376,1.28515625,0.5805816650390625,-2.368955612182617,2.209457397460938,-0.9547256827354432,53.17793273925781,97.89944458007812,-36.32452392578125
209328,-0.953277587890625,1.079116821289062,0.475555419921875,-2.436645269393921,1.54965877532959,-1.200631618499756,53.63156127929688,98.58770751953124,-35.3056640625
209329,-0.953277587890625,1.079116821289062,0.475555419921875,-2.436645269393921,1.54965877532959,-1.200631618499756,53.63156127929688,98.58770751953124,-35.3056640625
209330,-0.9208984375,0.555877685546875,0.32757568359375,-2.581659078598022,0.7008603811264038,-0.5451120734214783,53.46827697753906,99.73660278320312,-33.34974670410156
209331,-0.628692626953125,0.6329345703125,0.170562744140625,-2.596541881561279,0.4182129502296448,-0.2752403616905212,53.01570129394531,100.3599395751953,-32.19833374023438
209332,-0.39910888671875,0.687713623046875,0.078338623046875,-2.22120213508606,-0.2703388035297394,-0.2645128667354584,52.60292053222656,101.0714569091797,-31.11003112792969
209333,-0.39910888671875,0.687713623046875,0.078338623046875,-2.22120213508606,-0.2703388035297394,-0.2645128667354584,52.60292053222656,101.0714569091797,-31.11003112792969
209334,-0.2213592529296875,0.618499755859375,0.149749755859375,-1.988428950309753,-0.2431165128946304,-0.2721766531467438,51.88459777832031,102.1664886474609,-28.62193298339844
209335,-0.16229248046875,0.5392608642578125,0.135284423828125,-1.731098651885986,-0.1031950935721397,-0.2968207597732544,51.50688171386719,102.56787109375,-27.40361022949219
209336,-0.1102142333984375,0.4511260986328125,0.100189208984375,-1.037447214126587,0.0186836719512939,-0.4151037335395813,51.23406982421875,102.8273315429688,-26.26473999023438
209337,-0.0693206787109375,0.4005126953125,0.0459442138671875,-1.037447214126587,0.0186836719512939,-0.4151037335395813,51.10513305664062,102.9495544433594,-25.33848571777344
209338,-0.035125732421875,0.391815185546875,0.0132904052734375,-0.4335088133811951,-0.192737489938736,-0.5680501461029053,50.99055480957031,102.9535827636719,-24.54708862304688
209339,0.0020599365234375,0.390625,-0.0390625,-0.4335088133811951,-0.192737489938736,-0.5680501461029053,50.78208923339844,102.8916168212891,-23.78337097167969
209340,0.0020599365234375,0.390625,-0.0390625,-0.4335088133811951,-0.192737489938736,-0.5680501461029053,50.78208923339844,102.8916168212891,-23.78337097167969
209341,0.0439453125,0.376922607421875,-0.125274658203125,-0.2672348916530609,-0.4207634627819061,-0.5767626762390137,50.59239196777344,102.8244934082031,-23.35481262207031
209342,0.1268463134765625,0.3109283447265625,-0.2493133544921875,0.0464276857674121,-1.188173532485962,-0.4244567453861237,49.98902893066406,102.6921691894531,-22.99200439453125
209343,0.147705078125,0.2924346923828125,-0.2139434814453125,0.1972299814224243,-1.459875106811523,-0.3454181253910065,49.6026611328125,102.5959167480469,-22.86141967773438
209344,0.136199951171875,0.309814453125,-0.109344482421875,0.3214949369430542,-1.171229481697083,-0.3483547866344452,48.83738708496094,102.6248931884766,-22.58122253417969
209345,0.136199951171875,0.309814453125,-0.109344482421875,0.3214949369430542,-1.171229481697083,-0.3483547866344452,48.83738708496094,102.6248931884766,-22.58122253417969
209346,0.111419677734375,0.3345794677734375,-0.2058258056640625,0.1835754215717316,-0.4455519020557404,-0.5252203941345215,48.39408874511719,102.6419219970703,-22.58265686035156
209347,0.022216796875,0.39617919921875,-0.4563446044921875,0.0140439132228493,0.0205822400748729,-0.8917368650436401,47.99044799804688,102.6039581298828,-22.64170837402344
209348,0.022216796875,0.39617919921875,-0.4563446044921875,0.0140439132228493,0.0205822400748729,-0.8917368650436401,47.99044799804688,102.6039581298828,-22.64170837402344
209349,-0.1775970458984375,0.4468841552734375,-0.639923095703125,0.0140439132228493,0.0205822400748729,-0.8917368650436401,47.74656677246094,102.5385589599609,-22.55305480957031
209350,-0.333404541015625,0.5244598388671875,-0.655975341796875,0.2624691724777222,-0.1129164323210716,-1.042511224746704,47.30714416503906,102.5535125732422,-22.418212890625
209351,-0.522735595703125,0.7738800048828125,-0.85443115234375,0.5501449108123779,-0.1796355396509171,-1.069105267524719,46.32740783691406,102.5613250732422,-22.21092224121094
209352,-0.6497650146484375,0.930084228515625,-1.073684692382812,0.9322698712348938,-0.4156600534915924,-1.073453664779663,45.75860595703125,102.54296875,-22.25431823730469
209353,-0.6497650146484375,0.930084228515625,-1.073684692382812,0.9322698712348938,-0.4156600534915924,-1.073453664779663,45.75860595703125,102.54296875,-22.25431823730469
209354,-0.716064453125,1.378982543945312,-0.615509033203125,1.122090458869934,0.381948709487915,-0.7828332781791687,44.39431762695312,102.3667907714844,-22.56687927246094
209355,-0.553802490234375,1.66827392578125,-0.0377197265625,0.84707111120224,1.705699324607849,-0.6644344329833984,43.88726806640625,102.2982025146484,-23.184814453125
209356,-0.460479736328125,2.03009033203125,-0.0725555419921875,0.4919196665287018,1.848289489746094,-0.8890507817268372,43.46510314941406,102.14208984375,-23.73970031738281
209357,-0.460479736328125,2.03009033203125,-0.0725555419921875,0.4919196665287018,1.848289489746094,-0.8890507817268372,43.46510314941406,102.14208984375,-23.73970031738281
209358,-0.7085723876953125,2.771011352539062,-0.1705474853515625,0.7688330411911011,-0.2274499386548996,-1.717620968818665,43.036376953125,101.9074096679688,-24.85513305664062
209359,-1.128829956054688,2.86065673828125,0.022918701171875,1.144707322120667,-0.6974227428436279,-1.767683029174805,42.67652893066406,101.8526611328125,-25.26533508300781
209360,-1.67864990234375,2.566009521484375,-0.8520965576171875,1.194514513015747,-0.08854690939188,0.589809775352478,41.08979797363281,101.8410034179688,-26.68838500976562
209361,-1.67864990234375,2.566009521484375,-0.8520965576171875,1.194514513015747,-0.08854690939188,0.589809775352478,41.08979797363281,101.8410034179688,-26.68838500976562
209362,-0.6788330078125,2.222396850585938,-0.781005859375,1.111167192459106,-0.5732499361038208,0.806124746799469,40.47984313964844,101.6829833984375,-27.58572387695312
209363,-0.39813232421875,1.915084838867188,-0.2724609375,1.171393752098083,-0.591609537601471,1.039236783981323,40.28681945800781,101.6343841552734,-28.26455688476562
209364,-0.293212890625,1.787200927734375,-0.085296630859375,1.359088897705078,-0.3820802569389343,1.253200769424438,40.55058288574219,101.6127166748047,-28.9013671875
209365,-0.244659423828125,1.78643798828125,-0.0512847900390625,1.47400689125061,-0.280377060174942,1.392567992210388,41.03361511230469,101.5540008544922,-29.43402099609375
209366,-0.271209716796875,1.921279907226562,0.0878143310546875,1.457589387893677,-0.1110463589429855,1.400226712226868,41.55842590332031,101.5572204589844,-30.03529357910156
209367,-0.3025054931640625,2.035476684570312,0.1923370361328125,1.406439065933228,0.0873681977391243,1.285966157913208,42.23245239257812,101.4720306396484,-30.84721374511719
209368,-0.2982025146484375,2.034378051757812,0.2207794189453125,1.325517058372498,0.0394494049251079,1.050443649291992,43.06207275390625,101.2664337158203,-31.60101318359375
209369,-0.2869873046875,1.923782348632812,0.3459625244140625,1.151109337806702,0.0794759169220924,0.8281043171882629,43.93980407714844,101.0001831054688,-32.31401062011719
209370,-0.2869873046875,1.923782348632812,0.3459625244140625,1.151109337806702,0.0794759169220924,0.8281043171882629,43.93980407714844,101.0001831054688,-32.31401062011719
209371,-0.253448486328125,1.430526733398438,0.5379791259765625,1.074350357055664,0.5388203263282776,0.5816165208816528,45.41293334960938,100.2235412597656,-33.70347595214844
209372,-0.3183746337890625,1.112472534179688,0.595611572265625,1.316491603851318,0.8045550584793091,0.6092824935913086,46.1163330078125,99.97482299804688,-34.26493835449219
209373,-0.3183746337890625,1.112472534179688,0.595611572265625,1.316491603851318,0.8045550584793091,0.6092824935913086,46.1163330078125,99.97482299804688,-34.26493835449219
209374,-0.4764251708984375,0.66693115234375,0.639129638671875,1.546993494033813,1.229813933372498,0.7349043488502502,48.14064025878906,99.1938018798828,-35.80604553222656
209375,-0.5457763671875,0.5001373291015625,0.5567474365234375,1.300831913948059,1.143751502037048,0.7288113236427307,48.96211242675781,98.84562683105467,-36.48948669433594
209376,-0.609039306640625,0.351165771484375,0.4587860107421875,0.8774897456169128,0.8618886470794678,0.6927414536476135,49.71034240722656,98.37399291992188,-37.23471069335938
209377,-0.609039306640625,0.351165771484375,0.4587860107421875,0.8774897456169128,0.8618886470794678,0.6927414536476135,49.71034240722656,98.37399291992188,-37.23471069335938
209378,-0.5923614501953125,0.0316162109375,-0.1757354736328125,-0.0941406115889549,-0.5108853578567505,0.6949920654296875,50.948486328125,97.94125366210938,-38.09660339355469
209379,-0.4722747802734375,-0.0567474365234375,-0.5258636474609375,-0.467691034078598,-1.962196588516235,0.7317802309989929,51.08248901367188,98.00942993164062,-38.17018127441406
209380,-0.3115997314453125,-0.0576171875,-0.43389892578125,-0.7961682677268982,-2.907174825668335,0.7363057136535645,50.91941833496094,98.200439453125,-38.03703308105469
209381,-0.1682586669921875,-0.069549560546875,-0.3123626708984375,-1.19776976108551,-2.744875431060791,0.6650600433349609,50.46833801269531,98.32070922851562,-37.63374328613281
209382,-0.027008056640625,-0.0594940185546875,-0.23248291015625,-1.400813937187195,-1.806056022644043,0.4887374639511108,50.06959533691406,98.51480102539062,-37.04420471191406
209383,0.1257781982421875,0.0544586181640625,-0.1025390625,-1.047294735908508,-0.4073776304721832,0.2231129705905914,49.82049560546875,98.55998229980467,-36.48167419433594
209384,0.2301483154296875,0.1154022216796875,-0.0019378662109375,-0.2329994291067123,0.819062352180481,0.0709476768970489,49.71513366699219,98.76455688476562,-35.91751098632812
209385,0.1887054443359375,0.182342529296875,-0.014617919921875,0.2420541793107986,1.545905590057373,0.2044908255338669,49.81625366210938,98.8229522705078,-35.53863525390625
209386,-0.0415802001953125,0.374359130859375,-0.025543212890625,0.2043555378913879,1.737346410751343,0.3406976759433746,50.07359313964844,98.77772521972656,-35.60737609863281
209387,-0.22808837890625,0.529693603515625,0.090362548828125,-0.1571755111217499,1.696970224380493,0.2909325063228607,50.44064331054688,98.75955200195312,-35.70561218261719
209388,-0.35150146484375,0.8706817626953125,0.234619140625,-1.069642663002014,1.072049379348755,0.1237285956740379,51.53810119628906,98.84855651855467,-35.52615356445312
209389,-0.35150146484375,0.8706817626953125,0.234619140625,-1.069642663002014,1.072049379348755,0.1237285956740379,51.53810119628906,98.84855651855467,-35.52615356445312
209390,-0.413543701171875,1.1241455078125,0.401153564453125,-1.434730887413025,0.8015488982200623,0.0885815322399139,51.85685729980469,98.91731262207033,-35.20283508300781
209391,-0.472320556640625,1.389480590820312,0.60369873046875,-1.648585915565491,0.967452108860016,0.060756292194128,51.91644287109375,99.29557800292967,-34.69963073730469
209392,-0.535308837890625,1.598800659179688,0.6922760009765625,-1.688500046730042,1.361174345016479,0.0521119385957717,51.86338806152344,99.5489501953125,-34.03855895996094
209393,-0.5861358642578125,1.71099853515625,0.6282196044921875,-1.552737951278687,1.513701558113098,0.0434638522565364,51.96826171875,100.0171203613281,-33.26094055175781
209394,-0.560455322265625,1.724533081054688,0.5523834228515625,-1.10408878326416,0.8841106295585632,-0.10111303627491,52.17349243164062,100.3042297363281,-32.45297241210938
209395,-0.4654693603515625,1.583740234375,0.5797271728515625,-0.957737147808075,0.5996453166007996,-0.2126387655735016,52.2943115234375,100.6434173583984,-31.63017272949219
