time_idx,accelerometerAccelerationX(G),accelerometerAccelerationY(G),accelerometerAccelerationZ(G),gyroRotationX(rad/s),gyroRotationY(rad/s),gyroRotationZ(rad/s),magnetometerX(µT),magnetometerY(µT),magnetometerZ(µT)
200154,0.33587646484375,1.043106079101562,0.1305999755859375,0.9933955669403076,0.1709826588630676,0.3968754410743713,54.58497619628906,98.53376770019533,-21.29728698730469
200155,0.3084716796875,1.096633911132812,0.1960296630859375,0.7650047540664673,1.048131227493286,0.5397966504096985,54.58110046386719,98.59068298339844,-21.68743896484375
200156,0.253814697265625,1.188705444335938,0.1799163818359375,0.7650047540664673,1.048131227493286,0.5397966504096985,54.7552490234375,98.64776611328124,-22.08856201171875
200157,0.151611328125,1.357070922851562,0.0077667236328125,0.4608174264431,1.217300772666931,0.4148629605770111,54.94577026367188,98.53596496582033,-22.41607666015625
200158,0.0119171142578125,1.613250732421875,-0.3583221435546875,0.8843811750411987,0.3079786002635956,-0.6093869209289551,55.35061645507812,98.4014892578125,-22.62821960449219
200159,0.0119171142578125,1.613250732421875,-0.3583221435546875,0.8843811750411987,0.3079786002635956,-0.6093869209289551,55.35061645507812,98.4014892578125,-22.62821960449219
200160,-0.236602783203125,2.369125366210938,-1.030044555664062,1.76994001865387,-0.3341063261032104,-1.321818470954895,55.79121398925781,98.19906616210938,-23.08340454101562
200161,-0.3605499267578125,2.824554443359375,-0.6362152099609375,2.635451316833496,0.9049658179283142,-1.89612889289856,55.584228515625,98.15164184570312,-23.39878845214844
200162,-0.58868408203125,3.255538940429688,-0.54339599609375,2.872352123260498,3.764620304107666,-2.385858297348022,54.92543029785156,98.20492553710938,-24.12803649902344
200163,-0.58868408203125,3.255538940429688,-0.54339599609375,2.872352123260498,3.764620304107666,-2.385858297348022,54.92543029785156,98.20492553710938,-24.12803649902344
200164,-0.9508819580078124,4.159255981445312,-2.275741577148438,1.426052927970886,2.990171432495117,-3.957547664642334,53.12994384765625,97.87028503417967,-26.85354614257812
200165,-0.9467926025390624,4.07421875,-1.089813232421875,0.0718302503228187,0.5490495562553406,-3.962373018264771,52.20571899414062,97.67901611328124,-28.19926452636719
200166,-0.9628753662109376,3.891403198242188,-0.158416748046875,-0.8331603407859802,-0.1758091151714325,-2.930696725845337,51.08738708496094,97.42967224121094,-29.25384521484375
200167,-0.9628753662109376,3.891403198242188,-0.158416748046875,-0.8331603407859802,-0.1758091151714325,-2.930696725845337,51.08738708496094,97.42967224121094,-29.25384521484375
200168,-0.5401153564453125,3.133056640625,-0.1025390625,0.3583520352840424,0.1501428931951523,0.9486688375473022,47.87983703613281,97.40647888183594,-30.20341491699219
200169,-0.2749786376953125,2.996734619140625,0.1433868408203125,1.850452184677124,1.148537755012512,1.899743318557739,46.79327392578125,97.48574829101562,-30.30050659179688
200170,-0.192413330078125,2.597091674804688,0.66644287109375,3.108625888824463,2.156226873397827,1.8874351978302,46.62214660644531,97.7361297607422,-30.47012329101562
200171,-0.192413330078125,2.597091674804688,0.66644287109375,3.108625888824463,2.156226873397827,1.8874351978302,46.62214660644531,97.7361297607422,-30.47012329101562
200172,-0.150787353515625,1.623001098632812,0.812255859375,4.122949600219727,3.288676023483276,1.499918460845947,50.00419616699219,96.69412231445312,-33.65682983398438
200173,-0.0999755859375,1.197891235351562,0.61077880859375,4.011856079101562,2.465094327926636,1.258461356163025,51.75140380859375,95.88490295410156,-35.3232421875
200174,-0.1726837158203125,0.9874420166015624,0.678985595703125,3.301732063293457,1.204425454139709,0.834590494632721,53.27996826171875,94.76155090332033,-36.85812377929688
200175,-0.1726837158203125,0.9874420166015624,0.678985595703125,3.301732063293457,1.204425454139709,0.834590494632721,53.27996826171875,94.76155090332033,-36.85812377929688
200176,-0.452850341796875,0.577178955078125,1.320526123046875,0.8006327748298645,-0.0602798536419868,-0.6786490678787231,55.1182861328125,93.11506652832033,-39.19108581542969
200177,-0.5225372314453125,0.3228759765625,1.39703369140625,-0.330100417137146,0.2283602058887482,-1.184263229370117,55.27313232421875,92.8392333984375,-39.69061279296875
200178,-0.5125732421875,0.0758209228515625,1.278152465820312,-1.052469849586487,0.6163111329078674,-1.325820326805115,55.09210205078125,92.81756591796876,-39.99765014648438
200179,-0.5125732421875,0.0758209228515625,1.278152465820312,-1.052469849586487,0.6163111329078674,-1.325820326805115,55.09210205078125,92.81756591796876,-39.99765014648438
200180,-0.4774627685546875,-0.2445068359375,0.96392822265625,-1.254829883575439,0.7574975490570068,-0.8852962851524353,54.45664978027344,93.47439575195312,-39.07890319824219
200181,-0.5032958984375,-0.219268798828125,0.8729705810546875,-1.256985902786255,0.5993750095367432,-0.5792436599731445,54.11466979980469,93.88410949707033,-38.49221801757812
200182,-0.5482025146484375,-0.11212158203125,0.8097686767578125,-1.468367457389832,0.401870459318161,-0.4144310057163239,53.86033630371094,94.355712890625,-38.03567504882812
200183,-0.5482025146484375,-0.11212158203125,0.8097686767578125,-1.468367457389832,0.401870459318161,-0.4144310057163239,53.86033630371094,94.355712890625,-38.03567504882812
200184,-0.5848236083984375,0.03057861328125,0.5084381103515625,-2.316677570343018,-0.4251068234443665,-0.5558874607086182,53.38011169433594,95.49801635742188,-36.98722839355469
200185,-0.5523834228515625,0.037139892578125,0.2900848388671875,-2.677980661392212,-1.115639448165894,-0.7261646389961243,53.00718688964844,96.19793701171876,-36.30998229980469
200186,-0.4961700439453125,0.01025390625,0.1275482177734375,-2.881490468978882,-1.807516932487488,-0.880776584148407,52.4857177734375,97.09358215332033,-35.33416748046875
200187,-0.4961700439453125,0.01025390625,0.1275482177734375,-2.881490468978882,-1.807516932487488,-0.880776584148407,52.4857177734375,97.09358215332033,-35.33416748046875
200188,-0.92425537109375,-0.6371917724609375,0.1113128662109375,-2.971991300582886,-1.972119212150574,0.5973816514015198,50.87765502929688,99.27053833007812,-33.11213684082031
200189,-1.121551513671875,-0.6068572998046875,-0.7833251953125,-2.971991300582886,-1.972119212150574,0.5973816514015198,50.13627624511719,100.2378845214844,-31.83656311035156
200190,-1.112213134765625,-0.1745147705078125,-1.3560791015625,-1.550873756408691,-3.97199273109436,0.6749472618103027,49.71562194824219,101.1271057128906,-30.49497985839844
200191,-1.112213134765625,-0.1745147705078125,-1.3560791015625,-1.550873756408691,-3.97199273109436,0.6749472618103027,49.71562194824219,101.1271057128906,-30.49497985839844
200192,-0.8558197021484375,0.3956298828125,0.4390716552734375,-0.6969226002693176,-2.244286060333252,-0.3991007804870605,48.97457885742188,102.0106964111328,-28.64488220214844
200193,-0.70989990234375,0.5926513671875,0.175445556640625,-0.7900807857513428,-0.7880240082740784,-1.094096660614014,48.63288879394531,102.0543060302734,-28.30686950683594
200194,-0.5100250244140625,0.6848602294921875,-0.3509368896484375,-1.148286819458008,0.3347153961658478,-1.314539194107056,48.44679260253906,101.9080963134766,-28.14085388183594
200195,-0.5100250244140625,0.6848602294921875,-0.3509368896484375,-1.148286819458008,0.3347153961658478,-1.314539194107056,48.44679260253906,101.9080963134766,-28.14085388183594
200196,-0.2005462646484375,0.7309722900390625,-0.48358154296875,-0.9601052403450012,-0.1008786782622337,-1.357661962509155,48.14857482910156,101.0947570800781,-27.45698547363281
200197,-0.2767791748046875,0.6678619384765625,-0.3026275634765625,-0.684792697429657,-0.0933379381895065,-1.323734879493713,48.04722595214844,100.7738800048828,-26.99336242675781
200198,-0.2411346435546875,0.5253143310546875,-0.297821044921875,-0.496986597776413,0.0082526039332151,-1.217117309570312,47.72329711914062,100.5694580078125,-26.55523681640625
200199,-0.2411346435546875,0.5253143310546875,-0.297821044921875,-0.496986597776413,0.0082526039332151,-1.217117309570312,47.72329711914062,100.5694580078125,-26.55523681640625
200200,0.13177490234375,0.371368408203125,-0.3876800537109375,-0.4380753338336945,-0.9073222279548644,-0.0322697907686233,46.24142456054688,100.6270599365234,-26.32606506347656
200201,0.13177490234375,0.371368408203125,-0.3876800537109375,-0.4380753338336945,-0.9073222279548644,-0.0322697907686233,46.24142456054688,100.6270599365234,-26.32606506347656
200202,0.1545867919921875,0.343994140625,-0.19207763671875,-0.5646988153457642,-1.25382924079895,0.3074134886264801,44.99362182617188,100.9736785888672,-25.70887756347656
200203,0.1545867919921875,0.343994140625,-0.19207763671875,-0.5646988153457642,-1.25382924079895,0.3074134886264801,44.99362182617188,100.9736785888672,-25.70887756347656
200204,0.0500030517578125,0.3423919677734375,-0.1369476318359375,-0.5863550901412964,-1.378150939941406,0.311237245798111,45.2265625,101.0290985107422,-24.71247863769531
200205,-0.02630615234375,0.312835693359375,-0.20123291015625,-0.4888146817684174,-1.303775548934937,-0.0450963713228702,45.21220397949219,101.0657806396484,-24.12368774414062
200206,-0.126800537109375,0.2751617431640625,-0.2364044189453125,-0.3765928149223328,-1.107678174972534,-0.4735063016414642,45.10525512695312,101.1931762695312,-23.68333435058594
200207,-0.293609619140625,0.2601318359375,-0.2353515625,-0.2952825129032135,-0.6290714144706726,-0.8287869095802307,44.73701477050781,101.4282684326172,-23.53834533691406
200208,-0.4517669677734375,0.2217864990234375,-0.2661590576171875,-0.2872008681297302,0.0509278960525989,-0.94007670879364,44.26945495605469,101.7215423583984,-23.55490112304688
200209,-0.51177978515625,0.243988037109375,-0.31573486328125,-0.2978500723838806,0.4795098602771759,-0.9055874347686768,43.76664733886719,101.7740478515625,-23.41256713867188
200210,-0.430206298828125,0.33544921875,-0.265289306640625,-0.3468514382839203,0.5390256643295288,-0.8541162610054016,43.30839538574219,101.8027648925781,-23.30171203613281
200211,-0.430206298828125,0.33544921875,-0.265289306640625,-0.3468514382839203,0.5390256643295288,-0.8541162610054016,43.30839538574219,101.8027648925781,-23.30171203613281
200212,-0.26458740234375,0.433349609375,-0.3120574951171875,-0.4200678467750549,-0.0654860660433769,-0.5998538732528687,42.52682495117188,101.8624114990234,-23.03915405273438
200213,-0.2519683837890625,0.471893310546875,-0.325347900390625,-0.263936311006546,-0.4878032207489014,-0.4035061895847321,42.23170471191406,101.7998504638672,-22.86233520507812
200214,-0.20111083984375,0.5867462158203125,-0.2574005126953125,0.3567357659339905,-0.4971402585506439,0.0284361690282821,41.58261108398438,101.8814697265625,-22.37356567382812
200215,-0.20111083984375,0.5867462158203125,-0.2574005126953125,0.3567357659339905,-0.4971402585506439,0.0284361690282821,41.58261108398438,101.8814697265625,-22.37356567382812
200216,-0.1919097900390625,0.7230072021484375,-0.320343017578125,0.7498028874397278,-0.2410765290260315,0.1310962289571762,41.38992309570312,101.7481384277344,-22.27543640136719
200217,-0.206939697265625,0.887786865234375,-0.39947509765625,1.106759428977966,-0.0927278026938438,0.1925968825817108,41.27452087402344,101.6644287109375,-22.52717590332031
200218,-0.2662811279296875,1.080474853515625,-0.4335784912109375,1.346167206764221,-0.0236272979527711,0.2479405552148819,41.24961853027344,101.8269958496094,-23.08924865722656
200219,-0.2662811279296875,1.080474853515625,-0.4335784912109375,1.346167206764221,-0.0236272979527711,0.2479405552148819,41.24961853027344,101.8269958496094,-23.08924865722656
200220,-0.3732452392578125,1.307022094726562,-0.4133758544921875,1.419321537017822,0.1335338205099106,0.2387702316045761,41.11347961425781,101.6975708007812,-23.4169921875
200221,-0.540679931640625,1.767578125,-0.5770721435546875,1.474074602127075,0.4114200472831726,0.0175648797303438,40.98768615722656,101.5052795410156,-24.80572509765625
200222,-0.5207672119140625,1.899581909179688,-0.6866912841796875,1.699324488639832,0.1407954692840576,-0.0128247188404202,40.92298889160156,101.3761138916016,-25.63331604003906
200223,-0.5207672119140625,1.899581909179688,-0.6866912841796875,1.699324488639832,0.1407954692840576,-0.0128247188404202,40.92298889160156,101.3761138916016,-25.63331604003906
200224,-0.369232177734375,1.967803955078125,-0.7675628662109375,2.391611099243164,-0.1889776438474655,0.3524808287620544,40.79612731933594,100.9669952392578,-27.32670593261719
200225,-0.228118896484375,2.198135375976562,-0.917694091796875,2.629006624221802,-0.0337949804961681,0.6511253118515015,40.6859130859375,100.8266296386719,-28.32275390625
200226,-0.1870269775390625,2.546875,-0.9578857421875,2.491208791732788,0.4308027923107147,0.8889352083206177,40.621826171875,100.4633483886719,-29.51675415039062
200227,-0.1870269775390625,2.546875,-0.9578857421875,2.491208791732788,0.4308027923107147,0.8889352083206177,40.621826171875,100.4633483886719,-29.51675415039062
200228,-0.5401458740234375,3.08392333984375,-0.4019317626953125,1.256776571273804,0.6919528841972351,0.9539507031440736,41.13143920898438,100.0129241943359,-31.87939453125
200229,-0.7791748046875,3.789535522460938,0.0144805908203125,0.6421062350273132,0.5862342119216919,0.8010300993919373,41.63053894042969,99.85710144042967,-32.88946533203125
200230,-2.6837158203125,4.580276489257812,0.5149688720703125,0.1513509005308151,1.752714157104492,1.808599233627319,42.6085205078125,99.86268615722656,-34.55184936523438
200231,-2.6837158203125,4.580276489257812,0.5149688720703125,0.1513509005308151,1.752714157104492,1.808599233627319,42.6085205078125,99.86268615722656,-34.55184936523438
200232,-2.872177124023438,3.98529052734375,0.1909332275390625,0.561801016330719,2.012024641036987,2.430184841156006,43.38423156738281,100.0490112304688,-35.29615783691406
200233,-2.134262084960938,2.58306884765625,0.1180877685546875,0.8419533371925354,1.448761701583862,1.854618668556213,44.78665161132812,100.1931457519531,-35.89653015136719
200234,-1.56005859375,1.4517822265625,0.48199462890625,0.6792832016944885,1.404506683349609,1.76691997051239,46.66209411621094,100.0372161865234,-36.3199462890625
200235,-1.56005859375,1.4517822265625,0.48199462890625,0.6792832016944885,1.404506683349609,1.76691997051239,46.66209411621094,100.0372161865234,-36.3199462890625
200236,-0.9855499267578124,0.7943572998046875,0.87689208984375,0.4960888624191284,2.543810606002808,1.743730068206787,49.74977111816406,99.52268981933594,-36.562255859375
200237,-0.7259521484375,0.7276458740234375,0.8957977294921875,0.6571879982948303,3.261679410934448,1.715253114700317,51.052978515625,99.39633178710938,-36.60005187988281
200238,-0.5110626220703125,0.6419830322265625,0.770050048828125,0.9755702018737792,3.542214870452881,1.742655396461487,52.29501342773438,99.17332458496094,-36.52740478515625
200239,-0.5110626220703125,0.6419830322265625,0.770050048828125,0.9755702018737792,3.542214870452881,1.742655396461487,52.29501342773438,99.17332458496094,-36.52740478515625
200240,-0.31561279296875,0.6793365478515625,0.5823974609375,0.8650311827659607,3.313189506530762,1.588547348976135,54.95564270019531,98.80003356933594,-36.68093872070312
200241,-0.225006103515625,0.787384033203125,0.473876953125,0.6735382080078125,2.396589040756226,1.361335754394531,56.23431396484375,98.53099060058594,-36.80752563476562
200242,-0.3451080322265625,0.8394622802734375,0.5733795166015625,0.4773788154125214,1.502454519271851,0.7634403705596924,57.2708740234375,98.27427673339844,-37.05484008789062
200243,-0.3704681396484375,0.749176025390625,0.44549560546875,0.4409262537956238,0.5242331624031067,0.0358975455164909,58.20072937011719,98.07717895507812,-37.00473022460938
200244,-0.375518798828125,0.6693572998046875,0.3173065185546875,0.4616126418113708,-0.8401032090187073,-0.5025715231895447,58.93156433105469,97.73959350585938,-37.26045227050781
200245,-0.2308197021484375,0.69476318359375,0.27288818359375,0.4078604578971863,-2.48528528213501,-0.7245995402336121,59.31660461425781,97.445556640625,-37.45010375976562
200246,-0.13494873046875,0.695098876953125,0.3950042724609375,0.1197399795055389,-4.474162578582764,-1.005532145500183,59.24961853027344,97.1296844482422,-37.78080749511719
200247,-0.13494873046875,0.695098876953125,0.3950042724609375,0.1197399795055389,-4.474162578582764,-1.005532145500183,59.24961853027344,97.1296844482422,-37.78080749511719
200248,0.0934906005859375,0.5360260009765625,0.5662994384765625,-0.0911581367254257,-4.67435359954834,-1.053862333297729,57.923583984375,96.53285217285156,-38.37821960449219
200249,0.1944427490234375,0.3829498291015625,0.5588836669921875,-0.409820020198822,-4.599964141845703,-0.9509743452072144,56.71438598632812,96.155517578125,-38.59524536132812
200250,0.3120574951171875,0.243316650390625,0.535491943359375,-0.7635154724121094,-4.481210708618164,-0.6325292587280273,55.4407958984375,95.90951538085938,-38.67771911621094
200251,0.3120574951171875,0.243316650390625,0.535491943359375,-0.7635154724121094,-4.481210708618164,-0.6325292587280273,55.4407958984375,95.90951538085938,-38.67771911621094
200252,0.4333953857421875,0.0897369384765625,0.6514739990234375,-1.141475558280945,-3.893094778060913,0.232207402586937,52.95036315917969,95.79092407226562,-38.14921569824219
200253,0.4042205810546875,0.072021484375,0.7193756103515625,-1.115025639533997,-2.878109216690063,0.4947455525398254,51.72708129882812,95.9748077392578,-37.54570007324219
200254,0.3411407470703125,0.0598297119140625,0.6773529052734375,-1.039623737335205,-1.528308987617493,0.6340957283973694,50.66986083984375,96.12950134277344,-36.6917724609375
200255,0.3411407470703125,0.0598297119140625,0.6773529052734375,-1.039623737335205,-1.528308987617493,0.6340957283973694,50.66986083984375,96.12950134277344,-36.6917724609375
200256,0.28448486328125,0.0482940673828125,0.5114593505859375,-0.970048189163208,1.01180362701416,0.7281087636947632,49.96199035644531,96.6524658203125,-34.94235229492188
200257,0.28228759765625,0.0597991943359375,0.3873138427734375,-1.051804304122925,1.946742534637451,0.7911577820777893,50.13302612304688,96.65005493164062,-33.99607849121094
200258,0.266265869140625,0.1007080078125,0.2440948486328125,-1.316569328308105,2.527988433837891,0.8554744720458984,50.705810546875,96.75112915039062,-33.37602233886719
200259,0.266265869140625,0.1007080078125,0.2440948486328125,-1.316569328308105,2.527988433837891,0.8554744720458984,50.705810546875,96.75112915039062,-33.37602233886719
200260,0.168670654296875,0.516143798828125,-1.023880004882812,-0.8122364282608032,1.320273041725159,0.6301819682121277,52.29032897949219,96.79388427734376,-31.77719116210938
200261,0.156097412109375,0.710174560546875,-1.331161499023438,0.1325119733810425,-1.218071818351746,0.1715089082717896,53.23350524902344,96.98719787597656,-31.04090881347656
200262,0.2104034423828125,0.6462249755859375,-0.526153564453125,0.4967080354690552,-2.800217628479004,-0.2837440967559814,53.74388122558594,96.9782257080078,-30.54696655273438
200263,0.2104034423828125,0.6462249755859375,-0.526153564453125,0.4967080354690552,-2.800217628479004,-0.2837440967559814,53.74388122558594,96.9782257080078,-30.54696655273438
200264,0.158905029296875,0.3861846923828125,0.095794677734375,-0.0692808032035827,-2.567975759506226,-0.8605280518531799,53.06590270996094,96.91569519042967,-30.73844909667969
200265,0.1161041259765625,0.230926513671875,0.0118560791015625,-0.3616942763328552,-1.758033633232117,-1.098661303520203,52.38381958007812,96.80941772460938,-30.86009216308594
200266,0.1102294921875,-0.0006256103515625,-0.2023773193359375,-0.7634633183479309,-0.4306834638118744,-1.176003932952881,51.53802490234375,96.91030883789062,-30.86759948730469
200267,0.1966705322265625,-0.087005615234375,-0.5450286865234375,-0.9530438780784608,0.2896642982959747,-1.017627120018005,50.75811767578125,96.86056518554688,-30.65872192382812
200268,0.2703704833984375,-0.0157012939453125,-0.5683746337890625,-0.8064703941345215,0.0585607811808586,-0.7856913805007935,50.173583984375,97.00927734375,-30.48951721191406
200269,0.261260986328125,0.119720458984375,-0.2672271728515625,-0.7495977878570557,-0.2558171153068542,-0.5808948278427124,49.65042114257812,97.22471618652344,-29.96853637695312
200270,0.243865966796875,0.254058837890625,-0.064849853515625,-0.8511303067207336,-0.4310003817081451,-0.4448999762535095,49.31748962402344,97.39991760253906,-29.628662109375
200271,0.243865966796875,0.254058837890625,-0.064849853515625,-0.8511303067207336,-0.4310003817081451,-0.4448999762535095,49.31748962402344,97.39991760253906,-29.628662109375
200272,0.2083892822265625,0.4100341796875,-0.103363037109375,-0.9225562810897828,-0.6211668848991394,-0.4121601283550262,48.85371398925781,97.5962371826172,-28.80599975585938
200273,0.1867828369140625,0.4624176025390625,-0.2279205322265625,-0.5528749227523804,-0.79925936460495,-0.4795535504817963,48.58729553222656,97.7330322265625,-28.37228393554688
200274,0.2284698486328125,0.5037994384765625,-0.1649017333984375,-0.1231453642249107,-0.8821614384651184,-0.4684740006923676,48.21305847167969,97.88565063476562,-27.95457458496094
200275,0.2284698486328125,0.5037994384765625,-0.1649017333984375,-0.1231453642249107,-0.8821614384651184,-0.4684740006923676,48.21305847167969,97.88565063476562,-27.95457458496094
200276,0.30426025390625,0.593841552734375,0.0660400390625,-0.0323720537126064,-0.3124396502971649,-0.1471385806798935,47.62310791015625,97.94908142089844,-27.33482360839844
200277,0.3231048583984375,0.6287841796875,0.0519561767578125,-0.2337048947811127,0.022990271449089,0.0103296032175421,47.36543273925781,98.18739318847656,-27.31411743164062
200278,0.3494415283203125,0.628936767578125,0.0102996826171875,-0.4403275847434998,0.2088810503482819,0.1538393646478653,47.19163513183594,98.02223205566406,-27.24774169921875
200279,0.3494415283203125,0.628936767578125,0.0102996826171875,-0.4403275847434998,0.2088810503482819,0.1538393646478653,47.19163513183594,98.02223205566406,-27.24774169921875
200280,0.3511199951171875,0.7462615966796875,0.14715576171875,-0.8453261852264404,0.2724211513996124,0.3680869340896606,47.29783630371094,98.1873016357422,-27.06497192382812
200281,0.3128814697265625,0.8635406494140625,0.3787841796875,-1.155456900596619,0.4563611447811127,0.4199056625366211,47.52369689941406,98.17254638671876,-26.74838256835938
200282,0.2746124267578125,1.043991088867188,0.6072998046875,-1.508635997772217,0.964895725250244,0.3862334489822388,47.75314331054688,98.3257293701172,-26.13038635253906
200283,0.2746124267578125,1.043991088867188,0.6072998046875,-1.508635997772217,0.964895725250244,0.3862334489822388,47.75314331054688,98.3257293701172,-26.13038635253906
200284,0.067657470703125,1.796096801757812,0.5799560546875,-2.074431180953979,2.575464725494385,-0.1823077499866486,48.26152038574219,98.73072814941406,-24.76933288574219
200285,-0.4483489990234375,3.0640869140625,-0.79669189453125,-0.7613252997398376,1.8138427734375,-1.511072039604187,48.48574829101562,99.03507995605467,-23.91801452636719
200286,-0.6797943115234375,4.169586181640625,-1.148056030273438,2.126682281494141,-0.8277418613433838,-3.538101434707642,48.53268432617188,99.17649841308594,-23.03282165527344
200287,-0.6797943115234375,4.169586181640625,-1.148056030273438,2.126682281494141,-0.8277418613433838,-3.538101434707642,48.53268432617188,99.17649841308594,-23.03282165527344
200288,-1.092025756835938,4.055511474609375,0.1538238525390625,4.470640659332275,0.6706081628799438,-6.258440017700195,46.42379760742188,99.13844299316406,-23.39187622070312
200289,-1.824417114257812,3.251815795898438,-1.378570556640625,4.643957614898682,0.9886357188224792,-6.780261039733887,43.96343994140625,98.8441162109375,-25.23837280273438
200290,-3.480697631835938,1.38360595703125,-2.35736083984375,2.096094608306885,3.37782621383667,-3.514247417449951,40.81419372558594,98.19960021972656,-28.11334228515625
200291,-3.480697631835938,1.38360595703125,-2.35736083984375,2.096094608306885,3.37782621383667,-3.514247417449951,40.81419372558594,98.19960021972656,-28.11334228515625
200292,-1.122314453125,1.577774047851562,-0.89569091796875,-0.9528846144676208,3.058229446411133,1.642653703689575,35.61357116699219,96.83477783203124,-34.380126953125
200293,-0.5545196533203125,1.443588256835938,-0.386962890625,-0.8599914312362671,2.478545427322388,1.959930539131165,35.83506774902344,96.80996704101562,-35.60356140136719
200294,-0.3507537841796875,1.320083618164062,-0.242095947265625,-0.141043409705162,1.972411870956421,2.076987266540527,37.32440185546875,96.98114013671876,-35.7479248046875
200295,-0.3507537841796875,1.320083618164062,-0.242095947265625,-0.141043409705162,1.972411870956421,2.076987266540527,37.32440185546875,96.98114013671876,-35.7479248046875
200296,-0.280914306640625,0.975982666015625,0.0954742431640625,1.42509925365448,1.444046139717102,1.815341353416443,40.54792785644531,97.51799011230467,-35.58479309082031
200297,-0.2415924072265625,0.9348907470703124,0.130462646484375,1.686819314956665,1.400778532028198,1.600505709648132,41.81639099121094,97.50929260253906,-35.81388854980469
200298,-0.154693603515625,0.9401702880859376,0.0743255615234375,1.608416438102722,1.396477222442627,1.462634682655334,42.85317993164062,97.5025634765625,-36.42337036132812
200299,-0.154693603515625,0.9401702880859376,0.0743255615234375,1.608416438102722,1.396477222442627,1.462634682655334,42.85317993164062,97.5025634765625,-36.42337036132812
200300,-0.0130157470703125,1.248336791992188,-0.117919921875,1.029276371002197,0.7296600341796875,1.530810236930847,44.50584411621094,96.99769592285156,-38.11566162109375
200301,-0.099395751953125,1.650741577148438,0.02911376953125,0.6294447779655457,0.4737867414951324,1.391965627670288,45.2161865234375,96.6185302734375,-38.70657348632812
200302,-0.226104736328125,2.000885009765625,0.152252197265625,0.2095777243375778,0.4775439202785492,1.029701948165894,45.87577819824219,96.46011352539062,-39.15156555175781
200303,-0.32281494140625,1.9747314453125,0.255157470703125,-0.0694879963994026,0.6240921020507812,0.704281210899353,46.59724426269531,96.27284240722656,-39.39715576171875
200304,-0.41412353515625,1.702392578125,0.418304443359375,-0.0416979119181633,0.937987983226776,0.6255195140838623,47.29069519042969,96.21971130371094,-39.47810363769531
200305,-0.4501495361328125,1.534347534179688,0.5602874755859375,0.1839128434658051,1.33140504360199,0.533471405506134,47.89321899414062,96.15193176269533,-39.37721252441406
200306,-0.4477386474609375,1.205047607421875,0.57196044921875,0.473410427570343,1.38614022731781,-0.0160849597305059,49.34953308105469,96.2248077392578,-39.66136169433594
200307,-0.4477386474609375,1.205047607421875,0.57196044921875,0.473410427570343,1.38614022731781,-0.0160849597305059,49.34953308105469,96.2248077392578,-39.66136169433594
200308,-0.4777984619140625,0.9753570556640624,0.538299560546875,0.473410427570343,1.38614022731781,-0.0160849597305059,50.13145446777344,96.25216674804688,-39.96798706054688
200309,-0.5144500732421875,0.7688751220703125,0.4991607666015625,0.180232360959053,1.328160524368286,-0.2306691706180573,50.7645263671875,96.14411926269533,-40.0325927734375
200310,-0.5334014892578125,0.6003265380859375,0.421844482421875,-0.2341160923242569,1.157435059547424,-0.4302893280982971,51.3387451171875,95.95735168457033,-40.0537109375
200311,-0.5334014892578125,0.6003265380859375,0.421844482421875,-0.2341160923242569,1.157435059547424,-0.4302893280982971,51.3387451171875,95.95735168457033,-40.0537109375
200312,-0.570159912109375,0.354156494140625,0.2667236328125,-0.9837429523468018,0.323302686214447,-0.771608293056488,51.84138488769531,96.11048889160156,-40.16386413574219
200313,-0.58697509765625,0.2017822265625,0.2260894775390625,-1.198040843009949,-0.1753877997398376,-0.9114258885383606,51.7740478515625,96.35507202148438,-39.92250061035156
200314,-0.689910888671875,-0.0631103515625,0.260772705078125,-1.381429076194763,-0.2937999367713928,-0.5304582715034485,51.54289245605469,96.87149047851562,-39.66900634765625
200315,-0.689910888671875,-0.0631103515625,0.260772705078125,-1.381429076194763,-0.2937999367713928,-0.5304582715034485,51.54289245605469,96.87149047851562,-39.66900634765625
200316,-0.7380523681640625,-0.2479400634765625,-0.1123046875,-1.015108585357666,-0.5887841582298279,-0.3519788086414337,50.28457641601562,98.07601928710938,-38.3974609375
200317,-0.6741943359375,-0.1637115478515625,-0.2216644287109375,-0.2902757823467255,-1.291770577430725,-0.3291571140289307,49.72772216796875,98.67808532714844,-37.72453308105469
200318,-0.5382080078125,0.0010833740234375,0.1070098876953125,0.2990735173225403,-0.917680561542511,-0.5910499691963196,49.17135620117188,99.09991455078124,-37.13594055175781
200319,-0.5382080078125,0.0010833740234375,0.1070098876953125,0.2990735173225403,-0.917680561542511,-0.5910499691963196,49.17135620117188,99.09991455078124,-37.13594055175781
200320,-0.26812744140625,0.218414306640625,0.1867828369140625,0.1436889916658401,-0.5979222655296326,-0.6437875032424927,48.00657653808594,99.27796936035156,-36.66079711914062
200321,-0.186279296875,0.3328399658203125,0.1185455322265625,-0.091215394437313,-0.5893548727035522,-0.6706870198249817,47.60810852050781,99.10818481445312,-36.75959777832031
200322,-0.13671875,0.432159423828125,0.1126708984375,-0.3508560359477997,-0.7553750276565552,-0.6874098181724548,47.23033142089844,98.77818298339844,-36.79367065429688
200323,-0.13671875,0.432159423828125,0.1126708984375,-0.3508560359477997,-0.7553750276565552,-0.6874098181724548,47.23033142089844,98.77818298339844,-36.79367065429688
200324,-0.1461944580078125,0.6172943115234375,0.2027435302734375,-0.7355829477310181,-1.030060052871704,-0.684778094291687,46.69932556152344,98.74269104003906,-36.8333740234375
200325,-0.16339111328125,0.689727783203125,0.256927490234375,-0.7872509360313416,-0.9908493161201476,-0.6928290724754333,46.3406982421875,98.710693359375,-36.62017822265625
200326,-0.16925048828125,0.714080810546875,0.319366455078125,-0.7376183867454529,-0.5388512015342712,-0.8329553008079529,45.87858581542969,98.8018798828125,-36.23243713378906
200327,-0.16925048828125,0.714080810546875,0.319366455078125,-0.7376183867454529,-0.5388512015342712,-0.8329553008079529,45.87858581542969,98.8018798828125,-36.23243713378906
200328,-0.15692138671875,0.5346221923828125,0.3141937255859375,-0.7231550216674805,-0.3446580469608307,-0.920004427433014,44.84011840820312,99.18179321289062,-35.56181335449219
200329,-0.1818084716796875,0.4224853515625,0.2987060546875,-0.7424027323722839,-0.2514708340167999,-0.965798020362854,44.38121032714844,99.40139770507812,-35.22459411621094
200330,-0.21417236328125,0.3358612060546875,0.2676239013671875,-0.7168958187103271,-0.6447707414627075,-1.061712861061096,43.959716796875,99.4093780517578,-34.93769836425781
200331,-0.21417236328125,0.3358612060546875,0.2676239013671875,-0.7168958187103271,-0.6447707414627075,-1.061712861061096,43.959716796875,99.4093780517578,-34.93769836425781
200332,-0.2494049072265625,0.1559295654296875,0.2641143798828125,-0.7944558262825012,-1.057066440582275,-1.00802218914032,43.73101806640625,99.1873779296875,-34.36573791503906
200333,-0.247802734375,0.1090240478515625,0.31683349609375,-1.042913794517517,-1.288299918174744,-0.8828845024108887,43.57295227050781,98.67237854003906,-33.35490417480469
200334,-0.22686767578125,0.0566864013671875,0.2748870849609375,-1.56259298324585,-0.924321711063385,-0.7167493104934692,42.69317626953125,98.81234741210938,-32.289794921875
200335,-0.22686767578125,0.0566864013671875,0.2748870849609375,-1.56259298324585,-0.924321711063385,-0.7167493104934692,42.69317626953125,98.81234741210938,-32.289794921875
200336,-0.22430419921875,0.0617523193359375,0.1763153076171875,-1.668933510780334,-0.6542606353759766,-0.6467201709747314,42.13412475585938,98.95431518554688,-31.56979370117188
200337,-0.2278594970703125,0.0997161865234375,0.0761260986328125,-1.701644062995911,-0.4638928174972534,-0.5617802739143372,41.61630249023438,99.19773864746094,-30.90910339355469
200338,-0.2194671630859375,0.255126953125,-0.058013916015625,-1.677312135696411,-0.2021570950746536,-0.5137671828269958,40.72616577148438,99.75521850585938,-29.29779052734375
200339,-0.2194671630859375,0.255126953125,-0.058013916015625,-1.677312135696411,-0.2021570950746536,-0.5137671828269958,40.72616577148438,99.75521850585938,-29.29779052734375
200340,-0.2427215576171875,0.3397216796875,-0.19927978515625,-1.580233216285706,-0.1038947105407715,-0.5726459622383118,40.21336364746094,100.2141571044922,-28.41629028320312
200341,-0.2871246337890625,0.4469451904296875,-1.115585327148438,-1.051356911659241,-1.163704752922058,-0.7504540085792542,39.46591186523438,100.4909820556641,-27.64169311523438
200342,-0.2872314453125,0.4915008544921875,-1.355117797851562,-0.1169705614447594,-3.479418516159058,-0.9458094239234924,38.55838012695312,100.8466186523438,-27.112548828125
200343,-0.2872314453125,0.4915008544921875,-1.355117797851562,-0.1169705614447594,-3.479418516159058,-0.9458094239234924,38.55838012695312,100.8466186523438,-27.112548828125
200344,-0.4163055419921875,0.516937255859375,-0.2049713134765625,-0.5136198997497559,-1.805938839912415,-0.4744701087474823,35.95877075195312,101.2435760498047,-26.01388549804688
200345,-0.3407745361328125,0.8526458740234375,-0.4434051513671875,-0.422002375125885,-0.5792713761329651,-0.1851813048124313,34.89631652832031,101.1046447753906,-25.17494201660156
200346,-0.3193359375,1.0576171875,-0.409820556640625,0.0215931758284568,-0.058902733027935,-0.1612887531518936,34.40281677246094,101.0493316650391,-24.69813537597656
200347,-0.3193359375,1.0576171875,-0.409820556640625,0.0215931758284568,-0.058902733027935,-0.1612887531518936,34.40281677246094,101.0493316650391,-24.69813537597656
200348,-0.297027587890625,1.336334228515625,-0.4433746337890625,0.9466916918754578,0.0866166502237319,-0.2787730395793915,34.31097412109375,100.7080383300781,-24.08981323242188
200349,-0.4212799072265625,1.668914794921875,-0.8311309814453125,0.9466916918754578,0.0866166502237319,-0.2787730395793915,34.27291870117188,100.42626953125,-23.98606872558594
200350,-0.732452392578125,2.344772338867188,-1.1124267578125,2.330886125564575,-0.3316186666488647,-0.680743932723999,34.13310241699219,99.96316528320312,-24.90806579589844
200351,-0.732452392578125,2.344772338867188,-1.1124267578125,2.330886125564575,-0.3316186666488647,-0.680743932723999,34.13310241699219,99.96316528320312,-24.90806579589844
200352,-0.9807281494140624,2.451950073242188,-1.118728637695312,2.853716373443604,0.3577243089675903,-0.7256554365158081,33.808349609375,99.6072998046875,-25.65200805664062
200353,-1.218994140625,2.45294189453125,-1.265060424804688,2.834932804107666,1.054962277412415,-0.5757213830947876,33.41676330566406,99.22222900390624,-26.85783386230469
200354,-1.3515625,2.485641479492188,-1.5926513671875,2.105733394622803,1.049085974693298,-0.1731177270412445,33.08909606933594,98.7526397705078,-28.22740173339844
200355,-1.3515625,2.485641479492188,-1.5926513671875,2.105733394622803,1.049085974693298,-0.1731177270412445,33.08909606933594,98.7526397705078,-28.22740173339844
200356,-1.243255615234375,2.797409057617188,-0.7352142333984375,0.5979752540588379,-0.155415415763855,0.5019922852516174,33.13078308105469,98.14356994628906,-30.51982116699219
200357,-1.3267822265625,3.031509399414062,-0.320098876953125,0.7681067585945129,0.0261756777763366,0.7441380620002747,33.38676452636719,98.0982666015625,-31.11448669433594
200358,-1.496841430664062,3.265701293945312,-0.3184814453125,1.546613454818726,-0.2817789614200592,1.320309281349182,34.23391723632812,97.94309997558594,-32.02346801757812
200359,-1.496841430664062,3.265701293945312,-0.3184814453125,1.546613454818726,-0.2817789614200592,1.320309281349182,34.23391723632812,97.94309997558594,-32.02346801757812
200360,-1.309494018554688,3.212783813476562,-0.051422119140625,1.682514071464539,-0.2948657274246216,1.362614393234253,34.78924560546875,97.99693298339844,-32.95848083496094
200361,-1.085723876953125,2.7564697265625,0.1706390380859375,1.868084192276001,0.0321973524987697,1.306972146034241,35.40040588378906,98.04093933105467,-33.98268127441406
200362,-1.006759643554688,2.271484375,0.29034423828125,2.065973997116089,0.4000110626220703,1.328041434288025,36.04486083984375,97.8571319580078,-35.01495361328125
200363,-1.006759643554688,2.271484375,0.29034423828125,2.065973997116089,0.4000110626220703,1.328041434288025,36.04486083984375,97.8571319580078,-35.01495361328125
200364,-0.9202880859375,1.604156494140625,0.630859375,2.644782781600952,1.196358323097229,1.237751722335815,37.6959228515625,97.44821166992188,-37.22050476074219
200365,-0.820404052734375,1.34686279296875,0.799346923828125,2.72426176071167,1.71694815158844,1.132997155189514,38.76139831542969,96.9664306640625,-38.41653442382812
200366,-0.7166748046875,1.0966796875,0.82928466796875,2.418954372406006,2.193023681640625,1.102702617645264,39.95083618164062,96.3679656982422,-39.90866088867188
200367,-0.7166748046875,1.0966796875,0.82928466796875,2.418954372406006,2.193023681640625,1.102702617645264,39.95083618164062,96.3679656982422,-39.90866088867188
200368,-0.6263275146484375,0.748443603515625,0.63623046875,1.239952325820923,2.005803346633911,0.8562284111976624,42.61575317382812,95.07432556152344,-42.34687805175781
200369,-0.6184844970703125,0.613616943359375,0.6551971435546875,0.6464778184890747,1.797347664833069,0.6545525193214417,43.85379028320312,94.4959716796875,-43.11895751953125
200370,-0.6348419189453125,0.516387939453125,0.6908721923828125,0.1364081799983978,1.57293426990509,0.5681758522987366,44.82156372070312,94.36041259765624,-43.73481750488281
200371,-0.6348419189453125,0.516387939453125,0.6908721923828125,0.1364081799983978,1.57293426990509,0.5681758522987366,44.82156372070312,94.36041259765624,-43.73481750488281
200372,-0.702850341796875,0.5135955810546875,0.8461456298828125,-0.6281672716140747,1.288903594017029,0.5831403732299805,46.11347961425781,94.38027954101562,-44.07035827636719
200373,-0.7177276611328125,0.555755615234375,0.8820953369140625,-0.9150528311729432,1.225476741790771,0.5484803915023804,46.52020263671875,94.7584228515625,-43.9476318359375
200374,-0.6884765625,0.560791015625,0.8167877197265625,-1.140852689743042,1.097883105278015,0.4948741793632507,46.93342590332031,95.00753784179688,-43.61994934082031
200375,-0.6884765625,0.560791015625,0.8167877197265625,-1.140852689743042,1.097883105278015,0.4948741793632507,46.93342590332031,95.00753784179688,-43.61994934082031
200376,-0.5247344970703125,0.510894775390625,0.5083770751953125,-1.215431809425354,0.4065536558628082,0.353114128112793,47.49899291992188,96.05451965332033,-42.53439331054688
200377,-0.433685302734375,0.4419097900390625,0.3813323974609375,-1.080270051956177,-0.0272015277296304,0.257626473903656,47.65208435058594,96.63589477539062,-42.04241943359375
200378,-0.3389434814453125,0.3211822509765625,0.1491851806640625,-0.8953360915184021,-0.4664334952831268,0.1529621183872223,47.79067993164062,96.98434448242188,-41.47685241699219
200379,-0.3389434814453125,0.3211822509765625,0.1491851806640625,-0.8953360915184021,-0.4664334952831268,0.1529621183872223,47.79067993164062,96.98434448242188,-41.47685241699219
200380,-0.164276123046875,0.05859375,-0.0511627197265625,-0.2611040472984314,-2.117171049118042,0.0144361974671483,47.57359313964844,97.3428955078125,-40.34693908691406
200381,-0.1121673583984375,0.03173828125,0.2211761474609375,-0.2774150967597961,-1.874505877494812,-0.1714316755533218,47.29182434082031,97.37582397460938,-39.91973876953125
200382,-0.0137481689453125,-0.036163330078125,0.22027587890625,-0.4554546177387238,-1.378151178359985,-0.285191535949707,46.93876647949219,97.40542602539062,-39.57138061523438
200383,0.08111572265625,-0.0959320068359375,0.1135711669921875,-0.6110777258872986,-1.082216501235962,-0.2530533075332642,46.62882995605469,97.33981323242188,-39.19924926757812
200384,0.1324615478515625,-0.11724853515625,0.075164794921875,-0.6870686411857605,-0.9984337091445924,-0.1279813945293427,46.4320068359375,97.34242248535156,-38.7083740234375
200385,0.1366424560546875,-0.0877838134765625,0.1154937744140625,-0.774745762348175,-0.9188888669013976,0.0139807965606451,46.28076171875,97.30416870117188,-38.12138366699219
200386,0.1320648193359375,-0.0434112548828125,0.140594482421875,-1.076140999794006,-0.9294613003730774,0.1529679745435715,46.33938598632812,97.0315399169922,-37.50956726074219
200387,0.1320648193359375,-0.0434112548828125,0.140594482421875,-1.076140999794006,-0.9294613003730774,0.1529679745435715,46.33938598632812,97.0315399169922,-37.50956726074219
200388,0.142852783203125,0.045440673828125,0.1259307861328125,-1.19986355304718,-1.188419103622437,0.1645415425300598,46.46945190429688,96.87351989746094,-36.1070556640625
200389,0.15240478515625,0.1373138427734375,0.161651611328125,-1.268835663795471,-1.621595859527588,0.1484691053628922,46.52311706542969,96.75910949707033,-35.34609985351562
200390,0.1563873291015625,0.2723236083984375,0.2160491943359375,-1.314034342765808,-2.125547170639038,0.0923208743333816,46.40261840820312,96.69419860839844,-34.50856018066406
200391,0.14312744140625,0.608734130859375,0.2861785888671875,-1.384433150291443,-2.611169815063477,0.0006596649764105,46.23182678222656,96.6934814453125,-33.6435546875
200392,0.105743408203125,1.109420776367188,0.39569091796875,-1.545324802398682,-2.887894153594971,-0.0685220658779144,45.90513610839844,96.8787078857422,-32.9376220703125
200393,-0.021026611328125,1.437103271484375,0.3213653564453125,-1.713162302970886,-2.811719179153442,-0.4097670018672943,45.47004699707031,97.00613403320312,-32.05848693847656
200394,-0.2407684326171875,1.413497924804688,-0.0883026123046875,-1.659093141555786,-2.88923978805542,-1.256181597709656,44.91455078125,97.28572082519533,-31.16249084472656
200395,-0.2407684326171875,1.413497924804688,-0.0883026123046875,-1.659093141555786,-2.88923978805542,-1.256181597709656,44.91455078125,97.28572082519533,-31.16249084472656
200396,-0.22418212890625,0.4937591552734375,-0.3505859375,-0.3231383860111237,-3.956079006195068,-2.385489940643311,42.92306518554688,97.83268737792967,-29.29484558105469
200397,-0.1543121337890625,0.2397308349609375,0.0667266845703125,0.2238565236330032,-3.465593576431274,-2.511431217193604,41.43438720703125,98.03646850585938,-28.44976806640625
200398,-0.132293701171875,0.121978759765625,0.1857452392578125,0.4442160725593567,-2.483654260635376,-2.522127866744995,39.73521423339844,97.95811462402344,-27.87298583984375
200399,-0.132293701171875,0.121978759765625,0.1857452392578125,0.4442160725593567,-2.483654260635376,-2.522127866744995,39.73521423339844,97.95811462402344,-27.87298583984375
200400,-0.166717529296875,-0.0208740234375,-0.12506103515625,0.2133911103010178,0.5954402089118958,-2.076349496841431,36.52517700195312,97.52615356445312,-27.59701538085938
200401,-0.208282470703125,-0.1815032958984375,-0.3512115478515625,0.2133911103010178,0.5954402089118958,-2.076349496841431,35.09730529785156,97.16903686523438,-27.87364196777344
200402,-0.097808837890625,-0.18206787109375,-0.7005615234375,-0.7177690267562866,-0.2632026076316833,-1.0009605884552,33.96987915039062,96.6891632080078,-28.240234375
200403,-0.097808837890625,-0.18206787109375,-0.7005615234375,-0.7177690267562866,-0.2632026076316833,-1.0009605884552,33.96987915039062,96.6891632080078,-28.240234375
200404,0.1482696533203125,0.254638671875,-0.168701171875,-1.017358899116516,-0.6901075839996338,-0.602820873260498,32.52290344238281,96.24960327148438,-28.30801391601562
200405,0.148773193359375,0.3159332275390625,-0.1063995361328125,-1.200993180274963,-0.8676844835281372,-0.2139301300048828,32.03950500488281,96.2219696044922,-27.79170227050781
200406,0.1405181884765625,0.4258880615234375,-0.1088714599609375,-1.159621238708496,-0.8690605759620667,0.1618107408285141,31.74070739746094,96.2415771484375,-27.34867858886719
200407,0.1405181884765625,0.4258880615234375,-0.1088714599609375,-1.159621238708496,-0.8690605759620667,0.1618107408285141,31.74070739746094,96.2415771484375,-27.34867858886719
200408,0.0428466796875,0.80029296875,-0.0670166015625,-0.3753136992454529,-0.0873570069670677,0.1325529813766479,31.48292541503906,96.55731201171876,-26.25732421875
200409,0.0079498291015625,0.9110107421875,-0.064361572265625,-0.3753136992454529,-0.0873570069670677,0.1325529813766479,31.69575500488281,96.6255340576172,-25.42613220214844
200410,-0.0474090576171875,0.93634033203125,-0.0856475830078125,-0.0247516855597496,0.0709005370736122,-0.5930728912353516,31.88458251953125,96.79013061523438,-24.94418334960938
200411,-0.14019775390625,0.85748291015625,-0.102508544921875,-0.0247516855597496,0.0709005370736122,-0.5930728912353516,32.062255859375,96.8023681640625,-24.58322143554688
200412,-0.24847412109375,0.78448486328125,-0.095611572265625,0.1657892316579819,0.065747857093811,-0.8110787272453308,32.161865234375,96.79345703125,-24.47323608398438
200413,-0.33160400390625,0.7834930419921875,-0.0721588134765625,0.3571234941482544,0.0897155031561851,-1.013382315635681,32.01985168457031,96.80574035644533,-24.2635498046875
200414,-0.40228271484375,0.8295745849609375,-0.047515869140625,0.5311160683631897,0.2428978681564331,-1.507472515106201,31.71134948730469,96.59544372558594,-24.13531494140625
200415,-0.40228271484375,0.8295745849609375,-0.047515869140625,0.5311160683631897,0.2428978681564331,-1.507472515106201,31.71134948730469,96.59544372558594,-24.13531494140625
200416,-0.5989837646484375,1.038162231445312,0.107574462890625,0.4683451056480408,0.4770602881908417,-1.867390394210815,30.80732727050781,96.3446807861328,-24.72468566894531
200417,-0.7665557861328125,1.254074096679688,0.2230987548828125,0.2963547110557556,0.812407910823822,-2.43758749961853,30.08062744140625,96.18540954589844,-25.15318298339844
200418,-0.984954833984375,1.537948608398438,0.3944244384765625,0.0066861324012279,1.316290259361267,-3.295210361480713,29.23869323730469,95.97444152832033,-25.5614013671875
200419,-0.984954833984375,1.537948608398438,0.3944244384765625,0.0066861324012279,1.316290259361267,-3.295210361480713,29.23869323730469,95.97444152832033,-25.5614013671875
200420,-3.105667114257812,0.9152374267578124,0.7868804931640625,-0.1747491657733917,2.914834260940552,-2.363496065139771,26.71128845214844,95.48191833496094,-27.242919921875
200421,-3.681198120117188,1.439620971679688,0.3830108642578125,0.4377256631851196,3.394234657287598,-0.38083416223526,25.25869750976562,95.22479248046876,-28.13873291015625
200422,-3.931442260742188,2.152191162109375,0.1509246826171875,1.231467247009277,2.561832427978516,0.3924282491207123,24.43534851074219,95.22750854492188,-29.17829895019531
200423,-3.931442260742188,2.152191162109375,0.1509246826171875,1.231467247009277,2.561832427978516,0.3924282491207123,24.43534851074219,95.22750854492188,-29.17829895019531
200424,-3.395751953125,3.737380981445312,-0.779388427734375,0.2104672193527222,0.8249242901802063,0.4171660840511322,23.62030029296875,95.8213348388672,-31.329345703125
200425,-2.504714965820312,3.61126708984375,-0.633544921875,-0.5630521774291992,0.3583030104637146,0.2529819309711456,23.10040283203125,96.01979064941406,-32.55081176757812
200426,-2.018463134765625,2.8260498046875,-0.1848297119140625,-0.2062564939260483,0.436607152223587,0.2620393335819244,22.55021667480469,96.12571716308594,-33.43124389648438
200427,-2.018463134765625,2.8260498046875,-0.1848297119140625,-0.2062564939260483,0.436607152223587,0.2620393335819244,22.55021667480469,96.12571716308594,-33.43124389648438
200428,-1.659225463867188,2.326187133789062,0.12579345703125,0.6948387026786804,0.5333491563796997,0.5349425077438354,22.3902587890625,96.04147338867188,-33.68754577636719
200429,-1.086715698242188,1.728805541992188,0.18023681640625,1.59066641330719,0.5281397104263306,0.6175545454025269,23.93307495117188,95.4153289794922,-34.20445251464844
200430,-0.717803955078125,1.481185913085938,0.1236572265625,1.61481761932373,-0.0406933687627315,0.7094775438308716,25.14010620117188,94.66145324707033,-34.80770874023438
200431,-0.717803955078125,1.481185913085938,0.1236572265625,1.61481761932373,-0.0406933687627315,0.7094775438308716,25.14010620117188,94.66145324707033,-34.80770874023438
200432,-0.2325592041015625,1.108200073242188,0.0029296875,1.38768482208252,-0.3586417734622955,0.8194224238395691,27.26986694335938,93.4282684326172,-36.22805786132812
200433,-0.0372772216796875,0.8428192138671875,0.108551025390625,1.040038108825684,-0.6823593974113464,1.098191976547241,28.08213806152344,92.8601531982422,-36.72459411621094
200434,0.1255340576171875,0.6184539794921875,0.2679290771484375,0.6404321789741516,-0.450810045003891,2.058591365814209,28.56727600097656,92.53318786621094,-37.04139709472656
200435,0.1255340576171875,0.6184539794921875,0.2679290771484375,0.6404321789741516,-0.450810045003891,2.058591365814209,28.56727600097656,92.53318786621094,-37.04139709472656
200436,0.201171875,0.4033050537109375,0.4445037841796875,0.6241778135299683,0.1521067172288895,2.421766042709351,29.33393859863281,92.25230407714844,-37.029052734375
200437,0.199920654296875,0.3455352783203125,0.4430084228515625,0.6587523221969604,0.8796554207801819,2.64629602432251,29.89712524414062,92.50067138671876,-36.89535522460938
200438,0.0729522705078125,0.318756103515625,0.3326873779296875,0.5830722451210022,1.940991640090942,2.030250549316406,32.01458740234375,93.0259246826172,-37.00315856933594
200439,0.0729522705078125,0.318756103515625,0.3326873779296875,0.5830722451210022,1.940991640090942,2.030250549316406,32.01458740234375,93.0259246826172,-37.00315856933594
200440,-0.0186767578125,0.291839599609375,0.25030517578125,0.5830722451210022,1.940991640090942,2.030250549316406,33.53448486328125,93.31983947753906,-37.22496032714844
200441,-0.0186767578125,0.291839599609375,0.25030517578125,0.5830722451210022,1.940991640090942,2.030250549316406,33.53448486328125,93.31983947753906,-37.22496032714844
200442,-0.24127197265625,0.1486663818359375,0.1924591064453125,0.2102408558130264,0.942788064479828,1.074967980384827,36.465087890625,93.57638549804688,-38.14723205566406
200443,-0.24127197265625,0.1486663818359375,0.1924591064453125,0.2102408558130264,0.942788064479828,1.074967980384827,36.465087890625,93.57638549804688,-38.14723205566406
200444,-0.310638427734375,0.0915374755859375,0.2779693603515625,-0.0044163200072944,0.0783914774656295,0.4351701140403748,38.51705932617188,93.78414916992188,-38.48722839355469
200445,-0.2922821044921875,0.0609283447265625,0.3285064697265625,-0.1083232760429382,-0.0153339486569166,0.1661431640386581,39.04611206054688,93.9769287109375,-38.76611328125
200446,-0.2856903076171875,0.013671875,0.4266204833984375,-0.2770089507102966,0.2676631212234497,-0.0487816557288169,39.33482360839844,94.15089416503906,-39.00433349609375
200447,-0.2856903076171875,0.013671875,0.4266204833984375,-0.2770089507102966,0.2676631212234497,-0.0487816557288169,39.33482360839844,94.15089416503906,-39.00433349609375
200448,-0.40594482421875,-0.2389373779296875,0.4256591796875,-1.14458966255188,2.111013174057007,0.5080123543739319,39.54975891113281,94.61656188964844,-39.30433654785156
200449,-0.40594482421875,-0.2389373779296875,0.4256591796875,-1.14458966255188,2.111013174057007,0.5080123543739319,39.54975891113281,94.61656188964844,-39.30433654785156
200450,-0.3993682861328125,0.069976806640625,0.228485107421875,-0.961599826812744,1.145240783691406,0.6282088160514832,40.17021179199219,95.1051025390625,-38.96185302734375
200451,-0.3993682861328125,0.069976806640625,0.228485107421875,-0.961599826812744,1.145240783691406,0.6282088160514832,40.17021179199219,95.1051025390625,-38.96185302734375
200452,-0.3137969970703125,0.3044281005859375,0.3375244140625,-1.147326588630676,0.7703046798706055,0.4007990956306458,41.44955444335938,95.912109375,-38.3975830078125
200453,-0.3137969970703125,0.3044281005859375,0.3375244140625,-1.147326588630676,0.7703046798706055,0.4007990956306458,41.44955444335938,95.912109375,-38.3975830078125
200454,-0.2999267578125,0.3659820556640625,0.499725341796875,-1.887313842773438,0.3410228490829468,-0.0279916878789663,42.13069152832031,97.31062316894533,-37.16645812988281
200455,-0.2999267578125,0.3659820556640625,0.499725341796875,-1.887313842773438,0.3410228490829468,-0.0279916878789663,42.13069152832031,97.31062316894533,-37.16645812988281
200456,-0.298736572265625,0.374542236328125,0.4790496826171875,-1.952845931053162,0.2445575445890427,-0.1558010429143906,42.121337890625,97.80551147460938,-36.46463012695312
200457,-0.2880401611328125,0.3521270751953125,0.4415435791015625,-1.879509687423706,0.045576274394989,-0.3052744269371033,42.177001953125,98.13502502441406,-35.50717163085938
200458,-0.2639617919921875,0.292449951171875,0.4008636474609375,-1.536942958831787,-0.4715952277183533,-0.5600595474243164,42.13905334472656,98.55661010742188,-34.71595764160156
200459,-0.2639617919921875,0.292449951171875,0.4008636474609375,-1.536942958831787,-0.4715952277183533,-0.5600595474243164,42.13905334472656,98.55661010742188,-34.71595764160156
200460,-0.169097900390625,0.1415557861328125,0.3121795654296875,-1.407799124717712,-0.6199615001678467,-0.6280031800270081,41.96682739257812,99.28684997558594,-33.038818359375
200461,-0.169097900390625,0.1415557861328125,0.3121795654296875,-1.407799124717712,-0.6199615001678467,-0.6280031800270081,41.96682739257812,99.28684997558594,-33.038818359375
200462,-0.047515869140625,0.0565032958984375,0.16619873046875,-1.319392085075378,-0.802762508392334,-0.620596170425415,41.1219482421875,99.51333618164062,-30.730712890625
200463,-0.047515869140625,0.0565032958984375,0.16619873046875,-1.319392085075378,-0.802762508392334,-0.620596170425415,41.1219482421875,99.51333618164062,-30.730712890625
200464,-0.0246734619140625,0.0754852294921875,0.10845947265625,-1.368292212486267,-0.8814317584037781,-0.5778939723968506,40.83863830566406,99.45480346679688,-30.12223815917969
200465,-0.008087158203125,0.10516357421875,0.0588836669921875,-1.443198442459106,-0.9993346929550172,-0.5169174075126648,40.48655700683594,99.50830078125,-29.53729248046875
200466,-0.00701904296875,0.1428985595703125,0.0222015380859375,-1.549600005149841,-1.058870434761047,-0.4241816401481628,40.14521789550781,99.55621337890624,-28.912109375
200467,-0.00701904296875,0.1428985595703125,0.0222015380859375,-1.549600005149841,-1.058870434761047,-0.4241816401481628,40.14521789550781,99.55621337890624,-28.912109375
200468,-0.0315704345703125,0.299896240234375,-0.187225341796875,-1.725378394126892,-0.9930456280708312,-0.1075978353619576,39.54750061035156,99.50692749023438,-27.58030700683594
200469,0.1102142333984375,0.5597076416015625,-1.684616088867188,-1.06114399433136,-2.805402517318726,0.2670468688011169,39.14559936523438,99.56306457519533,-26.72627258300781
200470,0.16888427734375,1.323837280273438,-0.040008544921875,0.4587481319904327,-2.435090780258179,1.049933433532715,37.81251525878906,100.0420684814453,-25.14143371582031
200471,0.16888427734375,1.323837280273438,-0.040008544921875,0.4587481319904327,-2.435090780258179,1.049933433532715,37.81251525878906,100.0420684814453,-25.14143371582031
200472,0.031585693359375,1.323760986328125,-0.3057861328125,0.2253191322088242,0.6481097936630249,1.118944644927979,36.89608764648438,100.3968048095703,-24.41912841796875
200473,0.0327301025390625,1.19476318359375,-0.2867431640625,0.24925297498703,1.555269241333008,1.148541212081909,36.4197998046875,100.5467376708984,-23.93519592285156
200474,0.055023193359375,1.107131958007812,-0.2089385986328125,0.0499294772744178,1.755382657051086,1.11701500415802,36.83164978027344,100.6257171630859,-23.67683410644531
200475,0.055023193359375,1.107131958007812,-0.2089385986328125,0.0499294772744178,1.755382657051086,1.11701500415802,36.83164978027344,100.6257171630859,-23.67683410644531
200476,0.03057861328125,1.2464599609375,0.005218505859375,-0.6479414701461792,1.148291945457458,0.989556610584259,38.55479431152344,100.4559478759766,-23.80473327636719
200477,0.0038909912109375,1.4661865234375,0.059051513671875,-0.7159144282341003,0.5939789414405823,0.7986024022102356,39.54458618164062,100.4144592285156,-23.70046997070312
200478,-0.0171356201171875,1.680068969726562,-0.02496337890625,0.2405548244714737,-1.318823218345642,0.4393967986106873,40.43472290039062,100.3355102539062,-23.56353759765625
200479,-0.0171356201171875,1.680068969726562,-0.02496337890625,0.2405548244714737,-1.318823218345642,0.4393967986106873,40.43472290039062,100.3355102539062,-23.56353759765625
200480,-0.15423583984375,2.245986938476562,-0.3237762451171875,1.078717708587646,-2.3369140625,0.2236176431179047,41.4605712890625,100.3745269775391,-22.69258117675781
200481,-0.2389068603515625,2.6563720703125,-0.3690338134765625,2.065491914749146,-2.854475021362305,-0.1874689608812332,41.59439086914062,100.3414001464844,-22.47349548339844
200482,-0.425018310546875,3.03704833984375,-0.1817474365234375,2.969851970672607,-2.082521438598633,-0.7060993313789368,41.38072204589844,100.4869384765625,-22.64715576171875
200483,-0.425018310546875,3.03704833984375,-0.1817474365234375,2.969851970672607,-2.082521438598633,-0.7060993313789368,41.38072204589844,100.4869384765625,-22.64715576171875
200484,-1.024826049804688,3.456985473632812,-0.2851104736328125,2.472757577896118,3.41016697883606,-1.796906709671021,39.9049072265625,100.2671661376953,-24.38871765136719
200485,-1.081222534179688,3.573577880859375,-1.092239379882812,1.704625487327576,3.074953317642212,-2.547810077667236,39.04280090332031,100.0674743652344,-25.8006591796875
200486,-1.1435546875,3.398086547851562,-0.8877410888671875,1.111722469329834,1.362407445907593,-2.932535886764526,38.29029846191406,99.80525207519533,-27.68217468261719
200487,-1.1435546875,3.398086547851562,-0.8877410888671875,1.111722469329834,1.362407445907593,-2.932535886764526,38.29029846191406,99.80525207519533,-27.68217468261719
200488,-2.085708618164062,2.074066162109375,0.0667724609375,0.659375786781311,1.020627975463867,-1.352898836135864,36.50003051757812,99.26072692871094,-31.05107116699219
200489,-2.18865966796875,1.74676513671875,0.186431884765625,1.044424891471863,1.980801701545715,0.6565741300582886,35.42842102050781,99.1156768798828,-32.3043212890625
200490,-1.261062622070312,1.841598510742188,-0.08294677734375,1.680821061134338,2.12037205696106,0.9391509890556335,34.69902038574219,98.89381408691406,-33.36978149414062
200491,-0.9704742431640624,1.45208740234375,-0.0206146240234375,2.156597137451172,1.595958948135376,0.9987645149230956,34.91966247558594,98.81826782226562,-34.17036437988281
200492,-0.9375762939453124,1.069046020507812,0.2939453125,2.351367950439453,1.514544248580933,1.022297263145447,35.77078247070312,98.67465209960938,-35.18521118164062
200493,-0.801971435546875,0.8697967529296875,0.47784423828125,2.39272141456604,1.839805364608765,0.9762805104255676,36.66802978515625,98.39590454101562,-36.21128845214844
200494,-0.657562255859375,0.756134033203125,0.451171875,2.344903230667114,2.093583822250366,0.8199023604393005,37.67738342285156,98.04986572265624,-37.40780639648438
200495,-0.657562255859375,0.756134033203125,0.451171875,2.344903230667114,2.093583822250366,0.8199023604393005,37.67738342285156,98.04986572265624,-37.40780639648438
200496,-0.30987548828125,0.65972900390625,0.1956939697265625,1.741876721382141,1.219067811965942,0.4181298613548279,40.93048095703125,96.21852111816406,-40.70515441894531
200497,-0.191070556640625,0.7337799072265625,0.4376220703125,1.156100273132324,0.9200499653816224,0.2210008203983307,41.75468444824219,95.67161560058594,-41.63288879394531
200498,-0.1220550537109375,0.8330078125,0.641448974609375,0.4941681921482086,1.005283951759338,0.1255576610565186,42.23799133300781,95.2302703857422,-42.24497985839844
200499,-0.1220550537109375,0.8330078125,0.641448974609375,0.4941681921482086,1.005283951759338,0.1255576610565186,42.23799133300781,95.2302703857422,-42.24497985839844
200500,-0.344146728515625,1.182464599609375,0.7894134521484375,-0.4599430859088898,1.552717447280884,-0.1267371773719788,43.02780151367188,94.89501953125,-42.65354919433594
200501,-0.344146728515625,1.182464599609375,0.7894134521484375,-0.4599430859088898,1.552717447280884,-0.1267371773719788,43.02780151367188,94.89501953125,-42.65354919433594
200502,-0.6746826171875,0.9966888427734376,0.652587890625,-0.5181416869163513,1.709837794303894,-0.3929305076599121,43.64657592773438,95.21788024902344,-42.11990356445312
200503,-0.6746826171875,0.9966888427734376,0.652587890625,-0.5181416869163513,1.709837794303894,-0.3929305076599121,43.64657592773438,95.21788024902344,-42.11990356445312
200504,-0.6952667236328125,0.7458038330078125,0.3829193115234375,-0.4047602713108063,1.23785674571991,-0.4789804518222809,43.83981323242188,95.5823211669922,-42.101806640625
200505,-0.607330322265625,0.29864501953125,0.19415283203125,-0.140844464302063,-0.0001241033023688,-0.4147732257843018,43.76480102539062,96.0897979736328,-41.7347412109375
200506,-0.4779815673828125,0.0943450927734375,0.21112060546875,0.0843013003468513,-0.3623885810375214,-0.3251312077045441,43.412109375,96.37765502929688,-41.81243896484375
200507,-0.4779815673828125,0.0943450927734375,0.21112060546875,0.0843013003468513,-0.3623885810375214,-0.3251312077045441,43.412109375,96.37765502929688,-41.81243896484375
200508,-0.422943115234375,0.0070953369140625,0.135162353515625,0.1153140738606453,-0.5148667693138123,-0.3001193404197693,43.08314514160156,96.3724365234375,-41.87876892089844
200509,-0.369720458984375,-0.0331878662109375,0.0653839111328125,0.0621576458215713,-0.7973719835281372,-0.3036006391048431,42.92710876464844,96.36807250976562,-41.77351379394531
200510,-0.3206329345703125,-0.0452728271484375,0.0283355712890625,-0.1033317148685455,-1.108353853225708,-0.3417381644248962,42.7261962890625,96.31251525878906,-41.8668212890625
200511,-0.3206329345703125,-0.0452728271484375,0.0283355712890625,-0.1033317148685455,-1.108353853225708,-0.3417381644248962,42.7261962890625,96.31251525878906,-41.8668212890625
200512,-0.2362213134765625,-0.0210723876953125,0.0508880615234375,-0.7408565282821655,-1.5418541431427,-0.544701099395752,42.16178894042969,95.96803283691406,-41.37516784667969
200513,-0.2255859375,0.014129638671875,0.09405517578125,-1.115367531776428,-1.540551543235779,-0.6813268661499023,41.72248840332031,95.95997619628906,-40.94715881347656
200514,-0.2946319580078125,0.2319793701171875,0.14605712890625,-1.516854524612427,-1.212719440460205,-0.796261191368103,40.63957214355469,96.28762817382812,-39.82762145996094
200515,-0.2946319580078125,0.2319793701171875,0.14605712890625,-1.516854524612427,-1.212719440460205,-0.796261191368103,40.63957214355469,96.28762817382812,-39.82762145996094
200516,-0.3163909912109375,0.3466644287109375,0.2109832763671875,-1.357330679893494,-1.062527179718018,-0.7801759839057922,39.97830200195312,96.53892517089844,-39.04205322265625
200517,-0.3076629638671875,0.4235076904296875,0.246246337890625,-1.092108845710754,-0.831598699092865,-0.7872985601425171,39.40446472167969,96.742431640625,-38.14527893066406
200518,-0.28875732421875,0.458465576171875,0.216522216796875,-0.8197659850120544,-0.6104329824447632,-0.8115522861480713,38.85115051269531,97.11068725585938,-37.50083923339844
200519,-0.28875732421875,0.458465576171875,0.216522216796875,-0.8197659850120544,-0.6104329824447632,-0.8115522861480713,38.85115051269531,97.11068725585938,-37.50083923339844
200520,-0.251251220703125,0.3820648193359375,0.0601348876953125,-0.4873725771903992,-0.5533308386802673,-0.9202257394790648,37.64102172851562,97.53450012207033,-36.57023620605469
200521,-0.23297119140625,0.3329925537109375,-0.0103607177734375,-0.4377195537090302,-0.7636470794677734,-0.9391802549362184,37.1134033203125,97.55274963378906,-36.23728942871094
200522,-0.164703369140625,0.26409912109375,-0.0896453857421875,-0.4657655656337738,-1.495764970779419,-0.9423619508743286,35.93301391601562,97.56739807128906,-35.62098693847656
200523,-0.164703369140625,0.26409912109375,-0.0896453857421875,-0.4657655656337738,-1.495764970779419,-0.9423619508743286,35.93301391601562,97.56739807128906,-35.62098693847656
200524,-0.1237945556640625,0.22479248046875,-0.076751708984375,-0.518916666507721,-1.884860992431641,-0.8928484320640564,35.37309265136719,97.51039123535156,-35.23316955566406
200525,-0.1237945556640625,0.22479248046875,-0.076751708984375,-0.518916666507721,-1.884860992431641,-0.8928484320640564,35.37309265136719,97.51039123535156,-35.23316955566406
200526,-0.0042572021484375,0.211090087890625,-0.0256195068359375,-0.7220937609672546,-2.68809962272644,-0.6198773980140686,33.69944763183594,97.07252502441406,-33.49897766113281
200527,-0.0042572021484375,0.211090087890625,-0.0256195068359375,-0.7220937609672546,-2.68809962272644,-0.6198773980140686,33.69944763183594,97.07252502441406,-33.49897766113281
200528,0.054931640625,0.21527099609375,-0.0458984375,-0.8780519366264343,-3.079596042633057,0.0852451249957084,33.15635681152344,96.96574401855467,-32.87834167480469
200529,0.123291015625,0.206756591796875,-0.133697509765625,-0.8780519366264343,-3.079596042633057,0.0852451249957084,32.42237854003906,96.93605041503906,-32.02363586425781
200530,0.0963897705078125,0.2650909423828125,-0.2430572509765625,-0.6113744378089905,-3.09069299697876,0.5566526055335999,31.71186828613281,97.04908752441406,-31.00325012207031
200531,-0.05047607421875,0.378570556640625,-0.2188262939453125,-0.1861981004476547,-2.742191553115845,0.6394124627113342,31.04345703125,97.2373504638672,-29.88340759277344
200532,-0.1545257568359375,0.402587890625,-0.1104583740234375,0.2057499587535858,-1.768757104873657,0.4406847059726715,30.57998657226562,97.46949768066406,-29.15695190429688
200533,-0.1953277587890625,0.368316650390625,-0.19317626953125,0.3799305558204651,-0.4040883481502533,0.2320433557033539,30.342041015625,97.66322326660156,-28.4332275390625
200534,-0.2287139892578125,0.3351287841796875,-0.5059967041015625,0.4788345098495483,0.2192492634057999,0.2941868901252747,30.28231811523438,97.62002563476562,-28.194580078125
200535,-0.2287139892578125,0.3351287841796875,-0.5059967041015625,0.4788345098495483,0.2192492634057999,0.2941868901252747,30.28231811523438,97.62002563476562,-28.194580078125
200536,-0.2809906005859375,0.490142822265625,-0.4106903076171875,0.377850353717804,-0.1764266937971115,0.5058799386024475,30.52250671386719,97.6709442138672,-28.4766845703125
200537,-0.3217010498046875,0.63690185546875,-0.3416748046875,0.1507109552621841,-0.2090458869934082,0.4954480826854706,30.71247863769531,97.56552124023438,-28.61900329589844
200538,-0.3778839111328125,0.84649658203125,-0.4536590576171875,0.0822756960988044,-0.211245134472847,0.3721440136432648,30.91171264648438,97.3989715576172,-28.65736389160156
200539,-0.3778839111328125,0.84649658203125,-0.4536590576171875,0.0822756960988044,-0.211245134472847,0.3721440136432648,30.91171264648438,97.3989715576172,-28.65736389160156
200540,-0.4144439697265625,1.505462646484375,-0.6753997802734375,0.7164321541786194,0.1348598152399063,0.0528206042945385,31.19371032714844,97.30526733398438,-28.51348876953125
200541,-0.2724151611328125,1.824981689453125,-0.4067535400390625,0.7430387139320374,1.222954988479614,0.2366413027048111,31.16462707519531,97.2409210205078,-28.627685546875
200542,-0.192474365234375,2.092147827148438,-0.263916015625,0.5410075783729553,1.906873941421509,0.3670483231544495,31.204833984375,97.1692352294922,-29.0421142578125
200543,-0.192474365234375,2.092147827148438,-0.263916015625,0.5410075783729553,1.906873941421509,0.3670483231544495,31.204833984375,97.1692352294922,-29.0421142578125
200544,-0.3037261962890625,2.556564331054688,-0.0506134033203125,0.2547955513000488,1.437453389167786,0.1952073127031326,31.83061218261719,96.8800048828125,-29.81425476074219
200545,-0.4225006103515625,3.162567138671875,-0.0665283203125,0.195084273815155,0.8404284119606018,0.2450728714466095,32.31961059570312,96.6856689453125,-30.20542907714844
200546,-0.5997772216796875,3.930343627929688,-0.031646728515625,0.4098354578018188,0.3510270118713379,0.5174530148506165,32.70440673828125,96.77883911132812,-30.7333984375
200547,-0.9078826904296876,4.517288208007812,-0.0135955810546875,0.9440080523490906,0.4695778787136078,0.8470284938812256,32.70594787597656,96.76742553710938,-31.12435913085938
200548,-1.251510620117188,4.05511474609375,-0.0943450927734375,1.262802839279175,1.198145031929016,1.028896331787109,32.75180053710938,96.9334716796875,-31.733642578125
200549,-1.401153564453125,3.243743896484375,-0.1002197265625,1.262055993080139,2.108047962188721,0.7089124321937561,33.00975036621094,97.0421142578125,-32.59675598144531
200550,-1.54730224609375,2.6591796875,0.0438690185546875,1.021862864494324,2.733530759811401,0.1930179297924042,33.45428466796875,97.15179443359376,-33.42724609375
200551,-1.54730224609375,2.6591796875,0.0438690185546875,1.021862864494324,2.733530759811401,0.1930179297924042,33.45428466796875,97.15179443359376,-33.42724609375
200552,-2.071487426757812,2.003799438476562,0.20123291015625,0.4210231304168701,2.263556718826294,-0.360097736120224,35.00543212890625,97.27267456054688,-35.44911193847656
200553,-2.022369384765625,1.664871215820312,0.3314056396484375,0.3314322531223297,1.626410841941833,-0.1934032887220383,35.75361633300781,97.33146667480467,-36.24598693847656
200554,-1.58746337890625,1.355224609375,0.40167236328125,0.2060453146696091,1.284747242927551,0.2868829071521759,36.33116149902344,97.25611877441406,-36.82051086425781
200555,-1.1331787109375,1.180572509765625,0.3510894775390625,0.0146271456032991,0.927021622657776,0.7556096315383911,36.92466735839844,97.29678344726562,-37.287841796875
200556,-0.89886474609375,1.065277099609375,0.4493408203125,-0.0911118015646934,0.6656805276870728,1.119077324867249,37.47314453125,97.32945251464844,-37.66757202148438
200557,-0.89886474609375,1.065277099609375,0.4493408203125,-0.0911118015646934,0.6656805276870728,1.119077324867249,37.47314453125,97.32945251464844,-37.66757202148438
200558,-0.6473388671875,0.73040771484375,0.5004119873046875,0.2666055858135223,0.5421615242958069,1.134710907936096,39.498779296875,97.6641845703125,-37.78329467773438
200559,-0.6473388671875,0.73040771484375,0.5004119873046875,0.2666055858135223,0.5421615242958069,1.134710907936096,39.498779296875,97.6641845703125,-37.78329467773438
200560,-0.536163330078125,0.61212158203125,0.3980712890625,0.4597904980182648,0.4466659128665924,0.9500954747200012,40.21638488769531,97.6883544921875,-37.90267944335938
200561,-0.41558837890625,0.5095062255859375,0.2740936279296875,0.6072132587432861,0.3323846161365509,0.7224010825157166,40.99208068847656,97.71662902832033,-37.91743469238281
200562,-0.208648681640625,0.2631683349609375,0.00103759765625,0.7582765221595764,-0.2550999522209167,0.302010178565979,41.99919128417969,97.36582946777344,-38.32051086425781
200563,-0.208648681640625,0.2631683349609375,0.00103759765625,0.7582765221595764,-0.2550999522209167,0.302010178565979,41.99919128417969,97.36582946777344,-38.32051086425781
200564,-0.1244964599609375,0.156585693359375,-0.07452392578125,0.766078770160675,-0.6153984665870667,0.159146249294281,42.3245849609375,97.22564697265624,-38.51913452148438
200565,-0.04742431640625,0.063720703125,-0.1441497802734375,0.7700626254081726,-1.003165364265442,0.0801286548376083,42.47114562988281,97.01541137695312,-38.69839477539062
200566,0.01348876953125,-0.0036468505859375,-0.198394775390625,0.8707495331764221,-1.743020534515381,0.0553338304162025,42.47023010253906,96.67155456542967,-38.89315795898438
200567,0.01348876953125,-0.0036468505859375,-0.198394775390625,0.8707495331764221,-1.743020534515381,0.0553338304162025,42.47023010253906,96.67155456542967,-38.89315795898438
200568,0.09375,-0.0896759033203125,-0.193267822265625,1.02738893032074,-2.014649629592896,0.1310490965843201,42.13168334960938,96.02308654785156,-39.31465148925781
200569,0.10833740234375,-0.108123779296875,-0.060516357421875,1.02738893032074,-2.014649629592896,0.1310490965843201,41.83932495117188,95.718994140625,-39.48966979980469
200570,0.115203857421875,-0.112060546875,0.0615997314453125,0.976250410079956,-1.304704189300537,0.171830877661705,41.4595947265625,95.30938720703124,-39.57878112792969
200571,0.115203857421875,-0.112060546875,0.0615997314453125,0.976250410079956,-1.304704189300537,0.171830877661705,41.4595947265625,95.30938720703124,-39.57878112792969
200572,0.0077667236328125,0.0082550048828125,0.011016845703125,0.8967254757881165,-0.8614745736122131,0.0359875634312629,40.65971374511719,94.66009521484376,-39.89840698242188
200573,-0.075347900390625,0.078765869140625,-0.0813140869140625,0.7488457560539246,-0.572110116481781,-0.2134590148925781,40.27632141113281,94.520751953125,-40.03617858886719
200574,-0.1661224365234375,0.1381072998046875,-0.0986480712890625,0.5128707885742188,-0.4135076999664307,-0.4759990274906158,39.96017456054688,94.32322692871094,-40.21807861328125
200575,-0.1661224365234375,0.1381072998046875,-0.0986480712890625,0.5128707885742188,-0.4135076999664307,-0.4759990274906158,39.96017456054688,94.32322692871094,-40.21807861328125
200576,-0.356842041015625,0.3277587890625,0.1576995849609375,-0.1930695921182632,0.2650865316390991,-0.7578901052474976,39.29275512695312,94.35867309570312,-40.573486328125
200577,-0.4349517822265625,0.5315399169921875,0.27935791015625,-0.6370283961296082,0.9247459173202516,-0.9309606552124025,38.96360778808594,94.39241027832033,-40.73202514648438
200578,-0.4785614013671875,0.763763427734375,0.3345947265625,-1.10367226600647,1.61652410030365,-1.135258674621582,38.62277221679688,94.48858642578124,-40.84933471679688
200579,-0.4785614013671875,0.763763427734375,0.3345947265625,-1.10367226600647,1.61652410030365,-1.135258674621582,38.62277221679688,94.48858642578124,-40.84933471679688
200580,-0.7169036865234375,0.9960479736328124,0.265899658203125,-1.645936369895935,2.065130949020386,-1.439117074012756,38.45628356933594,94.81143188476562,-40.85240173339844
200581,-1.060012817382812,0.8703460693359375,0.32220458984375,-1.294638991355896,1.478649377822876,-0.9539496302604676,38.63671875,95.03448486328124,-40.57356262207031
200582,-1.1556396484375,0.873077392578125,0.397430419921875,-0.3142689764499664,-0.1069996878504753,-0.5851715803146362,38.85787963867188,95.3376922607422,-40.35520935058594
200583,-1.1556396484375,0.873077392578125,0.397430419921875,-0.3142689764499664,-0.1069996878504753,-0.5851715803146362,38.85787963867188,95.3376922607422,-40.35520935058594
200584,-0.894744873046875,0.651885986328125,0.5134735107421875,-0.2981483340263367,-0.5888315439224243,-0.7565577030181885,38.97813415527344,95.62232971191406,-39.77493286132812
200585,-0.664886474609375,0.3925628662109375,0.409515380859375,-0.5297921895980835,-0.8161342144012451,-0.7390194535255432,38.81730651855469,95.65118408203124,-39.56072998046875
200586,-0.4419097900390625,0.2408905029296875,0.2246551513671875,-0.601775050163269,-1.427163004875183,-0.5091412663459778,38.33442687988281,95.71272277832033,-39.33390808105469
200587,-0.4419097900390625,0.2408905029296875,0.2246551513671875,-0.601775050163269,-1.427163004875183,-0.5091412663459778,38.33442687988281,95.71272277832033,-39.33390808105469
200588,-0.14605712890625,0.104766845703125,-0.0702362060546875,-0.4868950843811035,-1.814913868904114,-0.4121396243572235,37.34869384765625,95.8645477294922,-38.55128479003906
200589,-0.0489654541015625,0.0690765380859375,-0.170196533203125,-0.3607390224933624,-2.240572452545166,-0.3030714690685272,36.8597412109375,95.96681213378906,-38.19734191894531
200590,0.0162353515625,0.047027587890625,-0.2323760986328125,-0.1154453679919243,-3.043671607971191,-0.0574734136462211,36.27665710449219,95.99787902832033,-37.46134948730469
200591,0.0162353515625,0.047027587890625,-0.2323760986328125,-0.1154453679919243,-3.043671607971191,-0.0574734136462211,36.27665710449219,95.99787902832033,-37.46134948730469
200592,0.0732269287109375,0.0138702392578125,-0.2351226806640625,0.0208418983966112,-3.355614185333252,0.0652170851826667,34.98893737792969,96.05580139160156,-36.20057678222656
200593,0.0693206787109375,-0.010955810546875,-0.1290435791015625,0.0604710653424263,-3.21594500541687,0.2425279468297958,34.23272705078125,96.1550750732422,-35.59771728515625
200594,0.0758819580078125,-0.0013885498046875,-0.096466064453125,0.0794713869690895,-2.63132119178772,0.4682380557060242,33.53662109375,96.14125061035156,-35.10899353027344
200595,0.0758819580078125,-0.0013885498046875,-0.096466064453125,0.0794713869690895,-2.63132119178772,0.4682380557060242,33.53662109375,96.14125061035156,-35.10899353027344
200596,0.05523681640625,0.149627685546875,0.0309295654296875,0.1760495901107788,-0.3560819327831268,0.7341794371604919,32.31622314453125,96.12872314453124,-33.94410705566406
200597,0.05523681640625,0.149627685546875,0.0309295654296875,0.1760495901107788,-0.3560819327831268,0.7341794371604919,32.31622314453125,96.12872314453124,-33.94410705566406
200598,0.0025787353515625,0.353973388671875,-0.4266815185546875,-0.0743868798017501,0.5942692160606384,0.162530317902565,32.52497863769531,96.48367309570312,-33.27891540527344
200599,0.0025787353515625,0.353973388671875,-0.4266815185546875,-0.0743868798017501,0.5942692160606384,0.162530317902565,32.52497863769531,96.48367309570312,-33.27891540527344
200600,-0.028350830078125,0.4328460693359375,-0.2498321533203125,-0.3816498816013336,-0.3658315241336823,0.2148201614618301,32.84500122070312,96.59654235839844,-33.34385681152344
200601,-0.028350830078125,0.4328460693359375,-0.2498321533203125,-0.3816498816013336,-0.3658315241336823,0.2148201614618301,32.84500122070312,96.59654235839844,-33.34385681152344
200602,-0.1043853759765625,0.6130828857421875,-0.155731201171875,-0.5142531991004944,-0.7181370854377747,0.2017317861318588,33.22331237792969,96.51011657714844,-33.39410400390625
200603,-0.1043853759765625,0.6130828857421875,-0.155731201171875,-0.5142531991004944,-0.7181370854377747,0.2017317861318588,33.22331237792969,96.51011657714844,-33.39410400390625
200604,-0.1022491455078125,0.8117218017578125,-0.1292724609375,-0.3199460506439209,-1.187211394309998,0.1749957799911499,33.16136169433594,96.50457763671876,-32.40107727050781
200605,-0.0869598388671875,1.053741455078125,-0.0611572265625,-0.0468135774135589,-0.7181029915809631,0.2830879092216492,33.12144470214844,96.42239379882812,-31.7998046875
200606,-0.0527191162109375,1.463058471679688,-0.2720489501953125,1.096001267433167,1.077961087226868,0.855212926864624,32.93621826171875,96.499755859375,-31.46157836914062
200607,-0.0527191162109375,1.463058471679688,-0.2720489501953125,1.096001267433167,1.077961087226868,0.855212926864624,32.93621826171875,96.499755859375,-31.46157836914062
200608,0.1879119873046875,2.468673706054688,-0.81195068359375,1.296113610267639,1.734138607978821,1.343770623207092,32.99061584472656,96.43399047851562,-31.40705871582031
200609,0.1879119873046875,2.468673706054688,-0.81195068359375,1.296113610267639,1.734138607978821,1.343770623207092,32.99061584472656,96.43399047851562,-31.40705871582031
200610,-0.02825927734375,3.240814208984375,-0.91864013671875,0.9253984093666076,1.903143048286438,1.223524689674377,33.36061096191406,96.3021240234375,-31.78794860839844
200611,-0.4918975830078125,5.032394409179688,-1.24847412109375,0.8275440335273743,1.090309619903564,-0.1341524720191956,34.07925415039062,96.1838836669922,-32.42079162597656
200612,-1.064559936523438,5.562637329101562,-0.6295166015625,1.144903063774109,0.8656794428825378,-2.541168212890625,34.79911804199219,95.872802734375,-33.65983581542969
200613,-1.064559936523438,5.562637329101562,-0.6295166015625,1.144903063774109,0.8656794428825378,-2.541168212890625,34.79911804199219,95.872802734375,-33.65983581542969
200614,-2.386444091796875,2.295303344726562,-1.04766845703125,0.9615018367767334,3.205587863922119,-0.3394305408000946,33.16716003417969,95.3948974609375,-35.51441955566406
200615,-2.386444091796875,2.295303344726562,-1.04766845703125,0.9615018367767334,3.205587863922119,-0.3394305408000946,33.16716003417969,95.3948974609375,-35.51441955566406
200616,-1.520065307617188,1.539169311523438,-0.83392333984375,0.9259904026985168,1.459184885025024,1.266627073287964,33.00929260253906,95.25881958007812,-38.02325439453125
200617,-1.201736450195312,1.325607299804688,-0.7319488525390625,0.6170293688774109,0.3217040002346039,1.353332757949829,33.99850463867188,95.31971740722656,-39.10214233398438
200618,-1.354080200195312,1.151046752929688,-0.515350341796875,0.4679357707500458,-0.937468409538269,1.596283316612244,35.19300842285156,95.46017456054688,-39.93161010742188
200619,-1.620498657226562,1.209197998046875,-0.026947021484375,0.4679357707500458,-0.937468409538269,1.596283316612244,36.22955322265625,95.53230285644533,-40.62045288085938
200620,-1.686355590820312,1.274154663085938,0.519287109375,0.8816229701042175,-0.7180840969085693,1.575853705406189,37.14607238769531,95.49754333496094,-40.67544555664062
200621,-1.487060546875,1.234954833984375,0.678466796875,1.248592495918274,0.0006024070316925,1.252414107322693,37.79751586914062,95.56484985351562,-40.91616821289062
200622,-1.109603881835938,1.08221435546875,0.37957763671875,1.523937225341797,0.3029564023017883,0.7590587139129639,38.45063781738281,95.53286743164062,-41.02241516113281
200623,-0.79022216796875,0.85284423828125,0.3116302490234375,1.599374413490295,0.444345235824585,0.3235794007778168,39.11099243164062,95.26823425292967,-41.63023376464844
200624,-0.55517578125,0.671112060546875,0.5474700927734375,1.474071860313416,1.082678079605103,0.0592036694288253,39.5709228515625,94.8353271484375,-42.18414306640625
200625,-0.3204193115234375,0.5402679443359375,0.7161712646484375,1.255988597869873,2.051168203353882,0.0097618168219923,39.86199951171875,94.30192565917967,-42.90147399902344
200626,-0.1288299560546875,0.461151123046875,0.732513427734375,0.998759150505066,2.972282886505127,0.0611341930925846,40.18902587890625,93.80734252929688,-43.69676208496094
200627,-0.1288299560546875,0.461151123046875,0.732513427734375,0.998759150505066,2.972282886505127,0.0611341930925846,40.18902587890625,93.80734252929688,-43.69676208496094
200628,0.1348419189453125,0.26727294921875,0.3812103271484375,0.2852112352848053,3.126614570617676,0.7118038535118103,41.59043884277344,92.95619201660156,-44.99971008300781
200629,0.16876220703125,0.203887939453125,0.25872802734375,0.2852112352848053,3.126614570617676,0.7118038535118103,42.58674621582031,92.76019287109376,-45.32487487792969
200630,0.173797607421875,0.188262939453125,0.166717529296875,0.208181157708168,1.672626495361328,1.088396906852722,43.69517517089844,92.56515502929688,-45.72233581542969
200631,0.155029296875,0.1940765380859375,0.1362457275390625,0.208181157708168,1.672626495361328,1.088396906852722,44.91351318359375,92.40257263183594,-45.86239624023438
200632,0.099822998046875,0.2602386474609375,0.235015869140625,0.1861477643251419,0.8701556324958801,1.033109188079834,45.90788269042969,92.5504150390625,-45.86431884765625
200633,0.0353851318359375,0.35272216796875,0.3419952392578125,0.167400449514389,0.1770541369915009,0.6869943737983704,46.91395568847656,92.70663452148438,-45.84867858886719
200634,0.0104217529296875,0.380645751953125,0.347930908203125,0.1592572927474976,-1.41841983795166,-0.31269371509552,47.75746154785156,92.54244995117188,-45.69587707519531
200635,0.0104217529296875,0.380645751953125,0.347930908203125,0.1592572927474976,-1.41841983795166,-0.31269371509552,47.75746154785156,92.54244995117188,-45.69587707519531
200636,-0.03997802734375,0.183380126953125,0.4433746337890625,0.0795185267925262,-1.961020469665527,-0.6517724394798279,48.55845642089844,92.36561584472656,-45.4830322265625
200637,-0.09759521484375,0.085235595703125,0.5104217529296875,-0.1273640841245651,-1.999696850776672,-0.6929348111152649,48.25784301757812,92.2912139892578,-45.54582214355469
200638,-0.1192626953125,0.0806884765625,0.523223876953125,-0.7033333778381348,-1.412259101867676,-0.7048274278640747,47.82585144042969,92.07341003417967,-45.52569580078125
200639,-0.1192626953125,0.0806884765625,0.523223876953125,-0.7033333778381348,-1.412259101867676,-0.7048274278640747,47.82585144042969,92.07341003417967,-45.52569580078125
200640,-0.2011260986328125,0.1937103271484375,0.4279632568359375,-0.970065712928772,-1.090103507041931,-0.7407137751579285,46.38931274414062,92.0869140625,-45.09512329101562
200641,-0.251678466796875,0.293914794921875,0.3643646240234375,-1.156285405158997,-0.8936444520950317,-0.8062123656272888,45.74383544921875,92.17140197753906,-44.69911193847656
200642,-0.3163909912109375,0.401214599609375,0.3291168212890625,-1.275818705558777,-0.8164527416229248,-0.900043785572052,45.15582275390625,92.404296875,-44.341552734375
200643,-0.3163909912109375,0.401214599609375,0.3291168212890625,-1.275818705558777,-0.8164527416229248,-0.900043785572052,45.15582275390625,92.404296875,-44.341552734375
200644,-0.460693359375,0.6473388671875,0.2854156494140625,-1.384153246879578,-0.8687617778778076,-1.151332497596741,43.90966796875,93.1741180419922,-43.4486083984375
200645,-0.52667236328125,0.74505615234375,0.2452239990234375,-1.378172039985657,-0.9561374187469482,-1.316249251365662,43.30192565917969,93.65869140625,-43.14424133300781
200646,-0.572998046875,0.7877197265625,0.1954498291015625,-1.180376052856445,-1.282203674316406,-1.67619252204895,42.53916931152344,94.14665222167967,-42.6407470703125
200647,-0.572998046875,0.7877197265625,0.1954498291015625,-1.180376052856445,-1.282203674316406,-1.67619252204895,42.53916931152344,94.14665222167967,-42.6407470703125
200648,-0.59014892578125,0.71099853515625,-0.025146484375,-1.00244927406311,-1.651779055595398,-1.857202291488647,40.70498657226562,95.07188415527344,-41.64508056640625
200649,-0.584686279296875,0.5769195556640625,-0.051788330078125,-0.796255886554718,-2.176596403121948,-1.983876824378967,39.58831787109375,95.40040588378906,-41.15875244140625
200650,-0.6734161376953125,0.2819061279296875,0.176666259765625,-0.8415253162384033,-1.436212182044983,-1.148477554321289,38.28691101074219,95.69215393066406,-40.67459106445312
200651,-0.6734161376953125,0.2819061279296875,0.176666259765625,-0.8415253162384033,-1.436212182044983,-1.148477554321289,38.28691101074219,95.69215393066406,-40.67459106445312
200652,-0.473052978515625,0.19158935546875,0.189483642578125,-1.178345441818237,-0.5710254311561584,-0.7623868584632874,35.4781494140625,95.91098022460938,-39.76535034179688
200653,-0.3600616455078125,0.2913970947265625,-0.0280609130859375,-1.178345441818237,-0.5710254311561584,-0.7623868584632874,34.34312438964844,95.98109436035156,-39.25167846679688
200654,-0.2868804931640625,0.268798828125,-0.169769287109375,-1.23207950592041,-0.8234121203422546,-0.7232959270477295,33.67848205566406,95.9827880859375,-38.76219177246094
200655,-0.2868804931640625,0.268798828125,-0.169769287109375,-1.23207950592041,-0.8234121203422546,-0.7232959270477295,33.67848205566406,95.9827880859375,-38.76219177246094
200656,-0.1328277587890625,0.17156982421875,-0.2895355224609375,-1.210409045219421,-1.568717479705811,-0.5392858386039734,32.99888610839844,95.853271484375,-37.40919494628906
200657,-0.055206298828125,0.1340484619140625,-0.3034515380859375,-1.200192928314209,-1.783835649490356,-0.3968245685100555,32.30477905273438,96.09603881835938,-35.98628234863281
200658,0.013275146484375,0.106048583984375,-0.298736572265625,-1.172190070152283,-1.802239656448364,-0.1992052495479584,31.77105712890625,96.05339050292967,-35.1072998046875
200659,0.013275146484375,0.106048583984375,-0.298736572265625,-1.172190070152283,-1.802239656448364,-0.1992052495479584,31.77105712890625,96.05339050292967,-35.1072998046875
200660,0.0969085693359375,0.0893707275390625,-0.28033447265625,-0.9518728852272034,-1.59352719783783,0.450693666934967,30.95423889160156,96.27919006347656,-33.34538269042969
200661,0.080596923828125,0.1671295166015625,-0.1908111572265625,-0.7524181008338928,-1.323713779449463,0.7842671275138855,30.57608032226562,96.45750427246094,-32.50520324707031
200662,-0.02935791015625,0.340911865234375,-0.029632568359375,-0.6520731449127197,-0.710872232913971,0.907885193824768,30.39411926269531,96.66915893554688,-31.66204833984375
200663,-0.02935791015625,0.340911865234375,-0.029632568359375,-0.6520731449127197,-0.710872232913971,0.907885193824768,30.39411926269531,96.66915893554688,-31.66204833984375
200664,-0.3046417236328125,0.7984619140625,-0.249481201171875,-0.7809261679649353,1.085843443870544,0.326519787311554,30.45161437988281,97.40655517578124,-30.41427612304688
200665,-0.4453125,0.9862060546875,-0.4147186279296875,-0.5796279311180115,1.087990522384644,-0.1114474311470985,30.60237121582031,97.73809814453124,-30.23330688476562
200666,-0.5522918701171875,1.073135375976562,-0.357177734375,-0.3665066361427307,0.949211597442627,-0.5066754221916199,30.68461608886719,97.92689514160156,-30.08181762695312
200667,-0.5522918701171875,1.073135375976562,-0.357177734375,-0.3665066361427307,0.949211597442627,-0.5066754221916199,30.68461608886719,97.92689514160156,-30.08181762695312
200668,-0.7845458984375,1.096145629882812,-0.3350372314453125,-0.2388956695795059,1.077069401741028,-0.8994932770729065,30.30125427246094,98.07122802734376,-30.03140258789062
200669,-0.9274749755859376,1.165130615234375,-0.384063720703125,-0.2612257301807404,1.144757628440857,-1.063913106918335,29.89187622070312,98.05545043945312,-30.11036682128906
200670,-1.070648193359375,1.271804809570312,-0.5252838134765625,-0.2877084910869598,1.020725965499878,-1.316081523895264,29.4146728515625,97.99729919433594,-30.26206970214844
200671,-1.070648193359375,1.271804809570312,-0.5252838134765625,-0.2877084910869598,1.020725965499878,-1.316081523895264,29.4146728515625,97.99729919433594,-30.26206970214844
200672,-1.478118896484375,1.472015380859375,-1.129013061523438,0.2192420661449432,-0.7244604825973511,-1.383793115615845,28.44192504882812,97.36758422851562,-30.47305297851562
200673,-1.341903686523438,1.904052734375,-1.043563842773438,0.5714302062988281,-0.8527582883834839,-0.3899680078029633,27.76136779785156,96.97909545898438,-30.53500366210938
200674,-0.612701416015625,2.642257690429688,-0.8704681396484375,0.5686179399490356,0.8332296013832092,0.6779587864875793,27.14849853515625,96.49209594726562,-30.53524780273438
200675,-0.612701416015625,2.642257690429688,-0.8704681396484375,0.5686179399490356,0.8332296013832092,0.6779587864875793,27.14849853515625,96.49209594726562,-30.53524780273438
200676,-0.0644073486328125,2.8292236328125,-0.1949310302734375,1.029827833175659,1.306161761283875,1.616192817687988,27.81950378417969,95.86906433105467,-30.92340087890625
200677,-0.2493743896484375,3.217514038085938,-0.349334716796875,1.500509858131409,0.6642395257949829,1.863149642944336,28.57292175292969,95.7978515625,-31.38507080078125
200678,-0.4671783447265625,3.7623291015625,-0.5351104736328125,2.069965124130249,-0.0048999502323567,1.942109107971191,29.47621154785156,95.76832580566406,-32.20181274414062
200679,-0.4671783447265625,3.7623291015625,-0.5351104736328125,2.069965124130249,-0.0048999502323567,1.942109107971191,29.47621154785156,95.76832580566406,-32.20181274414062
200680,-0.6564178466796875,3.882965087890625,-0.638671875,2.232761383056641,0.1466770619153976,1.629780769348145,31.25958251953125,95.75985717773438,-34.26016235351562
200681,-0.51812744140625,2.81414794921875,-0.5563201904296875,2.374849081039429,0.4374545514583588,1.383730053901672,32.06544494628906,95.60877990722656,-35.28501892089844
200682,-0.4812164306640625,1.90826416015625,-0.3230133056640625,2.674761533737183,0.4709648489952087,1.255026340484619,33.01213073730469,95.53523254394533,-36.65644836425781
200683,-0.4812164306640625,1.90826416015625,-0.3230133056640625,2.674761533737183,0.4709648489952087,1.255026340484619,33.01213073730469,95.53523254394533,-36.65644836425781
200684,-0.2822418212890625,1.059371948242188,-0.3903656005859375,2.886840581893921,-0.6667439341545105,1.251221776008606,34.92308044433594,94.68873596191406,-39.09011840820312
200685,-0.2822418212890625,1.059371948242188,-0.3903656005859375,2.886840581893921,-0.6667439341545105,1.251221776008606,34.92308044433594,94.68873596191406,-39.09011840820312
200686,-0.051239013671875,1.281661987304688,-0.1062164306640625,2.106601238250732,-2.002976417541504,0.8415991067886353,35.98869323730469,93.84585571289062,-41.53251647949219
200687,-0.04071044921875,1.4542236328125,-0.0897369384765625,2.106601238250732,-2.002976417541504,0.8415991067886353,36.05166625976562,93.34930419921876,-42.52305603027344
200688,-0.3589630126953125,1.334274291992188,-0.0359344482421875,1.531130075454712,-1.291688203811646,0.6228156089782715,35.86456298828125,92.9264678955078,-43.24246215820312
200689,-0.7287750244140625,1.192092895507812,0.23455810546875,1.262395858764648,-0.4491796791553497,0.4770970642566681,35.69195556640625,92.64447021484376,-43.80168151855469
200690,-0.771331787109375,1.053192138671875,0.531402587890625,1.071958065032959,0.4293058216571808,0.2938561141490936,35.70541381835938,92.343017578125,-44.19447326660156
200691,-0.8448333740234375,0.8052978515625,0.6510467529296875,0.7912691235542297,1.266674995422363,0.0657675638794899,35.94448852539062,92.07606506347656,-44.67237854003906
200692,-1.078445434570312,0.4222259521484375,0.6463165283203125,0.5124260187149048,1.808344960212708,-0.0066357986070215,36.55494689941406,91.8154296875,-45.28532409667969
200693,-1.370132446289062,-0.04864501953125,0.6695098876953125,0.4312946796417236,2.067422151565552,0.4516462981700897,37.37225341796875,91.59439086914062,-45.96662902832031
200694,-1.386367797851562,-0.2630157470703125,0.70947265625,0.415356457233429,2.368241786956787,1.008395314216614,38.29800415039062,91.5326690673828,-46.62432861328125
200695,-1.386367797851562,-0.2630157470703125,0.70947265625,0.415356457233429,2.368241786956787,1.008395314216614,38.29800415039062,91.5326690673828,-46.62432861328125
200696,-0.858978271484375,-0.0381622314453125,0.5397186279296875,-0.0223508458584547,2.293880939483643,1.052230954170227,40.46733093261719,91.29563903808594,-47.54989624023438
200697,-0.65924072265625,0.0762939453125,0.4887542724609375,-0.4670902192592621,1.97433340549469,1.027733087539673,41.56489562988281,91.44529724121094,-47.79603576660156
200698,-0.4933013916015625,0.20037841796875,0.4623565673828125,-0.8761813044548035,1.721179127693176,1.022534251213074,42.47798156738281,91.69252014160156,-47.78962707519531
200699,-0.4933013916015625,0.20037841796875,0.4623565673828125,-0.8761813044548035,1.721179127693176,1.022534251213074,42.47798156738281,91.69252014160156,-47.78962707519531
200700,-0.2370758056640625,0.3621368408203125,0.4174346923828125,-1.374838471412659,1.33214271068573,0.8949307799339294,43.64506530761719,92.62077331542967,-47.29550170898438
200701,-0.167816162109375,0.3631439208984375,0.42242431640625,-1.492374777793884,1.155982375144958,0.755102276802063,44.17274475097656,93.2034149169922,-46.89848327636719
200702,-0.12530517578125,0.33782958984375,0.4309539794921875,-1.53953742980957,1.033400297164917,0.5747434496879578,44.65229797363281,93.81533813476562,-46.11209106445312
200703,-0.12530517578125,0.33782958984375,0.4309539794921875,-1.53953742980957,1.033400297164917,0.5747434496879578,44.65229797363281,93.81533813476562,-46.11209106445312
200704,-0.086578369140625,0.2670135498046875,0.40167236328125,-1.321083188056946,0.5996924638748169,0.0675702542066574,45.79924011230469,94.8116455078125,-44.35610961914062
200705,-0.086578369140625,0.2670135498046875,0.40167236328125,-1.321083188056946,0.5996924638748169,0.0675702542066574,45.79924011230469,94.8116455078125,-44.35610961914062
200706,-0.0700836181640625,0.23870849609375,0.44427490234375,-0.9482440948486328,-0.186867892742157,-0.5015534162521362,46.56195068359375,95.52557373046876,-43.22166442871094
200707,-0.0836944580078125,0.2906951904296875,0.4878997802734375,-0.889285147190094,-0.7105966210365295,-0.7742072939872742,46.66896057128906,95.82723999023438,-42.87748718261719
200708,-0.150390625,0.343048095703125,0.5797271728515625,-0.9981842041015624,-1.217498421669006,-0.9252130389213562,46.58506774902344,95.82614135742188,-42.35826110839844
200709,-0.2405548095703125,0.41510009765625,0.7221527099609375,-1.279472827911377,-1.495476841926575,-0.9152262210845948,46.25352478027344,95.83262634277344,-41.87678527832031
200710,-0.316375732421875,0.52593994140625,0.8111114501953125,-1.636638760566711,-1.622922897338867,-0.8699072003364563,45.86224365234375,95.92129516601562,-41.45401000976562
200711,-0.316375732421875,0.52593994140625,0.8111114501953125,-1.636638760566711,-1.622922897338867,-0.8699072003364563,45.86224365234375,95.92129516601562,-41.45401000976562
200712,-0.466888427734375,0.6785736083984375,0.794891357421875,-2.608481645584106,-1.811150550842285,-0.8983574509620667,45.00747680664062,96.10342407226562,-40.23483276367188
200713,-0.466888427734375,0.6785736083984375,0.794891357421875,-2.608481645584106,-1.811150550842285,-0.8983574509620667,45.00747680664062,96.10342407226562,-40.23483276367188
200714,-0.49310302734375,0.719757080078125,0.548828125,-3.007617712020874,-1.591859579086304,-0.8463467359542847,43.76734924316406,96.74017333984376,-38.11033630371094
200715,-0.44305419921875,0.69390869140625,0.39776611328125,-3.007617712020874,-1.591859579086304,-0.8463467359542847,42.957275390625,97.1898193359375,-36.77117919921875
200716,-0.389678955078125,0.728057861328125,0.2256317138671875,-3.114935398101807,-1.485495567321777,-0.7463005781173706,41.99479675292969,97.636962890625,-35.43443298339844
200717,-0.363739013671875,0.823455810546875,-0.0366363525390625,-3.052901744842529,-1.339804410934448,-0.6790855526924133,41.02435302734375,98.19830322265624,-34.05288696289062
200718,-0.344970703125,0.99560546875,-0.8560028076171875,-2.232009887695312,-1.904133558273315,-0.6928429007530212,39.94972229003906,98.861083984375,-32.61198425292969
200719,-0.344970703125,0.99560546875,-0.8560028076171875,-2.232009887695312,-1.904133558273315,-0.6928429007530212,39.94972229003906,98.861083984375,-32.61198425292969
200720,-0.2498626708984375,0.6707305908203125,-0.1629791259765625,-0.0078070568852126,-2.451034784317017,-0.932914137840271,37.978759765625,99.89054870605467,-30.01455688476562
200721,-0.2620086669921875,0.344940185546875,-0.0379791259765625,0.2774782180786133,-0.8994221687316895,-0.8039942383766174,36.77940368652344,100.0858459472656,-29.34373474121094
200722,-0.2499237060546875,0.176727294921875,-0.3898773193359375,0.2682905793190002,0.3795854151248932,-0.584672749042511,35.822265625,99.9420928955078,-28.92906188964844
200723,-0.2499237060546875,0.176727294921875,-0.3898773193359375,0.2682905793190002,0.3795854151248932,-0.584672749042511,35.822265625,99.9420928955078,-28.92906188964844
200724,-0.02288818359375,0.2877655029296875,-0.799407958984375,0.0419495813548564,-0.1268527507781982,-0.3630802035331726,34.99942016601562,99.44366455078124,-28.92205810546875
200725,0.0525970458984375,0.3091278076171875,-0.610260009765625,-0.2681531608104706,-0.7585910558700562,-0.2871446907520294,34.78781127929688,99.20062255859376,-29.01943969726562
200726,0.127471923828125,0.312164306640625,-0.4565277099609375,-0.5391782522201538,-1.026941776275635,-0.1595534384250641,34.59512329101562,99.11561584472656,-28.92691040039062
200727,0.127471923828125,0.312164306640625,-0.4565277099609375,-0.5391782522201538,-1.026941776275635,-0.1595534384250641,34.59512329101562,99.11561584472656,-28.92691040039062
200728,0.197601318359375,0.410125732421875,-0.31689453125,-0.5787373781204224,-0.7148438096046448,0.1144240498542786,34.10237121582031,99.11180114746094,-28.11570739746094
200729,0.1754608154296875,0.544464111328125,-0.3571624755859375,-0.442851185798645,-0.5980831384658813,0.1728846877813339,33.93424987792969,99.14070129394533,-27.56190490722656
200730,0.1177215576171875,0.73248291015625,-0.4150543212890625,-0.2663059830665588,-0.6946166157722473,0.0758881047368049,34.04010009765625,99.23025512695312,-27.09768676757812
200731,0.1177215576171875,0.73248291015625,-0.4150543212890625,-0.2663059830665588,-0.6946166157722473,0.0758881047368049,34.04010009765625,99.23025512695312,-27.09768676757812
200732,0.0429229736328125,1.003082275390625,-0.3968963623046875,0.2289700657129288,-0.9859826564788818,-0.3353460431098938,34.11387634277344,99.21697998046876,-26.33833312988281
200733,-0.059051513671875,1.068939208984375,-0.2891693115234375,0.5205411911010742,-0.7789362668991089,-0.528921902179718,34.00627136230469,99.0910186767578,-25.93040466308594
200734,-0.308319091796875,1.062530517578125,-0.2722625732421875,0.9724034667015076,-0.0810551717877388,-0.761818528175354,33.43338012695312,99.13192749023438,-25.75735473632812
200735,-0.308319091796875,1.062530517578125,-0.2722625732421875,0.9724034667015076,-0.0810551717877388,-0.761818528175354,33.43338012695312,99.13192749023438,-25.75735473632812
200736,-0.40924072265625,1.125350952148438,-0.3355712890625,1.128735303878784,0.125992015004158,-0.8313765525817871,33.02853393554688,99.05158996582033,-25.98539733886719
200737,-0.5213623046875,1.240097045898438,-0.3443603515625,1.249136567115784,0.2487264573574066,-0.8740968704223633,32.63127136230469,98.75552368164062,-26.39250183105469
200738,-0.675201416015625,1.437911987304688,-0.2858428955078125,1.232148170471191,0.8692964911460876,-1.158307075500488,32.19932556152344,98.513671875,-26.988037109375
200739,-0.675201416015625,1.437911987304688,-0.2858428955078125,1.232148170471191,0.8692964911460876,-1.158307075500488,32.19932556152344,98.513671875,-26.988037109375
200740,-1.039154052734375,2.019973754882812,-0.043975830078125,1.049433588981628,1.450852632522583,-1.506561636924744,31.01486206054688,98.22860717773438,-28.53089904785156
200741,-1.24188232421875,2.370620727539062,-0.016021728515625,0.7664065957069397,1.868743300437927,-1.939051628112793,30.34671020507812,97.9416046142578,-29.34696960449219
200742,-1.676727294921875,2.54156494140625,0.0009918212890625,0.7174478769302368,1.770097970962524,-1.713233590126038,29.68295288085938,97.76969909667967,-30.41407775878906
200743,-1.676727294921875,2.54156494140625,0.0009918212890625,0.7174478769302368,1.770097970962524,-1.713233590126038,29.68295288085938,97.76969909667967,-30.41407775878906
200744,-1.608001708984375,3.323822021484375,0.0936737060546875,0.9522106051445008,0.7815810441970825,0.5080384612083435,28.75791931152344,97.1709442138672,-32.4696044921875
200745,-1.309585571289062,3.603302001953125,0.295989990234375,0.6473318934440613,-0.5143304467201233,1.035725235939026,28.72821044921875,96.99079895019533,-33.18238830566406
200746,-1.21197509765625,3.561233520507812,0.726593017578125,0.3517687022686005,-1.333330988883972,0.9396524429321288,29.00604248046875,96.9150390625,-33.80984497070312
200747,-1.21197509765625,3.561233520507812,0.726593017578125,0.3517687022686005,-1.333330988883972,0.9396524429321288,29.00604248046875,96.9150390625,-33.80984497070312
200748,-1.104812622070312,2.64373779296875,1.06756591796875,1.017964005470276,-0.2179751992225647,0.6104532480239868,29.57785034179688,97.223876953125,-34.26812744140625
200749,-0.9396514892578124,2.390853881835938,0.7557525634765625,1.670891165733337,0.3986222147941589,0.6662025451660156,29.80470275878906,97.29652404785156,-34.18321228027344
200750,-0.6806793212890625,2.167007446289062,0.3479766845703125,1.919015526771545,0.212125301361084,0.9435875415802002,30.31333923339844,97.07843017578124,-34.51133728027344
200751,-0.6806793212890625,2.167007446289062,0.3479766845703125,1.919015526771545,0.212125301361084,0.9435875415802002,30.31333923339844,97.07843017578124,-34.51133728027344
200752,-0.4604339599609375,1.5545654296875,-0.0882568359375,1.660966157913208,-1.253717660903931,1.064953327178955,31.79374694824219,96.3544921875,-36.01307678222656
200753,-0.4301605224609375,1.15478515625,0.1551055908203125,1.576374530792236,-1.264256119728088,0.9290732741355896,32.46743774414062,96.12188720703124,-36.83456420898438
200754,-0.3568115234375,0.8239288330078125,0.3049468994140625,1.560165762901306,-0.7869350910186768,0.8200810551643372,33.010009765625,95.86599731445312,-37.31393432617188
200755,-0.3568115234375,0.8239288330078125,0.3049468994140625,1.560165762901306,-0.7869350910186768,0.8200810551643372,33.010009765625,95.86599731445312,-37.31393432617188
200756,-0.161956787109375,0.4344482421875,0.21258544921875,1.559729337692261,0.0001171790863736,0.8565791249275208,33.78053283691406,95.13809204101562,-38.23280334472656
200757,-0.1048736572265625,0.3480224609375,0.2163238525390625,1.407113432884216,0.2423402070999146,0.9183626174926758,34.17900085449219,94.8920440673828,-38.8001708984375
200758,-0.06512451171875,0.2780609130859375,0.2794189453125,1.091498970985413,0.5485730767250061,0.9641718864440918,34.57424926757812,94.64401245117188,-39.32252502441406
200759,-0.06512451171875,0.2780609130859375,0.2794189453125,1.091498970985413,0.5485730767250061,0.9641718864440918,34.57424926757812,94.64401245117188,-39.32252502441406
200760,-0.019287109375,0.17864990234375,0.341064453125,0.2626979351043701,1.203311800956726,1.007804274559021,35.76380920410156,94.18589782714844,-40.34890747070312
200761,-0.0206756591796875,0.142913818359375,0.2979278564453125,-0.0978927388787269,1.356939673423767,0.9925265908241272,36.45045471191406,93.96200561523438,-40.66995239257812
200762,-0.065887451171875,0.113189697265625,0.2469635009765625,-0.6479476094245911,1.1096271276474,0.7791842222213745,37.28886413574219,93.91929626464844,-40.89866638183594
200763,-0.065887451171875,0.113189697265625,0.2469635009765625,-0.6479476094245911,1.1096271276474,0.7791842222213745,37.28886413574219,93.91929626464844,-40.89866638183594
200764,-0.293426513671875,0.08306884765625,0.2219085693359375,-0.8674511909484863,0.8453919887542725,0.647871196269989,38.95468139648438,94.05886840820312,-41.08427429199219
200765,-0.3687286376953125,0.0718994140625,0.208251953125,-1.009721040725708,0.5337076187133789,0.5591477155685425,39.5948486328125,94.25750732421876,-41.04925537109375
200766,-0.3690948486328125,0.095794677734375,0.2443084716796875,-1.082307815551758,0.2985092103481293,0.483158141374588,40.10624694824219,94.49208068847656,-40.71388244628906
200767,-0.3690948486328125,0.095794677734375,0.2443084716796875,-1.082307815551758,0.2985092103481293,0.483158141374588,40.10624694824219,94.49208068847656,-40.71388244628906
200768,-0.23052978515625,0.345916748046875,0.4594879150390625,-1.332015752792358,0.6531016230583191,0.2206002771854401,40.66038513183594,95.12384033203124,-39.88525390625
200769,-0.2166748046875,0.454986572265625,0.5861968994140625,-1.585857272148132,1.019262075424194,-0.0206845048815012,40.80067443847656,95.47810363769533,-39.53096008300781
200770,-0.2477874755859375,0.5337371826171875,0.6768341064453125,-1.926145315170288,1.378988742828369,-0.2802146077156067,41.01480102539062,95.84034729003906,-39.07835388183594
200771,-0.2477874755859375,0.5337371826171875,0.6768341064453125,-1.926145315170288,1.378988742828369,-0.2802146077156067,41.01480102539062,95.84034729003906,-39.07835388183594
200772,-0.4026031494140625,0.684906005859375,0.6817626953125,-2.575298547744751,1.589420557022095,-0.6786810159683228,41.35649108886719,96.50773620605467,-37.78688049316406
200773,-0.48199462890625,0.773712158203125,0.619384765625,-2.699167728424072,1.368308663368225,-0.8523737192153931,41.44294738769531,96.94595336914062,-36.9952392578125
200774,-0.508270263671875,0.7990264892578125,0.5179290771484375,-2.649313449859619,0.9237368702888488,-0.9494891166687012,41.43824768066406,97.55474853515624,-35.95182800292969
200775,-0.508270263671875,0.7990264892578125,0.5179290771484375,-2.649313449859619,0.9237368702888488,-0.9494891166687012,41.43824768066406,97.55474853515624,-35.95182800292969
200776,-0.404815673828125,0.7271270751953125,0.342529296875,-2.210416078567505,-0.2083060741424561,-0.9566466212272644,40.8895263671875,98.61990356445312,-33.82398986816406
200777,-0.3114013671875,0.623565673828125,0.263519287109375,-1.89492666721344,-0.6727213859558105,-0.9071967601776124,40.48828125,99.04315185546876,-32.58718872070312
200778,-0.244964599609375,0.5039520263671875,0.1805419921875,-1.254557609558105,-1.437595963478088,-0.8805094957351685,39.87577819824219,99.49533081054688,-31.48736572265625
200779,-0.244964599609375,0.5039520263671875,0.1805419921875,-1.254557609558105,-1.437595963478088,-0.8805094957351685,39.87577819824219,99.49533081054688,-31.48736572265625
200780,-0.1267852783203125,0.2716217041015625,-0.0005645751953125,-0.9755465388298036,-1.658090710639954,-0.8300122022628784,38.7952880859375,99.7379913330078,-29.50064086914062
200781,-0.1063232421875,0.218353271484375,-0.039642333984375,-0.715421736240387,-1.600760340690613,-0.7336729168891907,38.22264099121094,99.75697326660156,-28.74032592773438
200782,-0.172882080078125,0.18145751953125,-0.0861053466796875,-0.059799950569868,-0.5018207430839539,-0.7352257966995239,37.58160400390625,99.7990264892578,-28.13043212890625
200783,-0.172882080078125,0.18145751953125,-0.0861053466796875,-0.059799950569868,-0.5018207430839539,-0.7352257966995239,37.58160400390625,99.7990264892578,-28.13043212890625
200784,-0.130279541015625,-0.0204315185546875,-0.3527069091796875,0.166923999786377,-0.1581502258777618,-0.6128554344177246,36.27297973632812,99.83163452148438,-27.2091064453125
200785,-0.130279541015625,-0.0204315185546875,-0.3527069091796875,0.166923999786377,-0.1581502258777618,-0.6128554344177246,36.27297973632812,99.83163452148438,-27.2091064453125
200786,-0.0653228759765625,-0.12359619140625,-0.6274566650390625,0.2281111925840378,-0.2344295531511307,-0.2801927626132965,34.99119567871094,99.81480407714844,-26.8677978515625
200787,-0.0653228759765625,-0.12359619140625,-0.6274566650390625,0.2281111925840378,-0.2344295531511307,-0.2801927626132965,34.99119567871094,99.81480407714844,-26.8677978515625
200788,0.1082305908203125,0.061920166015625,-0.6398773193359375,-0.3843841552734375,-0.4701416790485382,-0.0429962016642093,34.33613586425781,99.52789306640624,-27.04365539550781
200789,0.1519012451171875,0.1966705322265625,-0.592559814453125,-0.7552493214607239,-0.6664488911628723,-0.0211462974548339,34.07217407226562,99.48210144042967,-26.90959167480469
200790,0.1465606689453125,0.324951171875,-0.453155517578125,-0.9689530730247498,-0.8618649840354919,-0.0359974168241024,33.92642211914062,99.51780700683594,-26.69113159179688
200791,0.1465606689453125,0.324951171875,-0.453155517578125,-0.9689530730247498,-0.8618649840354919,-0.0359974168241024,33.92642211914062,99.51780700683594,-26.69113159179688
200792,0.0696868896484375,0.558319091796875,-0.2613372802734375,-0.8980317711830139,-0.770184338092804,-0.1470389813184738,33.72700500488281,99.5625457763672,-25.48271179199219
200793,0.02996826171875,0.6389007568359375,-0.2483062744140625,-0.6190680265426636,-0.638837993144989,-0.1848838329315186,33.72651672363281,99.7655029296875,-24.8458251953125
200794,-0.0234375,0.7205047607421875,-0.29290771484375,-0.2314899563789368,-0.592140257358551,-0.2164934277534485,33.633056640625,99.76206970214844,-24.13426208496094
200795,-0.087890625,0.8093719482421875,-0.335601806640625,0.2374048233032227,-0.6302109956741333,-0.2626513242721558,33.41737365722656,99.98155212402344,-23.6759033203125
200796,-0.1622161865234375,0.897674560546875,-0.3109893798828125,0.7128653526306152,-0.6462998986244202,-0.3281089067459106,33.35398864746094,99.96849060058594,-23.31320190429688
200797,-0.24005126953125,0.98333740234375,-0.2181243896484375,1.069254636764526,-0.5175387263298035,-0.3995077013969421,33.19418334960938,99.90594482421876,-23.10490417480469
200798,-0.3333740234375,1.07135009765625,-0.1115570068359375,1.33633828163147,0.0596398934721946,-0.6792829036712646,32.999267578125,99.88580322265624,-23.07534790039062
200799,-0.4310302734375,1.17547607421875,-0.097625732421875,1.33633828163147,0.0596398934721946,-0.6792829036712646,32.74929809570312,99.66184997558594,-23.51582336425781
200800,-0.537689208984375,1.3079833984375,-0.1565093994140625,1.466436862945557,0.0467211678624153,-1.165620088577271,32.46879577636719,99.45378112792967,-23.78134155273438
200801,-0.66912841796875,1.460845947265625,-0.153167724609375,1.315281987190247,0.151344507932663,-1.385268807411194,32.21615600585938,99.1737823486328,-24.28504943847656
200802,-0.8733367919921875,1.653244018554688,-0.0253448486328125,1.315281987190247,0.151344507932663,-1.385268807411194,31.86422729492188,99.0395965576172,-24.99307250976562
200803,-0.8733367919921875,1.653244018554688,-0.0253448486328125,1.315281987190247,0.151344507932663,-1.385268807411194,31.86422729492188,99.0395965576172,-24.99307250976562
200804,-1.8590087890625,1.834762573242188,0.1241302490234375,0.5419391393661499,1.170387148857117,-1.087368965148926,30.58454895019531,98.53976440429688,-26.57588195800781
200805,-2.149566650390625,2.002029418945312,0.0385894775390625,0.4048324525356293,1.282847881317139,-0.2258632183074951,29.88874816894531,98.3911590576172,-27.37376403808594
200806,-2.03076171875,2.350189208984375,0.081390380859375,0.493027538061142,0.5160489678382874,-0.2735812067985535,29.34341430664062,98.34481811523438,-28.27366638183594
200807,-2.03076171875,2.350189208984375,0.081390380859375,0.493027538061142,0.5160489678382874,-0.2735812067985535,29.34341430664062,98.34481811523438,-28.27366638183594
200808,-1.987945556640625,2.4130859375,0.419830322265625,0.0949006825685501,-0.1705696135759354,-0.028349082916975,29.08465576171875,98.62188720703124,-29.41426086425781
200809,-1.987945556640625,2.4130859375,0.419830322265625,0.0949006825685501,-0.1705696135759354,-0.028349082916975,29.08465576171875,98.62188720703124,-29.41426086425781
200810,-1.253707885742188,2.334762573242188,0.50445556640625,-0.1794299483299255,-0.1261592656373978,0.6872236728668213,29.01995849609375,98.6086883544922,-29.39877319335938
200811,-1.160263061523438,2.264892578125,0.6485137939453125,-0.2781578600406647,-0.0579668954014778,0.8731357455253601,29.07565307617188,98.60647583007812,-29.40098571777344
200812,-1.139923095703125,2.28564453125,0.8399200439453125,-0.0925421863794326,0.1660885661840439,0.999350368976593,29.08450317382812,98.75949096679688,-29.41984558105469
200813,-1.061080932617188,2.286880493164062,0.9420013427734376,0.4309157133102417,0.6015130281448364,1.110055565834045,29.29666137695312,98.8647003173828,-29.26554870605469
200814,-0.967864990234375,2.157455444335938,0.861114501953125,1.160321116447449,1.243732213973999,1.096662878990173,29.7012939453125,99.13858032226562,-29.39010620117188
200815,-0.720977783203125,1.96612548828125,0.6048736572265625,1.656347751617432,1.420444130897522,1.202607393264771,30.26445007324219,99.11293029785156,-29.70198059082031
200816,-0.553955078125,1.861801147460938,0.3549652099609375,1.638967871665955,1.018746137619019,1.381700992584229,31.18618774414062,98.7514190673828,-30.21963500976562
200817,-0.4033660888671875,1.699737548828125,0.1806640625,1.366155862808228,-0.0466159731149673,1.319056987762451,32.37196350097656,98.3638153076172,-31.10182189941406
200818,-0.2534332275390625,1.467605590820312,0.31036376953125,1.152823328971863,-0.7672809362411499,1.274935841560364,33.64852905273438,98.00387573242188,-32.0260009765625
200819,-0.097442626953125,1.218582153320312,0.326080322265625,1.077422261238098,-1.102359056472778,1.231752157211304,34.62403869628906,97.7126007080078,-32.88427734375
200820,0.087127685546875,0.9708251953125,0.1850128173828125,1.187826037406921,-1.164474129676819,1.298130750656128,35.87223815917969,97.2039031982422,-33.49095153808594
200821,0.175018310546875,0.75787353515625,0.060577392578125,1.453126907348633,-0.9133049845695496,1.26130211353302,36.2332763671875,97.13645935058594,-33.83464050292969
200822,0.2347259521484375,0.5413055419921875,0.0199432373046875,1.726811170578003,-0.41842120885849,1.15040910243988,36.52191162109375,97.05870056152344,-34.19886779785156
200823,0.2347259521484375,0.5413055419921875,0.0199432373046875,1.726811170578003,-0.41842120885849,1.15040910243988,36.52191162109375,97.05870056152344,-34.19886779785156
200824,0.3024444580078125,0.308502197265625,0.050079345703125,1.533244132995605,0.381025105714798,1.003699660301208,37.3709716796875,96.75958251953124,-35.27413940429688
200825,0.2948760986328125,0.25250244140625,0.1161651611328125,1.128749370574951,0.4516819715499878,1.060515522956848,37.97956848144531,96.5380859375,-35.92121887207031
200826,0.204010009765625,0.2384033203125,0.2334136962890625,0.667306661605835,0.5392507314682007,1.103517770767212,38.57550048828125,96.35374450683594,-36.45158386230469
200827,0.204010009765625,0.2384033203125,0.2334136962890625,0.667306661605835,0.5392507314682007,1.103517770767212,38.57550048828125,96.35374450683594,-36.45158386230469
200828,-0.196746826171875,0.3520660400390625,0.4501190185546875,-0.1801402121782303,1.062911748886108,1.051763296127319,39.99041748046875,96.26081848144533,-37.2584228515625
200829,-0.334869384765625,0.4368438720703125,0.4165496826171875,-0.4490241408348083,1.24488377571106,0.9852526783943176,40.74533081054688,96.37197875976562,-37.56900024414062
200830,-0.428466796875,0.50311279296875,0.3445587158203125,-0.4914658665657043,1.132987022399902,0.8421799540519714,41.48825073242188,96.49134826660156,-37.34983825683594
200831,-0.428466796875,0.50311279296875,0.3445587158203125,-0.4914658665657043,1.132987022399902,0.8421799540519714,41.48825073242188,96.49134826660156,-37.34983825683594
200832,-0.29931640625,0.517242431640625,0.329559326171875,-0.1886953413486481,0.5186607241630554,0.6180315613746643,42.94595336914062,96.50253295898438,-37.3594970703125
200833,-0.1568145751953125,0.5419464111328125,0.4095611572265625,-0.1768461465835571,0.450213223695755,0.4705983996391296,43.37652587890625,96.64540100097656,-37.36083984375
200834,-0.0770263671875,0.539398193359375,0.525604248046875,-0.326143741607666,0.5974543690681458,0.3515279293060303,43.72764587402344,96.8775634765625,-37.40507507324219
200835,-0.06549072265625,0.5352020263671875,0.6625213623046875,-0.5679542422294617,0.979321837425232,0.2708911597728729,44.02340698242188,96.94371032714844,-37.25599670410156
200836,-0.0999908447265625,0.549774169921875,0.7578277587890625,-0.8636359572410583,1.49258828163147,0.1920748949050903,44.36579895019531,97.07469177246094,-37.06629943847656
200837,-0.147796630859375,0.5717315673828125,0.7458343505859375,-1.215183854103088,1.929574131965637,0.1000243350863457,44.638427734375,97.22731018066406,-36.77447509765625
200838,-0.2289581298828125,0.592376708984375,0.685028076171875,-1.613823890686035,2.145039081573486,-0.0129139339551329,45.04916381835938,97.45309448242188,-36.4674072265625
200839,-0.317474365234375,0.6053314208984375,0.6301727294921875,-1.963600635528564,2.09434962272644,-0.1514118909835815,45.44151306152344,97.6916046142578,-35.87467956542969
200840,-0.40118408203125,0.5946502685546875,0.6010894775390625,-2.201105356216431,1.793633699417114,-0.313177615404129,45.886962890625,97.92814636230467,-35.18052673339844
200841,-0.4546661376953125,0.555023193359375,0.59405517578125,-2.305761575698853,1.332190155982971,-0.4498936533927917,46.20001220703125,98.3720245361328,-34.34744262695312
200842,-0.4636383056640625,0.5020294189453125,0.6259918212890625,-2.292374849319458,0.8712853789329529,-0.5593929886817932,46.32119750976562,98.86007690429688,-33.48365783691406
200843,-0.4373626708984375,0.4700927734375,0.6094818115234375,-2.231953859329224,0.5098155736923218,-0.6732053160667419,46.24528503417969,99.4523468017578,-32.61723327636719
200844,-0.40863037109375,0.4452972412109375,0.5077056884765625,-2.140163660049438,0.1828169524669647,-0.8005930781364441,46.04316711425781,99.80735778808594,-31.24795532226562
200845,-0.40863037109375,0.4452972412109375,0.5077056884765625,-2.140163660049438,0.1828169524669647,-0.8005930781364441,46.04316711425781,99.80735778808594,-31.24795532226562
