time_idx,accelerometerAccelerationX(G),accelerometerAccelerationY(G),accelerometerAccelerationZ(G),gyroRotationX(rad/s),gyroRotationY(rad/s),gyroRotationZ(rad/s),magnetometerX(µT),magnetometerY(µT),magnetometerZ(µT)
165656,-0.6374053955078125,1.235031127929688,-0.1681060791015625,0.1308637410402298,0.3425405621528625,0.2750754952430725,36.15742492675781,97.29800415039062,-30.57972717285156
165657,-0.6783905029296875,1.231643676757812,-0.131317138671875,0.2904802858829498,0.4467000067234039,0.2085633277893066,36.38075256347656,97.41539001464844,-30.7135009765625
165658,-0.6783905029296875,1.231643676757812,-0.131317138671875,0.2904802858829498,0.4467000067234039,0.2085633277893066,36.38075256347656,97.41539001464844,-30.7135009765625
165659,-0.729339599609375,1.24114990234375,-0.100677490234375,0.4227437973022461,0.531914234161377,0.1088210195302963,36.59617614746094,97.52386474609376,-30.91429138183594
165660,-0.7967681884765625,1.176788330078125,-0.0907440185546875,0.578616201877594,0.5619860887527466,-0.0994205996394157,36.92453002929688,97.58259582519533,-31.50352478027344
165661,-0.7967681884765625,1.176788330078125,-0.0907440185546875,0.578616201877594,0.5619860887527466,-0.0994205996394157,36.92453002929688,97.58259582519533,-31.50352478027344
165662,-0.8014068603515625,1.040756225585938,-0.1296234130859375,0.7056093215942383,0.4709922969341278,-0.2779027223587036,37.06207275390625,97.60237121582033,-32.02616882324219
165663,-0.7820587158203125,0.949951171875,-0.142242431640625,0.7600448727607727,0.4131036996841431,-0.3131512701511383,37.12057495117188,97.64471435546876,-32.39680480957031
165664,-0.7820587158203125,0.949951171875,-0.142242431640625,0.7600448727607727,0.4131036996841431,-0.3131512701511383,37.12057495117188,97.64471435546876,-32.39680480957031
165665,-0.7443084716796875,0.8600006103515625,-0.1444091796875,0.8000889420509338,0.3684142529964447,-0.3172701001167297,37.12258911132812,97.47535705566406,-32.91130065917969
165666,-0.692352294921875,0.7528228759765625,-0.161468505859375,0.7530996203422546,0.3288596570491791,-0.2972926795482635,37.05938720703125,97.3736572265625,-33.28062438964844
165667,-0.665374755859375,0.6325836181640625,-0.1966094970703125,0.6661679148674011,0.1657484918832779,-0.234839141368866,36.9212646484375,97.3049774169922,-33.72126770019531
165668,-0.6663665771484375,0.5554046630859375,-0.1879730224609375,0.5857188701629639,-0.0665281638503074,-0.1721725612878799,36.87699890136719,97.23593139648438,-34.09307861328125
165669,-0.6536712646484375,0.4777984619140625,-0.09942626953125,0.5063316226005554,-0.3774104118347168,-0.046065229922533,36.93125915527344,97.0718994140625,-34.53450012207031
165670,-0.6536712646484375,0.4777984619140625,-0.09942626953125,0.5063316226005554,-0.3774104118347168,-0.046065229922533,36.93125915527344,97.0718994140625,-34.53450012207031
165671,-0.6514129638671875,0.4645233154296875,-0.0207977294921875,0.5513854026794434,-0.3358690738677979,0.0116041917353868,37.02894592285156,96.86370849609376,-34.77487182617188
165672,-0.615509033203125,0.441162109375,0.1241455078125,0.6535285115242004,0.1584498286247253,0.0279285702854394,37.09242248535156,96.61360168457033,-35.0267333984375
165673,-0.615509033203125,0.441162109375,0.1241455078125,0.6535285115242004,0.1584498286247253,0.0279285702854394,37.09242248535156,96.61360168457033,-35.0267333984375
165674,-0.5754852294921875,0.411712646484375,0.147796630859375,0.6554617285728455,0.4393970668315887,-0.0018556906143203,37.23934936523438,96.5791473388672,-35.33450317382812
165675,-0.4518890380859375,0.2853240966796875,0.057373046875,0.5307520031929016,0.659837007522583,-0.0594742447137832,37.66725158691406,96.25715637207033,-35.90977478027344
165676,-0.38983154296875,0.2357330322265625,0.0494232177734375,0.4424000680446625,0.6739107966423035,-0.084933266043663,37.87289428710938,96.1860809326172,-36.226806640625
165677,-0.38983154296875,0.2357330322265625,0.0494232177734375,0.4424000680446625,0.6739107966423035,-0.084933266043663,37.87289428710938,96.1860809326172,-36.226806640625
165678,-0.319000244140625,0.202728271484375,0.023406982421875,0.3695349097251892,0.6578244566917419,-0.0697678923606872,38.01898193359375,96.12857055664062,-36.55543518066406
165679,-0.2653045654296875,0.214630126953125,-0.00347900390625,0.3355244696140289,0.5959944128990173,-0.0488777942955493,38.18846130371094,96.0127410888672,-36.78082275390625
165680,-0.149383544921875,0.3074798583984375,-0.0177001953125,0.1710319370031357,0.3939635455608368,-0.0562134720385074,38.35475158691406,95.7900848388672,-37.17265319824219
165681,-0.11865234375,0.3902435302734375,-0.0194549560546875,-0.0161970797926187,0.2104975879192352,-0.0351726338267326,38.39666748046875,95.69223022460938,-37.19509887695312
165682,-0.11865234375,0.3902435302734375,-0.0194549560546875,-0.0161970797926187,0.2104975879192352,-0.0351726338267326,38.39666748046875,95.69223022460938,-37.19509887695312
165683,-0.134033203125,0.4895782470703125,0.0156402587890625,-0.2385103106498718,0.0539636313915252,-0.0036349485162645,38.39324951171875,95.53060913085938,-37.34613037109375
165684,-0.299102783203125,0.6299896240234375,0.1929931640625,-0.6646299362182617,0.1611832976341248,0.0196647811681032,38.34126281738281,95.65008544921876,-37.37760925292969
165685,-0.4102935791015625,0.6629791259765625,0.267852783203125,-0.8099991083145142,0.2927610278129578,0.0202568024396896,38.28248596191406,95.74226379394533,-37.249267578125
165686,-0.4102935791015625,0.6629791259765625,0.267852783203125,-0.8099991083145142,0.2927610278129578,0.0202568024396896,38.28248596191406,95.74226379394533,-37.249267578125
165687,-0.5995025634765625,0.74688720703125,0.323211669921875,-1.024184942245483,0.4001492857933044,-0.0140660181641578,38.36294555664062,96.11912536621094,-36.63186645507812
165688,-0.6754302978515625,0.7676239013671875,0.3162078857421875,-1.083110570907593,0.3202823996543884,-0.0478644594550132,38.28378295898438,96.29995727539062,-36.43942260742188
165689,-0.7079315185546875,0.7847442626953125,0.30621337890625,-1.104470133781433,0.1822315901517868,-0.0734222829341888,38.37135314941406,96.47940063476562,-36.01429748535156
165690,-0.7079315185546875,0.7847442626953125,0.30621337890625,-1.104470133781433,0.1822315901517868,-0.0734222829341888,38.37135314941406,96.47940063476562,-36.01429748535156
165691,-0.6837310791015625,0.7857818603515625,0.2921600341796875,-1.100802659988403,0.0024466461036354,-0.103399895131588,38.30769348144531,96.67507934570312,-35.66114807128906
165692,-0.591400146484375,0.7923583984375,0.2779388427734375,-1.085103392601013,-0.3202200829982758,-0.1733653992414474,38.10090637207031,97.08250427246094,-34.70208740234375
165693,-0.591400146484375,0.7923583984375,0.2779388427734375,-1.085103392601013,-0.3202200829982758,-0.1733653992414474,38.10090637207031,97.08250427246094,-34.70208740234375
165694,-0.5780029296875,0.852569580078125,0.2618408203125,-1.085082292556763,-0.4069153070449829,-0.2227055132389069,37.90324401855469,97.3503875732422,-34.24032592773438
165695,-0.6014556884765625,0.9119873046875,0.2361602783203125,-1.104093551635742,-0.4423044621944427,-0.3137488663196564,37.63859558105469,97.48396301269533,-33.71847534179688
165696,-0.7004241943359375,0.9936676025390624,0.11932373046875,-1.076032161712646,-0.3804530799388885,-0.5115775465965271,37.07518005371094,97.8196258544922,-32.80819702148438
165697,-0.7004241943359375,0.9936676025390624,0.11932373046875,-1.076032161712646,-0.3804530799388885,-0.5115775465965271,37.07518005371094,97.8196258544922,-32.80819702148438
165698,-0.7680511474609375,1.059722900390625,0.0543365478515625,-0.9424332976341248,-0.2772499918937683,-0.6347993016242981,36.74522399902344,97.8989715576172,-32.18026733398438
165699,-0.8434295654296875,1.110885620117188,-0.1111297607421875,-0.6328384280204773,-0.0041268342174589,-0.7937799096107483,35.97294616699219,97.88479614257812,-31.1558837890625
165700,-0.8075103759765625,1.072540283203125,-0.220733642578125,-0.5622031688690186,0.0108973886817693,-0.7470059990882874,35.62471008300781,97.86441040039062,-30.77383422851562
165701,-0.8075103759765625,1.072540283203125,-0.220733642578125,-0.5622031688690186,0.0108973886817693,-0.7470059990882874,35.62471008300781,97.86441040039062,-30.77383422851562
165702,-0.7469940185546875,1.073394775390625,-0.31121826171875,-0.5090534090995789,-0.0438175201416015,-0.6699418425559998,35.25086975097656,97.87657165527344,-30.41009521484375
165703,-0.644561767578125,1.098587036132812,-0.38134765625,-0.3637180328369141,0.0288146045058965,-0.4814728796482086,34.47196960449219,97.54347229003906,-29.63166809082031
165704,-0.648162841796875,1.12353515625,-0.39178466796875,-0.2713513374328613,0.1589728742837906,-0.3528773784637451,34.07545471191406,97.45761108398438,-29.298583984375
165705,-0.648162841796875,1.12353515625,-0.39178466796875,-0.2713513374328613,0.1589728742837906,-0.3528773784637451,34.07545471191406,97.45761108398438,-29.298583984375
165706,-0.766845703125,1.09149169921875,-0.476348876953125,-0.0808719471096992,0.3216288983821869,-0.017217868939042,33.5843505859375,97.4031982421875,-29.05851745605469
165707,-0.8400115966796875,1.077560424804688,-0.528961181640625,0.0040504015050828,0.4316073358058929,0.1603089869022369,33.4359130859375,97.46566772460938,-28.90534973144531
165708,-0.917510986328125,1.070877075195312,-0.6148834228515625,0.0363598726689815,0.5988495945930481,0.3089855313301086,33.43145751953125,97.49006652832033,-28.73454284667969
165709,-0.917510986328125,1.070877075195312,-0.6148834228515625,0.0363598726689815,0.5988495945930481,0.3089855313301086,33.43145751953125,97.49006652832033,-28.73454284667969
165710,-0.9599761962890624,1.0726318359375,-0.658416748046875,-0.0179164167493581,0.8781765699386597,0.4958579540252686,33.61470031738281,97.41897583007812,-28.83018493652344
165711,-0.926910400390625,1.067520141601562,-0.6390838623046875,-0.046221025288105,0.9953932166099548,0.5380171537399292,33.87155151367188,97.56678771972656,-28.97862243652344
165712,-0.8991851806640625,1.059478759765625,-0.6399078369140625,-0.0632620602846145,1.112888097763062,0.545961320400238,34.18260192871094,97.56759643554688,-29.04548645019531
165713,-0.8991851806640625,1.059478759765625,-0.6399078369140625,-0.0632620602846145,1.112888097763062,0.545961320400238,34.18260192871094,97.56759643554688,-29.04548645019531
165714,-0.863677978515625,1.060760498046875,-0.6395111083984375,-0.0832264497876167,1.20604681968689,0.5408307313919067,34.51577758789062,97.50715637207033,-29.13525390625
165715,-0.7569732666015625,1.047698974609375,-0.4668121337890625,-0.1229456290602684,1.421864628791809,0.4769425988197327,35.21470642089844,97.93429565429688,-29.34222412109375
165716,-0.702667236328125,1.023483276367188,-0.3658599853515625,-0.0957209318876266,1.422012448310852,0.435268372297287,35.50282287597656,98.06832885742188,-29.49171447753906
165717,-0.6631317138671875,0.99822998046875,-0.294677734375,-0.0968850031495094,1.27806293964386,0.4081589877605438,35.92253112792969,98.15003967285156,-29.60769653320312
165718,-0.6631317138671875,0.99822998046875,-0.294677734375,-0.0968850031495094,1.27806293964386,0.4081589877605438,35.92253112792969,98.15003967285156,-29.60769653320312
165719,-0.629791259765625,0.897369384765625,-0.1739654541015625,-0.148688018321991,0.6933894157409668,0.4239182472229004,36.86357116699219,98.28482055664062,-29.80087280273438
165720,-0.584686279296875,0.8667144775390625,-0.0936279296875,-0.0981422811746597,0.4797034859657288,0.4660057723522186,37.22509765625,98.42912292480467,-29.89048767089844
165721,-0.584686279296875,0.8667144775390625,-0.0936279296875,-0.0981422811746597,0.4797034859657288,0.4660057723522186,37.22509765625,98.42912292480467,-29.89048767089844
165722,-0.539337158203125,0.846771240234375,-0.0334625244140625,-0.0094456998631358,0.3993138372898102,0.4974571764469147,37.60861206054688,98.43106079101562,-29.93330383300781
165723,-0.43353271484375,0.75714111328125,-0.001220703125,0.1587446331977844,0.5101103782653809,0.5247257947921753,38.18341064453125,98.69944763183594,-29.99427795410156
165724,-0.3918914794921875,0.7064056396484375,-0.051788330078125,0.2526386380195618,0.4587795734405518,0.5450694561004639,38.57275390625,98.7003936767578,-30.02139282226562
165725,-0.3730316162109375,0.684417724609375,-0.0506744384765625,0.3282793462276459,0.3441595137119293,0.544623076915741,38.95425415039062,98.75897216796876,-30.02793884277344
165726,-0.3730316162109375,0.684417724609375,-0.0506744384765625,0.3282793462276459,0.3441595137119293,0.544623076915741,38.95425415039062,98.75897216796876,-30.02793884277344
165727,-0.3343963623046875,0.6732025146484375,0.0558319091796875,0.400109589099884,0.19045490026474,0.4305431246757507,39.70639038085938,98.82850646972656,-30.39653015136719
165728,-0.308837890625,0.66015625,0.141143798828125,0.4065493941307068,0.2558450996875763,0.3290836215019226,40.00596618652344,98.70944213867188,-30.55903625488281
165729,-0.2622222900390625,0.6241607666015625,0.161376953125,0.3924181163311005,0.3438013195991516,0.2558291256427765,40.3880615234375,98.5102081298828,-30.70280456542969
165730,-0.2622222900390625,0.6241607666015625,0.161376953125,0.3924181163311005,0.3438013195991516,0.2558291256427765,40.3880615234375,98.5102081298828,-30.70280456542969
165731,-0.15582275390625,0.5204315185546875,0.124755859375,0.3688288927078247,0.2580110430717468,0.2252504229545593,41.13308715820312,98.32296752929688,-31.08602905273438
165732,-0.099212646484375,0.484588623046875,0.121795654296875,0.324427604675293,0.1175628453493118,0.2562509477138519,41.45051574707031,98.29934692382812,-31.15371704101562
165733,-0.0402984619140625,0.4650421142578125,0.1424102783203125,0.2280664592981339,-0.0694240853190422,0.3164136409759521,41.71432495117188,98.08619689941406,-31.36317443847656
165734,-0.0402984619140625,0.4650421142578125,0.1424102783203125,0.2280664592981339,-0.0694240853190422,0.3164136409759521,41.71432495117188,98.08619689941406,-31.36317443847656
165735,-0.0246734619140625,0.441009521484375,0.2457122802734375,-0.0556054711341857,-0.0505734272301197,0.4167665839195251,42.18826293945312,97.9858856201172,-31.52801513671875
165736,-0.1065216064453125,0.4190216064453125,0.22052001953125,-0.1713736206293106,0.1291550546884537,0.4147191643714905,42.33229064941406,97.95091247558594,-31.30528259277344
165737,-0.2612152099609375,0.430267333984375,0.1740264892578125,-0.2704764902591705,0.2355826944112778,0.3879349529743195,42.48187255859375,97.96607971191406,-31.27005004882812
165738,-0.2612152099609375,0.430267333984375,0.1740264892578125,-0.2704764902591705,0.2355826944112778,0.3879349529743195,42.48187255859375,97.96607971191406,-31.27005004882812
165739,-0.402313232421875,0.4611968994140625,0.166473388671875,-0.412626713514328,0.2484913021326065,0.3124271333217621,42.60499572753906,98.17878723144533,-31.39236450195312
165740,-0.5966796875,0.4684906005859375,0.07489013671875,-0.7343184351921082,0.1587720662355423,0.0685620158910751,42.93446350097656,98.47024536132812,-31.39979553222656
165741,-0.5966796875,0.4684906005859375,0.07489013671875,-0.7343184351921082,0.1587720662355423,0.0685620158910751,42.93446350097656,98.47024536132812,-31.39979553222656
165742,-0.668060302734375,0.5294189453125,0.0786895751953125,-0.8991763591766357,0.0522267185151577,-0.1973607391119003,43.23344421386719,98.59382629394533,-30.86265563964844
165743,-0.63372802734375,0.558807373046875,0.139556884765625,-0.9745241403579712,0.1987394541501999,-0.2558717131614685,43.16691589355469,98.719970703125,-30.52125549316406
165744,-0.5944366455078125,0.5961761474609375,0.17010498046875,-1.069472789764404,0.4077587127685547,-0.2643158137798309,43.06666564941406,98.89588928222656,-30.15156555175781
165745,-0.5944366455078125,0.5961761474609375,0.17010498046875,-1.069472789764404,0.4077587127685547,-0.2643158137798309,43.06666564941406,98.89588928222656,-30.15156555175781
165746,-0.5882568359375,0.7008056640625,0.1514434814453125,-1.225422978401184,0.5712288618087769,-0.250421553850174,42.76376342773438,99.01203918457033,-29.26405334472656
165747,-0.6070098876953125,0.7566680908203125,0.1494293212890625,-1.240776300430298,0.5327102541923523,-0.2489509582519531,42.76785278320312,99.020751953125,-28.67181396484375
165748,-0.6337127685546875,0.817108154296875,0.151397705078125,-1.192987561225891,0.5010790824890137,-0.2814085185527802,42.69248962402344,99.15243530273438,-28.12910461425781
165749,-0.64117431640625,0.832763671875,0.1363372802734375,-1.106896877288818,0.5067034363746643,-0.3108388483524323,42.62013244628906,99.1887664794922,-27.69508361816406
165750,-0.64117431640625,0.832763671875,0.1363372802734375,-1.106896877288818,0.5067034363746643,-0.3108388483524323,42.62013244628906,99.1887664794922,-27.69508361816406
165751,-0.6277313232421875,0.820587158203125,0.115509033203125,-1.024320721626282,0.5266352891921997,-0.3300330340862274,42.49198913574219,99.34915161132812,-27.14408874511719
165752,-0.57733154296875,0.7865753173828125,0.064697265625,-0.8885272145271301,0.6122940182685852,-0.3667937219142914,42.23001098632812,99.40530395507812,-25.94857788085938
165753,-0.5486602783203125,0.7743072509765625,0.00506591796875,-0.8380059599876404,0.5760979056358337,-0.4016539454460144,42.00054931640625,99.54177856445312,-25.54768371582031
165754,-0.5486602783203125,0.7743072509765625,0.00506591796875,-0.8380059599876404,0.5760979056358337,-0.4016539454460144,42.00054931640625,99.54177856445312,-25.54768371582031
165755,-0.47320556640625,0.7775421142578125,-0.1845703125,-0.7164619565010071,0.1789729446172714,-0.4474922716617584,41.55909729003906,99.59902954101562,-24.92124938964844
165756,-0.4240264892578125,0.8172607421875,-0.2423095703125,-0.6588524580001831,-0.1094170361757278,-0.4476169347763062,41.30776977539062,99.50233459472656,-24.59455871582031
165757,-0.4240264892578125,0.8172607421875,-0.2423095703125,-0.6588524580001831,-0.1094170361757278,-0.4476169347763062,41.30776977539062,99.50233459472656,-24.59455871582031
165758,-0.3894195556640625,1.017333984375,-0.23028564453125,-0.5516011118888855,-0.1192515566945076,-0.4809991121292114,40.83235168457031,99.52427673339844,-23.78704833984375
165759,-0.42144775390625,1.149810791015625,-0.237823486328125,-0.4941428899765015,0.0718976259231567,-0.5259868502616882,40.44479370117188,99.5506591796875,-23.48100280761719
165760,-0.4795989990234375,1.23175048828125,-0.2708892822265625,-0.4501881897449493,0.1426564902067184,-0.5100917220115662,40.09738159179688,99.54328918457033,-23.14518737792969
165761,-0.4795989990234375,1.23175048828125,-0.2708892822265625,-0.4501881897449493,0.1426564902067184,-0.5100917220115662,40.09738159179688,99.54328918457033,-23.14518737792969
165762,-0.5530853271484375,1.278030395507812,-0.27728271484375,-0.405234307050705,0.0058584217913448,-0.4446126222610474,39.79083251953125,99.35693359375,-22.71913146972656
165763,-0.6192474365234375,1.284683227539062,-0.26727294921875,-0.34056556224823,-0.1671266704797745,-0.3428731858730316,39.43394470214844,99.2310791015625,-22.51637268066406
165764,-0.661407470703125,1.186904907226562,-0.3691558837890625,-0.0320703163743019,-0.269914835691452,-0.0646383836865425,39.02725219726562,99.25111389160156,-22.30548095703125
165765,-0.661407470703125,1.186904907226562,-0.3691558837890625,-0.0320703163743019,-0.269914835691452,-0.0646383836865425,39.02725219726562,99.25111389160156,-22.30548095703125
165766,-0.6462554931640625,1.128204345703125,-0.4697723388671875,0.1432285308837891,-0.2000486701726913,0.0539814755320549,38.73098754882812,99.11692810058594,-21.74745178222656
165767,-0.607391357421875,1.201141357421875,-0.601104736328125,0.3953143060207367,-0.1095957383513451,0.2419391274452209,38.66107177734375,99.0885772705078,-21.79849243164062
165768,-0.5692901611328125,1.287811279296875,-0.5667877197265625,0.4797143936157227,-0.0009251821320503,0.2729164958000183,38.73052978515625,99.02346801757812,-21.72808837890625
165769,-0.5275726318359375,1.369522094726562,-0.514739990234375,0.5235665440559387,0.1143481433391571,0.2682873904705048,38.91889953613281,98.96116638183594,-21.97239685058594
165770,-0.5275726318359375,1.369522094726562,-0.514739990234375,0.5235665440559387,0.1143481433391571,0.2682873904705048,38.91889953613281,98.96116638183594,-21.97239685058594
165771,-0.488372802734375,1.42633056640625,-0.4019622802734375,0.5189968347549438,0.2355515360832214,0.2334782630205154,39.1671142578125,99.05984497070312,-22.44854736328125
165772,-0.5175323486328125,1.401336669921875,-0.373046875,0.5169405937194824,0.2537347972393036,0.2289769947528839,39.2890625,98.9941864013672,-22.75064086914062
165773,-0.5596923828125,1.346542358398438,-0.3545074462890625,0.5042386651039124,0.2808774709701538,0.2626228332519531,39.43826293945312,98.98199462890624,-22.96110534667969
165774,-0.5596923828125,1.346542358398438,-0.3545074462890625,0.5042386651039124,0.2808774709701538,0.2626228332519531,39.43826293945312,98.98199462890624,-22.96110534667969
165775,-0.6126251220703125,1.25982666015625,-0.250885009765625,0.4770999848842621,0.3158985674381256,0.3426412343978882,39.76983642578125,99.03453063964844,-23.44842529296875
165776,-0.6373748779296875,1.208724975585938,-0.2010040283203125,0.5049129724502563,0.3698020279407501,0.3517827987670898,40.0657958984375,99.12664794921876,-23.68226623535156
165777,-0.6373748779296875,1.208724975585938,-0.2010040283203125,0.5049129724502563,0.3698020279407501,0.3517827987670898,40.0657958984375,99.12664794921876,-23.68226623535156
165778,-0.6784515380859375,1.168533325195312,-0.157470703125,0.5723492503166199,0.47063809633255,0.3263493478298187,40.21131896972656,99.26556396484376,-23.94903564453125
165779,-0.723297119140625,1.135345458984375,-0.1407623291015625,0.6596018671989441,0.6054781675338745,0.2533214688301086,40.45846557617188,99.28517150878906,-24.37471008300781
165780,-0.767852783203125,1.033660888671875,-0.1717529296875,0.7117593288421631,0.6788269877433777,0.0059548281133174,40.81340026855469,99.44758605957033,-25.25857543945312
165781,-0.767852783203125,1.033660888671875,-0.1717529296875,0.7117593288421631,0.6788269877433777,0.0059548281133174,40.81340026855469,99.44758605957033,-25.25857543945312
165782,-0.743865966796875,0.9068450927734376,-0.1322784423828125,0.7093939185142517,0.5964862704277039,-0.2215667515993118,41.05091857910156,99.56843566894533,-26.03713989257812
165783,-0.6962738037109375,0.8524322509765625,-0.1079864501953125,0.6932051181793213,0.6268268823623657,-0.2755554020404816,41.19114685058594,99.44874572753906,-26.43046569824219
165784,-0.65008544921875,0.7978363037109375,-0.1128692626953125,0.6815385818481445,0.5966729521751404,-0.2937858104705811,41.216552734375,99.37893676757812,-26.65284729003906
165785,-0.6125946044921875,0.757354736328125,-0.0992279052734375,0.6913701891899109,0.5072730779647827,-0.2728254199028015,41.26017761230469,99.34986877441406,-27.03509521484375
165786,-0.6125946044921875,0.757354736328125,-0.0992279052734375,0.6913701891899109,0.5072730779647827,-0.2728254199028015,41.26017761230469,99.34986877441406,-27.03509521484375
165787,-0.537933349609375,0.683563232421875,-0.1242828369140625,0.6652584075927734,0.1073964983224869,-0.1642382144927979,41.29495239257812,99.2741241455078,-27.80755615234375
165788,-0.501800537109375,0.645599365234375,-0.10406494140625,0.6677916049957275,-0.1301843672990799,-0.1166725531220436,41.33413696289062,99.17617797851562,-28.04122924804688
165789,-0.4664154052734375,0.611053466796875,-0.0666961669921875,0.6947242021560669,-0.2851981818675995,-0.0931413918733596,41.36459350585938,99.02725219726562,-28.31146240234375
165790,-0.4438018798828125,0.5778656005859375,-0.0123291015625,0.7436767816543579,-0.2885881364345551,-0.0823079198598861,41.43429565429688,99.00411987304688,-28.69129943847656
165791,-0.4285125732421875,0.5543060302734375,0.0391082763671875,0.8314442038536072,-0.0756204575300216,-0.0904223099350929,41.51191711425781,98.89694213867188,-28.8353271484375
165792,-0.42132568359375,0.5163116455078125,0.0684814453125,0.8983521461486816,0.2642388343811035,-0.1026792377233505,41.54110717773438,98.8061981201172,-29.15519714355469
165793,-0.42132568359375,0.5163116455078125,0.0684814453125,0.8983521461486816,0.2642388343811035,-0.1026792377233505,41.54110717773438,98.8061981201172,-29.15519714355469
165794,-0.46728515625,0.4279327392578125,-0.02001953125,0.8784066438674927,0.7043405771255493,-0.1049645021557808,41.63821411132812,98.56077575683594,-29.9296875
165795,-0.4575653076171875,0.3841552734375,-0.058990478515625,0.8067817687988281,0.6538606286048889,-0.0954098775982856,41.72169494628906,98.52706909179688,-30.39312744140625
165796,-0.4273681640625,0.339447021484375,-0.0884552001953125,0.7067318558692932,0.5362754464149475,-0.0736379995942115,41.8902587890625,98.41644287109376,-30.88140869140625
165797,-0.389129638671875,0.31768798828125,-0.119171142578125,0.6284905672073364,0.3857234716415405,-0.0617331378161907,41.89376831054688,98.28172302246094,-31.29417419433594
165798,-0.389129638671875,0.31768798828125,-0.119171142578125,0.6284905672073364,0.3857234716415405,-0.0617331378161907,41.89376831054688,98.28172302246094,-31.29417419433594
165799,-0.332366943359375,0.3245391845703125,-0.060699462890625,0.392751008272171,0.295837789773941,-0.0944340899586677,42.00660705566406,98.09034729003906,-32.03857421875
165800,-0.2966461181640625,0.3659515380859375,-0.0235443115234375,0.1881643086671829,0.3455371558666229,-0.1202057674527168,41.98114013671875,97.9908447265625,-32.235595703125
165801,-0.2966461181640625,0.3659515380859375,-0.0235443115234375,0.1881643086671829,0.3455371558666229,-0.1202057674527168,41.98114013671875,97.9908447265625,-32.235595703125
165802,-0.280517578125,0.5179901123046875,0.0792083740234375,-0.3017489314079285,0.2509989440441132,-0.0413767360150814,41.96658325195312,97.84504699707033,-32.55857849121094
165803,-0.3018035888671875,0.612945556640625,0.1229705810546875,-0.4589284360408783,0.1011433973908424,0.005070658866316,42.02742004394531,97.8171844482422,-32.5865478515625
165804,-0.3614501953125,0.69354248046875,0.167816162109375,-0.5515124201774597,0.0671113952994346,0.0419796742498874,41.98033142089844,97.8582763671875,-32.35867309570312
165805,-0.4783935546875,0.7562408447265625,0.182098388671875,-0.6011670827865601,0.1643916070461273,0.0387724302709102,41.94883728027344,97.99932861328124,-32.04266357421875
165806,-0.4783935546875,0.7562408447265625,0.182098388671875,-0.6011670827865601,0.1643916070461273,0.0387724302709102,41.94883728027344,97.99932861328124,-32.04266357421875
165807,-0.6323699951171875,0.856597900390625,0.18121337890625,-0.8099780678749084,0.2786222994327545,-0.0217423141002655,41.86100769042969,98.21548461914062,-31.53848266601562
165808,-0.652618408203125,0.8659820556640625,0.2354888916015625,-0.9390980005264282,0.2415689527988434,-0.0657403990626335,41.96035766601562,98.24911499023438,-31.41256713867188
165809,-0.64019775390625,0.8622589111328125,0.2894744873046875,-1.051111578941345,0.1740516871213913,-0.1078995689749718,41.91934204101562,98.4510498046875,-31.04803466796875
165810,-0.64019775390625,0.8622589111328125,0.2894744873046875,-1.051111578941345,0.1740516871213913,-0.1078995689749718,41.91934204101562,98.4510498046875,-31.04803466796875
165811,-0.625823974609375,0.8338775634765625,0.3235931396484375,-1.122557759284973,0.0772665590047836,-0.1556207537651062,41.93206787109375,98.57733154296876,-30.62158203125
165812,-0.6147003173828125,0.785491943359375,0.3314361572265625,-1.180686593055725,-0.1582058817148209,-0.24632428586483,41.86781311035156,98.66275024414062,-29.50439453125
165813,-0.625152587890625,0.7682342529296875,0.3066558837890625,-1.194260001182556,-0.2600124180316925,-0.298117458820343,41.65339660644531,98.81173706054688,-28.98594665527344
165814,-0.625152587890625,0.7682342529296875,0.3066558837890625,-1.194260001182556,-0.2600124180316925,-0.298117458820343,41.65339660644531,98.81173706054688,-28.98594665527344
165815,-0.662109375,0.7928619384765625,0.1925048828125,-1.224707365036011,-0.4056481719017029,-0.4116101861000061,41.07752990722656,99.16844177246094,-27.94749450683594
165816,-0.6638336181640625,0.82098388671875,0.1157989501953125,-1.207161068916321,-0.4073102474212646,-0.4501090943813324,40.87657165527344,99.193115234375,-27.24517822265625
165817,-0.6778106689453125,0.8896331787109375,0.0451812744140625,-1.164018392562866,-0.2330276519060135,-0.4779473841190338,40.55906677246094,99.24739074707033,-26.66014099121094
165818,-0.6776885986328125,0.9283905029296876,-0.0487060546875,-1.084429860115051,0.0739844813942909,-0.5273804664611816,40.138671875,99.29733276367188,-25.90019226074219
165819,-0.6776885986328125,0.9283905029296876,-0.0487060546875,-1.084429860115051,0.0739844813942909,-0.5273804664611816,40.138671875,99.29733276367188,-25.90019226074219
165820,-0.636993408203125,0.886199951171875,-0.25067138671875,-0.8937227725982666,0.3209884166717529,-0.6074619889259338,39.54277038574219,99.18243408203124,-24.64552307128906
165821,-0.6339263916015625,0.918914794921875,-0.328033447265625,-0.8517297506332397,0.2398533374071121,-0.5909575819969177,39.29679870605469,99.12541198730467,-24.32095336914062
165822,-0.6478118896484375,0.9760284423828124,-0.3957977294921875,-0.8309714794158936,0.1293713003396988,-0.580920398235321,38.92750549316406,99.13876342773438,-23.87599182128906
165823,-0.6397552490234375,1.013671875,-0.4599151611328125,-0.7887055277824402,0.0395631231367588,-0.5324490070343018,38.54641723632812,99.1267547607422,-23.50022888183594
165824,-0.6438751220703125,1.047164916992188,-0.507110595703125,-0.6948109865188599,-0.011168498545885,-0.4454184770584106,38.18284606933594,99.00721740722656,-23.03678894042969
165825,-0.6438751220703125,1.047164916992188,-0.507110595703125,-0.6948109865188599,-0.011168498545885,-0.4454184770584106,38.18284606933594,99.00721740722656,-23.03678894042969
165826,-0.65496826171875,1.145660400390625,-0.5285186767578125,-0.4154243767261505,0.1291414797306061,-0.1623047590255737,37.60748291015625,98.88938903808594,-22.22044372558594
165827,-0.67822265625,1.193283081054688,-0.5637664794921875,-0.2620630264282227,0.2657264769077301,0.0165747161954641,37.42265319824219,98.89689636230467,-21.90608215332031
165828,-0.6828765869140625,1.234970092773438,-0.609893798828125,-0.1144019439816475,0.4022364020347595,0.2171943634748459,37.24589538574219,98.82502746582033,-21.58230590820312
165829,-0.6828765869140625,1.234970092773438,-0.609893798828125,-0.1144019439816475,0.4022364020347595,0.2171943634748459,37.24589538574219,98.82502746582033,-21.58230590820312
165830,-0.6606903076171875,1.307876586914062,-0.677276611328125,0.1199724748730659,0.6630538702011108,0.5431309342384338,37.35113525390625,98.9517059326172,-21.44978332519531
165831,-0.650482177734375,1.309066772460938,-0.6708221435546875,0.1806715130805969,0.7963003516197205,0.6406471133232117,37.50273132324219,99.0409698486328,-21.55033874511719
165832,-0.654205322265625,1.275054931640625,-0.67413330078125,0.2070847451686859,0.8652120232582092,0.7003738284111023,37.79380798339844,98.9145050048828,-21.52963256835938
165833,-0.6856842041015625,1.226577758789062,-0.681488037109375,0.2220703512430191,0.891598105430603,0.7113433480262756,38.11959838867188,99.02439880371094,-21.64781188964844
165834,-0.6856842041015625,1.226577758789062,-0.681488037109375,0.2220703512430191,0.891598105430603,0.7113433480262756,38.11959838867188,99.02439880371094,-21.64781188964844
165835,-0.7137451171875,1.113983154296875,-0.6124420166015625,0.2276781648397446,0.8979033827781677,0.6714654564857483,38.88165283203125,99.06753540039062,-21.82902526855469
165836,-0.6982269287109375,1.054092407226562,-0.526336669921875,0.2448393106460571,0.9448860883712769,0.6214888691902161,39.25698852539062,99.07180786132812,-21.79275512695312
165837,-0.6982269287109375,1.054092407226562,-0.526336669921875,0.2448393106460571,0.9448860883712769,0.6214888691902161,39.25698852539062,99.07180786132812,-21.79275512695312
165838,-0.6599884033203125,0.970458984375,-0.4290618896484375,0.2934510409832001,1.037428498268127,0.5532850027084351,39.57630920410156,99.19680786132812,-22.09135437011719
165839,-0.641143798828125,0.9189453125,-0.384490966796875,0.3150666058063507,1.091623306274414,0.5009896159172058,39.9403076171875,99.40232849121094,-22.66397094726562
165840,-0.5995941162109375,0.769805908203125,-0.3118133544921875,0.0806716755032539,0.6977817416191101,0.3784479796886444,40.46875,99.71101379394533,-23.27134704589844
165841,-0.5760345458984375,0.6888427734375,-0.202056884765625,-0.0106172244995832,0.4531517624855042,0.4001623094081879,40.73304748535156,99.74383544921876,-23.3602294921875
165842,-0.5760345458984375,0.6888427734375,-0.202056884765625,-0.0106172244995832,0.4531517624855042,0.4001623094081879,40.73304748535156,99.74383544921876,-23.3602294921875
165843,-0.5388336181640625,0.658203125,-0.0901947021484375,-0.053644586354494,0.3890915513038635,0.4175029695034027,40.9097900390625,99.88986206054688,-23.4832763671875
165844,-0.484130859375,0.6470184326171875,0.017547607421875,0.0202272403985261,0.4820468127727509,0.5384389758110046,41.63328552246094,99.91241455078124,-23.53575134277344
165845,-0.4929046630859375,0.71624755859375,0.03619384765625,0.1092905402183533,0.4857496619224548,0.6154698133468628,42.03213500976562,99.8645477294922,-23.673828125
165846,-0.47271728515625,0.7578277587890625,0.055694580078125,0.1763310879468918,0.4634483456611633,0.6295912265777588,42.34625244140625,99.98355102539062,-23.78135681152344
165847,-0.47271728515625,0.7578277587890625,0.055694580078125,0.1763310879468918,0.4634483456611633,0.6295912265777588,42.34625244140625,99.98355102539062,-23.78135681152344
165848,-0.390228271484375,0.7385711669921875,0.0901336669921875,0.2079995423555374,0.3552185595035553,0.5826322436332703,43.187744140625,99.83865356445312,-23.84526062011719
165849,-0.3097686767578125,0.7111663818359375,0.0953216552734375,0.2141778022050858,0.2489379197359085,0.5058128237724304,43.57952880859375,99.81951904296876,-24.01446533203125
165850,-0.3097686767578125,0.7111663818359375,0.0953216552734375,0.2141778022050858,0.2489379197359085,0.5058128237724304,43.57952880859375,99.81951904296876,-24.01446533203125
165851,-0.2122955322265625,0.66229248046875,0.092620849609375,0.2078123241662979,0.1230484247207642,0.4185008406639099,43.98046875,99.8875732421875,-24.1724853515625
165852,-0.116180419921875,0.6082916259765625,0.1050872802734375,0.1550513654947281,0.0236523319035768,0.3728971481323242,44.49014282226562,99.6400909423828,-24.19694519042969
165853,0.0020904541015625,0.5583953857421875,0.2344512939453125,-0.0556699186563491,0.1862476319074631,0.4165167808532715,45.10302734375,99.568115234375,-24.24497985839844
165854,-0.002685546875,0.5832366943359375,0.2174835205078125,-0.1547935754060745,0.3652288317680359,0.4489327967166901,45.26959228515625,99.54541015625,-24.27847290039062
165855,-0.002685546875,0.5832366943359375,0.2174835205078125,-0.1547935754060745,0.3652288317680359,0.4489327967166901,45.26959228515625,99.54541015625,-24.27847290039062
165856,-0.12945556640625,0.68798828125,0.1316375732421875,-0.2084583938121796,0.2912989556789398,0.3948320150375366,45.93975830078125,99.41351318359376,-24.16259765625
165857,-0.2356719970703125,0.7650146484375,0.1772308349609375,-0.2194532603025436,0.1462133973836899,0.3012514412403107,46.23591613769531,99.4739227294922,-24.10800170898438
165858,-0.2356719970703125,0.7650146484375,0.1772308349609375,-0.2194532603025436,0.1462133973836899,0.3012514412403107,46.23591613769531,99.4739227294922,-24.10800170898438
165859,-0.4683074951171875,0.850799560546875,0.1537322998046875,-0.2373465001583099,-0.1277760714292526,0.1073296517133713,46.73709106445312,99.48695373535156,-23.93684387207031
165860,-0.5224609375,0.85272216796875,0.111480712890625,-0.2361880391836166,-0.2137194722890854,-0.0048517468385398,46.87875366210938,99.61685180664062,-23.80117797851562
165861,-0.5529022216796875,0.8311767578125,0.11566162109375,-0.2628135085105896,-0.228669136762619,-0.1272532939910889,46.87155151367188,99.63069152832033,-23.58071899414062
165862,-0.5529022216796875,0.8311767578125,0.11566162109375,-0.2628135085105896,-0.228669136762619,-0.1272532939910889,46.87155151367188,99.63069152832033,-23.58071899414062
165863,-0.550689697265625,0.78912353515625,0.1405029296875,-0.3181542754173279,-0.1584471613168716,-0.2486063539981842,46.87579345703125,99.81452941894533,-23.45637512207031
165864,-0.53009033203125,0.6913909912109375,0.1635284423828125,-0.4066734910011292,-0.0374552309513092,-0.4087576866149902,46.5546875,99.99363708496094,-23.15682983398438
165865,-0.530914306640625,0.638671875,0.1991729736328125,-0.4570495784282684,0.0118798287585377,-0.4500105679035187,46.37213134765625,99.96615600585938,-23.02392578125
165866,-0.530914306640625,0.638671875,0.1991729736328125,-0.4570495784282684,0.0118798287585377,-0.4500105679035187,46.37213134765625,99.96615600585938,-23.02392578125
165867,-0.544189453125,0.5920562744140625,0.2193450927734375,-0.5796053409576416,0.1494470089673996,-0.4393057227134705,45.97723388671875,99.9851531982422,-22.6954345703125
165868,-0.5537872314453125,0.6063995361328125,0.1681671142578125,-0.6254244446754456,0.1850023418664932,-0.4675134122371674,45.70770263671875,99.97422790527344,-22.4754638671875
165869,-0.55560302734375,0.608245849609375,0.1214752197265625,-0.6419168710708618,0.1950565725564957,-0.5181992053985596,45.42987060546875,100.0393524169922,-22.21737670898438
165870,-0.553131103515625,0.59490966796875,0.0994720458984375,-0.6564548015594482,0.2312153726816177,-0.5393779873847961,45.18302917480469,99.92095947265624,-21.84329223632812
165871,-0.542938232421875,0.589447021484375,0.0892486572265625,-0.6997421383857727,0.3645779490470886,-0.5453815460205078,44.90757751464844,99.93742370605467,-21.62074279785156
165872,-0.5313720703125,0.5845489501953125,0.0583953857421875,-0.7815341949462891,0.5407745838165283,-0.5279431939125061,44.60823059082031,100.0166473388672,-21.38055419921875
165873,-0.5241851806640625,0.579742431640625,-0.002899169921875,-0.8422073721885681,0.6203607320785522,-0.5279309153556824,44.30941772460938,99.95233154296876,-21.12091064453125
165874,-0.5241851806640625,0.579742431640625,-0.002899169921875,-0.8422073721885681,0.6203607320785522,-0.5279309153556824,44.30941772460938,99.95233154296876,-21.12091064453125
165875,-0.499725341796875,0.581878662109375,-0.1558837890625,-0.9458014369010924,0.429924488067627,-0.5237165093421936,43.59576416015625,100.0647430419922,-20.25288391113281
165876,-0.483551025390625,0.619720458984375,-0.2292022705078125,-0.9958009123802184,0.2498223483562469,-0.5070866346359253,43.23814392089844,100.1381378173828,-19.87857055664062
165877,-0.4488525390625,0.692840576171875,-0.2801055908203125,-1.037978768348694,0.0701623111963272,-0.4749153852462769,42.94277954101562,100.0913848876953,-19.49851989746094
165878,-0.4006195068359375,0.7992095947265625,-0.2840423583984375,-1.077739953994751,-0.0119815617799758,-0.4118445515632629,42.63217163085938,100.0842590332031,-19.09141540527344
165879,-0.4006195068359375,0.7992095947265625,-0.2840423583984375,-1.077739953994751,-0.0119815617799758,-0.4118445515632629,42.63217163085938,100.0842590332031,-19.09141540527344
165880,-0.4438323974609375,1.146926879882812,-0.2978668212890625,-1.010880589485168,0.3572998046875,-0.3370571136474609,42.0325927734375,99.86813354492188,-18.09649658203125
165881,-0.5069580078125,1.249908447265625,-0.3473052978515625,-0.8958202600479126,0.4643578231334686,-0.3318788707256317,41.79986572265625,99.89314270019533,-17.5133056640625
165882,-0.5069580078125,1.249908447265625,-0.3473052978515625,-0.8958202600479126,0.4643578231334686,-0.3318788707256317,41.79986572265625,99.89314270019533,-17.5133056640625
165883,-0.6228485107421875,1.288986206054688,-0.397186279296875,-0.6361839175224304,0.185183972120285,-0.2187027782201767,41.31990051269531,99.69758605957033,-16.48550415039062
165884,-0.62255859375,1.238204956054688,-0.4278564453125,-0.4412591457366943,0.0708704441785812,-0.136305645108223,41.09584045410156,99.64105224609376,-16.20571899414062
165885,-0.5318603515625,1.178970336914062,-0.5372314453125,0.0335238724946975,0.0717551484704017,-0.0075897425413131,40.88859558105469,99.30368041992188,-15.57711791992188
165886,-0.5318603515625,1.178970336914062,-0.5372314453125,0.0335238724946975,0.0717551484704017,-0.0075897425413131,40.88859558105469,99.30368041992188,-15.57711791992188
165887,-0.4633636474609375,1.212158203125,-0.5800628662109375,0.2544125616550446,0.1029591411352158,0.0853063762187957,40.80632019042969,99.21247863769533,-15.38568115234375
165888,-0.375640869140625,1.29150390625,-0.57098388671875,0.4300762712955475,0.1915507912635803,0.1687519997358322,40.85137939453125,99.05584716796876,-15.26217651367188
165889,-0.3035430908203125,1.387176513671875,-0.54534912109375,0.5341936349868774,0.3062888085842133,0.190638929605484,40.81562805175781,99.11329650878906,-15.364501953125
165890,-0.3035430908203125,1.387176513671875,-0.54534912109375,0.5341936349868774,0.3062888085842133,0.190638929605484,40.81562805175781,99.11329650878906,-15.364501953125
165891,-0.3318328857421875,1.439987182617188,-0.4593963623046875,0.4511693120002747,0.3030384480953217,0.1018382161855698,40.93824768066406,99.23690795898438,-15.76773071289062
165892,-0.409912109375,1.40606689453125,-0.3777618408203125,0.4012254476547241,0.1884804368019104,0.0952642038464546,41.03315734863281,99.28170776367188,-15.95713806152344
165893,-0.461273193359375,1.332992553710938,-0.328948974609375,0.3649984896183014,0.1057280302047729,0.1074835807085037,41.05799865722656,99.47373962402344,-16.33027648925781
165894,-0.461273193359375,1.332992553710938,-0.328948974609375,0.3649984896183014,0.1057280302047729,0.1074835807085037,41.05799865722656,99.47373962402344,-16.33027648925781
165895,-0.5306549072265625,1.245071411132812,-0.173553466796875,0.2904291749000549,0.0280987452715635,0.1201913878321648,41.25222778320312,99.44758605957033,-16.73368835449219
165896,-0.5771636962890625,1.21173095703125,-0.093963623046875,0.3424130082130432,0.1125510483980179,0.0733301416039466,41.30238342285156,99.5625457763672,-16.78274536132812
165897,-0.68988037109375,1.222991943359375,-0.0987701416015625,0.592968761920929,0.3056219816207886,-0.075591430068016,41.35618591308594,99.6569366455078,-17.30567932128906
165898,-0.68988037109375,1.222991943359375,-0.0987701416015625,0.592968761920929,0.3056219816207886,-0.075591430068016,41.35618591308594,99.6569366455078,-17.30567932128906
165899,-0.724456787109375,1.232498168945312,-0.118072509765625,0.7085307836532593,0.3115842640399933,-0.1199775338172913,41.32087707519531,99.7005615234375,-17.48699951171875
165900,-0.7464752197265625,1.234695434570312,-0.1224822998046875,0.7678396701812744,0.3421925008296967,-0.1536231189966202,41.31686401367188,99.7891845703125,-17.81809997558594
165901,-0.757080078125,1.219833374023438,-0.120391845703125,0.809552788734436,0.376422643661499,-0.1966922879219055,41.29231262207031,99.87890625,-18.18739318847656
165902,-0.7593841552734375,1.170913696289062,-0.1173553466796875,0.8446007370948792,0.38382488489151,-0.2335102260112762,41.22607421875,99.81231689453124,-18.63430786132812
165903,-0.750274658203125,1.101486206054688,-0.1307525634765625,0.8782812356948853,0.3287456631660461,-0.2754677832126617,41.22624206542969,99.95724487304688,-19.03883361816406
165904,-0.7149810791015625,1.011550903320312,-0.15789794921875,0.8968834280967712,0.2168438881635666,-0.2952865064144135,41.16616821289062,100.1587066650391,-19.39897155761719
165905,-0.6689910888671875,0.917633056640625,-0.1981658935546875,0.8980450630187988,0.0608870536088943,-0.2804510891437531,41.09013366699219,100.1025085449219,-19.76589965820312
165906,-0.6689910888671875,0.917633056640625,-0.1981658935546875,0.8980450630187988,0.0608870536088943,-0.2804510891437531,41.09013366699219,100.1025085449219,-19.76589965820312
165907,-0.5883636474609375,0.7540130615234375,-0.2370452880859375,0.7958308458328247,-0.3322378695011139,-0.202709972858429,41.0150146484375,100.0362854003906,-20.78866577148438
165908,-0.5666656494140625,0.6802520751953125,-0.2215118408203125,0.722588300704956,-0.5327733755111694,-0.1570258289575577,40.95393371582031,100.1179962158203,-21.14897155761719
165909,-0.5499114990234375,0.6119537353515625,-0.1778411865234375,0.700253963470459,-0.6542172431945801,-0.1243366003036499,40.83119201660156,100.1417999267578,-21.54550170898438
165910,-0.5499114990234375,0.6119537353515625,-0.1778411865234375,0.700253963470459,-0.6542172431945801,-0.1243366003036499,40.83119201660156,100.1417999267578,-21.54550170898438
165911,-0.5376739501953125,0.53228759765625,-0.0003204345703125,0.8690049052238464,-0.543571412563324,-0.0646466389298439,40.92707824707031,99.95936584472656,-22.06446838378906
165912,-0.535369873046875,0.4929962158203125,0.06298828125,1.00276505947113,-0.2726304531097412,-0.0586294904351234,41.07891845703125,99.9757843017578,-22.3006591796875
165913,-0.5313720703125,0.45819091796875,0.0803070068359375,1.08018696308136,-0.0639946982264518,-0.0378805361688137,41.21755981445312,99.89927673339844,-22.57289123535156
165914,-0.5313720703125,0.45819091796875,0.0803070068359375,1.08018696308136,-0.0639946982264518,-0.0378805361688137,41.21755981445312,99.89927673339844,-22.57289123535156
165915,-0.526947021484375,0.404815673828125,0.0627593994140625,1.001172542572021,0.1774472147226334,0.0206821095198392,41.53926086425781,99.76570129394533,-23.48500061035156
165916,-0.49859619140625,0.366485595703125,0.0433197021484375,0.9166874885559082,0.2508604526519775,-0.0238366238772869,41.68167114257812,99.7234344482422,-24.0225830078125
165917,-0.4676513671875,0.30938720703125,0.0497894287109375,0.8246086835861206,0.3219708502292633,-0.0664698407053947,41.73617553710938,99.6311492919922,-24.40618896484375
165918,-0.4676513671875,0.30938720703125,0.0497894287109375,0.8246086835861206,0.3219708502292633,-0.0664698407053947,41.73617553710938,99.6311492919922,-24.40618896484375
165919,-0.3841705322265625,0.252838134765625,0.069732666015625,0.6226313710212708,0.4126770496368408,-0.1037144139409065,41.8402099609375,99.3965301513672,-25.19178771972656
165920,-0.32147216796875,0.2652435302734375,0.0844573974609375,0.4441478848457336,0.3958410620689392,-0.1106604710221291,41.92820739746094,99.43093872070312,-25.65794372558594
165921,-0.26373291015625,0.317413330078125,0.096435546875,0.1775825023651123,0.3449238240718842,-0.0774686932563781,41.86318969726562,99.2921142578125,-26.13417053222656
165922,-0.26373291015625,0.317413330078125,0.096435546875,0.1775825023651123,0.3449238240718842,-0.0774686932563781,41.86318969726562,99.2921142578125,-26.13417053222656
165923,-0.2420501708984375,0.49005126953125,0.0800018310546875,-0.3568867444992065,0.1464088708162308,0.0391146466135978,41.78775024414062,99.1476593017578,-26.56369018554688
165924,-0.355316162109375,0.5800018310546875,0.1292266845703125,-0.5088562965393066,0.2429143786430359,0.0818080455064773,41.7684326171875,99.14793395996094,-26.64788818359375
165925,-0.483978271484375,0.6402587890625,0.1441650390625,-0.6081621050834656,0.4227973222732544,0.0685319229960441,41.69682312011719,99.25416564941406,-26.59182739257812
165926,-0.54644775390625,0.6615142822265625,0.11572265625,-0.7001231908798218,0.458986759185791,0.0423887372016906,41.63726806640625,99.22509765625,-26.42149353027344
165927,-0.5427703857421875,0.654937744140625,0.112152099609375,-0.811724841594696,0.3490312397480011,0.0468559227883815,41.69398498535156,99.296875,-26.21421813964844
165928,-0.4922027587890625,0.654571533203125,0.1696014404296875,-0.9362167119979858,0.2507643103599548,0.0688368529081344,41.6507568359375,99.3179168701172,-25.9222412109375
165929,-0.4384307861328125,0.6983184814453125,0.24505615234375,-1.079824447631836,0.2457362562417984,0.0802037566900253,41.62968444824219,99.44572448730467,-25.55130004882812
165930,-0.4384307861328125,0.6983184814453125,0.24505615234375,-1.079824447631836,0.2457362562417984,0.0802037566900253,41.62968444824219,99.44572448730467,-25.55130004882812
165931,-0.427642822265625,0.8078460693359375,0.282806396484375,-1.277941823005676,0.2222943156957626,-0.034206174314022,41.65693664550781,99.62501525878906,-24.2484130859375
165932,-0.427642822265625,0.8078460693359375,0.282806396484375,-1.277941823005676,0.2222943156957626,-0.034206174314022,41.65693664550781,99.62501525878906,-24.2484130859375
165933,-0.5152740478515625,0.865020751953125,0.323455810546875,-1.301293969154358,-0.033360619097948,-0.2518519461154938,41.6324462890625,99.732666015625,-23.71307373046875
165934,-0.5152740478515625,0.865020751953125,0.323455810546875,-1.301293969154358,-0.033360619097948,-0.2518519461154938,41.6324462890625,99.732666015625,-23.71307373046875
165935,-0.6522979736328125,0.9463653564453124,0.3123931884765625,-1.30063784122467,-0.2044807076454163,-0.4813179075717926,41.38591003417969,99.8397979736328,-22.37542724609375
165936,-0.717498779296875,0.9638519287109376,0.2653045654296875,-1.290413975715637,-0.2504130303859711,-0.5857239365577698,41.15214538574219,99.86575317382812,-21.552978515625
165937,-0.7618408203125,0.971954345703125,0.1864166259765625,-1.208796501159668,-0.272756963968277,-0.6759584546089172,40.46928405761719,99.92459106445312,-20.35609436035156
165938,-0.7618408203125,0.971954345703125,0.1864166259765625,-1.208796501159668,-0.272756963968277,-0.6759584546089172,40.46928405761719,99.92459106445312,-20.35609436035156
165939,-0.78900146484375,0.9637451171875,0.006317138671875,-0.8482519388198853,0.0519180595874786,-0.7070551514625549,39.57438659667969,99.84567260742188,-19.30564880371094
165940,-0.7607269287109375,0.9231109619140624,-0.1954193115234375,-0.7066910862922668,0.2997339963912964,-0.6452155113220215,39.18864440917969,99.68368530273438,-18.73860168457031
165941,-0.7066650390625,0.9091644287109376,-0.4511566162109375,-0.5692448019981384,0.1937795877456665,-0.5806575417518616,38.752685546875,99.47921752929688,-18.26683044433594
165942,-0.7066650390625,0.9091644287109376,-0.4511566162109375,-0.5692448019981384,0.1937795877456665,-0.5806575417518616,38.752685546875,99.47921752929688,-18.26683044433594
165943,-0.601593017578125,1.0670166015625,-0.5464935302734375,-0.4360042214393616,-0.1574338376522064,-0.4622581899166107,38.02464294433594,99.24282836914062,-17.66804504394531
165944,-0.57049560546875,1.153411865234375,-0.5570068359375,-0.3705485165119171,-0.1009023785591125,-0.4202396273612976,37.66069030761719,99.09385681152344,-17.40335083007812
165945,-0.576080322265625,1.189544677734375,-0.5579071044921875,-0.2913905680179596,0.0301877297461032,-0.3464591503143311,37.31663513183594,99.15528869628906,-17.15992736816406
165946,-0.576080322265625,1.189544677734375,-0.5579071044921875,-0.2913905680179596,0.0301877297461032,-0.3464591503143311,37.31663513183594,99.15528869628906,-17.15992736816406
165947,-0.6303558349609375,1.159744262695312,-0.6067657470703125,-0.1052356064319611,0.2663326263427734,-0.0393407493829727,36.91024780273438,98.96812438964844,-16.67778015136719
165948,-0.640594482421875,1.14617919921875,-0.671112060546875,0.0034868768416345,0.3250041902065277,0.1613335013389587,36.86735534667969,98.95291137695312,-16.62823486328125
165949,-0.6429901123046875,1.158187866210938,-0.7294158935546875,0.1167678982019424,0.3831029236316681,0.3373247683048248,36.86453247070312,98.90621948242188,-16.66593933105469
165950,-0.6270751953125,1.188308715820312,-0.765838623046875,0.2167986184358597,0.4751846194267273,0.4815644919872284,36.96827697753906,98.82147216796876,-16.55628967285156
165951,-0.583282470703125,1.231704711914062,-0.7769622802734375,0.2846581041812897,0.5977635383605957,0.5756896734237671,37.14605712890625,98.8894500732422,-16.59727478027344
165952,-0.5773468017578125,1.259246826171875,-0.7636566162109375,0.3235852420330048,0.6858936548233032,0.6206941604614258,37.41053771972656,98.98208618164062,-16.78160095214844
165953,-0.619110107421875,1.25128173828125,-0.7337799072265625,0.352252334356308,0.7124326229095459,0.6322988867759705,37.66598510742188,99.15061950683594,-17.05368041992188
165954,-0.619110107421875,1.25128173828125,-0.7337799072265625,0.352252334356308,0.7124326229095459,0.6322988867759705,37.66598510742188,99.15061950683594,-17.05368041992188
165955,-0.7065277099609375,1.192977905273438,-0.6308441162109375,0.3994784355163574,0.8223316669464111,0.5914470553398132,38.12611389160156,99.32290649414062,-17.44696044921875
165956,-0.6995391845703125,1.11962890625,-0.55816650390625,0.4266796708106995,0.910658359527588,0.5451826453208923,38.36579895019531,99.54997253417967,-17.64891052246094
165957,-0.7020721435546875,1.0675048828125,-0.4945831298828125,0.4016499519348145,0.9353298544883728,0.4764552414417267,38.57542419433594,99.68087768554688,-17.94950866699219
165958,-0.7020721435546875,1.0675048828125,-0.4945831298828125,0.4016499519348145,0.9353298544883728,0.4764552414417267,38.57542419433594,99.68087768554688,-17.94950866699219
165959,-0.6570892333984375,0.8871917724609375,-0.40032958984375,0.1770815700292587,0.6079605221748352,0.3663079440593719,39.05976867675781,99.91293334960938,-18.66574096679688
165960,-0.6461639404296875,0.790130615234375,-0.3269195556640625,0.0764931738376617,0.3679846823215485,0.345345139503479,39.29927062988281,99.93638610839844,-18.80221557617188
165961,-0.5835723876953125,0.719146728515625,-0.08001708984375,0.0767451077699661,0.4698753654956818,0.35969078540802,39.72845458984375,100.2298583984375,-19.07241821289062
165962,-0.5835723876953125,0.719146728515625,-0.08001708984375,0.0767451077699661,0.4698753654956818,0.35969078540802,39.72845458984375,100.2298583984375,-19.07241821289062
165963,-0.5667877197265625,0.701812744140625,-0.0278167724609375,0.1480621695518494,0.5529939532279968,0.3708528876304626,39.968017578125,100.3555908203125,-19.17570495605469
165964,-0.58172607421875,0.709228515625,0.0268707275390625,0.2528631389141083,0.5304313898086548,0.4469362199306488,40.32113647460938,100.3218231201172,-19.35990905761719
165965,-0.6119842529296875,0.777191162109375,0.0766754150390625,0.3457648456096649,0.4132797122001648,0.5320550799369812,40.63063049316406,100.3256225585938,-19.60455322265625
165966,-0.6444854736328125,0.8552093505859375,0.1867523193359375,0.4142017066478729,0.3341529369354248,0.5836179256439209,41.03753662109375,100.14404296875,-19.88565063476562
165967,-0.6144561767578125,0.8889923095703125,0.3214263916015625,0.3579099476337433,0.5176335573196411,0.5567197203636169,41.44224548339844,100.0535125732422,-20.09114074707031
165968,-0.4767913818359375,0.817626953125,0.251739501953125,0.2598622143268585,0.5946886539459229,0.5065598487854004,41.87832641601562,100.0476531982422,-20.31527709960938
165969,-0.301727294921875,0.6705780029296875,0.26171875,0.1159479096531868,0.6321598887443542,0.5247277021408081,42.32810974121094,100.0614318847656,-20.50032043457031
165970,-0.301727294921875,0.6705780029296875,0.26171875,0.1159479096531868,0.6321598887443542,0.5247277021408081,42.32810974121094,100.0614318847656,-20.50032043457031
165971,-0.04180908203125,0.5283660888671875,-0.102935791015625,-0.0507428050041198,0.1969703286886215,0.6986680626869202,43.28097534179688,99.94906616210938,-20.61956787109375
165972,-0.064361572265625,0.5876007080078125,-0.0364532470703125,0.0910356342792511,-0.1882055997848511,0.5803589820861816,43.78460693359375,99.98301696777344,-20.61752319335938
165973,-0.0845489501953125,0.618560791015625,0.085357666015625,0.1713339388370514,-0.3321148157119751,0.4119643867015839,44.17616271972656,99.9125518798828,-20.492919921875
165974,-0.0845489501953125,0.618560791015625,0.085357666015625,0.1713339388370514,-0.3321148157119751,0.4119643867015839,44.17616271972656,99.9125518798828,-20.492919921875
165975,-0.117584228515625,0.6202545166015625,0.2057342529296875,-0.0503265522420406,-0.3008538484573364,0.1858319193124771,44.54684448242188,99.89445495605467,-20.50083923339844
165976,-0.1150054931640625,0.5924530029296875,0.2061920166015625,-0.2179973125457764,-0.2331757247447968,0.1017183735966682,44.74711608886719,99.84170532226562,-20.55815124511719
165977,-0.08087158203125,0.5222625732421875,0.1832275390625,-0.3165150880813599,-0.2984122633934021,0.1445561200380325,44.7835693359375,100.0279998779297,-20.57295227050781
165978,-0.08087158203125,0.5222625732421875,0.1832275390625,-0.3165150880813599,-0.2984122633934021,0.1445561200380325,44.7835693359375,100.0279998779297,-20.57295227050781
165979,-0.3836669921875,0.705047607421875,0.181365966796875,-0.4299452602863312,0.0290281884372234,0.1775582730770111,45.04730224609375,100.0628204345703,-20.1632080078125
165980,-0.4777374267578125,0.7374725341796875,0.0652618408203125,-0.4505996704101562,0.0187252182513475,0.0700224936008453,45.14007568359375,100.0376129150391,-19.84559631347656
165981,-0.531585693359375,0.752899169921875,0.050567626953125,-0.4341301321983337,-0.0246371701359748,-0.0572779364883899,45.18145751953125,100.0499114990234,-19.56138610839844
165982,-0.531585693359375,0.752899169921875,0.050567626953125,-0.4341301321983337,-0.0246371701359748,-0.0572779364883899,45.18145751953125,100.0499114990234,-19.56138610839844
165983,-0.5673370361328125,0.731964111328125,0.0604400634765625,-0.3887749016284943,0.1520659625530243,-0.2983392775058746,45.06893920898438,100.2606048583984,-19.20252990722656
165984,-0.5596160888671875,0.7211151123046875,0.056610107421875,-0.404819667339325,0.2450627535581589,-0.3637646436691284,44.92276000976562,100.1767120361328,-18.974609375
165985,-0.554046630859375,0.709991455078125,0.0601043701171875,-0.4537730813026428,0.2943032681941986,-0.3944868445396423,44.68070983886719,100.2052154541016,-18.8167724609375
165986,-0.564666748046875,0.69366455078125,0.07525634765625,-0.5168934464454651,0.2955214083194733,-0.3887032866477966,44.52520751953125,100.1329803466797,-18.67018127441406
165987,-0.5827484130859375,0.6878509521484375,0.09747314453125,-0.5810689926147461,0.3081426620483398,-0.3855535387992859,44.29743957519531,100.1640777587891,-18.54356384277344
165988,-0.58685302734375,0.670318603515625,0.0984344482421875,-0.6083296537399292,0.3068877756595612,-0.41293004155159,44.08201599121094,100.1622314453125,-18.27784729003906
165989,-0.586151123046875,0.6346435546875,0.103118896484375,-0.6099637746810913,0.3022597134113312,-0.4353235065937042,43.92611694335938,100.1519775390625,-17.94517517089844
165990,-0.586151123046875,0.6346435546875,0.103118896484375,-0.6099637746810913,0.3022597134113312,-0.4353235065937042,43.92611694335938,100.1519775390625,-17.94517517089844
165991,-0.5767059326171875,0.6038665771484375,0.0776824951171875,-0.625687301158905,0.3610772490501404,-0.5096582174301147,43.46307373046875,100.0325775146484,-17.41764831542969
165992,-0.5584564208984375,0.5886383056640625,0.039520263671875,-0.6362342238426208,0.3924844264984131,-0.5453804731369019,43.186279296875,100.1016693115234,-17.05451965332031
165993,-0.5335845947265625,0.5836944580078125,-0.00048828125,-0.6472975611686707,0.4082918763160706,-0.5674511790275574,42.84817504882812,100.15625,-16.856201171875
165994,-0.5335845947265625,0.5836944580078125,-0.00048828125,-0.6472975611686707,0.4082918763160706,-0.5674511790275574,42.84817504882812,100.15625,-16.856201171875
165995,-0.481414794921875,0.5750579833984375,-0.11004638671875,-0.690981924533844,0.3983860015869141,-0.6255882382392883,42.13188171386719,100.0995788574219,-16.29396057128906
165996,-0.44891357421875,0.5734710693359375,-0.17938232421875,-0.7042862772941589,0.3034051656723022,-0.5985918045043945,41.72274780273438,100.0083923339844,-15.86589050292969
165997,-0.4319000244140625,0.622833251953125,-0.2484893798828125,-0.7268877029418945,0.1554561704397202,-0.5484012961387634,41.41798400878906,99.89678955078124,-15.58145141601562
165998,-0.4319000244140625,0.622833251953125,-0.2484893798828125,-0.7268877029418945,0.1554561704397202,-0.5484012961387634,41.41798400878906,99.89678955078124,-15.58145141601562
165999,-0.411285400390625,0.832305908203125,-0.3145294189453125,-0.7532913684844971,-0.0466681681573391,-0.4710375666618347,40.59619140625,99.73130798339844,-14.81719970703125
166000,-0.4195098876953125,0.9654388427734376,-0.341766357421875,-0.7662526965141296,-0.0535465814173221,-0.4625564515590668,40.27488708496094,99.6584014892578,-14.60728454589844
166001,-0.45428466796875,1.101974487304688,-0.3458099365234375,-0.7648904919624329,-0.020906614139676,-0.439001053571701,39.90016174316406,99.5150909423828,-14.21768188476562
166002,-0.45428466796875,1.101974487304688,-0.3458099365234375,-0.7648904919624329,-0.020906614139676,-0.439001053571701,39.90016174316406,99.5150909423828,-14.21768188476562
166003,-0.6517791748046875,1.324935913085938,-0.323150634765625,-0.5916438698768616,-0.0312540605664253,-0.4337109625339508,39.20613098144531,99.38468933105467,-13.56340026855469
166004,-0.731842041015625,1.335494995117188,-0.3272857666015625,-0.465118944644928,-0.1258727163076401,-0.3768056035041809,38.97300720214844,99.1929168701172,-13.10743713378906
166005,-0.7848052978515625,1.300094604492188,-0.3647308349609375,-0.2952913045883179,-0.1613121926784515,-0.3033417761325836,38.70016479492188,99.0167236328125,-12.74876403808594
166006,-0.7848052978515625,1.300094604492188,-0.3647308349609375,-0.2952913045883179,-0.1613121926784515,-0.3033417761325836,38.70016479492188,99.0167236328125,-12.74876403808594
166007,-0.687347412109375,1.138870239257812,-0.540283203125,0.1418372988700867,-0.0932125002145767,-0.1125808730721474,38.34982299804688,98.85317993164062,-12.19865417480469
166008,-0.615325927734375,1.115127563476562,-0.6253204345703125,0.348332405090332,-0.0422084406018257,-0.0231410060077905,38.30596923828125,98.67935180664062,-12.04637145996094
166009,-0.49273681640625,1.153457641601562,-0.67498779296875,0.6268495321273804,0.0965217426419258,0.0990679934620857,38.23652648925781,98.66018676757812,-12.19265747070312
166010,-0.49273681640625,1.153457641601562,-0.67498779296875,0.6268495321273804,0.0965217426419258,0.0990679934620857,38.23652648925781,98.66018676757812,-12.19265747070312
166011,-0.446868896484375,1.19085693359375,-0.652435302734375,0.6628988981246948,0.1926991492509842,0.1029242500662804,38.26557922363281,98.64527893066406,-12.35942077636719
166012,-0.4167327880859375,1.206573486328125,-0.638763427734375,0.6179305911064148,0.2227763533592224,0.077053502202034,38.32020568847656,98.72218322753906,-12.49833679199219
166013,-0.435333251953125,1.182540893554688,-0.6063232421875,0.5534541606903076,0.2077324241399765,0.0889578387141227,38.39463806152344,98.72666931152344,-12.740966796875
166014,-0.435333251953125,1.182540893554688,-0.6063232421875,0.5534541606903076,0.2077324241399765,0.0889578387141227,38.39463806152344,98.72666931152344,-12.740966796875
166015,-0.464111328125,1.160491943359375,-0.5390625,0.5197970867156982,0.2191150337457657,0.1505993604660034,38.44000244140625,98.77891540527344,-13.10403442382812
166016,-0.4547271728515625,1.16351318359375,-0.45819091796875,0.4577204287052155,0.2544804811477661,0.226002499461174,38.57418823242188,98.72657775878906,-13.35101318359375
166017,-0.43975830078125,1.172500610351562,-0.263580322265625,0.2701923251152039,0.2874618768692017,0.3387444913387299,38.86788940429688,98.87158203125,-13.91366577148438
166018,-0.43975830078125,1.172500610351562,-0.263580322265625,0.2701923251152039,0.2874618768692017,0.3387444913387299,38.86788940429688,98.87158203125,-13.91366577148438
166019,-0.47271728515625,1.194488525390625,-0.1734161376953125,0.1969058662652969,0.2809506952762604,0.3256199061870575,38.98348999023438,98.96078491210938,-14.16552734375
166020,-0.5830078125,1.268325805664062,-0.057769775390625,0.1495010703802109,0.221223458647728,0.1328539252281189,39.41595458984375,99.08074951171876,-14.38632202148438
166021,-0.65606689453125,1.279312133789062,-0.0124664306640625,0.1868154257535934,0.2293708771467209,-0.0080888187512755,39.5328369140625,99.1245574951172,-14.7314453125
166022,-0.65606689453125,1.279312133789062,-0.0124664306640625,0.1868154257535934,0.2293708771467209,-0.0080888187512755,39.5328369140625,99.1245574951172,-14.7314453125
166023,-0.7731781005859375,1.226974487304688,0.00433349609375,0.4760339260101318,0.4040955305099487,-0.2013600170612335,39.77066040039062,99.2741241455078,-14.94911193847656
166024,-0.7731781005859375,1.226974487304688,0.00433349609375,0.4760339260101318,0.4040955305099487,-0.2013600170612335,39.77066040039062,99.2741241455078,-14.94911193847656
166025,-0.7513275146484375,1.064682006835938,-0.1116790771484375,0.775193989276886,0.4585595726966858,-0.2700908780097961,39.79171752929688,99.42364501953124,-15.39666748046875
166026,-0.6999359130859375,0.9653472900390624,-0.169158935546875,0.82846999168396,0.1977530270814896,-0.2553007304668427,39.734375,99.51657104492188,-15.78619384765625
166027,-0.6999359130859375,0.9653472900390624,-0.169158935546875,0.82846999168396,0.1977530270814896,-0.2553007304668427,39.734375,99.51657104492188,-15.78619384765625
166028,-0.6125335693359375,0.8668670654296875,-0.1810302734375,0.8068413734436035,-0.1323606967926025,-0.2361283749341965,39.78961181640625,99.43826293945312,-16.17306518554688
166029,-0.4290313720703125,0.6956329345703125,-0.16387939453125,0.7741273641586304,-0.6336962580680847,-0.1918642371892929,39.63023376464844,99.67787170410156,-17.07748413085938
166030,-0.4290313720703125,0.6956329345703125,-0.16387939453125,0.7741273641586304,-0.6336962580680847,-0.1918642371892929,39.63023376464844,99.67787170410156,-17.07748413085938
166031,-0.4471435546875,0.5737762451171875,-0.0470733642578125,0.961390495300293,-0.4076029360294342,-0.0883687436580658,39.59622192382812,99.58790588378906,-17.66021728515625
166032,-0.5108489990234375,0.5425567626953125,0.0026702880859375,0.9764996767044068,-0.2542011141777039,-0.059717658907175,39.70204162597656,99.51861572265624,-17.96992492675781
166033,-0.5726165771484375,0.48834228515625,0.085205078125,0.9139625430107116,-0.0328674018383026,-0.0587195046246051,39.82945251464844,99.49703979492188,-18.20866394042969
166034,-0.5726165771484375,0.48834228515625,0.085205078125,0.9139625430107116,-0.0328674018383026,-0.0587195046246051,39.82945251464844,99.49703979492188,-18.20866394042969
166035,-0.6245880126953125,0.3787841796875,0.0677032470703125,0.7193877100944519,0.2227854132652283,-0.1493031978607178,39.92623901367188,99.56202697753906,-18.94461059570312
166036,-0.608245849609375,0.3107757568359375,0.050689697265625,0.6586862802505493,0.243615061044693,-0.178421676158905,39.9908447265625,99.53497314453124,-19.12617492675781
166037,-0.5794525146484375,0.2589263916015625,0.0948028564453125,0.565319299697876,0.3425283133983612,-0.1898897737264633,39.913330078125,99.58056640625,-19.64988708496094
166038,-0.5794525146484375,0.2589263916015625,0.0948028564453125,0.565319299697876,0.3425283133983612,-0.1898897737264633,39.913330078125,99.58056640625,-19.64988708496094
166039,-0.5165252685546875,0.2052001953125,0.1068267822265625,0.4487279951572418,0.5040245652198792,-0.1557573676109314,39.97038269042969,99.55705261230467,-20.15760803222656
166040,-0.44854736328125,0.2100067138671875,0.09405517578125,0.3125118315219879,0.6077304482460022,-0.1125494465231895,39.97563171386719,99.57530212402344,-20.6754150390625
166041,-0.3377227783203125,0.3474273681640625,0.0767974853515625,-0.1311447024345398,0.6168544292449951,-0.0402566082775592,39.87153625488281,99.41535949707033,-20.95782470703125
166042,-0.3377227783203125,0.3474273681640625,0.0767974853515625,-0.1311447024345398,0.6168544292449951,-0.0402566082775592,39.87153625488281,99.41535949707033,-20.95782470703125
166043,-0.340087890625,0.468841552734375,0.11761474609375,-0.3837308883666992,0.5221015214920044,-0.0096494313329458,39.80923461914062,99.53248596191406,-21.11116027832031
166044,-0.412567138671875,0.594268798828125,0.187408447265625,-0.5992639660835266,0.4775985181331635,-0.0084624607115983,39.84049987792969,99.5844268798828,-21.13775634765625
166045,-0.5270233154296875,0.7743072509765625,0.2400360107421875,-0.74844890832901,0.5132452249526978,-0.0490871183574199,39.72383117675781,99.61581420898438,-20.91651916503906
166046,-0.5270233154296875,0.7743072509765625,0.2400360107421875,-0.74844890832901,0.5132452249526978,-0.0490871183574199,39.72383117675781,99.61581420898438,-20.91651916503906
166047,-0.61199951171875,0.8966827392578125,0.23797607421875,-0.8659148216247559,0.6161817312240601,-0.1340659260749817,39.70086669921875,99.66229248046876,-20.41357421875
166048,-0.611724853515625,0.907989501953125,0.221160888671875,-0.9363085627555848,0.5361241698265076,-0.1706407070159912,39.63848876953125,99.75103759765624,-20.00651550292969
166049,-0.5903167724609375,0.9054412841796876,0.216278076171875,-0.9885283708572388,0.3782535493373871,-0.2117633819580078,39.52186584472656,99.7823486328125,-19.64947509765625
166050,-0.5903167724609375,0.9054412841796876,0.216278076171875,-0.9885283708572388,0.3782535493373871,-0.2117633819580078,39.52186584472656,99.7823486328125,-19.64947509765625
166051,-0.553802490234375,0.8648223876953125,0.24151611328125,-0.9987130761146544,-0.0043052663095295,-0.3264026045799255,39.24105834960938,99.76359558105467,-19.09744262695312
166052,-0.5579376220703125,0.8415374755859375,0.240203857421875,-0.9685842394828796,-0.1596884578466415,-0.3870238959789276,39.13693237304688,99.69035339355467,-18.64729309082031
166053,-0.57403564453125,0.825439453125,0.21954345703125,-0.9170363545417786,-0.2669150531291962,-0.453829824924469,38.94441223144531,99.64509582519533,-18.08465576171875
166054,-0.57403564453125,0.825439453125,0.21954345703125,-0.9170363545417786,-0.2669150531291962,-0.453829824924469,38.94441223144531,99.64509582519533,-18.08465576171875
166055,-0.5724945068359375,0.7808380126953125,0.121185302734375,-0.8138673305511475,-0.4426051080226898,-0.5543438792228699,38.44244384765625,99.62600708007812,-17.14491271972656
166056,-0.564910888671875,0.7613983154296875,0.0465545654296875,-0.7724639773368835,-0.4095827341079712,-0.57801353931427,38.12275695800781,99.48893737792967,-16.60415649414062
166057,-0.554718017578125,0.71502685546875,-0.043243408203125,-0.707415759563446,-0.2819893360137939,-0.5920665264129639,37.781494140625,99.45890808105467,-16.23448181152344
166058,-0.5443115234375,0.6800537109375,-0.1265869140625,-0.629346489906311,-0.130139634013176,-0.6220070719718933,37.377685546875,99.2923583984375,-15.81764221191406
166059,-0.5363311767578125,0.6919097900390625,-0.216552734375,-0.5548078417778015,-0.003590473672375,-0.6516920328140259,36.97564697265625,99.10382080078124,-15.35661315917969
166060,-0.5399627685546875,0.7292327880859375,-0.33251953125,-0.4602099359035492,0.0717538148164749,-0.6783963441848755,36.59033203125,98.97384643554688,-15.02392578125
166061,-0.5544281005859375,0.80059814453125,-0.4535064697265625,-0.3582724034786224,0.0565069504082202,-0.6678662300109863,36.20199584960938,98.88743591308594,-14.69073486328125
166062,-0.5544281005859375,0.80059814453125,-0.4535064697265625,-0.3582724034786224,0.0565069504082202,-0.6678662300109863,36.20199584960938,98.88743591308594,-14.69073486328125
166063,-0.6020355224609375,0.98846435546875,-0.5206298828125,-0.3941246569156647,-0.1898056268692017,-0.5571460723876953,35.43278503417969,98.59733581542967,-14.17066955566406
166064,-0.6281890869140625,1.066055297851562,-0.451141357421875,-0.4370614886283875,-0.2419159561395645,-0.4711850881576538,35.01670837402344,98.56529235839844,-13.97795104980469
166065,-0.6813201904296875,1.096221923828125,-0.4008331298828125,-0.4167221188545227,-0.1644568592309952,-0.3571722507476807,34.75091552734375,98.41468811035156,-13.7337646484375
166066,-0.6813201904296875,1.096221923828125,-0.4008331298828125,-0.4167221188545227,-0.1644568592309952,-0.3571722507476807,34.75091552734375,98.41468811035156,-13.7337646484375
166067,-0.7726593017578125,1.046783447265625,-0.510101318359375,-0.1785649508237839,0.1335708498954773,-0.029551500454545,34.25703430175781,98.1053466796875,-13.01490783691406
166068,-0.7866058349609375,1.031936645507812,-0.6109161376953125,-0.0506109781563282,0.2776276171207428,0.1439984440803528,34.09547424316406,97.96784973144533,-12.69964599609375
166069,-0.7606048583984375,1.018173217773438,-0.7033538818359375,0.056629192084074,0.4099233448505402,0.3086422681808472,33.97926330566406,97.8414306640625,-12.60359191894531
166070,-0.7606048583984375,1.018173217773438,-0.7033538818359375,0.056629192084074,0.4099233448505402,0.3086422681808472,33.97926330566406,97.8414306640625,-12.60359191894531
166071,-0.642486572265625,1.052642822265625,-0.7559967041015625,0.1919100433588028,0.6264785528182983,0.5355925559997559,33.9986572265625,97.87103271484376,-12.60243225097656
166072,-0.603179931640625,1.08331298828125,-0.7071990966796875,0.214795395731926,0.7748773097991943,0.5865806937217712,34.11459350585938,97.8311004638672,-12.59963989257812
166073,-0.57952880859375,1.098419189453125,-0.65142822265625,0.1977958977222443,0.9221482872962952,0.6160150170326233,34.29238891601562,97.91716003417967,-12.60426330566406
166074,-0.57952880859375,1.098419189453125,-0.65142822265625,0.1977958977222443,0.9221482872962952,0.6160150170326233,34.29238891601562,97.91716003417967,-12.60426330566406
166075,-0.5894927978515625,1.126693725585938,-0.5609893798828125,0.0862054601311683,1.211258888244629,0.5693771839141846,34.7781982421875,98.23008728027344,-13.11642456054688
166076,-0.597412109375,1.095932006835938,-0.5284423828125,0.0417232103645801,1.255342721939087,0.5032077431678772,35.06698608398438,98.3510284423828,-13.40132141113281
166077,-0.6265716552734375,1.061538696289062,-0.4693450927734375,0.0039609195664525,1.249167203903198,0.4318296909332275,35.27252197265625,98.4412841796875,-13.657958984375
166078,-0.6265716552734375,1.061538696289062,-0.4693450927734375,0.0039609195664525,1.249167203903198,0.4318296909332275,35.27252197265625,98.4412841796875,-13.657958984375
166079,-0.7067413330078125,1.028610229492188,-0.359039306640625,-0.2553201913833618,0.8145190477371216,0.2843081653118134,35.64129638671875,98.8380126953125,-14.11439514160156
166080,-0.7369842529296875,1.011215209960938,-0.27459716796875,-0.3620636761188507,0.5744845867156982,0.2188633680343628,35.83641052246094,98.98762512207033,-14.20706176757812
166081,-0.7374725341796875,0.9879150390625,-0.1635284423828125,-0.3556641042232513,0.5015208721160889,0.2091878354549408,36.00621032714844,99.0953369140625,-14.36231994628906
166082,-0.7374725341796875,0.9879150390625,-0.1635284423828125,-0.3556641042232513,0.5015208721160889,0.2091878354549408,36.00621032714844,99.0953369140625,-14.36231994628906
166083,-0.652862548828125,0.931610107421875,-0.0329132080078125,-0.080026127398014,0.6637439131736755,0.3661732077598572,36.2515869140625,99.27151489257812,-14.44656372070312
166084,-0.61260986328125,0.8978729248046875,0.022247314453125,0.0884505063295364,0.6131049394607544,0.4846676290035248,36.32797241210938,99.31330871582033,-14.30018615722656
166085,-0.561492919921875,0.8599700927734375,0.074371337890625,0.23237144947052,0.5262036323547363,0.5701236724853516,36.58509826660156,99.28909301757812,-14.43063354492188
166086,-0.561492919921875,0.8599700927734375,0.074371337890625,0.23237144947052,0.5262036323547363,0.5701236724853516,36.58509826660156,99.28909301757812,-14.43063354492188
166087,-0.4335479736328125,0.7425994873046875,0.1004638671875,0.424357146024704,0.2089153975248337,0.5918998122215271,37.1298828125,99.27902221679688,-14.55108642578125
166088,-0.3886566162109375,0.673828125,0.131805419921875,0.4594738483428955,0.1616048812866211,0.5143511891365051,37.51193237304688,99.2880401611328,-14.74822998046875
166089,-0.345794677734375,0.610809326171875,0.1422576904296875,0.4443534910678864,0.1823602169752121,0.407803475856781,37.84965515136719,99.30574035644533,-14.98394775390625
166090,-0.345794677734375,0.610809326171875,0.1422576904296875,0.4443534910678864,0.1823602169752121,0.407803475856781,37.84965515136719,99.30574035644533,-14.98394775390625
166091,-0.23760986328125,0.4698944091796875,0.0915069580078125,0.2600249350070953,0.1410292983055115,0.2535981833934784,38.4971923828125,99.32977294921876,-15.1785888671875
166092,-0.1866607666015625,0.432830810546875,0.113616943359375,0.123330719769001,0.1065623983740807,0.2379971146583557,38.79168701171875,99.25990295410156,-15.26263427734375
166093,-0.1177215576171875,0.4404754638671875,0.0897369384765625,-0.0193396098911762,0.0365241877734661,0.2535483837127686,39.10307312011719,99.25315856933594,-15.48696899414062
166094,-0.1177215576171875,0.4404754638671875,0.0897369384765625,-0.0193396098911762,0.0365241877734661,0.2535483837127686,39.10307312011719,99.25315856933594,-15.48696899414062
166095,-0.10870361328125,0.621246337890625,0.0471038818359375,-0.2661933302879333,-0.1834742277860641,0.3595781326293945,39.53971862792969,99.24740600585938,-15.84783935546875
166096,-0.2045745849609375,0.729736328125,0.044921875,-0.2827542126178741,-0.0887663513422012,0.330025315284729,39.76350402832031,99.23654174804688,-15.70147705078125
166097,-0.3010711669921875,0.7799530029296875,0.0373077392578125,-0.2316342890262604,0.0951515510678291,0.2401803731918335,39.88876342773438,99.06935119628906,-15.57283020019531
166098,-0.3010711669921875,0.7799530029296875,0.0373077392578125,-0.2316342890262604,0.0951515510678291,0.2401803731918335,39.88876342773438,99.06935119628906,-15.57283020019531
166099,-0.4676361083984375,0.7476654052734375,0.0433807373046875,-0.262525349855423,0.2968596220016479,0.0160000044852495,40.18952941894531,99.21270751953124,-15.31179809570312
166100,-0.5037689208984375,0.72125244140625,0.031341552734375,-0.2842828631401062,0.2620369493961334,-0.0917597487568855,40.33119201660156,99.23597717285156,-15.14303588867188
166101,-0.520538330078125,0.7021331787109375,0.0086822509765625,-0.2752680480480194,0.1923947483301163,-0.1879342198371887,40.27923583984375,99.30807495117188,-14.73957824707031
166102,-0.520538330078125,0.7021331787109375,0.0086822509765625,-0.2752680480480194,0.1923947483301163,-0.1879342198371887,40.27923583984375,99.30807495117188,-14.73957824707031
166103,-0.538177490234375,0.702301025390625,-0.0025482177734375,-0.2754675149917603,0.1133023202419281,-0.3183723986148834,40.11906433105469,99.19993591308594,-14.66517639160156
166104,-0.5435333251953125,0.7028656005859375,0.01934814453125,-0.3363966643810272,0.1502526253461838,-0.3399743437767029,39.94134521484375,99.12905883789062,-14.5775146484375
166105,-0.55413818359375,0.702392578125,0.032958984375,-0.4240309000015259,0.2039320915937424,-0.340262234210968,39.73037719726562,99.27740478515624,-14.51414489746094
166106,-0.5679779052734375,0.7023162841796875,0.047607421875,-0.4961370527744293,0.2450046986341476,-0.3342099487781525,39.53053283691406,99.24411010742188,-14.24504089355469
166107,-0.58282470703125,0.69549560546875,0.0618896484375,-0.5458798408508301,0.2770228087902069,-0.3333097994327545,39.318359375,99.28359985351562,-14.02947998046875
166108,-0.5979766845703125,0.6927032470703125,0.0609893798828125,-0.5780460238456726,0.3114505708217621,-0.3412872850894928,39.1971435546875,99.31214904785156,-13.85914611816406
166109,-0.61077880859375,0.691802978515625,0.0537567138671875,-0.6017026305198669,0.3567823469638824,-0.3601478040218353,38.97174072265625,99.26318359375,-13.62062072753906
166110,-0.617706298828125,0.6846923828125,0.0439605712890625,-0.6317659616470337,0.4061067700386047,-0.3883972764015198,38.75657653808594,99.24307250976562,-13.44657897949219
166111,-0.610504150390625,0.6662139892578125,0.0474090576171875,-0.677237331867218,0.4443587958812714,-0.4103398621082306,38.51756286621094,99.19908142089844,-13.20852661132812
166112,-0.596923828125,0.6469573974609375,0.0487213134765625,-0.7386716604232788,0.4516164660453796,-0.4423513114452362,38.22819519042969,99.14314270019533,-12.86396789550781
166113,-0.56842041015625,0.6172637939453125,0.0262908935546875,-0.7955165505409241,0.4014531672000885,-0.4582962095737457,37.90512084960938,99.00131225585938,-12.46987915039062
166114,-0.56842041015625,0.6172637939453125,0.0262908935546875,-0.7955165505409241,0.4014531672000885,-0.4582962095737457,37.90512084960938,99.00131225585938,-12.46987915039062
166115,-0.5151214599609375,0.6336669921875,-0.1008758544921875,-0.894885241985321,0.1060057953000069,-0.4460043907165527,37.3734130859375,98.74552917480467,-11.94952392578125
166116,-0.4716644287109375,0.6499176025390625,-0.167144775390625,-0.9357423782348632,-0.084172137081623,-0.4320012032985687,37.14915466308594,98.68879699707033,-11.69309997558594
166117,-0.432525634765625,0.68194580078125,-0.197967529296875,-0.9556151628494264,-0.2366072088479996,-0.4275082051753998,36.88320922851562,98.62579345703124,-11.39370727539062
166118,-0.432525634765625,0.68194580078125,-0.197967529296875,-0.9556151628494264,-0.2366072088479996,-0.4275082051753998,36.88320922851562,98.62579345703124,-11.39370727539062
166119,-0.3578643798828125,0.764923095703125,-0.1663360595703125,-0.9483377933502196,-0.3456617891788483,-0.397987574338913,36.31523132324219,98.17355346679688,-10.16087341308594
166120,-0.399688720703125,0.8776702880859375,-0.15228271484375,-0.9347993731498718,-0.2449599504470825,-0.4055581390857697,36.07257080078125,98.16609191894533,-9.665756225585938
166121,-0.4738922119140625,0.976287841796875,-0.187347412109375,-0.8845545649528503,-0.1704273968935013,-0.408258318901062,35.73353576660156,98.03947448730467,-9.227142333984377
166122,-0.4738922119140625,0.976287841796875,-0.187347412109375,-0.8845545649528503,-0.1704273968935013,-0.408258318901062,35.73353576660156,98.03947448730467,-9.227142333984377
166123,-0.6579132080078125,1.179061889648438,-0.24871826171875,-0.6320842504501343,-0.2056490331888199,-0.397235244512558,35.16529846191406,97.62413024902344,-8.287521362304688
166124,-0.7165374755859375,1.222946166992188,-0.277374267578125,-0.4654619693756104,-0.2082245796918869,-0.3544374406337738,34.95700073242188,97.53607177734376,-7.930648803710938
166125,-0.7456512451171875,1.209259033203125,-0.3295745849609375,-0.3191524147987366,-0.21017986536026,-0.2816764116287231,34.68635559082031,97.31947326660156,-7.56207275390625
166126,-0.7185211181640625,1.160598754882812,-0.415374755859375,-0.1512310653924942,-0.2276057302951813,-0.1995320171117783,34.45956420898438,97.27696228027344,-7.224105834960938
166127,-0.642730712890625,1.097076416015625,-0.5090484619140625,0.0341763459146022,-0.2391521334648132,-0.102608397603035,34.27920532226562,97.10679626464844,-7.140884399414062
166128,-0.5708160400390625,1.058059692382812,-0.6000213623046875,0.2127807140350342,-0.2160510718822479,0.0105767445638775,34.15771484375,97.150146484375,-6.943954467773438
166129,-0.4730377197265625,1.058609008789062,-0.6226959228515625,0.4853485822677612,-0.0543186329305172,0.1676878035068512,34.29925537109375,96.95660400390624,-6.95166015625
166130,-0.4730377197265625,1.058609008789062,-0.6226959228515625,0.4853485822677612,-0.0543186329305172,0.1676878035068512,34.29925537109375,96.95660400390624,-6.95166015625
166131,-0.4528656005859375,1.082550048828125,-0.580596923828125,0.5107759237289429,0.0613549686968326,0.1629433780908585,34.31509399414062,97.01130676269533,-6.954483032226562
166132,-0.4781494140625,1.10052490234375,-0.5163116455078125,0.4720106720924377,0.1484400779008865,0.1669194847345352,34.33267211914062,97.13058471679688,-7.128585815429688
166133,-0.5155487060546875,1.118087768554688,-0.4753265380859375,0.4075842797756195,0.188287079334259,0.1959814876317978,34.41880798339844,97.15657043457033,-7.337432861328125
166134,-0.5155487060546875,1.118087768554688,-0.4753265380859375,0.4075842797756195,0.188287079334259,0.1959814876317978,34.41880798339844,97.15657043457033,-7.337432861328125
166135,-0.57672119140625,1.161026000976562,-0.355621337890625,0.236424520611763,0.2138550281524658,0.2857430577278137,34.75926208496094,97.2347412109375,-7.696075439453125
166136,-0.5868988037109375,1.176513671875,-0.2442474365234375,0.1389251351356506,0.2571252584457397,0.3068044185638428,34.81130981445312,97.31182861328124,-7.788238525390625
166137,-0.6076812744140625,1.1981201171875,-0.1195068359375,0.0643869787454605,0.3048645555973053,0.2920574247837067,34.92301940917969,97.39276123046876,-8.08013916015625
166138,-0.6076812744140625,1.1981201171875,-0.1195068359375,0.0643869787454605,0.3048645555973053,0.2920574247837067,34.92301940917969,97.39276123046876,-8.08013916015625
166139,-0.6984710693359375,1.242691040039062,0.043212890625,0.0825827568769455,0.3708188235759735,0.1672323942184448,35.30824279785156,97.61544799804688,-8.819061279296875
166140,-0.6984710693359375,1.242691040039062,0.043212890625,0.0825827568769455,0.3708188235759735,0.1672323942184448,35.30824279785156,97.61544799804688,-8.819061279296875
166141,-0.7371673583984375,1.268173217773438,0.0601043701171875,0.1818888336420059,0.3566084504127502,0.0913115367293357,35.47560119628906,97.70286560058594,-8.779067993164062
166142,-0.7926177978515625,1.295852661132812,0.0384674072265625,0.4983743727207184,0.3276918530464172,0.0151501903310418,35.61021423339844,98.05441284179688,-9.002059936523438
166143,-0.7748870849609375,1.244094848632812,-0.0101165771484375,0.6390635967254639,0.3848331570625305,-0.0295898504555225,35.63670349121094,98.0817413330078,-9.201858520507812
166144,-0.7377471923828125,1.125640869140625,-0.0716705322265625,0.7494215369224548,0.4361709356307983,-0.0587117820978164,35.69384765625,98.19882202148438,-9.445083618164062
166145,-0.6824188232421875,0.9948272705078124,-0.1167144775390625,0.8092283606529236,0.4581169784069061,-0.0692672207951545,35.66897583007812,98.27409362792967,-9.809768676757812
166146,-0.61651611328125,0.877227783203125,-0.167388916015625,0.8127424120903015,0.419575423002243,-0.0874731242656707,35.651611328125,98.39158630371094,-10.11875915527344
166147,-0.577911376953125,0.7735595703125,-0.20672607421875,0.795663058757782,0.2303066998720169,-0.0979284271597862,35.742919921875,98.44915771484376,-10.52415466308594
166148,-0.5495758056640625,0.7183074951171875,-0.2167205810546875,0.7872881889343262,-0.0263562407344579,-0.0825582593679428,35.77281188964844,98.43016052246094,-10.90878295898438
166149,-0.5157318115234375,0.6857452392578125,-0.22052001953125,0.7819634675979614,-0.2559159398078918,-0.0815955251455307,35.76556396484375,98.61631774902344,-11.43519592285156
166150,-0.5157318115234375,0.6857452392578125,-0.22052001953125,0.7819634675979614,-0.2559159398078918,-0.0815955251455307,35.76556396484375,98.61631774902344,-11.43519592285156
166151,-0.43194580078125,0.6306304931640625,-0.16253662109375,0.8802133202552795,-0.399105042219162,-0.0830264464020729,35.899658203125,98.5927734375,-11.93156433105469
166152,-0.4120330810546875,0.5819549560546875,-0.1027984619140625,0.9677098989486694,-0.2341930568218231,-0.0716456919908523,36.02052307128906,98.63491821289062,-12.06781005859375
166153,-0.4008331298828125,0.528228759765625,-0.0735626220703125,1.038419723510742,-0.0322301089763641,-0.0495081655681133,36.0521240234375,98.79225158691406,-12.56776428222656
166154,-0.410675048828125,0.4678497314453125,-0.058135986328125,1.067071676254272,0.1169109046459198,-0.0173568855971097,36.25016784667969,98.74227905273438,-13.05879211425781
166155,-0.4272308349609375,0.406524658203125,-0.0444488525390625,1.038764953613281,0.2111631035804749,0.0188266839832067,36.37098693847656,98.81437683105467,-13.43133544921875
166156,-0.432647705078125,0.36212158203125,-0.041748046875,0.9684982299804688,0.2656857371330261,0.0522363074123859,36.47044372558594,98.8485870361328,-13.98442077636719
166157,-0.42413330078125,0.3297119140625,-0.03448486328125,0.8837833404541016,0.2908723056316376,0.0759661346673965,36.59359741210938,98.79850769042967,-14.42597961425781
166158,-0.42413330078125,0.3297119140625,-0.03448486328125,0.8837833404541016,0.2908723056316376,0.0759661346673965,36.59359741210938,98.79850769042967,-14.42597961425781
166159,-0.3371734619140625,0.3047637939453125,0.0265045166015625,0.6697636842727661,0.2896512448787689,0.1321199536323547,36.76052856445312,98.71603393554688,-15.44877624511719
166160,-0.2758636474609375,0.3261871337890625,0.0850067138671875,0.4811096489429474,0.2909308969974518,0.1526486575603485,36.955810546875,98.76203918457033,-15.76313781738281
166161,-0.2758636474609375,0.3261871337890625,0.0850067138671875,0.4811096489429474,0.2909308969974518,0.1526486575603485,36.955810546875,98.76203918457033,-15.76313781738281
166162,-0.2096099853515625,0.369720458984375,0.1184539794921875,0.2486351132392883,0.2571356594562531,0.2070093750953674,37.000244140625,98.81488037109376,-16.08827209472656
166163,-0.2630767822265625,0.5728607177734375,0.1978759765625,-0.3332173824310303,0.1569896191358566,0.2478683888912201,37.08721923828125,98.770263671875,-16.44863891601562
166164,-0.3951416015625,0.6765899658203125,0.213531494140625,-0.6251658797264099,0.1253299564123154,0.1884015947580338,37.27391052246094,98.74899291992188,-16.548583984375
166165,-0.5242767333984375,0.75390625,0.181640625,-0.7362034320831299,0.1095640435814857,0.1433097571134567,37.32778930664062,98.95339965820312,-16.44776916503906
166166,-0.5242767333984375,0.75390625,0.181640625,-0.7362034320831299,0.1095640435814857,0.1433097571134567,37.32778930664062,98.95339965820312,-16.44776916503906
166167,-0.5585174560546875,0.9317169189453124,0.27935791015625,-0.7240756750106812,0.1775878369808197,0.0374051630496978,37.40272521972656,99.0148468017578,-15.93826293945312
166168,-0.5319366455078125,0.9438323974609376,0.363983154296875,-0.8503580093383789,0.2532458305358887,-0.049321211874485,37.31564331054688,99.05906677246094,-15.70210266113281
166169,-0.540435791015625,0.92431640625,0.4041595458984375,-0.985749363899231,0.2068109661340714,-0.1245379373431206,37.32591247558594,99.01593017578124,-15.35072326660156
166170,-0.540435791015625,0.92431640625,0.4041595458984375,-0.985749363899231,0.2068109661340714,-0.1245379373431206,37.32591247558594,99.01593017578124,-15.35072326660156
166171,-0.6004180908203125,0.877685546875,0.467742919921875,-1.157520532608032,-0.0728797987103462,-0.2302382588386536,37.25370788574219,98.88679504394533,-14.81582641601562
166172,-0.6574859619140625,0.8892822265625,0.444366455078125,-1.170606851577759,-0.2554661333560944,-0.3236750066280365,37.17814636230469,98.86390686035156,-14.33158874511719
166173,-0.73028564453125,0.8910675048828125,0.402587890625,-1.176095366477966,-0.4433718323707581,-0.458987295627594,36.98091125488281,98.82960510253906,-13.85720825195312
166174,-0.73028564453125,0.8910675048828125,0.402587890625,-1.176095366477966,-0.4433718323707581,-0.458987295627594,36.98091125488281,98.82960510253906,-13.85720825195312
166175,-0.815521240234375,0.8349761962890625,0.1846923828125,-1.069085240364075,-0.6883986592292786,-0.7124019861221313,36.58619689941406,98.61996459960938,-12.66777038574219
166176,-0.81488037109375,0.7924346923828125,0.0467071533203125,-0.9621462821960448,-0.8120614886283875,-0.7859302759170532,36.21075439453125,98.53822326660156,-12.17677307128906
166177,-0.7640533447265625,0.7786102294921875,-0.0095977783203125,-0.8640615344047546,-0.7881827354431152,-0.8025547862052917,35.83674621582031,98.31980895996094,-11.58981323242188
166178,-0.7640533447265625,0.7786102294921875,-0.0095977783203125,-0.8640615344047546,-0.7881827354431152,-0.8025547862052917,35.83674621582031,98.31980895996094,-11.58981323242188
166179,-0.6416473388671875,0.86566162109375,-0.1724853515625,-0.8112190961837769,0.0005936186062172,-0.7036566734313965,35.01242065429688,97.97720336914062,-10.4786376953125
166180,-0.586883544921875,0.9006195068359375,-0.3226165771484375,-0.7481868863105774,0.22011798620224,-0.7136059999465942,34.51333618164062,97.76983642578124,-9.940933227539062
166181,-0.5713043212890625,0.975982666015625,-0.423187255859375,-0.7142536640167236,0.2121207863092422,-0.6933174729347229,34.16600036621094,97.53825378417967,-9.448211669921877
166182,-0.5713043212890625,0.975982666015625,-0.423187255859375,-0.7142536640167236,0.2121207863092422,-0.6933174729347229,34.16600036621094,97.53825378417967,-9.448211669921877
166183,-0.7225341796875,1.116104125976562,-0.5038604736328125,-0.6590175628662109,0.1295702457427979,-0.5400368571281433,33.39627075195312,96.99501037597656,-8.588897705078125
166184,-0.792816162109375,1.114013671875,-0.505279541015625,-0.5730352997779846,0.2181259393692017,-0.3871900737285614,33.02951049804688,96.82164001464844,-8.2547607421875
166185,-0.798828125,1.075027465820312,-0.5219879150390625,-0.4466925263404846,0.2908808290958405,-0.2108073085546494,32.66482543945312,96.73439025878906,-7.93670654296875
166186,-0.798828125,1.075027465820312,-0.5219879150390625,-0.4466925263404846,0.2908808290958405,-0.2108073085546494,32.66482543945312,96.73439025878906,-7.93670654296875
166187,-0.6732635498046875,1.001739501953125,-0.581329345703125,-0.1264583319425583,0.4421134889125824,0.1299747824668884,32.340087890625,96.44163513183594,-7.5450439453125
166188,-0.563934326171875,0.999664306640625,-0.6447601318359375,0.0299637578427791,0.542675793170929,0.3151182532310486,32.20838928222656,96.310302734375,-7.386688232421875
166189,-0.487518310546875,1.03826904296875,-0.69525146484375,0.1558132916688919,0.6560023427009583,0.4624107778072357,32.21104431152344,96.31340026855467,-7.358245849609375
166190,-0.487518310546875,1.03826904296875,-0.69525146484375,0.1558132916688919,0.6560023427009583,0.4624107778072357,32.21104431152344,96.31340026855467,-7.358245849609375
166191,-0.4409637451171875,1.145065307617188,-0.6569366455078125,0.2477200478315353,0.7929255962371826,0.5743096470832825,32.3668212890625,96.37289428710938,-7.32427978515625
166192,-0.4409637451171875,1.145065307617188,-0.6569366455078125,0.2477200478315353,0.7929255962371826,0.5743096470832825,32.3668212890625,96.37289428710938,-7.32427978515625
166193,-0.5120391845703125,1.210678100585938,-0.540740966796875,0.3069471418857574,0.7978220582008362,0.5301001071929932,32.59379577636719,96.53985595703124,-7.74822998046875
166194,-0.5419158935546875,1.211761474609375,-0.4918060302734375,0.348261296749115,0.7741321921348572,0.4934880137443542,32.64114379882812,96.66456604003906,-7.979354858398438
166195,-0.5419158935546875,1.211761474609375,-0.4918060302734375,0.348261296749115,0.7741321921348572,0.4934880137443542,32.64114379882812,96.66456604003906,-7.979354858398438
166196,-0.5604248046875,1.172714233398438,-0.454376220703125,0.3838645815849304,0.8161366581916809,0.4601739943027496,32.83544921875,96.85539245605467,-8.291641235351562
166197,-0.6159515380859375,1.082962036132812,-0.3791046142578125,0.3833047747612,0.7532625794410706,0.4099499583244324,33.08753967285156,97.27699279785156,-9.06500244140625
166198,-0.6159515380859375,1.082962036132812,-0.3791046142578125,0.3833047747612,0.7532625794410706,0.4099499583244324,33.08753967285156,97.27699279785156,-9.06500244140625
166199,-0.6473541259765625,0.9435882568359376,-0.193603515625,0.2137623578310013,0.3989452421665192,0.4464267492294312,33.54017639160156,97.47952270507812,-9.704910278320312
166200,-0.63629150390625,0.869781494140625,-0.0951385498046875,0.1982297301292419,0.2638095319271088,0.4891550540924072,33.70573425292969,97.6972198486328,-9.8658447265625
166201,-0.59503173828125,0.8067626953125,-0.03875732421875,0.2390314936637878,0.1601579785346985,0.5568392872810364,33.95759582519531,97.79344177246094,-10.19125366210938
166202,-0.59503173828125,0.8067626953125,-0.03875732421875,0.2390314936637878,0.1601579785346985,0.5568392872810364,33.95759582519531,97.79344177246094,-10.19125366210938
166203,-0.551605224609375,0.7852935791015625,-0.00262451171875,0.3161923289299011,0.0093705989420413,0.6140437126159668,34.23405456542969,97.8762664794922,-10.33604431152344
166204,-0.4925384521484375,0.7944488525390625,0.0806884765625,0.4596922397613525,-0.2347027808427811,0.6438647508621216,34.90364074707031,98.1651611328125,-10.6024169921875
166205,-0.4771575927734375,0.800048828125,0.125213623046875,0.5215708017349243,-0.2312489300966263,0.6018176674842834,35.33894348144531,98.23826599121094,-10.80455017089844
166206,-0.4357757568359375,0.783111572265625,0.1608428955078125,0.5993624925613403,-0.159727618098259,0.5234538912773132,35.74885559082031,98.2932586669922,-10.87803649902344
166207,-0.3681793212890625,0.7600555419921875,0.1969451904296875,0.661254346370697,-0.0733602344989776,0.4369664192199707,36.12176513671875,98.3227081298828,-11.16358947753906
166208,-0.2649383544921875,0.7013092041015625,0.1905670166015625,0.6798285841941833,-0.0748769044876098,0.3671516478061676,36.59767150878906,98.29483032226562,-11.27650451660156
166209,-0.1570892333984375,0.6006622314453125,0.1631317138671875,0.6091501712799072,-0.1410724371671677,0.3566494584083557,36.92111206054688,98.39059448242188,-11.58958435058594
166210,-0.1570892333984375,0.6006622314453125,0.1631317138671875,0.6091501712799072,-0.1410724371671677,0.3566494584083557,36.92111206054688,98.39059448242188,-11.58958435058594
166211,-0.0625152587890625,0.4366912841796875,0.0691986083984375,0.3247717022895813,-0.2253772020339966,0.485774427652359,37.59982299804688,98.35292053222656,-12.19406127929688
166212,-0.0625152587890625,0.4366912841796875,0.0691986083984375,0.3247717022895813,-0.2253772020339966,0.485774427652359,37.59982299804688,98.35292053222656,-12.19406127929688
166213,-0.3194122314453125,0.61865234375,-0.009490966796875,0.1838894039392471,-0.0289634745568037,0.4104325473308563,38.44132995605469,98.39271545410156,-12.58628845214844
166214,-0.3194122314453125,0.61865234375,-0.009490966796875,0.1838894039392471,-0.0289634745568037,0.4104325473308563,38.44132995605469,98.39271545410156,-12.58628845214844
166215,-0.3679656982421875,0.6430206298828125,0.0058135986328125,0.0381340682506561,-0.0337076298892498,0.3500967621803284,38.65986633300781,98.45704650878906,-12.70147705078125
166216,-0.3679656982421875,0.6430206298828125,0.0058135986328125,0.0381340682506561,-0.0337076298892498,0.3500967621803284,38.65986633300781,98.45704650878906,-12.70147705078125
166217,-0.409912109375,0.65704345703125,0.0594329833984375,-0.1153417751193047,-0.0126034095883369,0.2786944806575775,38.90821838378906,98.68118286132812,-12.88536071777344
166218,-0.46075439453125,0.662689208984375,0.0758209228515625,-0.2420539110898972,0.057442519813776,0.1848286986351013,39.00523376464844,98.6949462890625,-12.81755065917969
166219,-0.52947998046875,0.6911468505859375,0.0361480712890625,-0.3975665271282196,0.1514047086238861,0.0038453382439911,39.24424743652344,98.71963500976562,-12.67936706542969
166220,-0.535552978515625,0.7106475830078125,0.03857421875,-0.47239950299263,0.1649170517921448,-0.0695567056536674,39.35226440429688,98.68557739257812,-12.41268920898438
166221,-0.5296630859375,0.730499267578125,0.0472412109375,-0.5344271659851074,0.1644829511642456,-0.1165902614593506,39.42869567871094,98.6027374267578,-12.40580749511719
166222,-0.5296630859375,0.730499267578125,0.0472412109375,-0.5344271659851074,0.1644829511642456,-0.1165902614593506,39.42869567871094,98.6027374267578,-12.40580749511719
166223,-0.51861572265625,0.754058837890625,0.0774993896484375,-0.534609317779541,0.1544119417667389,-0.1631242036819458,39.26023864746094,98.49275207519533,-12.08393859863281
166224,-0.5337371826171875,0.749847412109375,0.0929107666015625,-0.5131471753120422,0.1914770156145096,-0.1774930208921432,39.17610168457031,98.53358459472656,-11.94221496582031
166225,-0.5597381591796875,0.7415618896484375,0.105682373046875,-0.5000457763671875,0.2446145415306091,-0.2135927081108093,39.08720397949219,98.52001953125,-11.68443298339844
166226,-0.5597381591796875,0.7415618896484375,0.105682373046875,-0.5000457763671875,0.2446145415306091,-0.2135927081108093,39.08720397949219,98.52001953125,-11.68443298339844
166227,-0.585296630859375,0.68280029296875,0.125518798828125,-0.5120071172714233,0.3705580830574036,-0.3365247547626495,38.75636291503906,98.43316650390624,-11.32208251953125
166228,-0.596832275390625,0.6532745361328125,0.1237640380859375,-0.5193347930908203,0.4415851235389709,-0.3987388610839844,38.58052062988281,98.32757568359376,-11.07765197753906
166229,-0.6102294921875,0.62823486328125,0.1073760986328125,-0.5362141728401184,0.4966427981853485,-0.4494765996932983,38.36402893066406,98.3144989013672,-10.85011291503906
166230,-0.6102294921875,0.62823486328125,0.1073760986328125,-0.5362141728401184,0.4966427981853485,-0.4494765996932983,38.36402893066406,98.3144989013672,-10.85011291503906
166231,-0.5777740478515625,0.5533294677734375,0.0518341064453125,-0.6818115711212158,0.5190109610557556,-0.5083572268486023,37.72900390625,98.33193969726562,-10.2830810546875
166232,-0.5511474609375,0.52728271484375,0.014739990234375,-0.8051513433456421,0.5286102890968323,-0.5215063095092773,37.40425109863281,98.1655731201172,-10.08824157714844
166233,-0.5200958251953125,0.5179290771484375,-0.0458984375,-0.9377195239067078,0.5038341283798218,-0.5264164209365845,37.0560302734375,98.18092346191406,-9.774032592773438
166234,-0.5200958251953125,0.5179290771484375,-0.0458984375,-0.9377195239067078,0.5038341283798218,-0.5264164209365845,37.0560302734375,98.18092346191406,-9.774032592773438
166235,-0.485565185546875,0.5794677734375,-0.15045166015625,-1.124132037162781,0.2691395878791809,-0.4999150037765503,36.36325073242188,97.9268035888672,-9.034576416015623
166236,-0.4834442138671875,0.6622314453125,-0.1692657470703125,-1.170034289360046,0.1419046670198441,-0.4721510410308838,36.084716796875,97.78738403320312,-8.443649291992188
166237,-0.485595703125,0.7713165283203125,-0.177703857421875,-1.195967793464661,0.0887522399425506,-0.4400487542152405,35.63526916503906,97.61680603027344,-8.036376953125
166238,-0.485595703125,0.7713165283203125,-0.177703857421875,-1.195967793464661,0.0887522399425506,-0.4400487542152405,35.63526916503906,97.61680603027344,-8.036376953125
166239,-0.5389404296875,1.060043334960938,-0.1949310302734375,-1.183360457420349,0.1899699419736862,-0.3399932682514191,34.95414733886719,97.39027404785156,-7.382354736328125
166240,-0.5389404296875,1.060043334960938,-0.1949310302734375,-1.183360457420349,0.1899699419736862,-0.3399932682514191,34.95414733886719,97.39027404785156,-7.382354736328125
166241,-0.6522674560546875,1.202484130859375,-0.2245330810546875,-0.9540878534317015,0.1985218822956085,-0.2915820479393005,34.29573059082031,96.85984802246094,-6.2083740234375
166242,-0.6920166015625,1.204635620117188,-0.2221221923828125,-0.8210285902023315,0.0418808721005916,-0.2381390631198883,33.99649047851562,96.53103637695312,-5.728363037109375
166243,-0.6898193359375,1.178863525390625,-0.231414794921875,-0.6545144319534302,-0.0812442526221275,-0.1677080392837524,33.79208374023438,96.35565185546876,-5.25933837890625
166244,-0.6625823974609375,1.150421142578125,-0.2850494384765625,-0.4539384543895721,-0.1443009823560715,-0.086342878639698,33.57164001464844,96.19305419921876,-4.844650268554688
166245,-0.6142425537109375,1.147567749023438,-0.3842620849609375,-0.2195765674114227,-0.1568588614463806,-0.0394821614027023,33.48875427246094,96.00831604003906,-4.585433959960938
166246,-0.6142425537109375,1.147567749023438,-0.3842620849609375,-0.2195765674114227,-0.1568588614463806,-0.0394821614027023,33.48875427246094,96.00831604003906,-4.585433959960938
166247,-0.47589111328125,1.186813354492188,-0.5438232421875,0.2242959588766098,-0.1787575036287308,0.0771725475788116,33.37823486328125,95.71185302734376,-4.138351440429688
166248,-0.424163818359375,1.246246337890625,-0.5460205078125,0.392485499382019,-0.1230747923254967,0.1257060021162033,33.36676025390625,95.5355987548828,-3.9681396484375
166249,-0.383636474609375,1.303955078125,-0.5420989990234375,0.5005635023117065,-0.0391604527831077,0.0963262692093849,33.4761962890625,95.53231811523438,-3.88238525390625
166250,-0.383636474609375,1.303955078125,-0.5420989990234375,0.5005635023117065,-0.0391604527831077,0.0963262692093849,33.4761962890625,95.53231811523438,-3.88238525390625
166251,-0.3131561279296875,1.356658935546875,-0.5325164794921875,0.5853998064994812,-0.0911610722541809,-0.0056040897034108,33.57611083984375,95.58876037597656,-4.091873168945312
166252,-0.3193817138671875,1.340774536132812,-0.48828125,0.6020362973213196,-0.1710324585437775,-0.0070989220403134,33.62860107421875,95.75091552734376,-4.302627563476562
166253,-0.342132568359375,1.312957763671875,-0.4339141845703125,0.5921527743339539,-0.235191211104393,0.0398451499640941,33.72930908203125,95.9748077392578,-4.77459716796875
166254,-0.342132568359375,1.312957763671875,-0.4339141845703125,0.5921527743339539,-0.235191211104393,0.0398451499640941,33.72930908203125,95.9748077392578,-4.77459716796875
166255,-0.44189453125,1.293746948242188,-0.300201416015625,0.4510888755321503,-0.4009886980056763,0.1089826747775078,33.81866455078125,96.01629638671876,-5.285781860351562
166256,-0.52606201171875,1.313613891601562,-0.1870880126953125,0.4116027355194092,-0.3829266130924225,0.0974743589758873,33.90495300292969,96.14982604980467,-5.475601196289062
166257,-0.6298065185546875,1.333633422851562,-0.05889892578125,0.4292064905166626,-0.2821632325649261,0.034288465976715,34.02896118164062,96.23225402832033,-5.646453857421875
166258,-0.6298065185546875,1.333633422851562,-0.05889892578125,0.4292064905166626,-0.2821632325649261,0.034288465976715,34.02896118164062,96.23225402832033,-5.646453857421875
166259,-0.80303955078125,1.32012939453125,0.0621185302734375,0.6282623410224915,-0.0270023234188556,-0.1260809749364853,34.12823486328125,96.70425415039062,-6.195220947265625
166260,-0.8490447998046875,1.281982421875,0.024505615234375,0.7471548914909363,0.061026070266962,-0.1667144149541855,34.12823486328125,96.70425415039062,-6.195220947265625
166261,-0.86065673828125,1.20587158203125,-0.0400848388671875,0.8601269721984863,0.0512320287525653,-0.1707640141248703,34.1478271484375,96.83332824707033,-6.459259033203125
166262,-0.86065673828125,1.20587158203125,-0.0400848388671875,0.8601269721984863,0.0512320287525653,-0.1707640141248703,34.1478271484375,96.83332824707033,-6.459259033203125
166263,-0.7137298583984375,0.941619873046875,-0.1338348388671875,0.95638507604599,0.1055828854441643,-0.1683573126792908,34.04824829101562,97.21768188476562,-7.124053955078125
166264,-0.653594970703125,0.80963134765625,-0.1683807373046875,1.013338088989258,0.1331348866224289,-0.1595683544874191,33.96987915039062,97.4607391357422,-7.485092163085938
166265,-0.586090087890625,0.7186431884765625,-0.1865081787109375,1.055391073226929,0.1601555794477463,-0.1648938804864883,33.98908996582031,97.54238891601562,-8.037628173828125
166266,-0.586090087890625,0.7186431884765625,-0.1865081787109375,1.055391073226929,0.1601555794477463,-0.1648938804864883,33.98908996582031,97.54238891601562,-8.037628173828125
166267,-0.5486602783203125,0.527374267578125,-0.261505126953125,0.7849528789520264,-0.1220172494649887,-0.138287827372551,33.90773010253906,97.69290161132812,-9.099594116210938
166268,-0.5712127685546875,0.4794921875,-0.250640869140625,0.6006799936294556,-0.3873645067214966,-0.1013492569327354,33.90467834472656,97.76319885253906,-9.39544677734375
166269,-0.5808258056640625,0.4605560302734375,-0.2141265869140625,0.4755207300186157,-0.624271035194397,-0.066246397793293,33.985595703125,97.8906707763672,-9.784439086914062
166270,-0.5808258056640625,0.4605560302734375,-0.2141265869140625,0.4755207300186157,-0.624271035194397,-0.066246397793293,33.985595703125,97.8906707763672,-9.784439086914062
166271,-0.608001708984375,0.473236083984375,-0.0912017822265625,0.4798955023288727,-0.7476505041122437,-0.0120478747412562,34.29695129394531,98.0531005859375,-10.21368408203125
166272,-0.6265411376953125,0.4842987060546875,-0.0008087158203125,0.570392370223999,-0.538479745388031,0.0188719574362039,34.48696899414062,98.05442810058594,-10.18447875976562
166273,-0.6220855712890625,0.4932708740234375,0.08502197265625,0.6766282916069031,-0.1898951083421707,0.0398544706404209,34.74612426757812,98.08143615722656,-10.28923034667969
166274,-0.6220855712890625,0.4932708740234375,0.08502197265625,0.6766282916069031,-0.1898951083421707,0.0398544706404209,34.74612426757812,98.08143615722656,-10.28923034667969
166275,-0.5434722900390625,0.4336090087890625,0.1415252685546875,0.7794095277786255,0.4203754365444183,0.0752484127879142,35.09115600585938,98.11468505859376,-10.85459899902344
166276,-0.49176025390625,0.389678955078125,0.11279296875,0.7450840473175049,0.5644711256027222,0.1056566536426544,35.32713317871094,98.17080688476562,-11.24490356445312
166277,-0.432464599609375,0.3551177978515625,0.0787200927734375,0.6643753051757812,0.622026264667511,0.1241232827305794,35.3427734375,98.1571044921875,-11.75335693359375
166278,-0.3846282958984375,0.33251953125,0.0725555419921875,0.5593916773796082,0.6412409543991089,0.1413747072219849,35.40577697753906,98.1632843017578,-12.14651489257812
166279,-0.3329925537109375,0.3433837890625,0.0663604736328125,0.4521714746952057,0.6044589877128601,0.1542122066020966,35.43736267089844,98.09674072265624,-12.53323364257812
166280,-0.2780609130859375,0.395050048828125,0.091552734375,0.3074752688407898,0.5098962783813477,0.1703080832958221,35.45071411132812,98.17160034179688,-12.70623779296875
166281,-0.249725341796875,0.4818878173828125,0.1174774169921875,0.0978711694478988,0.4262181520462036,0.2167133986949921,35.61293029785156,98.22445678710938,-13.07533264160156
166282,-0.249725341796875,0.4818878173828125,0.1174774169921875,0.0978711694478988,0.4262181520462036,0.2167133986949921,35.61293029785156,98.22445678710938,-13.07533264160156
166283,-0.2735595703125,0.6600799560546875,0.1027984619140625,-0.2694831490516663,0.2534269392490387,0.2708703875541687,35.56690979003906,98.15716552734376,-13.29998779296875
166284,-0.3380584716796875,0.721832275390625,0.11572265625,-0.3689122498035431,0.2607636749744415,0.2199813723564148,35.65621948242188,98.19790649414062,-13.19898986816406
166285,-0.42718505859375,0.7536468505859375,0.1572265625,-0.4473149180412292,0.3019731640815735,0.1497500836849213,35.74528503417969,98.19692993164062,-13.17189025878906
166286,-0.42718505859375,0.7536468505859375,0.1572265625,-0.4473149180412292,0.3019731640815735,0.1497500836849213,35.74528503417969,98.19692993164062,-13.17189025878906
166287,-0.51824951171875,0.8119049072265625,0.2695159912109375,-0.6903411746025085,0.2964968979358673,0.0361793078482151,35.80769348144531,98.33282470703124,-12.91816711425781
166288,-0.523193359375,0.8202972412109375,0.322967529296875,-0.8605408668518066,0.2160683870315552,-0.0065961172804236,35.81631469726562,98.33277893066406,-12.71131896972656
166289,-0.5305023193359375,0.806549072265625,0.369293212890625,-1.046041488647461,0.1129332110285759,-0.0544416718184948,35.81466674804688,98.34172058105467,-12.45423889160156
166290,-0.5305023193359375,0.806549072265625,0.369293212890625,-1.046041488647461,0.1129332110285759,-0.0544416718184948,35.81466674804688,98.34172058105467,-12.45423889160156
166291,-0.5693359375,0.75213623046875,0.393585205078125,-1.292044878005981,-0.1105675250291824,-0.1897510290145874,35.70510864257812,98.17097473144533,-11.53480529785156
166292,-0.6065216064453125,0.743560791015625,0.3826904296875,-1.31244170665741,-0.1801726967096329,-0.2523747384548187,35.6947021484375,98.0261688232422,-10.92559814453125
166293,-0.6435394287109375,0.7548370361328125,0.3581695556640625,-1.304252028465271,-0.1987626254558563,-0.3113240599632263,35.52830505371094,97.82591247558594,-10.36531066894531
166294,-0.6435394287109375,0.7548370361328125,0.3581695556640625,-1.304252028465271,-0.1987626254558563,-0.3113240599632263,35.52830505371094,97.82591247558594,-10.36531066894531
166295,-0.6917877197265625,0.84326171875,0.1911468505859375,-1.296872615814209,-0.1392689496278763,-0.4204974174499512,35.05595397949219,97.70118713378906,-9.241714477539062
166296,-0.707977294921875,0.885772705078125,0.0743255615234375,-1.226750016212463,-0.114001139998436,-0.4713970720767975,34.70683288574219,97.55557250976562,-8.657745361328125
166297,-0.7059173583984375,0.9156646728515624,-0.0253753662109375,-1.168228149414062,0.0063492422923445,-0.4605340659618378,34.40518188476562,97.35240173339844,-8.132766723632812
166298,-0.7059173583984375,0.9156646728515624,-0.0253753662109375,-1.168228149414062,0.0063492422923445,-0.4605340659618378,34.40518188476562,97.35240173339844,-8.132766723632812
166299,-0.6162261962890625,1.025848388671875,-0.1256103515625,-0.9957056045532228,0.2712402939796448,-0.4442898333072662,33.76750183105469,96.85586547851562,-6.953567504882812
166300,-0.566497802734375,1.07489013671875,-0.1494598388671875,-0.9019293189048768,0.2870392203330994,-0.4726674258708954,33.52018737792969,96.55413818359376,-6.51416015625
166301,-0.541290283203125,1.109939575195312,-0.216827392578125,-0.8376472592353821,0.2126076072454453,-0.4818912744522095,33.19888305664062,96.39450073242188,-6.074722290039062
166302,-0.541290283203125,1.109939575195312,-0.216827392578125,-0.8376472592353821,0.2126076072454453,-0.4818912744522095,33.19888305664062,96.39450073242188,-6.074722290039062
166303,-0.5098724365234375,1.175735473632812,-0.368194580078125,-0.6871293783187866,-0.0280603971332311,-0.3847024142742157,32.50735473632812,96.11433410644533,-5.290374755859375
166304,-0.5075531005859375,1.193527221679688,-0.4006805419921875,-0.6090651750564575,0.0096909767016768,-0.3005419969558716,32.25422668457031,95.76651000976562,-4.8717041015625
166305,-0.5240325927734375,1.200119018554688,-0.42132568359375,-0.5660791397094727,0.1590618193149567,-0.2333440482616425,31.96971130371094,95.59585571289062,-4.543548583984375
166306,-0.5240325927734375,1.200119018554688,-0.42132568359375,-0.5660791397094727,0.1590618193149567,-0.2333440482616425,31.96971130371094,95.59585571289062,-4.543548583984375
166307,-0.590118408203125,1.174850463867188,-0.4590911865234375,-0.4064465761184692,0.3349082171916962,-0.0324900336563587,31.62258911132812,95.37420654296876,-4.03851318359375
166308,-0.61474609375,1.181915283203125,-0.4896240234375,-0.2650729417800903,0.3989375233650208,0.1018307581543922,31.53048706054688,95.25111389160156,-3.813720703125
166309,-0.6170654296875,1.219497680664062,-0.5440216064453125,-0.1388934403657913,0.4846742749214172,0.2383449226617813,31.39788818359375,95.10310363769533,-3.658905029296875
166310,-0.6170654296875,1.219497680664062,-0.5440216064453125,-0.1388934403657913,0.4846742749214172,0.2383449226617813,31.39788818359375,95.10310363769533,-3.658905029296875
166311,-0.597015380859375,1.339324951171875,-0.55865478515625,0.0308902710676193,0.6230414509773254,0.4142949283123016,31.47264099121094,95.0727996826172,-3.547454833984375
166312,-0.5989837646484375,1.352951049804688,-0.5199432373046875,0.0994014218449592,0.7103084921836853,0.4290980994701385,31.498046875,95.00129699707033,-3.572174072265625
166313,-0.6177978515625,1.31561279296875,-0.5121002197265625,0.1958922743797302,0.7341959476470947,0.4226649701595306,31.59054565429688,95.08424377441406,-3.532623291015625
166314,-0.6177978515625,1.31561279296875,-0.5121002197265625,0.1958922743797302,0.7341959476470947,0.4226649701595306,31.59054565429688,95.08424377441406,-3.532623291015625
166315,-0.5809173583984375,1.182098388671875,-0.5103302001953125,0.3647726476192474,0.7753213047981262,0.3701775372028351,31.78874206542969,95.4530029296875,-3.895462036132812
166316,-0.5809173583984375,1.182098388671875,-0.5103302001953125,0.3647726476192474,0.7753213047981262,0.3701775372028351,31.78874206542969,95.4530029296875,-3.895462036132812
166317,-0.5693817138671875,1.110061645507812,-0.458282470703125,0.416734904050827,0.8075905442237854,0.3092713057994843,31.89791870117188,95.51023864746094,-3.994094848632812
166318,-0.563201904296875,1.032577514648438,-0.4052886962890625,0.4786904156208038,0.8829617500305176,0.2509954869747162,31.93173217773438,95.62815856933594,-4.295333862304688
166319,-0.5870208740234375,0.9239959716796876,-0.379302978515625,0.470154732465744,0.682026207447052,0.1217546612024307,31.98814392089844,96.05758666992188,-4.949783325195312
166320,-0.5960540771484375,0.8284149169921875,-0.345428466796875,0.3453142642974854,0.4019245207309723,0.0823457390069961,31.96762084960938,96.2825164794922,-5.371353149414062
166321,-0.614898681640625,0.7456817626953125,-0.26251220703125,0.2505707144737244,0.1225387006998062,0.089514173567295,32.11297607421875,96.55422973632812,-5.85760498046875
166322,-0.614898681640625,0.7456817626953125,-0.26251220703125,0.2505707144737244,0.1225387006998062,0.089514173567295,32.11297607421875,96.55422973632812,-5.85760498046875
166323,-0.5807647705078125,0.7151641845703125,-0.046173095703125,0.408479630947113,0.0367074124515056,0.2564019560813904,32.23443603515625,96.70802307128906,-6.214340209960938
166324,-0.5709991455078125,0.735015869140625,-0.007659912109375,0.6039711236953735,0.0609182119369506,0.3381282389163971,32.38397216796875,96.89894104003906,-6.344879150390625
166325,-0.56622314453125,0.752838134765625,0.0511474609375,0.7643506526947021,0.0677066072821617,0.4351906180381775,32.55099487304688,96.91598510742188,-6.680130004882812
166326,-0.56622314453125,0.752838134765625,0.0511474609375,0.7643506526947021,0.0677066072821617,0.4351906180381775,32.55099487304688,96.91598510742188,-6.680130004882812
166327,-0.4888916015625,0.7442779541015625,0.0723419189453125,0.8551234602928162,0.0144508443772792,0.490700751543045,33.10939025878906,97.3276824951172,-7.41552734375
166328,-0.4438018798828125,0.7163543701171875,0.1238861083984375,0.824058473110199,-0.0720763206481933,0.4602347016334534,33.5311279296875,97.27256774902344,-7.743026733398438
166329,-0.369049072265625,0.687652587890625,0.17767333984375,0.7790451645851135,-0.089053176343441,0.4355477392673492,33.88108825683594,97.39060974121094,-8.035781860351562
166330,-0.275421142578125,0.65478515625,0.2162933349609375,0.7548924684524536,-0.0287485569715499,0.4005649983882904,34.24722290039062,97.48870849609376,-8.426895141601562
166331,-0.2056732177734375,0.6195831298828125,0.247161865234375,0.6841530203819275,0.0940508618950843,0.3204997181892395,34.58293151855469,97.5305633544922,-8.707183837890625
166332,-0.149932861328125,0.551849365234375,0.2588958740234375,0.5461083650588989,0.2167347073554993,0.2871521413326263,35.00192260742188,97.567626953125,-8.863143920898438
166333,-0.1181182861328125,0.4847564697265625,0.2267303466796875,0.3438926637172699,0.3016514480113983,0.2954308390617371,35.25440979003906,97.51173400878906,-9.073760986328123
166334,-0.1181182861328125,0.4847564697265625,0.2267303466796875,0.3438926637172699,0.3016514480113983,0.2954308390617371,35.25440979003906,97.51173400878906,-9.073760986328123
166335,-0.28570556640625,0.479705810546875,0.042327880859375,-0.0237516686320304,0.1267928332090378,0.2930952608585358,35.69517517089844,97.62120056152344,-9.31903076171875
166336,-0.3725738525390625,0.540679931640625,0.045135498046875,-0.1356097608804703,0.0366075448691844,0.2918835282325745,35.83259582519531,97.58956909179688,-9.312454223632812
166337,-0.3763580322265625,0.547821044921875,0.0505828857421875,-0.2243710607290268,0.028026308864355,0.2834684550762177,35.93197631835938,97.67202758789062,-9.43597412109375
166338,-0.3763580322265625,0.547821044921875,0.0505828857421875,-0.2243710607290268,0.028026308864355,0.2834684550762177,35.93197631835938,97.67202758789062,-9.43597412109375
166339,-0.4295806884765625,0.5358428955078125,0.04327392578125,-0.3323081731796265,0.2340814769268036,0.2081681191921234,36.17317199707031,97.79759216308594,-9.466262817382812
166340,-0.4632415771484375,0.537109375,0.0539398193359375,-0.3732156455516815,0.4264330863952637,0.1303446888923645,36.33389282226562,97.80746459960938,-9.236434936523438
166341,-0.494598388671875,0.5648956298828125,0.0409393310546875,-0.4639298617839813,0.5948375463485718,0.0414997711777687,36.39289855957031,97.90452575683594,-9.13427734375
