time_idx,accelerometerAccelerationX(G),accelerometerAccelerationY(G),accelerometerAccelerationZ(G),gyroRotationX(rad/s),gyroRotationY(rad/s),gyroRotationZ(rad/s),magnetometerX(µT),magnetometerY(µT),magnetometerZ(µT)
253063,0.0745391845703125,1.172882080078125,-0.09368896484375,-0.0548552572727203,-0.6513455510139465,0.0794934928417205,29.04393005371094,97.86181640625,-10.28858947753906
253064,0.0745391845703125,1.172882080078125,-0.09368896484375,-0.0548552572727203,-0.6513455510139465,0.0794934928417205,29.04393005371094,97.86181640625,-10.28858947753906
253065,0.122039794921875,1.11077880859375,-0.08892822265625,-0.0548552572727203,-0.6513455510139465,0.0794934928417205,29.12393188476562,97.82298278808594,-9.847305297851562
253066,0.1575775146484375,0.9406890869140624,-0.1630706787109375,-3.355582884978503e-05,-0.8169185519218445,0.0433133840560913,29.41166687011719,97.90219116210938,-9.271286010742188
253067,0.1470184326171875,0.8647613525390625,-0.2026214599609375,0.0798370391130447,-0.8437498807907104,0.0528576225042343,29.42012023925781,97.8186492919922,-8.905776977539062
253068,0.1161651611328125,0.8226776123046875,-0.24908447265625,0.1916631758213043,-0.842142641544342,0.0966013744473457,29.51124572753906,97.7965850830078,-8.642715454101562
253069,0.08038330078125,0.8141937255859375,-0.286895751953125,0.2924816608428955,-0.839381217956543,0.1518984586000443,29.58482360839844,97.69374084472656,-8.62921142578125
253070,0.0699005126953125,0.825958251953125,-0.3102874755859375,0.3614775240421295,-0.8563154935836792,0.2154718339443207,29.64488220214844,97.77569580078124,-8.835952758789062
253071,0.0703887939453125,0.87457275390625,-0.312286376953125,0.4089534282684326,-0.8437160849571228,0.2531164288520813,29.822021484375,97.71701049804688,-8.65655517578125
253072,0.0703887939453125,0.87457275390625,-0.312286376953125,0.4089534282684326,-0.8437160849571228,0.2531164288520813,29.822021484375,97.71701049804688,-8.65655517578125
253073,0.07958984375,1.005157470703125,-0.2498016357421875,0.4611708223819733,-0.7195046544075012,0.2797136604785919,30.12640380859375,97.97702026367188,-8.580276489257812
253074,0.087677001953125,1.08392333984375,-0.183929443359375,0.4401816427707672,-0.5750569105148315,0.2731026411056519,30.34054565429688,98.01239013671876,-8.642135620117188
253075,0.081695556640625,1.166183471679688,-0.1322479248046875,0.3767406046390533,-0.4289636015892029,0.2391329556703568,30.49803161621094,98.00466918945312,-8.656326293945312
253076,0.0791473388671875,1.248260498046875,-0.0993804931640625,0.2999438345432281,-0.4047421514987946,0.1855741292238235,30.66709899902344,98.167236328125,-8.867568969726562
253077,0.0775909423828125,1.330352783203125,-0.03546142578125,0.180423840880394,-0.4868908226490021,0.09482903778553,30.80116271972656,98.18328857421876,-9.033432006835938
253078,0.080718994140625,1.419204711914062,0.061614990234375,0.180423840880394,-0.4868908226490021,0.09482903778553,30.86485290527344,98.35050964355467,-8.992706298828125
253079,0.07427978515625,1.510177612304688,0.1670989990234375,0.1302884966135025,-0.4940491318702698,0.051538024097681,30.93280029296875,98.38522338867188,-9.038436889648438
253080,0.0498046875,1.604339599609375,0.2464752197265625,0.1009702906012535,-0.5159658789634705,0.0101338606327772,31.10775756835938,98.37771606445312,-9.0665283203125
253081,0.0357666015625,1.697723388671875,0.2799224853515625,0.1211637109518051,-0.5456361770629883,-0.0346831455826759,31.17106628417969,98.4783172607422,-9.05010986328125
253082,0.0357666015625,1.697723388671875,0.2799224853515625,0.1211637109518051,-0.5456361770629883,-0.0346831455826759,31.17106628417969,98.4783172607422,-9.05010986328125
253083,-0.007293701171875,1.658737182617188,0.2172088623046875,0.3447515368461609,-0.4353741109371185,-0.1538497507572174,31.37660217285156,98.2668914794922,-8.87115478515625
253084,-0.0651397705078125,1.383316040039062,0.169036865234375,0.5485243797302246,-0.3990805447101593,-0.2815621793270111,31.3514404296875,98.22517395019533,-8.74615478515625
253085,-0.127593994140625,1.133224487304688,0.1514129638671875,0.5597503781318665,-0.3795379996299744,-0.3221511542797089,31.38552856445312,98.26112365722656,-8.788665771484375
253086,-0.1776123046875,0.9539794921875,0.1214141845703125,0.5597503781318665,-0.3795379996299744,-0.3221511542797089,31.44392395019531,98.09928894042967,-8.953857421875
253087,-0.221435546875,0.83819580078125,0.0516204833984375,0.5384195446968079,-0.4063922464847565,-0.3180059194564819,31.47703552246094,97.962158203125,-9.080841064453123
253088,-0.25164794921875,0.772918701171875,-0.033660888671875,0.5127559900283813,-0.4975871443748474,-0.2881332635879517,31.5159912109375,97.71954345703124,-9.34716796875
253089,-0.25274658203125,0.7356109619140625,-0.0949859619140625,0.4552772343158722,-0.6608277559280396,-0.1579161286354065,31.51962280273438,97.63908386230467,-9.513992309570312
253090,-0.2202911376953125,0.72039794921875,-0.1396484375,0.4552772343158722,-0.6608277559280396,-0.1579161286354065,31.54957580566406,97.58058166503906,-9.634674072265623
253091,-0.1680755615234375,0.696197509765625,-0.1497650146484375,0.4131798446178436,-0.7281947731971741,-0.1074633449316025,31.62924194335938,97.3905029296875,-9.474105834960938
253092,-0.1268157958984375,0.661590576171875,-0.14849853515625,0.3792082965373993,-0.7808646559715271,-0.0564568825066089,31.63641357421875,97.40339660644533,-9.590484619140623
253093,-0.097503662109375,0.62799072265625,-0.1564788818359375,0.4296134114265442,-0.9003748297691345,-0.0157222375273704,31.71664428710938,97.297607421875,-9.733184814453123
253094,-0.081634521484375,0.598358154296875,-0.1618194580078125,0.4296134114265442,-0.9003748297691345,-0.0157222375273704,31.90818786621094,97.26864624023438,-9.78424072265625
253095,-0.073974609375,0.556610107421875,-0.163055419921875,0.4856726825237274,-0.899138331413269,-0.0264675598591566,31.96922302246094,97.23265075683594,-9.735641479492188
253096,-0.0684051513671875,0.5037078857421875,-0.157501220703125,0.5012519359588623,-0.7332444190979004,-0.0333888493478298,32.13618469238281,97.146484375,-9.723739624023438
253097,-0.056488037109375,0.4651031494140625,-0.14501953125,0.3922823071479797,-0.6412732005119324,-0.0058925100602209,32.22836303710938,96.9360809326172,-9.86639404296875
253098,-0.03289794921875,0.43231201171875,-0.1226043701171875,0.3922823071479797,-0.6412732005119324,-0.0058925100602209,32.2509765625,96.87242126464844,-9.965744018554688
253099,-0.0032806396484375,0.4255218505859375,-0.0858001708984375,0.207432821393013,-0.5566691160202026,0.0513345599174499,32.30766296386719,96.96833801269533,-10.05245971679688
253100,0.0276336669921875,0.4481964111328125,-0.0393524169921875,-0.0188756864517927,-0.485438346862793,0.1321500539779663,32.29714965820312,97.056640625,-9.908538818359377
253101,0.046417236328125,0.4796905517578125,0.016510009765625,-0.2442574054002762,-0.4161663353443146,0.2154004573822021,32.31898498535156,97.12628173828124,-9.850311279296877
253102,0.046417236328125,0.4796905517578125,0.016510009765625,-0.2442574054002762,-0.4161663353443146,0.2154004573822021,32.31898498535156,97.12628173828124,-9.850311279296877
253103,0.0496978759765625,0.566436767578125,0.1302490234375,-0.57718825340271,-0.180929571390152,0.3441621661186218,32.42227172851562,97.19273376464844,-9.705551147460938
253104,0.0426025390625,0.6226043701171875,0.169342041015625,-0.6826754808425903,-0.0262976493686437,0.3710310757160187,32.53512573242188,97.23106384277344,-9.433425903320312
253105,0.04266357421875,0.7148284912109375,0.1987762451171875,-0.7476419806480408,0.1105472818017006,0.3940386474132538,32.70268249511719,97.29704284667967,-9.144927978515623
253106,0.0441131591796875,0.8323822021484375,0.238037109375,-0.7758118510246277,0.2251329869031906,0.4020241498947144,32.78321838378906,97.48675537109376,-8.81707763671875
253107,0.037353515625,0.9339141845703124,0.2890167236328125,-0.7843954563140869,0.2968814671039581,0.3782767355442047,32.92037963867188,97.5335693359375,-8.490310668945312
253108,0.01513671875,1.025222778320312,0.33673095703125,-0.7936902046203613,0.3247772753238678,0.3223258554935455,33.06716918945312,97.618408203125,-8.260360717773438
253109,-0.0114898681640625,1.113067626953125,0.360870361328125,-0.7965365648269653,0.2325392365455627,0.2612345218658447,33.04737854003906,97.69549560546876,-8.031356811523438
253110,-0.0295562744140625,1.229461669921875,0.4004058837890625,-0.8253293037414551,0.101634219288826,0.1891661882400513,33.10736083984375,97.77557373046876,-7.7470703125
253111,-0.0368194580078125,1.356781005859375,0.4226837158203125,-0.9034457206726074,0.0156873501837253,0.0979918092489242,33.14445495605469,97.7990264892578,-7.518722534179688
253112,-0.0372467041015625,1.50238037109375,0.3708038330078125,-0.9754663705825806,-0.0638871043920517,-0.0001965412811841,33.11886596679688,97.92658996582033,-7.236221313476562
253113,-0.0449981689453125,1.657058715820312,0.257080078125,-0.9171684384346008,-0.2393204420804977,-0.1219970136880875,33.09614562988281,97.96519470214844,-6.793853759765625
253114,-0.0469207763671875,1.73638916015625,0.213592529296875,-0.7193461656570435,-0.3095954060554504,-0.2019704133272171,33.00344848632812,98.0135498046875,-6.497360229492188
253115,-0.0535888671875,1.726287841796875,0.1569061279296875,-0.4219744205474854,0.0889391899108886,-0.1432264000177383,32.89115905761719,97.96705627441406,-6.008636474609375
253116,-0.0535888671875,1.726287841796875,0.1569061279296875,-0.4219744205474854,0.0889391899108886,-0.1432264000177383,32.89115905761719,97.96705627441406,-6.008636474609375
253117,-0.073272705078125,1.440048217773438,-0.159149169921875,0.289753794670105,0.2359890937805176,0.1219919547438622,32.56282043457031,97.86013793945312,-5.2470703125
253118,-0.0572052001953125,1.300048828125,-0.156524658203125,0.289753794670105,0.2359890937805176,0.1219919547438622,32.31512451171875,97.84869384765624,-5.292953491210938
253119,-0.0345916748046875,1.18609619140625,-0.2065887451171875,0.3118993043899536,0.2184511125087738,0.144503653049469,32.35484313964844,97.75338745117188,-5.347610473632812
253120,-0.0345916748046875,1.18609619140625,-0.2065887451171875,0.3118993043899536,0.2184511125087738,0.144503653049469,32.35484313964844,97.75338745117188,-5.347610473632812
253121,-0.0257568359375,0.9853515625,-0.2894744873046875,0.1854106038808823,0.078121967613697,0.1967844367027283,32.380859375,97.96131896972656,-5.62603759765625
253122,-0.0207672119140625,0.9178314208984376,-0.2849884033203125,0.1461777091026306,0.0553689822554588,0.2192822843790054,32.42747497558594,98.06639099121094,-5.636611938476562
253123,-0.0054168701171875,0.8467864990234375,-0.30047607421875,0.1534830331802368,0.0832227170467376,0.2378053665161133,32.51289367675781,98.01629638671876,-5.661865234375
253124,0.0216217041015625,0.7849578857421875,-0.3320159912109375,0.1972712576389313,0.1340038776397705,0.2712416350841522,32.5418701171875,98.1194305419922,-5.665283203125
253125,0.06854248046875,0.7429046630859375,-0.3556060791015625,0.2394357621669769,0.165461391210556,0.31844562292099,32.60275268554688,98.2253875732422,-5.985809326171875
253126,0.1338043212890625,0.7321014404296875,-0.353302001953125,0.2342511117458344,0.1835232228040695,0.372244656085968,32.69865417480469,98.2195281982422,-6.128433227539062
253127,0.206146240234375,0.7588653564453125,-0.3322296142578125,0.1817125380039215,0.1716886609792709,0.4169490337371826,32.83183288574219,98.24021911621094,-6.17889404296875
253128,0.26080322265625,0.85870361328125,-0.2901763916015625,0.112857311964035,0.1373735666275024,0.4462912082672119,32.9764404296875,98.33261108398438,-6.44134521484375
253129,0.2924041748046875,0.9947357177734376,-0.2272491455078125,0.0777555182576179,0.0978258922696113,0.4302363395690918,33.16624450683594,98.31710815429688,-6.496978759765625
253130,0.3060455322265625,1.091278076171875,-0.16510009765625,0.1029080078005791,0.0862986668944358,0.4205762445926666,33.35186767578125,98.40779113769533,-6.522918701171875
253131,0.2843475341796875,1.185409545898438,-0.0972900390625,0.1891856342554092,0.1399682909250259,0.3903517723083496,33.53195190429688,98.44392395019533,-6.525619506835938
253132,0.2293853759765625,1.267318725585938,-0.0256195068359375,0.2753008008003235,0.2404592037200928,0.3026253879070282,33.84580993652344,98.5393524169922,-6.7220458984375
253133,0.124114990234375,1.297195434570312,0.051239013671875,0.2974985241889954,0.305069625377655,0.1696667969226837,33.93315124511719,98.70535278320312,-6.796539306640625
253134,0.124114990234375,1.297195434570312,0.051239013671875,0.2974985241889954,0.305069625377655,0.1696667969226837,33.93315124511719,98.70535278320312,-6.796539306640625
253135,-0.0702667236328125,1.266998291015625,0.1756134033203125,0.2466113716363907,0.4978238940238953,0.0086515452712774,34.16932678222656,98.75233459472656,-7.134628295898438
253136,-0.1096649169921875,1.238876342773438,0.1409149169921875,0.2692738175392151,0.5378669500350952,0.0020293288398534,34.23995971679688,98.68058776855467,-7.235885620117188
253137,-0.1331787109375,1.173721313476562,0.0814666748046875,0.3085066974163055,0.443413645029068,0.0499164275825023,34.29402160644531,98.70875549316406,-7.557754516601562
253138,-0.1123504638671875,1.060882568359375,0.055999755859375,0.3076619505882263,0.2759543657302856,0.1731004118919373,34.24755859375,98.76182556152344,-7.8353271484375
253139,-0.0415802001953125,0.94647216796875,0.058502197265625,0.2661480605602264,0.1468219310045242,0.3505044877529144,34.2197265625,98.95207214355467,-8.155792236328125
253140,0.037872314453125,0.893280029296875,0.0576171875,0.1962723135948181,0.0061553642153739,0.5252113342285156,34.29220581054688,98.80085754394533,-8.346664428710938
253141,0.075927734375,0.8767547607421875,0.083892822265625,0.1287726312875748,-0.1575771123170853,0.6672161221504211,34.37734985351562,98.89419555664062,-8.481552124023438
253142,0.0713958740234375,0.9019775390625,0.129852294921875,0.0638980194926261,-0.2775189578533173,0.7288973331451416,34.56510925292969,99.04592895507812,-8.532379150390625
253143,0.0743255615234375,0.9266815185546876,0.1605072021484375,-0.004408330656588,-0.3320112228393555,0.7003647685050964,34.91218566894531,99.06161499023438,-8.5250244140625
253144,0.09393310546875,0.926788330078125,0.1540069580078125,-0.063910536468029,-0.357341080904007,0.6205660700798035,35.27781677246094,99.07386779785156,-8.6082763671875
253145,0.1433563232421875,0.91741943359375,0.120574951171875,-0.0928119644522666,-0.3752380609512329,0.5327781438827515,35.66810607910156,99.1182098388672,-8.605209350585938
253146,0.1433563232421875,0.91741943359375,0.120574951171875,-0.0928119644522666,-0.3752380609512329,0.5327781438827515,35.66810607910156,99.1182098388672,-8.605209350585938
253147,0.2533111572265625,0.8605804443359375,0.02203369140625,0.0083998767659068,-0.4191051125526428,0.3947553038597107,36.32337951660156,99.04010009765624,-8.464202880859375
253148,0.2533111572265625,0.8605804443359375,0.02203369140625,0.0083998767659068,-0.4191051125526428,0.3947553038597107,36.32337951660156,99.04010009765624,-8.464202880859375
253149,0.30767822265625,0.742095947265625,-0.073028564453125,0.277128279209137,-0.1929846405982971,0.1717030555009842,36.92190551757812,99.07138061523438,-8.225341796875
253150,0.309783935546875,0.7022247314453125,-0.1393890380859375,0.2574989199638367,-0.1203383952379227,0.034725222736597,37.04254150390625,99.15545654296876,-8.14422607421875
253151,0.2683258056640625,0.697723388671875,-0.207489013671875,0.2574989199638367,-0.1203383952379227,0.034725222736597,37.17434692382812,99.13998413085938,-8.122314453125
253152,0.14788818359375,0.699066162109375,-0.2037200927734375,0.1616988778114319,-0.153789296746254,-0.0641211941838264,37.36480712890625,99.13490295410156,-8.192459106445312
253153,0.04248046875,0.71173095703125,-0.1384124755859375,0.0411572903394699,-0.1962294280529022,-0.111548900604248,37.4310302734375,99.10916137695312,-8.3153076171875
253154,0.04248046875,0.71173095703125,-0.1384124755859375,0.0411572903394699,-0.1962294280529022,-0.111548900604248,37.4310302734375,99.10916137695312,-8.3153076171875
253155,-0.057342529296875,0.810882568359375,-0.0357513427734375,-0.2030529826879501,-0.22159443795681,-0.2819286286830902,37.45486450195312,98.9810028076172,-8.248260498046875
253156,-0.057342529296875,0.810882568359375,-0.0357513427734375,-0.2030529826879501,-0.22159443795681,-0.2819286286830902,37.45486450195312,98.9810028076172,-8.248260498046875
253157,-0.132720947265625,0.8654327392578125,0.0421905517578125,-0.3713200092315674,-0.0711130574345588,-0.6068332195281982,37.42938232421875,99.0417022705078,-8.191741943359375
253158,-0.169464111328125,0.8582611083984375,0.0532989501953125,-0.3713200092315674,-0.0711130574345588,-0.6068332195281982,37.20172119140625,99.05061340332033,-8.23468017578125
253159,-0.207977294921875,0.8346099853515625,0.0652313232421875,-0.3536158502101898,-0.0296734739094972,-0.6376137733459473,37.05203247070312,99.15794372558594,-8.045944213867188
253160,-0.2542572021484375,0.823516845703125,0.0810699462890625,-0.3340525329113007,0.0783408805727958,-0.6029809713363647,36.89985656738281,98.98811340332033,-7.74932861328125
253161,-0.3258056640625,0.8431854248046875,0.09881591796875,-0.3537349104881287,0.2186034470796585,-0.5071308612823486,36.54998779296875,98.78497314453124,-7.490798950195312
253162,-0.385894775390625,0.8917999267578125,0.125274658203125,-0.4219477772712708,0.3254561126232147,-0.3963446915149689,36.34521484375,98.68505859375,-7.228591918945312
253163,-0.406341552734375,0.9505462646484376,0.165008544921875,-0.523541271686554,0.3681388795375824,-0.3421197831630707,36.08120727539062,98.60092163085938,-7.100570678710938
253164,-0.4102325439453125,0.9871978759765624,0.2133636474609375,-0.6350027918815613,0.4120581150054932,-0.3146894872188568,35.87330627441406,98.6735382080078,-6.706756591796875
253165,-0.404205322265625,1.001724243164062,0.2473602294921875,-0.8190573453903198,0.4909425675868988,-0.2151237577199936,35.54353332519531,98.7647705078125,-6.483383178710938
253166,-0.38775634765625,1.018829345703125,0.2601776123046875,-0.8190573453903198,0.4909425675868988,-0.2151237577199936,35.37486267089844,98.77287292480467,-6.212677001953125
253167,-0.3557281494140625,1.049545288085938,0.261322021484375,-0.9041759371757508,0.4832159280776978,-0.1664965748786926,35.18157958984375,98.72737121582033,-5.878097534179688
253168,-0.302520751953125,1.113815307617188,0.2649078369140625,-0.9798099994659424,0.4604554772377014,-0.0776420608162879,34.99171447753906,98.63557434082033,-5.686920166015625
253169,-0.2532806396484375,1.2130126953125,0.2207183837890625,-1.060127735137939,0.4429436028003693,-0.0661401376128196,34.80032348632812,98.63836669921876,-5.561904907226562
253170,-0.2532806396484375,1.2130126953125,0.2207183837890625,-1.060127735137939,0.4429436028003693,-0.0661401376128196,34.80032348632812,98.63836669921876,-5.561904907226562
253171,0.0483856201171875,1.244720458984375,0.1499481201171875,-1.046584248542786,0.1441363990306854,-0.0292151439934968,34.28434753417969,98.60736083984376,-4.788955688476562
253172,0.165283203125,1.305419921875,0.103973388671875,-0.8866531252861023,0.2401241809129715,0.0502157658338546,34.21514892578125,98.45249938964844,-4.216766357421875
253173,0.2455291748046875,1.331558227539062,0.0012664794921875,-0.6097275018692017,0.2689726054668427,0.0838056877255439,34.1322021484375,98.40579223632812,-3.727813720703125
253174,0.317718505859375,1.30694580078125,-0.055572509765625,-0.3797776997089386,0.187128871679306,0.0644828528165817,34.03646850585938,98.36376953125,-3.46966552734375
253175,0.3629913330078125,1.263031005859375,-0.1024627685546875,-0.2693158984184265,0.125580832362175,0.0105077680200338,33.96003723144531,98.18836975097656,-3.2645263671875
253176,0.3629913330078125,1.263031005859375,-0.1024627685546875,-0.2693158984184265,0.125580832362175,0.0105077680200338,33.96003723144531,98.18836975097656,-3.2645263671875
253177,0.3956298828125,1.125564575195312,-0.285919189453125,-0.19545578956604,-0.1543754637241364,-0.1875475198030472,33.78031921386719,98.09510803222656,-2.890716552734375
253178,0.3904876708984375,1.045867919921875,-0.3289031982421875,-0.1189764514565468,-0.3129752278327942,-0.274360716342926,33.83969116210938,97.97004699707033,-2.716354370117188
253179,0.356414794921875,1.003738403320312,-0.34967041015625,0.0285711903125047,-0.3903797268867493,-0.322219580411911,33.6517333984375,97.9872589111328,-2.510543823242188
253180,0.306854248046875,0.965728759765625,-0.3602752685546875,0.2102903872728348,-0.4203104674816132,-0.326851099729538,33.66764831542969,97.87106323242188,-2.503890991210938
253181,0.278289794921875,0.94915771484375,-0.3721923828125,0.4879973828792572,-0.5619171261787415,-0.3037553727626801,33.62519836425781,97.79576110839844,-2.485992431640625
253182,0.278289794921875,0.94915771484375,-0.3721923828125,0.4879973828792572,-0.5619171261787415,-0.3037553727626801,33.62519836425781,97.79576110839844,-2.485992431640625
253183,0.2679901123046875,0.964996337890625,-0.32574462890625,0.5627826452255249,-0.601925253868103,-0.2985930740833282,33.53669738769531,97.63134765625,-2.519302368164062
253184,0.2679901123046875,0.964996337890625,-0.32574462890625,0.5627826452255249,-0.601925253868103,-0.2985930740833282,33.53669738769531,97.63134765625,-2.519302368164062
253185,0.217742919921875,1.0111083984375,-0.207244873046875,0.5666101574897766,-0.5937719941139221,-0.2646132707595825,33.5556640625,97.57835388183594,-2.881744384765625
253186,0.1613311767578125,1.0469970703125,-0.114990234375,0.5666101574897766,-0.5937719941139221,-0.2646132707595825,33.51171875,97.60993957519533,-2.85308837890625
253187,0.0913543701171875,1.099533081054688,-0.0205841064453125,0.5130305290222168,-0.5376607775688171,-0.2629602551460266,33.50555419921875,97.60208129882812,-2.794296264648438
253188,0.0211639404296875,1.173675537109375,0.0579833984375,0.4149604439735413,-0.5173789858818054,-0.282652735710144,33.47064208984375,97.71456909179688,-3.171829223632812
253189,-0.04559326171875,1.255172729492188,0.12445068359375,0.2575801312923431,-0.5460702776908875,-0.3197969198226929,33.44441223144531,97.80125427246094,-3.439849853515625
253190,-0.125091552734375,1.346160888671875,0.214874267578125,0.1015830859541893,-0.5777221918106079,-0.4073387384414673,33.43629455566406,97.74024963378906,-3.642822265625
253191,-0.15899658203125,1.386749267578125,0.317535400390625,0.082530565559864,-0.5419796705245972,-0.4474805593490601,33.39866638183594,97.82907104492188,-3.705764770507812
253192,-0.182830810546875,1.409027099609375,0.3939361572265625,0.1538934260606766,-0.4542583227157593,-0.3980264663696289,33.2388916015625,97.70433044433594,-3.69866943359375
253193,-0.199432373046875,1.435379028320312,0.4017791748046875,0.2975035905838013,-0.2806998491287231,-0.3354978263378143,33.29405212402344,97.75038146972656,-3.676177978515625
253194,-0.2193145751953125,1.44384765625,0.3193206787109375,0.4938882887363434,-0.1658542156219482,-0.298944890499115,33.14767456054688,97.64425659179688,-3.664794921875
253195,-0.225250244140625,1.351608276367188,0.232330322265625,0.7392743229866028,-0.1706878542900085,-0.2470819652080536,33.06031799316406,97.58485412597656,-3.747299194335938
253196,-0.1933135986328125,1.169815063476562,0.164825439453125,0.9897060394287108,-0.1990121752023697,-0.1798432618379593,33.11849975585938,97.54049682617188,-3.93505859375
253197,-0.147003173828125,1.013946533203125,0.0837860107421875,1.161373138427734,-0.2428946644067764,-0.1343013495206833,33.04763793945312,97.60548400878906,-4.217391967773438
253198,-0.1147308349609375,0.8811492919921875,0.0103607177734375,1.211835980415344,-0.3156146705150604,-0.1088705584406853,33.01951599121094,97.68527221679688,-4.658981323242188
253199,-0.0930328369140625,0.7737274169921875,-0.0653076171875,1.145574927330017,-0.4173871278762817,-0.0991398990154266,32.91282653808594,97.81349182128906,-5.099746704101562
253200,-0.064117431640625,0.7018890380859375,-0.111419677734375,0.989331066608429,-0.5302614569664001,-0.0945653840899467,32.98550415039062,97.8718719482422,-5.599700927734375
253201,-0.0343780517578125,0.684783935546875,-0.1230926513671875,0.616275429725647,-0.6392689347267151,-0.0767488405108451,32.96669006347656,98.01748657226562,-6.06201171875
253202,-0.0343780517578125,0.684783935546875,-0.1230926513671875,0.616275429725647,-0.6392689347267151,-0.0767488405108451,32.96669006347656,98.01748657226562,-6.06201171875
253203,0.0085906982421875,0.72686767578125,-0.1139373779296875,0.5072586536407471,-0.6925326585769653,-0.0912638679146766,32.99642944335938,98.16322326660156,-6.460678100585938
253204,0.0085906982421875,0.72686767578125,-0.1139373779296875,0.5072586536407471,-0.6925326585769653,-0.0912638679146766,32.99642944335938,98.16322326660156,-6.460678100585938
253205,0.0207977294921875,0.751953125,-0.0975189208984375,0.3787933886051178,-0.8816863298416138,-0.1166616380214691,33.03770446777344,98.2057647705078,-6.80999755859375
253206,0.0177764892578125,0.733642578125,-0.0695037841796875,0.3787933886051178,-0.8816863298416138,-0.1166616380214691,33.12857055664062,98.04817199707033,-6.89312744140625
253207,0.0110321044921875,0.6863250732421875,-0.029022216796875,0.3325806260108948,-0.9087325930595398,-0.1174722984433174,33.20896911621094,98.00253295898438,-6.9332275390625
253208,0.0110321044921875,0.6863250732421875,-0.029022216796875,0.3325806260108948,-0.9087325930595398,-0.1174722984433174,33.20896911621094,98.00253295898438,-6.9332275390625
253209,-0.0107879638671875,0.5428314208984375,0.0771026611328125,0.2445040196180344,-0.7906738519668579,-0.0711809694766998,33.28750610351562,98.07131958007812,-7.02728271484375
253210,-0.0052032470703125,0.477874755859375,0.119873046875,0.170334979891777,-0.652877151966095,-0.0106305396184325,33.37947082519531,98.03720092773438,-6.975555419921875
253211,0.0034027099609375,0.435455322265625,0.1484832763671875,0.0648074895143508,-0.5075798630714417,0.0540597736835479,33.41220092773438,98.03045654296876,-6.95294189453125
253212,0.0034027099609375,0.435455322265625,0.1484832763671875,0.0648074895143508,-0.5075798630714417,0.0540597736835479,33.41220092773438,98.03045654296876,-6.95294189453125
253213,0.0101470947265625,0.3859710693359375,0.1680755615234375,-0.1996926069259644,-0.2521768510341644,0.166319727897644,33.64457702636719,97.88435363769533,-6.814743041992188
253214,0.001556396484375,0.4173431396484375,0.181610107421875,-0.3126465976238251,-0.1543714702129364,0.2077039331197739,33.71827697753906,97.8585205078125,-6.673965454101562
253215,-0.0144195556640625,0.5114288330078125,0.2045745849609375,-0.4009468853473663,-0.0819089785218238,0.2488806545734406,33.8616943359375,97.83805847167967,-6.521942138671875
253216,-0.0363616943359375,0.6707000732421875,0.2453460693359375,-0.4995262026786804,-0.0483837760984897,0.2751751244068146,33.97454833984375,97.97393798828124,-6.4090576171875
253217,-0.0654449462890625,0.82769775390625,0.2975311279296875,-0.6344874501228333,-0.0284343045204877,0.2485181987285614,34.05360412597656,98.04258728027344,-6.310821533203125
253218,-0.0654449462890625,0.82769775390625,0.2975311279296875,-0.6344874501228333,-0.0284343045204877,0.2485181987285614,34.05360412597656,98.04258728027344,-6.310821533203125
253219,-0.1546630859375,1.140975952148438,0.4214630126953125,-1.098461747169495,-0.1775364428758621,0.0562640726566314,34.16744995117188,98.10427856445312,-5.551055908203125
253220,-0.2215728759765625,1.366683959960938,0.499481201171875,-1.382978200912476,-0.3093879520893097,-0.1151212602853775,34.26466369628906,98.18731689453124,-5.245010375976562
253221,-0.3174896240234375,1.676055908203125,0.4987030029296875,-1.756368517875671,-0.8098726272583008,-0.4506329596042633,34.20046997070312,98.2751922607422,-4.851776123046875
253222,-0.3866424560546875,1.810455322265625,0.399688720703125,-1.756368517875671,-0.8098726272583008,-0.4506329596042633,34.06304931640625,98.24201965332033,-4.288650512695312
253223,-0.2928314208984375,1.79046630859375,0.4007415771484375,-1.680075168609619,-1.17993426322937,-0.4452576339244843,33.90713500976562,97.98548889160156,-3.49969482421875
253224,-0.15252685546875,1.800323486328125,0.4245758056640625,-1.253207921981812,-0.8508557081222534,-0.2671243846416473,33.81645202636719,97.66354370117188,-2.572723388671875
253225,-0.069671630859375,1.719436645507812,0.2458953857421875,-0.5438891053199768,-0.0824424102902412,-0.1249190345406532,33.68955993652344,97.45338439941406,-1.631881713867188
253226,-0.021728515625,1.489425659179688,-0.002838134765625,-0.0174969676882028,0.3533263802528381,-0.0579123012721538,33.60650634765625,97.31993103027344,-0.940948486328125
253227,-0.0988922119140625,1.321563720703125,-0.1132049560546875,0.1644190400838852,0.3348621428012848,0.0203843675553798,33.45498657226562,97.309814453125,-0.5655517578125
253228,-0.13433837890625,1.205215454101562,-0.1626434326171875,0.2024599015712738,0.2313251048326492,0.1045442521572113,33.30641174316406,97.29136657714844,-0.4872589111328125
253229,-0.1224212646484375,1.098312377929688,-0.2404022216796875,0.2379790097475052,0.1750668883323669,0.188081219792366,33.21794128417969,97.31797790527344,-0.6606292724609375
253230,-0.1224212646484375,1.098312377929688,-0.2404022216796875,0.2379790097475052,0.1750668883323669,0.188081219792366,33.21794128417969,97.31797790527344,-0.6606292724609375
253231,-0.0829010009765625,0.9554443359375,-0.373077392578125,0.3145688474178314,0.2448486387729645,0.3286303579807281,33.34910583496094,97.30136108398438,-0.8996124267578125
253232,-0.0829010009765625,0.9554443359375,-0.373077392578125,0.3145688474178314,0.2448486387729645,0.3286303579807281,33.34910583496094,97.30136108398438,-0.8996124267578125
253233,-0.0421295166015625,0.8189849853515625,-0.4181365966796875,0.3180088698863983,0.3820554912090302,0.3190538883209229,33.50819396972656,97.46371459960938,-0.9111480712890624
253234,-0.0085296630859375,0.783416748046875,-0.4088897705078125,0.3078742027282715,0.4474499523639679,0.3123869299888611,33.60528564453125,97.48561096191406,-1.200546264648438
253235,0.0363006591796875,0.785888671875,-0.40191650390625,0.3343542814254761,0.5378711819648743,0.313512921333313,33.7647705078125,97.58049011230467,-1.36358642578125
253236,0.0836181640625,0.8333740234375,-0.39788818359375,0.4095462262630463,0.6350035667419434,0.3152056336402893,33.92698669433594,97.458740234375,-1.536895751953125
253237,0.114471435546875,0.8923492431640625,-0.3820648193359375,0.4846476316452026,0.7363097071647644,0.3040264546871185,33.92849731445312,97.57476806640624,-1.683090209960938
253238,0.1304931640625,0.9569549560546876,-0.3583526611328125,0.531841516494751,0.8396525979042053,0.2900432646274567,34.03739929199219,97.59332275390624,-2.09625244140625
253239,0.1240386962890625,1.018646240234375,-0.3273773193359375,0.563069760799408,0.9360821843147278,0.2710988819599152,34.08636474609375,97.71084594726562,-2.343673706054688
253240,0.1240386962890625,1.018646240234375,-0.3273773193359375,0.563069760799408,0.9360821843147278,0.2710988819599152,34.08636474609375,97.71084594726562,-2.343673706054688
253241,0.0577239990234375,1.16650390625,-0.2046966552734375,0.5193139910697937,1.098086595535278,0.1250316798686981,34.02922058105469,98.05046081542967,-3.101089477539062
253242,-0.0096893310546875,1.248001098632812,-0.1207275390625,0.5193139910697937,1.098086595535278,0.1250316798686981,34.10670471191406,98.22193908691406,-3.602432250976562
253243,-0.12567138671875,1.36865234375,-0.05047607421875,0.3694691359996796,0.9867752194404602,0.0433855578303337,34.06623840332031,98.43519592285156,-4.0238037109375
253244,-0.2123870849609375,1.411605834960938,0.05670166015625,0.1923116594552994,0.8625389933586121,-0.097202718257904,34.10346984863281,98.3582000732422,-4.38177490234375
253245,-0.1937713623046875,1.396591186523438,0.163330078125,0.0701394081115722,0.6571885347366333,-0.0803920477628707,34.01988220214844,98.37411499023438,-4.785430908203125
253246,-0.189117431640625,1.414398193359375,0.299163818359375,0.0827952772378921,0.6440019011497498,0.0003978762542828,34.00201416015625,98.41859436035156,-5.146408081054688
253247,-0.1533050537109375,1.375320434570312,0.35186767578125,0.1878138482570648,0.8089466094970703,0.129693016409874,33.87107849121094,98.38591003417967,-5.300506591796875
253248,-0.115142822265625,1.285446166992188,0.26947021484375,0.3163153529167175,0.6517577767372131,0.3129488527774811,33.87797546386719,98.31817626953124,-5.496795654296875
253249,-0.115142822265625,1.285446166992188,0.26947021484375,0.3163153529167175,0.6517577767372131,0.3129488527774811,33.87797546386719,98.31817626953124,-5.496795654296875
253250,-0.0587615966796875,1.118881225585938,0.1338348388671875,0.3163153529167175,0.6517577767372131,0.3129488527774811,33.89820861816406,98.31564331054688,-5.696624755859375
253251,0.004852294921875,0.8037567138671875,0.1616058349609375,0.3127304911613464,-0.2664825618267059,0.3668808043003082,34.30108642578125,98.17164611816406,-6.024978637695312
253252,0.004852294921875,0.8037567138671875,0.1616058349609375,0.3127304911613464,-0.2664825618267059,0.3668808043003082,34.30108642578125,98.17164611816406,-6.024978637695312
253253,0.0749359130859375,0.6367950439453125,0.215911865234375,0.2574163675308228,-0.714006245136261,0.3333278894424438,34.763916015625,98.17398071289062,-6.531631469726562
253254,0.1336669921875,0.5981597900390625,0.1719818115234375,0.2387412041425705,-0.87479168176651,0.3102326989173889,34.92422485351562,98.14724731445312,-6.64337158203125
253255,0.1867523193359375,0.6488037109375,0.1369476318359375,0.2927636802196503,-0.9503713846206664,0.3107123374938965,35.18275451660156,98.09292602539062,-6.671676635742188
253256,0.1804046630859375,0.77838134765625,0.1205291748046875,0.40937340259552,-0.8065915703773499,0.2635179162025452,35.32987976074219,98.19021606445312,-6.69451904296875
253257,0.137359619140625,0.8511505126953125,0.0841064453125,0.3216355443000793,-0.354568213224411,-0.0382310077548027,35.49179077148438,98.06224060058594,-6.636306762695312
253258,0.086517333984375,0.8263397216796875,0.039276123046875,0.3216355443000793,-0.354568213224411,-0.0382310077548027,35.65777587890625,98.07135009765624,-6.59930419921875
253259,0.05157470703125,0.7730255126953125,0.0,0.1521852761507034,-0.218715026974678,-0.0743160396814346,35.684326171875,98.18293762207033,-6.602508544921875
253260,0.0628204345703125,0.7592315673828125,-0.0159454345703125,0.0329686030745506,-0.1856098026037216,-0.0520690605044364,35.69940185546875,98.15652465820312,-6.603515625
253261,0.0815887451171875,0.777313232421875,-0.012908935546875,-0.0082155857235193,-0.1987666189670563,-0.0355670489370822,35.63919067382812,98.22120666503906,-6.71337890625
253262,0.0696868896484375,0.80157470703125,-0.016754150390625,0.0478823035955429,-0.0945166498422622,-0.1181806996464729,35.64918518066406,98.22706604003906,-6.707687377929688
253263,0.0238189697265625,0.816619873046875,-0.0545806884765625,0.0478823035955429,-0.0945166498422622,-0.1181806996464729,35.70881652832031,98.04937744140624,-6.639617919921875
253264,-0.0262298583984375,0.8167266845703125,-0.084228515625,0.0946213155984878,-0.0131565481424331,-0.1940496265888214,35.65769958496094,98.03822326660156,-6.507522583007812
253265,-0.0748291015625,0.797210693359375,-0.087646484375,0.0457666888833046,0.0802335888147354,-0.3336125910282135,35.66127014160156,98.0237274169922,-6.463623046875
253266,-0.1125640869140625,0.7643280029296875,-0.080474853515625,0.0457666888833046,0.0802335888147354,-0.3336125910282135,35.58238220214844,97.98687744140624,-6.379837036132812
253267,-0.1319732666015625,0.728851318359375,-0.057586669921875,-0.0240028034895658,0.1058667749166489,-0.3973934352397919,35.48818969726562,97.80311584472656,-6.32373046875
253268,-0.1527557373046875,0.7109222412109375,-0.0108795166015625,-0.1139422804117203,0.1690851598978043,-0.4511975347995758,35.32687377929688,97.94747924804688,-6.403839111328125
253269,-0.19012451171875,0.72119140625,0.0643310546875,-0.2203763127326965,0.2833827137947083,-0.4877334535121918,35.09805297851562,97.9628448486328,-6.6639404296875
253270,-0.2358551025390625,0.7593536376953125,0.1401214599609375,-0.3409011363983154,0.4421569108963013,-0.4905470907688141,34.88227844238281,98.058837890625,-6.762863159179688
253271,-0.2785186767578125,0.80126953125,0.20977783203125,-0.464297890663147,0.6375898122787476,-0.4809698164463043,34.69523620605469,97.96188354492188,-6.783126831054688
253272,-0.2785186767578125,0.80126953125,0.20977783203125,-0.464297890663147,0.6375898122787476,-0.4809698164463043,34.69523620605469,97.96188354492188,-6.783126831054688
253273,-0.338592529296875,0.9054718017578124,0.2769317626953125,-0.8368198275566101,0.9147947430610656,-0.4504790306091309,34.15315246582031,97.85342407226562,-6.596099853515625
253274,-0.36773681640625,0.9814453125,0.263458251953125,-0.8368198275566101,0.9147947430610656,-0.4504790306091309,33.84994506835938,97.80191040039062,-6.383575439453125
253275,-0.38494873046875,1.0675048828125,0.204498291015625,-0.9373764991760254,0.6802698969841003,-0.4109316170215607,33.56282043457031,97.7895050048828,-6.171249389648438
253276,-0.3586273193359375,1.153839111328125,0.1489105224609375,-0.9873022437095642,0.282843679189682,-0.3499619960784912,33.23866271972656,97.7222137451172,-6.005859375
253277,-0.2820281982421875,1.21246337890625,0.1336212158203125,-0.9410191774368286,-0.2124225199222565,-0.2175304591655731,32.93136596679688,97.61270141601562,-5.819839477539062
253278,-0.1731719970703125,1.265167236328125,0.131439208984375,-0.9410191774368286,-0.2124225199222565,-0.2175304591655731,32.72004699707031,97.594482421875,-5.299713134765625
253279,-0.0799102783203125,1.348159790039062,0.1131591796875,-0.8344940543174744,-0.1802944093942642,-0.1722364872694016,32.35604858398438,97.57623291015624,-4.77093505859375
253280,0.0290679931640625,1.375518798828125,0.052825927734375,-0.692853569984436,-0.0278683826327323,-0.1181894913315773,32.23243713378906,97.55679321289062,-4.416229248046875
253281,0.09100341796875,1.382659912109375,-0.03253173828125,-0.5604265332221985,0.1320107579231262,-0.1114524900913239,32.097412109375,97.39152526855467,-3.979843139648438
253282,0.09100341796875,1.382659912109375,-0.03253173828125,-0.5604265332221985,0.1320107579231262,-0.1114524900913239,32.097412109375,97.39152526855467,-3.979843139648438
253283,0.1468353271484375,1.251953125,-0.1668548583984375,-0.2990285158157349,0.0457357950508594,-0.1523929983377457,31.88285827636719,97.38288879394533,-3.013275146484375
253284,0.1794281005859375,1.183425903320312,-0.19091796875,-0.1491173058748245,-0.0750377625226974,-0.1596802026033401,31.77426147460938,97.30592346191406,-2.793289184570312
253285,0.2139434814453125,1.1190185546875,-0.230560302734375,0.2227582484483719,-0.2503576576709747,-0.1522191017866135,31.64173889160156,97.4367218017578,-2.76434326171875
253286,0.2404327392578125,1.044509887695312,-0.29364013671875,0.2227582484483719,-0.2503576576709747,-0.1522191017866135,31.48770141601562,97.3914794921875,-2.668411254882812
253287,0.244354248046875,0.987945556640625,-0.3549346923828125,0.3750079572200775,-0.3787675499916077,-0.1192701980471611,31.52168273925781,97.30722045898438,-2.47833251953125
253288,0.2306060791015625,0.9300537109375,-0.404327392578125,0.5301157832145691,-0.5013725757598877,-0.0867921561002731,31.52937316894531,97.26889038085938,-2.387054443359375
253289,0.208709716796875,0.8889007568359375,-0.4346771240234375,0.693297266960144,-0.5938766598701477,-0.0454574972391128,31.5318603515625,97.206787109375,-2.593765258789062
253290,0.17913818359375,0.8937835693359375,-0.4481353759765625,0.8695652484893799,-0.6294519901275635,-0.0040703755803406,31.57289123535156,97.15670776367188,-2.639068603515625
253291,0.1397247314453125,0.91668701171875,-0.4438934326171875,1.010968208312988,-0.608427107334137,0.0204924922436475,31.67341613769531,97.14694213867188,-2.760086059570312
253292,0.1397247314453125,0.91668701171875,-0.4438934326171875,1.010968208312988,-0.608427107334137,0.0204924922436475,31.67341613769531,97.14694213867188,-2.760086059570312
253293,0.0904388427734375,1.021652221679688,-0.384979248046875,1.081670045852661,-0.4423696994781494,0.0461840070784091,31.82423400878906,97.42961120605467,-3.33026123046875
253294,0.0785369873046875,1.090133666992188,-0.331695556640625,1.081670045852661,-0.4423696994781494,0.0461840070784091,31.92951965332031,97.36190795898438,-3.682952880859375
253295,0.052215576171875,1.171005249023438,-0.2675628662109375,1.058762311935425,-0.3705133497714996,0.0299435183405876,32.06004333496094,97.54086303710938,-4.10064697265625
253296,0.006134033203125,1.257400512695312,-0.172637939453125,1.020940899848938,-0.2766947150230408,0.0071716266684234,32.0948486328125,97.7767333984375,-4.558258056640625
253297,-0.0478515625,1.348098754882812,-0.067901611328125,0.9593265652656556,-0.1524598449468613,-0.0199942141771316,32.15129089355469,97.8466339111328,-5.100128173828125
253298,-0.095184326171875,1.427139282226562,0.0211181640625,0.859987735748291,-0.1025687158107758,-0.0621768198907375,32.17967224121094,98.05484008789062,-5.496841430664062
253299,-0.1297607421875,1.464675903320312,0.1134185791015625,0.7320758104324341,-0.1052755564451218,-0.0965537056326866,32.18278503417969,98.28436279296876,-5.919235229492188
253300,-0.1411285400390625,1.490692138671875,0.196502685546875,0.6025335192680359,-0.1293127089738846,-0.0830093994736671,32.17807006835938,98.37869262695312,-6.328765869140625
253301,-0.1285552978515625,1.504608154296875,0.230743408203125,0.508229672908783,-0.1501602083444595,-0.0675199180841445,32.10414123535156,98.38308715820312,-6.71795654296875
253302,-0.1285552978515625,1.504608154296875,0.230743408203125,0.508229672908783,-0.1501602083444595,-0.0675199180841445,32.10414123535156,98.38308715820312,-6.71795654296875
253303,-0.1678619384765625,1.43572998046875,0.1396484375,0.7957514524459839,-0.4370273947715759,-0.1899901777505875,32.18278503417969,98.40182495117188,-7.39178466796875
253304,-0.21600341796875,1.334426879882812,0.0968780517578125,0.7957514524459839,-0.4370273947715759,-0.1899901777505875,32.29183959960938,98.33992004394533,-7.484344482421875
253305,-0.2318115234375,1.203842163085938,0.0831756591796875,0.9723805785179138,-0.5640218257904053,-0.2484018206596375,32.34896850585938,98.27285766601562,-7.65875244140625
253306,-0.2206268310546875,1.03155517578125,0.04766845703125,1.086356401443481,-0.7035991549491882,-0.291133314371109,32.37246704101562,98.27719116210938,-8.025421142578125
253307,-0.2134246826171875,0.859222412109375,0.00714111328125,1.123473405838013,-0.880102276802063,-0.3012490570545197,32.37602233886719,98.33018493652344,-8.41314697265625
253308,-0.21697998046875,0.7250518798828125,0.0088653564453125,1.050542950630188,-1.006633281707764,-0.2578991949558258,32.3248291015625,98.1313018798828,-8.66571044921875
253309,-0.1919403076171875,0.636444091796875,0.0124664306640625,0.747849702835083,-0.984014332294464,-0.059642557054758,32.29673767089844,98.09368896484376,-9.09051513671875
253310,-0.1919403076171875,0.636444091796875,0.0124664306640625,0.747849702835083,-0.984014332294464,-0.059642557054758,32.29673767089844,98.09368896484376,-9.09051513671875
253311,-0.08233642578125,0.612518310546875,-0.097625732421875,0.648480236530304,-1.017047882080078,-0.0110273510217666,32.31344604492188,97.9361572265625,-9.733322143554688
253312,-0.058685302734375,0.62158203125,-0.120880126953125,0.5866163372993469,-1.034316062927246,0.0008993495139293,32.482177734375,97.78823852539062,-9.7850341796875
253313,-0.0675506591796875,0.6076507568359375,-0.109954833984375,0.5163419246673584,-0.947657346725464,-0.008470450527966,32.62361145019531,97.66131591796876,-9.932769775390623
253314,-0.0968780517578125,0.5806732177734375,-0.0818328857421875,0.3966735899448395,-0.7376722097396851,-0.0258252061903476,32.75741577148438,97.72032165527344,-10.21736145019531
253315,-0.1316375732421875,0.5527191162109375,-0.0765838623046875,0.2686935067176819,-0.5615459084510803,-0.0189486574381589,32.88591003417969,97.66761779785156,-10.101806640625
253316,-0.137908935546875,0.5289459228515625,-0.03955078125,0.17220638692379,-0.4900269508361816,-0.0081894863396883,32.95887756347656,97.49293518066406,-9.964157104492188
253317,-0.1112518310546875,0.4873199462890625,0.0345611572265625,0.0875354409217834,-0.4066724181175232,0.017966216430068,33.03182983398438,97.47331237792967,-10.04241943359375
253318,-0.0755157470703125,0.4382476806640625,0.0919189453125,-0.0013395700370892,-0.2792550623416901,0.0521598719060421,33.11238098144531,97.48391723632812,-10.00413513183594
253319,-0.0413665771484375,0.3932647705078125,0.121795654296875,-0.1088670939207077,-0.1490573883056641,0.1047112345695496,33.18376159667969,97.4679718017578,-9.9560546875
253320,-0.0208282470703125,0.3633575439453125,0.128631591796875,-0.2201856225728989,-0.0434558652341365,0.1546588242053986,33.23486328125,97.48092651367188,-9.902313232421877
253321,-0.006591796875,0.3377532958984375,0.1133270263671875,-0.3358312547206879,0.0028389296494424,0.2101308703422546,33.28260803222656,97.45889282226562,-9.783096313476562
253322,-0.006591796875,0.3377532958984375,0.1133270263671875,-0.3358312547206879,0.0028389296494424,0.2101308703422546,33.28260803222656,97.45889282226562,-9.783096313476562
253323,-0.0028533935546875,0.38433837890625,0.073699951171875,-0.5348796844482422,-0.0754497498273849,0.3209886848926544,33.69117736816406,97.47027587890624,-9.290740966796877
253324,0.001007080078125,0.503326416015625,0.0673370361328125,-0.6160080432891846,-0.1176190376281738,0.3557373285293579,33.75856018066406,97.53916931152344,-9.1898193359375
253325,0.022857666015625,0.73248291015625,0.0767059326171875,-0.706895649433136,-0.1095382124185562,0.3673937320709229,33.86238098144531,97.61874389648438,-8.975082397460938
253326,0.02288818359375,1.008468627929688,0.0947265625,-0.8462883830070496,-0.0230917371809482,0.3124785423278809,34.01359558105469,97.68453979492188,-8.672088623046875
253327,-0.02178955078125,1.255783081054688,0.0987701416015625,-1.00093686580658,0.0630700439214706,0.17364501953125,34.13359069824219,97.81776428222656,-8.243133544921875
253328,-0.0832977294921875,1.453323364257812,0.085418701171875,-1.119312524795532,0.0777344778180122,-0.0212469659745693,34.08323669433594,97.91876220703124,-7.860916137695312
253329,-0.1422576904296875,1.598464965820312,0.05548095703125,-1.180299401283264,-0.0433298982679843,-0.205283910036087,34.09060668945312,98.08824157714844,-7.440673828125
253330,-0.1889495849609375,1.689788818359375,0.08538818359375,-1.167996883392334,-0.2095335125923157,-0.3487196266651154,34.01431274414062,98.02273559570312,-6.797576904296875
253331,-0.2175750732421875,1.748001098632812,0.168914794921875,-1.132568120956421,-0.1967364996671677,-0.4416511654853821,33.88356018066406,97.84382629394533,-6.0748291015625
253332,-0.2383880615234375,1.790542602539062,0.15887451171875,-1.036822915077209,-0.0485097467899322,-0.5146955847740173,33.6226806640625,97.72691345214844,-5.579544067382812
253333,-0.2367095947265625,1.715621948242188,0.0561981201171875,-0.8415157794952393,0.0133991623297333,-0.5043087005615234,33.28337097167969,97.7931671142578,-5.152679443359375
253334,-0.223297119140625,1.548110961914062,-0.0510101318359375,-0.6119371652603149,0.024115988984704,-0.3806714415550232,33.054931640625,97.60546875,-4.740921020507812
253335,-0.1855621337890625,1.367996215820312,-0.157257080078125,-0.3959422707557678,0.0295070260763168,-0.2016569525003433,32.86378479003906,97.45799255371094,-4.351287841796875
253336,-0.14971923828125,1.230484008789062,-0.24017333984375,-0.2190114408731461,0.0761206001043319,-0.0573692843317985,32.64132690429688,97.37168884277344,-4.201614379882812
253337,-0.146087646484375,1.109085083007812,-0.2951202392578125,-0.1109291836619377,0.1611129939556122,0.0509923435747623,32.45500183105469,97.43955993652344,-4.006149291992188
253338,-0.1705780029296875,1.034469604492188,-0.3486785888671875,-0.0629755035042762,0.2367070764303207,0.1235813274979591,32.44538879394531,97.44175720214844,-3.918060302734375
253339,-0.1689605712890625,0.9617767333984376,-0.3854217529296875,-0.0434979423880577,0.2904528677463531,0.1909497082233429,32.45773315429688,97.41325378417967,-3.687469482421875
253340,-0.14483642578125,0.9144134521484376,-0.3949432373046875,-0.0033782199025154,0.3774738013744354,0.2513664662837982,32.38896179199219,97.44548034667967,-3.823333740234375
253341,-0.094329833984375,0.8835296630859375,-0.4066619873046875,0.0737477242946624,0.4937583208084106,0.3223308920860291,32.49896240234375,97.54582214355467,-3.838272094726562
253342,-0.032073974609375,0.878814697265625,-0.4126739501953125,0.1691730469465256,0.6136594414710999,0.382370263338089,32.52226257324219,97.68025207519533,-4.0482177734375
253343,0.035308837890625,0.8994140625,-0.412078857421875,0.2447314560413361,0.7234935164451599,0.4237509965896606,32.60137939453125,97.66902160644533,-4.166122436523438
253344,0.0970916748046875,0.9269866943359376,-0.402313232421875,0.285193920135498,0.8118441700935364,0.4472776353359222,32.74284362792969,97.76031494140624,-4.395950317382812
253345,0.1405792236328125,0.9722137451171876,-0.3785247802734375,0.2989044189453125,0.8807734251022339,0.463922917842865,32.85739135742188,97.83078002929688,-4.550003051757812
253346,0.158355712890625,1.035537719726562,-0.3495330810546875,0.2902805507183075,0.9588237404823304,0.4786579310894012,33.04080200195312,97.93869018554688,-4.589126586914062
253347,0.1522369384765625,1.116378784179688,-0.3135528564453125,0.2577415406703949,1.035459876060486,0.4690345823764801,33.12692260742188,97.93466186523438,-4.82147216796875
253348,0.1223297119140625,1.211135864257812,-0.2618865966796875,0.2031629681587219,1.069669246673584,0.4361935555934906,33.30471801757812,98.15274047851562,-5.212799072265625
253349,0.1223297119140625,1.211135864257812,-0.2618865966796875,0.2031629681587219,1.069669246673584,0.4361935555934906,33.30471801757812,98.15274047851562,-5.212799072265625
253350,-0.009307861328125,1.396072387695312,-0.070098876953125,0.0206293780356645,0.9275278449058532,0.3160905838012695,33.63104248046875,98.34564208984376,-5.98175048828125
253351,-0.0650177001953125,1.452880859375,0.06103515625,-0.0299560353159904,0.8045158982276917,0.2551899552345276,33.74430847167969,98.37396240234376,-6.223159790039062
253352,-0.0944671630859375,1.462799072265625,0.1479949951171875,-0.0373732037842273,0.6949947476387024,0.2091284543275833,33.84638977050781,98.37490844726562,-6.498016357421875
253353,-0.0963134765625,1.403076171875,0.1664581298828125,-0.0210994258522987,0.5411385893821716,0.2027831971645355,33.90861511230469,98.47877502441406,-6.633255004882812
253354,-0.065887451171875,1.287750244140625,0.1591339111328125,0.0152181014418602,0.3669918477535248,0.2284355759620667,33.94754028320312,98.4761962890625,-6.640533447265625
253355,-0.01617431640625,1.130523681640625,0.135772705078125,0.0442404299974441,0.1740801930427551,0.2451618164777756,34.08316040039062,98.25439453125,-6.697158813476562
253356,-0.01617431640625,1.130523681640625,0.135772705078125,0.0442404299974441,0.1740801930427551,0.2451618164777756,34.08316040039062,98.25439453125,-6.697158813476562
253357,0.0297393798828125,0.8422393798828125,0.1550445556640625,0.0679827779531478,-0.1752794086933136,0.2826908230781555,34.47593688964844,98.23074340820312,-6.889495849609375
253358,0.0315093994140625,0.7258453369140625,0.158355712890625,0.0504634417593479,-0.3033875823020935,0.2972100973129272,34.69151306152344,98.23640441894533,-7.000411987304688
253359,0.03167724609375,0.6312255859375,0.1380767822265625,0.0003179814375471,-0.4042888879776001,0.293261706829071,34.85029602050781,98.08688354492188,-7.019668579101562
253360,0.03753662109375,0.5719146728515625,0.1216888427734375,-0.0816847458481788,-0.4507357478141785,0.2849600911140442,35.01104736328125,98.1801300048828,-7.001754760742188
253361,0.03759765625,0.624420166015625,0.1463165283203125,-0.1720023900270462,-0.3638016581535339,0.2687917947769165,35.13780212402344,98.14263916015624,-6.917556762695312
253362,0.03759765625,0.624420166015625,0.1463165283203125,-0.1720023900270462,-0.3638016581535339,0.2687917947769165,35.13780212402344,98.14263916015624,-6.917556762695312
253363,-0.0471038818359375,0.8050079345703125,0.0761871337890625,-0.2436392903327942,-0.076573871076107,0.2500721514225006,35.57887268066406,97.94606018066406,-6.5096435546875
253364,-0.0471038818359375,0.8050079345703125,0.0761871337890625,-0.2436392903327942,-0.076573871076107,0.2500721514225006,35.57887268066406,97.94606018066406,-6.5096435546875
253365,0.02056884765625,0.753173828125,-0.06463623046875,-0.0600271187722683,-0.0158359538763761,0.2508790791034698,35.87234497070312,97.8931884765625,-6.298019409179688
253366,0.090057373046875,0.7369384765625,-0.1139373779296875,0.1864758729934692,0.1634216904640198,0.2792484164237976,35.97383117675781,97.79417419433594,-6.103897094726562
253367,0.1478424072265625,0.7329864501953125,-0.1422271728515625,0.1864758729934692,0.1634216904640198,0.2792484164237976,36.10946655273438,97.88412475585938,-6.02337646484375
253368,0.1478424072265625,0.7329864501953125,-0.1422271728515625,0.1864758729934692,0.1634216904640198,0.2792484164237976,36.10946655273438,97.88412475585938,-6.02337646484375
253369,0.14459228515625,0.7125244140625,-0.1694793701171875,0.2113939970731735,0.2328734546899796,0.1153417751193047,36.1849365234375,97.998046875,-6.3626708984375
253370,0.100311279296875,0.728302001953125,-0.1474151611328125,0.189543291926384,0.1570884138345718,-0.0054759918712079,36.23568725585938,98.1901397705078,-6.579910278320312
253371,0.052764892578125,0.7682647705078125,-0.1011962890625,0.1630882620811462,0.0744169726967811,-0.1268487572669983,36.15342712402344,98.18479919433594,-6.693572998046875
253372,0.052764892578125,0.7682647705078125,-0.1011962890625,0.1630882620811462,0.0744169726967811,-0.1268487572669983,36.15342712402344,98.18479919433594,-6.693572998046875
253373,-0.012664794921875,0.8237762451171875,0.0092926025390625,0.022434202954173,-0.0077197048813104,-0.3133808076381683,35.991943359375,98.3009033203125,-7.007049560546875
253374,-0.038421630859375,0.8500213623046875,0.0471954345703125,-0.076569877564907,-0.021367872133851,-0.3840728402137756,35.93186950683594,98.36198425292967,-7.123931884765625
253375,-0.0751953125,0.87548828125,0.07208251953125,-0.1513034999370575,-0.0109602389857173,-0.4353466629981995,35.70433044433594,98.36659240722656,-7.152923583984375
253376,-0.0751953125,0.87548828125,0.07208251953125,-0.1513034999370575,-0.0109602389857173,-0.4353466629981995,35.70433044433594,98.36659240722656,-7.152923583984375
253377,-0.1814422607421875,0.8683319091796875,0.11065673828125,-0.2021935731172562,0.0861458033323288,-0.5059958100318909,35.37359619140625,98.2606201171875,-6.938690185546875
253378,-0.2391510009765625,0.86187744140625,0.174652099609375,-0.2021935731172562,0.0861458033323288,-0.5059958100318909,35.16236877441406,98.23226928710938,-6.7813720703125
253379,-0.2976837158203125,0.862823486328125,0.2162017822265625,-0.2341131567955017,0.2518226504325867,-0.523174524307251,35.02838134765625,98.03744506835938,-6.5357666015625
253380,-0.3505859375,0.8475494384765625,0.2116241455078125,-0.2932425439357758,0.3815265893936157,-0.5351678133010864,34.83258056640625,98.1291046142578,-6.7025146484375
253381,-0.3818359375,0.8293914794921875,0.1797637939453125,-0.3671724200248718,0.4228122532367706,-0.519207239151001,34.51683044433594,98.20759582519533,-6.737640380859375
253382,-0.3818359375,0.8293914794921875,0.1797637939453125,-0.3671724200248718,0.4228122532367706,-0.519207239151001,34.51683044433594,98.20759582519533,-6.737640380859375
253383,-0.359222412109375,0.8724212646484375,0.1373291015625,-0.5182681679725647,0.2464713007211685,-0.3731861114501953,34.08836364746094,98.0456085205078,-6.6805419921875
253384,-0.2877197265625,0.9622344970703124,0.1461944580078125,-0.611344575881958,0.0929879993200302,-0.3060715198516846,33.84530639648438,98.01406860351562,-6.579940795898438
253385,-0.2119293212890625,1.074371337890625,0.171478271484375,-0.7445868253707886,-0.0231548547744751,-0.2610955238342285,33.58757019042969,97.9954833984375,-6.295333862304688
253386,-0.19140625,1.249420166015625,0.1504058837890625,-0.9318373799324036,-0.1128522455692291,-0.2342628389596939,33.34690856933594,97.99690246582033,-6.078018188476562
253387,-0.13824462890625,1.272598266601562,0.0719451904296875,-1.062835097312927,-0.3303656578063965,-0.2051379680633545,33.19625854492188,97.8441925048828,-5.694305419921875
253388,-0.0419769287109375,1.267105102539062,0.0240325927734375,-0.9409382343292236,-0.8126382827758789,-0.105041466653347,33.02619934082031,97.75447082519533,-5.414398193359375
253389,0.0693359375,1.307388305664062,0.0213470458984375,-0.6797659993171692,-0.7188753485679626,-0.1193146780133247,32.85415649414062,97.56509399414062,-4.854721069335938
253390,0.0693359375,1.307388305664062,0.0213470458984375,-0.6797659993171692,-0.7188753485679626,-0.1193146780133247,32.85415649414062,97.56509399414062,-4.854721069335938
253391,0.1772918701171875,1.298568725585938,-0.10260009765625,-0.3744180798530579,-0.5638734698295593,-0.1515506356954575,32.70211791992188,97.48463439941406,-3.7379150390625
253392,0.177825927734375,1.237838745117188,-0.154296875,-0.0989169925451278,-0.5312196612358093,-0.1890700608491898,32.59161376953125,97.55844116210938,-3.231216430664062
253393,0.1518402099609375,1.096511840820312,-0.1526336669921875,0.1214289590716362,-0.8597602844238281,-0.2478841096162796,32.52409362792969,97.5754852294922,-2.938247680664062
253394,0.125091552734375,0.9806976318359376,-0.0948333740234375,0.1214289590716362,-0.8597602844238281,-0.2478841096162796,32.55435180664062,97.50941467285156,-2.702194213867188
253395,0.0917816162109375,0.91156005859375,-0.09881591796875,0.207319900393486,-0.8569495677947998,-0.2613455951213837,32.57212829589844,97.51759338378906,-2.651809692382812
253396,0.0540618896484375,0.831085205078125,-0.1940155029296875,0.3797747492790222,-0.7846918702125549,-0.2699500024318695,32.55174255371094,97.45787048339844,-2.586517333984375
253397,0.001007080078125,0.777587890625,-0.306060791015625,0.5990892648696899,-0.7053446173667908,-0.2762073576450348,32.54782104492188,97.4317626953125,-2.40576171875
253398,0.001007080078125,0.777587890625,-0.306060791015625,0.5990892648696899,-0.7053446173667908,-0.2762073576450348,32.54782104492188,97.4317626953125,-2.40576171875
253399,-0.09466552734375,0.785247802734375,-0.42437744140625,0.8753397464752197,-0.6519777774810791,-0.2387795597314835,32.45973205566406,97.5090789794922,-2.507080078125
253400,-0.106903076171875,0.8460540771484375,-0.3698883056640625,0.789398729801178,-0.6685511469841003,-0.1836238950490952,32.53321838378906,97.59286499023438,-2.89630126953125
253401,-0.1025848388671875,0.9921112060546876,-0.2569427490234375,0.5495187640190125,-0.6448745727539062,-0.1489631086587906,32.54766845703125,97.69581604003906,-3.131378173828125
253402,-0.1025848388671875,0.9921112060546876,-0.2569427490234375,0.5495187640190125,-0.6448745727539062,-0.1489631086587906,32.54766845703125,97.69581604003906,-3.131378173828125
253403,-0.0858917236328125,1.324539184570312,0.022308349609375,-0.0369721315801143,-0.5487227439880371,-0.1392233967781067,32.453857421875,97.76939392089844,-3.428268432617188
253404,-0.0858917236328125,1.324539184570312,0.022308349609375,-0.0369721315801143,-0.5487227439880371,-0.1392233967781067,32.453857421875,97.76939392089844,-3.428268432617188
253405,-0.1107177734375,1.611175537109375,0.242034912109375,-0.0812109634280204,-0.8970671892166138,-0.3596921265125275,32.51057434082031,97.77720642089844,-3.28350830078125
253406,-0.1369171142578125,1.684677124023438,0.3351593017578125,-0.0812109634280204,-0.8970671892166138,-0.3596921265125275,32.67973327636719,97.662353515625,-3.0361328125
253407,-0.1573944091796875,1.7073974609375,0.41015625,0.1699200570583344,-0.954590380191803,-0.4421422481536865,32.73332214355469,97.55813598632812,-2.894363403320312
253408,-0.1573944091796875,1.7073974609375,0.41015625,0.1699200570583344,-0.954590380191803,-0.4421422481536865,32.73332214355469,97.55813598632812,-2.894363403320312
253409,-0.1548919677734375,1.66546630859375,0.3128509521484375,0.8989081978797913,-0.9219908714294434,-0.3623358607292175,32.69493103027344,97.52655029296876,-2.688552856445312
253410,-0.199920654296875,1.61175537109375,0.1853485107421875,1.189970374107361,-0.7664396166801453,-0.2034058570861816,32.6846923828125,97.39425659179688,-2.536026000976562
253411,-0.2616424560546875,1.441375732421875,-0.0281982421875,1.358902931213379,-0.5537468194961548,-0.0281983483582735,32.6158447265625,97.44532775878906,-2.502700805664062
253412,-0.2616424560546875,1.441375732421875,-0.0281982421875,1.358902931213379,-0.5537468194961548,-0.0281983483582735,32.6158447265625,97.44532775878906,-2.502700805664062
253413,-0.34283447265625,1.20123291015625,-0.195220947265625,1.338356137275696,-0.4436277747154236,-0.0599709264934063,32.62261962890625,97.32904052734376,-2.945205688476562
253414,-0.3688812255859375,0.9628143310546876,-0.288818359375,1.243720769882202,-0.4977836906909943,-0.0740345492959022,32.71133422851562,97.52890014648438,-3.6029052734375
253415,-0.281494140625,0.7994232177734375,-0.2388458251953125,0.9392135739326476,-0.7080817818641663,0.0007560714147984,32.83903503417969,97.82872009277344,-4.565780639648438
253416,-0.19158935546875,0.804290771484375,-0.182525634765625,0.8005640506744385,-0.818751871585846,0.0355473421514034,32.97381591796875,97.82012939453124,-4.908599853515625
253417,-0.1250762939453125,0.7889404296875,-0.1644134521484375,0.698524534702301,-0.886445939540863,0.0492280013859272,33.08903503417969,97.7036590576172,-5.24554443359375
253418,-0.1250762939453125,0.7889404296875,-0.1644134521484375,0.698524534702301,-0.886445939540863,0.0492280013859272,33.08903503417969,97.7036590576172,-5.24554443359375
253419,-0.052764892578125,0.7083587646484375,-0.1902313232421875,0.7152861952781677,-0.9143353700637816,0.1041801944375038,33.47853088378906,97.70156860351562,-5.55615234375
253420,-0.031097412109375,0.6825714111328125,-0.1797027587890625,0.7609391808509827,-0.7999102473258972,0.1324504464864731,33.75274658203125,97.66958618164062,-5.70904541015625
253421,-0.0123291015625,0.6658935546875,-0.1527862548828125,0.7922959923744202,-0.6467446684837341,0.1790778785943985,33.99789428710938,97.66607666015624,-5.656692504882812
253422,-0.0054473876953125,0.65020751953125,-0.125213623046875,0.7808513641357422,-0.5141525268554688,0.22508504986763,34.19960021972656,97.72552490234376,-5.905166625976562
253423,-0.005950927734375,0.6258392333984375,-0.10394287109375,0.7544612884521484,-0.4951927065849304,0.2829046845436096,34.44142150878906,97.70295715332033,-5.975753784179688
253424,0.01361083984375,0.5799407958984375,-0.0545806884765625,0.711903989315033,-0.5313640236854553,0.3455485999584198,34.62254333496094,97.65896606445312,-6.116241455078125
253425,0.0350189208984375,0.5101318359375,-0.00909423828125,0.6252132654190063,-0.5416603088378906,0.3967928886413574,34.86351013183594,97.6939697265625,-6.434768676757812
253426,0.0434417724609375,0.4285736083984375,0.0175628662109375,0.4976949989795685,-0.52951979637146,0.4299055635929108,35.14102172851562,97.65176391601562,-6.725662231445312
253427,0.0561370849609375,0.3506927490234375,0.01959228515625,0.3624341189861298,-0.5418534278869629,0.4544412791728973,35.39225769042969,97.8402862548828,-7.055755615234375
253428,0.0561370849609375,0.3506927490234375,0.01959228515625,0.3624341189861298,-0.5418534278869629,0.4544412791728973,35.39225769042969,97.8402862548828,-7.055755615234375
253429,0.11907958984375,0.26025390625,0.0240936279296875,0.1589803248643875,-0.6669780611991882,0.4694729447364807,35.87939453125,97.98915100097656,-7.250900268554688
253430,0.169647216796875,0.2660980224609375,0.0525054931640625,0.0987910255789756,-0.6930466294288635,0.4974268078804016,36.1180419921875,98.01943969726562,-7.28594970703125
253431,0.205902099609375,0.3551788330078125,0.094146728515625,0.020085560157895,-0.6456844806671143,0.526689350605011,36.32124328613281,98.16812133789062,-7.242156982421875
253432,0.2233734130859375,0.51947021484375,0.131378173828125,-0.1159255355596542,-0.5504868626594543,0.5058240294456482,36.60227966308594,98.34725952148438,-7.134735107421875
253433,0.2047882080078125,0.6967315673828125,0.1537933349609375,-0.5382509231567383,-0.2504564523696899,0.2750792503356934,36.91635131835938,98.41009521484376,-7.109619140625
253434,0.137847900390625,0.8812713623046875,0.159332275390625,-0.5382509231567383,-0.2504564523696899,0.2750792503356934,37.09744262695312,98.52424621582033,-6.954605102539062
253435,0.0329742431640625,1.043426513671875,0.1502685546875,-0.7392820715904236,-0.061438325792551,0.1136703714728355,37.32952880859375,98.64784240722656,-6.72119140625
253436,-0.0612640380859375,1.2291259765625,0.0899658203125,-0.8965196013450623,0.0538661628961563,-0.1161023676395416,37.40093994140625,98.7061004638672,-6.572036743164062
253437,-0.133758544921875,1.410491943359375,0.030914306640625,-0.9883978962898254,0.0438758432865142,-0.3833154439926147,37.45765686035156,98.81198120117188,-6.348922729492188
253438,-0.209991455078125,1.558380126953125,0.0274200439453125,-1.053099870681763,0.0193926058709621,-0.590112566947937,37.3726806640625,98.92730712890624,-5.9168701171875
253439,-0.3665008544921875,1.641952514648438,0.072662353515625,-1.119120240211487,0.1155319213867188,-0.5655736327171326,37.19638061523438,98.93930053710938,-5.574356079101562
253440,-0.497528076171875,1.710418701171875,0.0761566162109375,-1.133852243423462,0.2020846605300903,-0.1674686223268509,36.906494140625,98.84788513183594,-5.190216064453125
253441,-0.37109375,1.851577758789062,0.0377349853515625,-1.018857836723328,-0.1496363580226898,0.0079284971579909,36.6787109375,98.71945190429688,-4.775238037109375
253442,-0.2233428955078125,1.835403442382812,0.183197021484375,-0.8650040626525879,-0.2988375723361969,0.0010737865231931,36.60319519042969,98.5669403076172,-4.165924072265625
253443,-0.1202545166015625,1.580291748046875,0.205718994140625,-0.7216777801513672,0.0356786362826824,0.0197950098663568,36.55224609375,98.41188049316406,-3.580490112304688
253444,-0.0905914306640625,1.30487060546875,0.0086822509765625,-0.5828176140785217,0.2192420661449432,0.083830714225769,36.57225036621094,98.416748046875,-3.155502319335938
253445,-0.07000732421875,1.1259765625,-0.1327667236328125,-0.3175475895404816,0.1601201593875885,0.2544852793216705,36.41415405273438,98.35308837890624,-2.946136474609375
253446,-0.016754150390625,1.01007080078125,-0.191986083984375,-0.3175475895404816,0.1601201593875885,0.2544852793216705,36.47541809082031,98.24769592285156,-2.677841186523438
253447,0.038482666015625,0.921875,-0.2012939453125,-0.2180886566638947,0.1219248399138451,0.2842642068862915,36.4652099609375,98.28286743164062,-2.475128173828125
253448,0.038482666015625,0.921875,-0.2012939453125,-0.2180886566638947,0.1219248399138451,0.2842642068862915,36.4652099609375,98.28286743164062,-2.475128173828125
253449,0.084716796875,0.83343505859375,-0.203857421875,0.0341664925217628,0.2505182325839996,0.2989696562290192,36.68891906738281,98.23722839355467,-2.1710205078125
253450,0.079681396484375,0.8553466796875,-0.20428466796875,0.0341664925217628,0.2505182325839996,0.2989696562290192,36.81440734863281,98.23428344726562,-2.138626098632812
253451,0.0672607421875,0.9063568115234376,-0.1809539794921875,0.0937283560633659,0.298985093832016,0.29878830909729,36.91316223144531,98.2895965576172,-2.116744995117188
253452,0.0514678955078125,0.970428466796875,-0.13165283203125,0.1150858402252197,0.3571208417415619,0.2851632833480835,37.01531982421875,98.29197692871094,-2.208511352539062
253453,0.040740966796875,1.041595458984375,-0.076141357421875,0.1222199201583862,0.4497346580028534,0.2644502818584442,37.11805725097656,98.3451690673828,-2.251708984375
253454,0.0363311767578125,1.130661010742188,-0.0319671630859375,0.1336091905832291,0.5661816596984863,0.226823553442955,37.19682312011719,98.44569396972656,-2.259323120117188
253455,0.0292510986328125,1.226791381835938,-0.009765625,0.1674052327871323,0.6547943353652954,0.1617300361394882,37.32212829589844,98.4655303955078,-2.366073608398438
253456,0.0110626220703125,1.309860229492188,0.0040435791015625,0.1996238976716995,0.5661883354187012,-0.0151584465056657,37.33457946777344,98.42601013183594,-2.560592651367188
253457,0.0110626220703125,1.309860229492188,0.0040435791015625,0.1996238976716995,0.5661883354187012,-0.0151584465056657,37.33457946777344,98.42601013183594,-2.560592651367188
253458,-0.068023681640625,1.4229736328125,0.1514892578125,0.1211626455187798,0.4109864830970764,-0.0938612446188926,37.34147644042969,98.57733154296876,-2.86541748046875
253459,-0.092529296875,1.424560546875,0.23455810546875,0.003368632402271,0.3011899292469025,-0.1502174586057663,37.32109069824219,98.62840270996094,-3.01556396484375
253460,-0.092529296875,1.424560546875,0.23455810546875,0.003368632402271,0.3011899292469025,-0.1502174586057663,37.32109069824219,98.62840270996094,-3.01556396484375
253461,-0.0911712646484375,1.362091064453125,0.2166900634765625,-0.0436345636844635,0.2478321641683578,-0.143027201294899,37.27957153320312,98.56752014160156,-3.21429443359375
253462,-0.0654449462890625,1.21343994140625,0.096832275390625,0.0412374511361122,0.2034780234098434,-0.1036840528249741,37.249267578125,98.51971435546876,-3.461441040039062
253463,-0.0654754638671875,0.9821319580078124,0.0364990234375,0.273052841424942,-0.079107865691185,0.1391230076551437,37.2110595703125,98.41162109375,-3.495132446289062
253464,-0.0654754638671875,0.9821319580078124,0.0364990234375,0.273052841424942,-0.079107865691185,0.1391230076551437,37.2110595703125,98.41162109375,-3.495132446289062
253465,-0.0584564208984375,0.91070556640625,0.105010986328125,0.273052841424942,-0.079107865691185,0.1391230076551437,37.10908508300781,98.43008422851562,-3.458892822265625
253466,-0.021820068359375,0.8371734619140625,0.12109375,0.0941278263926506,-0.2250642776489258,0.1898631453514099,37.33482360839844,98.12330627441406,-3.40740966796875
253467,0.000396728515625,0.8165283203125,0.045989990234375,0.0356035344302654,-0.1811391562223434,0.2119830995798111,37.36090087890625,98.25912475585938,-3.49481201171875
253468,0.03240966796875,0.7901611328125,-0.0894927978515625,0.078271634876728,-0.1472395211458206,0.2347515225410461,37.58897399902344,98.12930297851562,-3.400924682617188
253469,0.0692596435546875,0.7566986083984375,-0.198974609375,0.2069382667541504,-0.1193639412522316,0.2652026414871216,37.72775268554688,98.0906219482422,-3.461090087890625
253470,0.09124755859375,0.7349700927734375,-0.2257232666015625,0.3388278484344482,-0.083415001630783,0.2798478901386261,37.800048828125,98.09747314453124,-3.690689086914062
253471,0.0895233154296875,0.7220306396484375,-0.1761016845703125,0.3722340166568756,-0.0557711198925972,0.272607296705246,37.92318725585938,98.17155456542967,-3.850662231445312
253472,0.0895233154296875,0.7220306396484375,-0.1761016845703125,0.3722340166568756,-0.0557711198925972,0.272607296705246,37.92318725585938,98.17155456542967,-3.850662231445312
253473,0.125579833984375,0.692596435546875,-0.1361083984375,0.1998510658740997,-0.0764407142996788,0.2607825994491577,38.1556396484375,98.22100830078124,-4.01629638671875
253474,0.1671905517578125,0.69281005859375,-0.173553466796875,0.1378595978021622,-0.1476874649524689,0.2708940804004669,38.32435607910156,98.1995086669922,-4.115524291992188
253475,0.202606201171875,0.7018585205078125,-0.200164794921875,0.1164685562252998,-0.2325751930475235,0.2855094969272614,38.40406799316406,98.1233367919922,-4.12249755859375
253476,0.22064208984375,0.7251739501953125,-0.2135772705078125,0.1240870580077171,-0.3123009204864502,0.2741034626960754,38.50608825683594,98.12907409667967,-4.124465942382812
253477,0.2130889892578125,0.7700653076171875,-0.2066650390625,0.1248135715723038,-0.3756660223007202,0.2166492193937302,38.64515686035156,98.26145935058594,-4.356246948242188
253478,0.1695404052734375,0.8221282958984375,-0.1593780517578125,0.0994083434343338,-0.3963497281074524,0.1115030944347382,38.72767639160156,98.25070190429688,-4.46820068359375
253479,0.0827484130859375,0.854888916015625,-0.077423095703125,0.0430377498269081,-0.3813337683677673,0.0203681215643882,38.91357421875,98.37342834472656,-4.49481201171875
253480,0.0827484130859375,0.854888916015625,-0.077423095703125,0.0430377498269081,-0.3813337683677673,0.0203681215643882,38.91357421875,98.37342834472656,-4.49481201171875
253481,-0.0103302001953125,0.8612060546875,-0.0165863037109375,-0.0133054191246628,-0.3661287128925323,-0.0485379733145237,39.01573181152344,98.4043426513672,-4.549072265625
253482,-0.160400390625,0.837554931640625,0.07177734375,-0.0531915836036205,-0.3136111795902252,-0.1262306421995163,39.13258361816406,98.4539794921875,-4.531082153320312
253483,-0.20513916015625,0.80255126953125,0.1151275634765625,-0.0431605204939842,-0.2289221286773682,-0.1384979635477066,39.20266723632812,98.51170349121094,-4.3311767578125
253484,-0.20513916015625,0.80255126953125,0.1151275634765625,-0.0431605204939842,-0.2289221286773682,-0.1384979635477066,39.20266723632812,98.51170349121094,-4.3311767578125
253485,-0.2484283447265625,0.7573089599609375,0.150634765625,-0.0498818047344684,-0.1253888159990311,-0.1239807978272438,39.3096923828125,98.5205078125,-4.27093505859375
253486,-0.2906341552734375,0.71337890625,0.1639251708984375,-0.1145683899521828,-0.0563191995024681,-0.1336582005023956,39.34388732910156,98.41041564941406,-4.122406005859375
253487,-0.36456298828125,0.636077880859375,0.1791534423828125,-0.1625380516052246,-0.103268601000309,-0.1517112255096436,39.36650085449219,98.50372314453124,-4.195571899414062
253488,-0.36456298828125,0.636077880859375,0.1791534423828125,-0.1625380516052246,-0.103268601000309,-0.1517112255096436,39.36650085449219,98.50372314453124,-4.195571899414062
253489,-0.3805084228515625,0.6360015869140625,0.19427490234375,-0.2234168499708176,-0.1376766413450241,-0.1459084749221802,39.27166748046875,98.36141967773438,-4.005844116210938
253490,-0.286376953125,0.7894744873046875,0.196441650390625,-0.4644270539283752,0.0306500550359487,-0.1408482044935226,39.19776916503906,98.52850341796876,-3.663742065429688
253491,-0.249847412109375,0.8805999755859375,0.156219482421875,-0.6193351745605469,0.0697492510080337,-0.1758442670106888,39.04209899902344,98.44662475585938,-3.582138061523438
253492,-0.249847412109375,0.8805999755859375,0.156219482421875,-0.6193351745605469,0.0697492510080337,-0.1758442670106888,39.04209899902344,98.44662475585938,-3.582138061523438
253493,-0.1788787841796875,1.049850463867188,0.167449951171875,-0.870973527431488,0.1083373948931694,-0.2161805033683777,38.78614807128906,98.48762512207033,-3.073822021484375
253494,-0.13470458984375,1.136077880859375,0.15106201171875,-0.954002857208252,0.1251296848058701,-0.2289405018091202,38.66650390625,98.35777282714844,-2.725112915039062
253495,-0.100677490234375,1.2186279296875,0.1263885498046875,-1.008241415023804,0.0505404062569141,-0.2580581903457642,38.46421813964844,98.2548370361328,-2.239425659179688
253496,-0.07830810546875,1.321060180664062,0.1174163818359375,-1.026353240013123,-0.0009701895760372,-0.2823848128318787,38.21279907226562,98.22732543945312,-1.87298583984375
253497,-0.07830810546875,1.321060180664062,0.1174163818359375,-1.026353240013123,-0.0009701895760372,-0.2823848128318787,38.21279907226562,98.22732543945312,-1.87298583984375
253498,0.0196685791015625,1.487777709960938,-0.0035858154296875,-0.916042983531952,-0.029014341533184,-0.3178189694881439,37.7510986328125,98.0018310546875,-0.8901824951171875
253499,0.0993499755859375,1.392929077148438,-0.0788726806640625,-0.7616097331047058,-0.0010636665392667,-0.316801130771637,37.49746704101562,97.91598510742188,-0.4246368408203125
253500,0.0993499755859375,1.392929077148438,-0.0788726806640625,-0.7616097331047058,-0.0010636665392667,-0.316801130771637,37.49746704101562,97.91598510742188,-0.4246368408203125
253501,0.140167236328125,1.286834716796875,-0.1520843505859375,-0.5813169479370117,-0.0308300834149122,-0.3088846206665039,37.2884521484375,97.78631591796876,0.1003875732421875
253502,0.202728271484375,1.073440551757812,-0.24267578125,-0.3472168147563934,-0.2271724343299866,-0.3507569432258606,36.91853332519531,97.7310028076172,0.5954132080078125
253503,0.2354583740234375,1.025894165039062,-0.311065673828125,-0.2685238718986511,-0.4065001010894775,-0.3770064115524292,36.686279296875,97.66950988769533,1.010696411132812
253504,0.2354583740234375,1.025894165039062,-0.311065673828125,-0.2685238718986511,-0.4065001010894775,-0.3770064115524292,36.686279296875,97.66950988769533,1.010696411132812
253505,0.2747650146484375,1.00738525390625,-0.36480712890625,-0.1671122908592224,-0.6124886870384216,-0.3966972827911377,36.62745666503906,97.62345886230467,1.152511596679688
253506,0.2928924560546875,1.076034545898438,-0.3536224365234375,0.1269464939832687,-0.8583815693855286,-0.412592351436615,36.38920593261719,97.16233825683594,1.829116821289062
253507,0.2316741943359375,1.123001098632812,-0.329925537109375,0.2745772302150726,-0.8592167496681213,-0.4130480289459229,36.44239807128906,97.130859375,1.900115966796875
253508,0.2316741943359375,1.123001098632812,-0.329925537109375,0.2745772302150726,-0.8592167496681213,-0.4130480289459229,36.44239807128906,97.130859375,1.900115966796875
253509,0.1396331787109375,1.189056396484375,-0.3443756103515625,0.4014877676963806,-0.8557037711143494,-0.4170587360858917,36.2760009765625,97.12074279785156,1.866363525390625
253510,-0.0560150146484375,1.265487670898438,-0.390533447265625,0.5644521713256836,-0.9073056578636168,-0.3728334903717041,36.18313598632812,97.06439208984376,1.646453857421875
253511,-0.0831146240234375,1.266067504882812,-0.344635009765625,0.6284860372543335,-0.8605459332466125,-0.3161971271038055,36.13815307617188,97.12945556640624,1.50909423828125
253512,-0.0831146240234375,1.266067504882812,-0.344635009765625,0.6284860372543335,-0.8605459332466125,-0.3161971271038055,36.13815307617188,97.12945556640624,1.50909423828125
253513,-0.0543212890625,1.259552001953125,-0.21630859375,0.4715637862682343,-0.7362471222877502,-0.0943802967667579,36.23393249511719,97.29460144042967,1.336105346679688
253514,-0.0196990966796875,1.289703369140625,-0.0348358154296875,0.3399229347705841,-0.7445346117019653,-0.0068895975127816,36.2548828125,97.29278564453124,1.152969360351562
253515,-0.0284271240234375,1.334457397460938,0.170867919921875,0.2822487354278564,-0.7409515976905823,0.0539774820208549,36.38381958007812,97.24691772460938,0.9635162353515624
253516,-0.0775299072265625,1.384567260742188,0.3414306640625,0.2285002917051315,-0.7299588918685913,0.0779898762702941,36.47892761230469,97.3335418701172,0.826751708984375
253517,-0.0775299072265625,1.384567260742188,0.3414306640625,0.2285002917051315,-0.7299588918685913,0.0779898762702941,36.47892761230469,97.3335418701172,0.826751708984375
253518,-0.1583709716796875,1.5125732421875,0.4443511962890625,0.2486926317214966,-0.6045995950698853,0.0547988004982471,36.96270751953125,97.3323211669922,0.790985107421875
253519,-0.1472320556640625,1.5462646484375,0.4088134765625,0.3358752131462097,-0.5490292906761169,0.0158580597490072,37.14337158203125,97.31649780273438,0.7572479248046875
253520,-0.1472320556640625,1.5462646484375,0.4088134765625,0.3358752131462097,-0.5490292906761169,0.0158580597490072,37.14337158203125,97.31649780273438,0.7572479248046875
253521,-0.1215057373046875,1.470611572265625,0.344390869140625,0.4751492142677307,-0.4355844855308533,-0.1016888096928596,37.27552795410156,97.32022094726562,0.697265625
253522,-0.1197967529296875,1.258392333984375,0.2075042724609375,0.6326879858970642,-0.3080718219280243,-0.201715812087059,37.28297424316406,97.34890747070312,0.52227783203125
253523,-0.121368408203125,0.8539886474609375,-0.060821533203125,0.8040392398834229,-0.393687903881073,-0.243075504899025,37.36347961425781,97.57398986816406,0.134552001953125
253524,-0.121368408203125,0.8539886474609375,-0.060821533203125,0.8040392398834229,-0.393687903881073,-0.243075504899025,37.36347961425781,97.57398986816406,0.134552001953125
253525,-0.05816650390625,0.7259368896484375,-0.0730438232421875,0.7526023983955383,-0.5964599251747131,-0.1906168162822723,37.2901611328125,97.76315307617188,-0.09088134765625
253526,0.0489501953125,0.6083831787109375,-0.0309906005859375,0.5343185067176819,-0.8513670563697815,-0.0821920782327652,37.33909606933594,97.90560913085938,-0.7304534912109375
253527,0.081787109375,0.6057891845703125,-0.0603790283203125,0.4240772426128387,-0.918731451034546,-0.0484769865870475,37.44534301757812,97.87994384765624,-0.8924560546875
253528,0.081787109375,0.6057891845703125,-0.0603790283203125,0.4240772426128387,-0.918731451034546,-0.0484769865870475,37.44534301757812,97.87994384765624,-0.8924560546875
253529,0.0919342041015625,0.6320953369140625,-0.09320068359375,0.354827344417572,-0.9947343468666076,-0.0573567673563957,37.54556274414062,97.93585205078124,-1.038497924804688
253530,0.072906494140625,0.6740875244140625,-0.04608154296875,0.3030283153057098,-1.048654556274414,-0.1535237729549408,37.69351196289062,98.0348663330078,-1.043533325195312
253531,0.0366973876953125,0.675048828125,0.0214996337890625,0.2486487030982971,-0.9890559315681458,-0.1619614660739899,37.79139709472656,98.09518432617188,-1.063339233398438
253532,0.0366973876953125,0.675048828125,0.0214996337890625,0.2486487030982971,-0.9890559315681458,-0.1619614660739899,37.79139709472656,98.09518432617188,-1.063339233398438
253533,0.0091705322265625,0.681549072265625,0.0996856689453125,0.1653290390968323,-0.905867338180542,-0.1337428838014603,37.90420532226562,98.06721496582033,-0.95361328125
253534,-0.011505126953125,0.690521240234375,0.2556304931640625,-0.1121004372835159,-0.5823733806610107,-0.0566129460930824,38.10687255859375,98.11408996582033,-0.952606201171875
253535,-0.0397186279296875,0.705596923828125,0.3055572509765625,-0.2814391255378723,-0.3661332428455353,-0.0245303772389888,38.34550476074219,98.04544067382812,-0.833251953125
253536,-0.0397186279296875,0.705596923828125,0.3055572509765625,-0.2814391255378723,-0.3661332428455353,-0.0245303772389888,38.34550476074219,98.04544067382812,-0.833251953125
253537,-0.1172637939453125,0.712554931640625,0.2799530029296875,-0.5562582015991211,-0.1890410333871841,-0.0173931047320365,38.68641662597656,98.01390075683594,-0.647186279296875
253538,-0.158477783203125,0.6945037841796875,0.231658935546875,-0.5861707925796509,-0.3972514867782593,-0.0476884245872497,38.79658508300781,97.747314453125,-0.2899322509765625
253539,-0.1968231201171875,0.6568145751953125,0.2363433837890625,-0.4890139102935791,-0.7619476914405823,-0.0640540868043899,38.93104553222656,97.709228515625,0.241485595703125
253540,-0.1968231201171875,0.6568145751953125,0.2363433837890625,-0.4890139102935791,-0.7619476914405823,-0.0640540868043899,38.93104553222656,97.709228515625,0.241485595703125
253541,-0.177764892578125,0.72174072265625,0.3714752197265625,-0.2585969269275665,-0.9692132472991944,0.0045569348149001,39.21543884277344,97.5839385986328,0.4641265869140625
253542,-0.1616973876953125,0.818145751953125,0.339996337890625,-0.2796577513217926,-0.9026533961296082,0.0048903627321124,39.38920593261719,97.5937042236328,0.7566680908203125
253543,-0.1531219482421875,0.9020843505859376,0.27203369140625,-0.3850022852420807,-0.9097638130187988,-0.0662575811147689,39.42842102050781,97.59060668945312,1.110366821289062
253544,-0.1531219482421875,0.9020843505859376,0.27203369140625,-0.3850022852420807,-0.9097638130187988,-0.0662575811147689,39.42842102050781,97.59060668945312,1.110366821289062
253545,-0.2100372314453125,1.088607788085938,0.1393585205078125,-0.5444529056549072,-0.9476432800292968,-0.3040877282619476,39.56535339355469,97.63226318359376,1.536392211914062
253546,-0.2805328369140625,1.242080688476562,0.03045654296875,-0.4732431769371033,-0.7782265543937683,-0.357823371887207,39.52571105957031,97.71023559570312,1.78826904296875
253547,-0.3574371337890625,1.439895629882812,-0.076446533203125,-0.3423821032047272,-0.670808732509613,-0.3865548968315125,39.45491027832031,97.77064514160156,2.102005004882812
253548,-0.3518524169921875,1.442230224609375,-0.041778564453125,-0.2414810657501221,-0.4406886994838715,-0.3424963653087616,39.34056091308594,97.625244140625,2.4879150390625
253549,-0.3518524169921875,1.442230224609375,-0.041778564453125,-0.2414810657501221,-0.4406886994838715,-0.3424963653087616,39.34056091308594,97.625244140625,2.4879150390625
253550,-0.3432464599609375,1.360549926757812,0.00262451171875,-0.246684342622757,-0.0351430736482143,-0.2057582139968872,39.14863586425781,97.508056640625,2.952484130859375
253551,-0.362396240234375,1.29656982421875,0.0594635009765625,-0.2147671580314636,0.0401088036596775,-0.1872758865356445,39.00590515136719,97.551025390625,3.020294189453125
253552,-0.363861083984375,1.219329833984375,0.0533599853515625,-0.1476712226867676,0.1562380790710449,-0.1492059975862503,38.91773986816406,97.39680480957033,3.146591186523438
253553,-0.363861083984375,1.219329833984375,0.0533599853515625,-0.1476712226867676,0.1562380790710449,-0.1492059975862503,38.91773986816406,97.39680480957033,3.146591186523438
253554,-0.33551025390625,1.131729125976562,-0.0137939453125,-0.0988762453198432,0.1894551515579224,-0.1190254539251328,38.83438110351562,97.58758544921876,3.216766357421875
253555,-0.255706787109375,0.9926605224609376,-0.1114501953125,0.0323957577347755,0.3400872647762299,-0.1005897223949432,38.6719970703125,97.4539031982422,3.291015625
253556,-0.255706787109375,0.9926605224609376,-0.1114501953125,0.0323957577347755,0.3400872647762299,-0.1005897223949432,38.6719970703125,97.4539031982422,3.291015625
253557,-0.2077484130859375,0.940277099609375,-0.1770782470703125,0.1323322057723999,0.4056777358055115,-0.0499015115201473,38.55409240722656,97.46647644042967,3.247116088867188
253558,-0.141693115234375,0.8350982666015625,-0.24993896484375,0.2591516673564911,0.4848005175590515,0.0667228400707244,38.36238098144531,97.43467712402344,2.986221313476562
253559,-0.1168975830078125,0.814361572265625,-0.285003662109375,0.322485625743866,0.5131291151046753,0.1117987036705017,38.2574462890625,97.41758728027344,2.848098754882812
253560,-0.1168975830078125,0.814361572265625,-0.285003662109375,0.322485625743866,0.5131291151046753,0.1117987036705017,38.2574462890625,97.41758728027344,2.848098754882812
253561,-0.086822509765625,0.841064453125,-0.2850189208984375,0.3855141401290894,0.6135715246200562,0.1372260302305222,38.24765014648438,97.39794921875,2.444366455078125
253562,-0.085662841796875,0.901214599609375,-0.2520599365234375,0.3213503360748291,0.6777233481407166,0.1340552717447281,38.15101623535156,97.37190246582033,2.291702270507812
253563,-0.090179443359375,0.983551025390625,-0.220458984375,0.1950557827949524,0.6965580582618713,0.1113145425915718,38.11517333984375,97.36952209472656,2.028411865234375
253564,-0.090179443359375,0.983551025390625,-0.220458984375,0.1950557827949524,0.6965580582618713,0.1113145425915718,38.11517333984375,97.36952209472656,2.028411865234375
253565,-0.0815887451171875,1.073028564453125,-0.183502197265625,0.0698557794094085,0.6378462314605713,0.0974186956882476,38.16635131835938,97.48820495605467,2.029342651367188
253566,-0.046600341796875,1.254623413085938,-0.02215576171875,-0.0079766996204853,0.4662854075431824,0.0821015238761901,38.08615112304688,97.40750122070312,1.8707275390625
253567,-0.0373687744140625,1.327117919921875,0.048919677734375,0.0692871958017349,0.4535802602767944,0.0740923359990119,38.04937744140625,97.36705017089844,1.994735717773438
253568,-0.0373687744140625,1.327117919921875,0.048919677734375,0.0692871958017349,0.4535802602767944,0.0740923359990119,38.04937744140625,97.36705017089844,1.994735717773438
253569,-0.0179901123046875,1.34368896484375,0.0866851806640625,0.3004578351974487,0.4686740040779114,0.0738968625664711,37.91664123535156,97.46243286132812,1.610366821289062
253570,0.0128173828125,1.283950805664062,0.070831298828125,0.4326803088188171,0.3947222828865051,0.1026752442121506,37.89674377441406,97.53651428222656,1.421890258789062
253571,0.0655517578125,1.174468994140625,0.05694580078125,0.5442819595336914,0.2328010201454163,0.1602256298065186,37.91705322265625,97.53443908691406,1.450393676757812
253572,0.109130859375,1.086135864257812,0.0550384521484375,0.5230064988136292,-0.2632481455802917,0.2605612874031067,37.98069763183594,97.73687744140624,0.988983154296875
253573,0.109130859375,1.086135864257812,0.0550384521484375,0.5230064988136292,-0.2632481455802917,0.2605612874031067,37.98069763183594,97.73687744140624,0.988983154296875
253574,0.1540985107421875,0.887481689453125,0.09332275390625,0.4222146272659302,-0.5498101115226746,0.2943687736988068,37.98310852050781,97.97119140625,0.17626953125
253575,0.16943359375,0.810791015625,0.1478729248046875,0.2964481711387634,-0.7354266047477722,0.3087975084781647,38.14222717285156,97.89759826660156,-0.010711669921875
253576,0.16943359375,0.810791015625,0.1478729248046875,0.2964481711387634,-0.7354266047477722,0.3087975084781647,38.14222717285156,97.89759826660156,-0.010711669921875
253577,0.17724609375,0.7647552490234375,0.1966705322265625,0.1816584765911102,-0.7862372994422913,0.313249796628952,38.34100341796875,97.93923950195312,-0.1397857666015625
253578,0.13629150390625,0.8444976806640625,0.19207763671875,0.0234781615436077,-0.5514639616012573,0.189858615398407,38.98443603515625,98.0358428955078,-0.1125946044921875
253579,0.0707244873046875,0.946380615234375,0.122222900390625,-0.0040978058241307,-0.4642590284347534,0.1027367636561394,39.20674133300781,98.09535217285156,0.0106353759765625
253580,0.0707244873046875,0.946380615234375,0.122222900390625,-0.0040978058241307,-0.4642590284347534,0.1027367636561394,39.20674133300781,98.09535217285156,0.0106353759765625
253581,-0.0154266357421875,0.9986572265625,0.0399169921875,-0.0072805495001375,-0.4754559993743896,0.0646828562021255,39.38262939453125,98.01077270507812,-0.033233642578125
253582,-0.06890869140625,0.99853515625,-0.08294677734375,0.0168687291443347,-0.5946058630943298,0.0026581010315567,39.61637878417969,98.17106628417967,0.127410888671875
253583,-0.0689697265625,0.9928131103515624,-0.08673095703125,0.0340330675244331,-0.5514690279960632,0.0024008397012948,39.75758361816406,98.04739379882812,0.40887451171875
253584,-0.0959320068359375,0.961181640625,-0.0623016357421875,0.0479379631578922,-0.4509349465370178,-0.0002503371506463,39.81814575195312,98.00270080566406,0.4721221923828125
253585,-0.0959320068359375,0.961181640625,-0.0623016357421875,0.0479379631578922,-0.4509349465370178,-0.0002503371506463,39.81814575195312,98.00270080566406,0.4721221923828125
253586,-0.1417694091796875,0.9365234375,0.0180511474609375,0.0203095320612192,-0.3827614784240723,-0.0396289005875587,39.93846130371094,98.07264709472656,0.32525634765625
253587,-0.225982666015625,0.9425811767578124,0.217437744140625,-0.1912080347537994,-0.0569953769445419,-0.25426185131073,40.0299072265625,97.94859313964844,0.4021148681640625
253588,-0.225982666015625,0.9425811767578124,0.217437744140625,-0.1912080347537994,-0.0569953769445419,-0.25426185131073,40.0299072265625,97.94859313964844,0.4021148681640625
253589,-0.27569580078125,0.94000244140625,0.2427825927734375,-0.2836580872535706,0.1229216605424881,-0.3582545518875122,40.06307983398438,97.89944458007812,0.474334716796875
253590,-0.3431549072265625,0.9251556396484376,0.2317657470703125,-0.3083977699279785,0.2090520113706589,-0.4078298211097717,40.07698059082031,98.0091552734375,0.366973876953125
253591,-0.418914794921875,0.851898193359375,0.171295166015625,-0.1440796703100204,-0.1016134396195412,-0.3158895075321198,39.78730773925781,97.6900634765625,0.801910400390625
253592,-0.418914794921875,0.851898193359375,0.171295166015625,-0.1440796703100204,-0.1016134396195412,-0.3158895075321198,39.78730773925781,97.6900634765625,0.801910400390625
253593,-0.3860626220703125,0.7926025390625,0.1345977783203125,-0.1440796703100204,-0.1016134396195412,-0.3158895075321198,39.68519592285156,97.556884765625,0.875762939453125
253594,-0.2435760498046875,0.7116851806640625,0.0542144775390625,-0.1155942380428314,-0.2311969995498657,-0.3202033042907715,39.48484802246094,97.39665222167967,1.0498046875
253595,-0.22845458984375,0.701690673828125,0.0203399658203125,-0.1280799359083176,-0.2128709852695465,-0.3322011232376099,39.29794311523438,97.39456176757812,1.151657104492188
253596,-0.22845458984375,0.701690673828125,0.0203399658203125,-0.1280799359083176,-0.2128709852695465,-0.3322011232376099,39.29794311523438,97.39456176757812,1.151657104492188
253597,-0.238067626953125,0.71533203125,0.0035552978515625,-0.1280799359083176,-0.2128709852695465,-0.3322011232376099,39.20599365234375,97.3569793701172,1.154052734375
253598,-0.277587890625,0.787322998046875,0.048492431640625,-0.1951740235090256,-0.2548240423202515,-0.343771755695343,38.93171691894531,97.39347839355467,1.276214599609375
253599,-0.2917633056640625,0.8290557861328125,0.0936431884765625,-0.2867002189159393,-0.2501997351646423,-0.3696826994419098,38.83872985839844,97.39822387695312,1.346817016601562
253600,-0.2917633056640625,0.8290557861328125,0.0936431884765625,-0.2867002189159393,-0.2501997351646423,-0.3696826994419098,38.83872985839844,97.39822387695312,1.346817016601562
253601,-0.349578857421875,1.05523681640625,0.1229095458984375,-0.5925490856170654,-0.2783416211605072,-0.390880674123764,38.54322814941406,97.48916625976562,1.592147827148438
253602,-0.3204498291015625,0.9557342529296876,0.1125030517578125,-0.7639176249504089,-0.3931677937507629,-0.3599754869937897,38.48001098632812,97.30087280273438,1.83819580078125
253603,-0.254150390625,0.935302734375,0.1290435791015625,-0.8681575059890747,-0.5031645894050598,-0.2957429587841034,38.39572143554688,97.1751708984375,2.313674926757812
253604,-0.254150390625,0.935302734375,0.1290435791015625,-0.8681575059890747,-0.5031645894050598,-0.2957429587841034,38.39572143554688,97.1751708984375,2.313674926757812
253605,-0.0915985107421875,1.180633544921875,0.112884521484375,-0.3141278326511383,-0.1893579363822937,0.0050948932766914,38.25421142578125,96.9058837890625,3.025177001953125
253606,-0.04150390625,1.27587890625,0.020111083984375,-0.3141278326511383,-0.1893579363822937,0.0050948932766914,38.09622192382812,96.87858581542967,3.392654418945312
253607,-0.0252532958984375,1.255706787109375,-0.0327606201171875,-0.1259565949440002,-0.2760837972164154,0.0141842626035213,38.09375,96.71159362792967,3.771896362304688
253608,-0.0346832275390625,1.177780151367188,-0.0139312744140625,-0.0048416266217827,-0.390924870967865,0.0282617323100566,38.08610534667969,96.59976196289062,3.9493408203125
253609,-0.0346832275390625,1.177780151367188,-0.0139312744140625,-0.0048416266217827,-0.390924870967865,0.0282617323100566,38.08610534667969,96.59976196289062,3.9493408203125
253610,-0.0637054443359375,1.012985229492188,0.0225830078125,0.1803766936063766,-0.5960572361946106,-0.0129275163635611,38.22152709960938,96.7667999267578,4.128082275390625
253611,-0.089263916015625,0.92852783203125,0.012298583984375,0.2246964871883392,-0.6439787149429321,-0.0528168752789497,38.29423522949219,96.76126098632812,4.302658081054688
253612,-0.089263916015625,0.92852783203125,0.012298583984375,0.2246964871883392,-0.6439787149429321,-0.0528168752789497,38.29423522949219,96.76126098632812,4.302658081054688
253613,-0.1230926513671875,0.8752288818359375,-0.0498199462890625,0.25333371758461,-0.6372619271278381,-0.0694344714283943,38.36763000488281,96.8677215576172,4.33154296875
253614,-0.16650390625,0.8612060546875,-0.2804107666015625,0.4216369986534119,-0.6903339624404907,-0.0779499262571334,38.56393432617188,96.84172058105467,4.30902099609375
253615,-0.178466796875,0.8777313232421875,-0.387939453125,0.5415575504302979,-0.7250051498413086,-0.0388536565005779,38.68499755859375,96.81045532226562,4.331451416015625
253616,-0.178466796875,0.8777313232421875,-0.387939453125,0.5415575504302979,-0.7250051498413086,-0.0388536565005779,38.68499755859375,96.81045532226562,4.331451416015625
253617,-0.169952392578125,0.9015350341796876,-0.461029052734375,0.6198161244392395,-0.7904528379440308,0.0268555823713541,38.729736328125,96.86311340332033,4.085433959960938
253618,-0.1097564697265625,0.997833251953125,-0.3226165771484375,0.4226143658161163,-0.6557354927062988,0.0955172032117843,38.92042541503906,97.24714660644533,3.732177734375
253619,-0.0656585693359375,1.064422607421875,-0.2425384521484375,0.1912242919206619,-0.5953781604766846,0.1296091228723526,39.08305358886719,97.33905029296876,3.587356567382812
253620,-0.0656585693359375,1.064422607421875,-0.2425384521484375,0.1912242919206619,-0.5953781604766846,0.1296091228723526,39.08305358886719,97.33905029296876,3.587356567382812
253621,0.0319366455078125,1.22674560546875,0.024383544921875,-0.1178542003035545,-0.7746549844741821,0.1855389624834061,39.44943237304688,97.36506652832033,3.5191650390625
253622,0.070281982421875,1.354217529296875,0.1568756103515625,0.0824669152498245,-0.783265233039856,0.1762788891792297,39.65679931640625,97.43792724609376,3.483871459960938
253623,0.10260009765625,1.472976684570312,0.2778778076171875,0.0824669152498245,-0.783265233039856,0.1762788891792297,39.90330505371094,97.41954040527344,3.842666625976562
253624,0.10260009765625,1.472976684570312,0.2778778076171875,0.0824669152498245,-0.783265233039856,0.1762788891792297,39.90330505371094,97.41954040527344,3.842666625976562
253625,0.0599212646484375,1.569549560546875,0.3265838623046875,0.4742602407932281,-0.4738181531429291,0.0042645200155675,40.53273010253906,97.25489807128906,4.173934936523438
253626,-0.0343170166015625,1.559906005859375,0.302215576171875,0.4742602407932281,-0.4738181531429291,0.0042645200155675,40.70451354980469,97.24961853027344,4.2567138671875
253627,-0.141571044921875,1.509933471679688,0.24951171875,0.5812404751777649,-0.3536483347415924,-0.0157086551189422,40.8494873046875,97.32046508789062,4.159500122070312
253628,-0.141571044921875,1.509933471679688,0.24951171875,0.5812404751777649,-0.3536483347415924,-0.0157086551189422,40.8494873046875,97.32046508789062,4.159500122070312
253629,-0.2159881591796875,1.406387329101562,0.195556640625,0.6506690979003906,-0.2864562571048737,-0.001096423366107,41.13124084472656,97.31910705566406,3.897048950195312
253630,-0.3001556396484375,1.162399291992188,0.152313232421875,0.6812152862548828,-0.2950622737407684,0.0775603055953979,41.2535400390625,97.59063720703124,3.323974609375
253631,-0.34490966796875,1.091094970703125,0.1207427978515625,0.6812152862548828,-0.2950622737407684,0.0775603055953979,41.37577819824219,97.70201110839844,3.022491455078125
253632,-0.34490966796875,1.091094970703125,0.1207427978515625,0.6812152862548828,-0.2950622737407684,0.0775603055953979,41.37577819824219,97.70201110839844,3.022491455078125
253633,-0.2909698486328125,0.850921630859375,0.00799560546875,0.6134671568870544,-0.4724727272987366,0.0659553110599517,41.60723876953125,98.07156372070312,2.736282348632812
253634,-0.2044525146484375,0.7520294189453125,-0.020416259765625,0.6134671568870544,-0.4724727272987366,0.0659553110599517,41.81272888183594,98.16824340820312,2.525283813476562
253635,-0.150238037109375,0.6833343505859375,-0.07623291015625,0.61477130651474,-0.4197509288787842,0.0798508897423744,42.00778198242188,98.18283081054688,2.3258056640625
253636,-0.150238037109375,0.6833343505859375,-0.07623291015625,0.61477130651474,-0.4197509288787842,0.0798508897423744,42.00778198242188,98.18283081054688,2.3258056640625
253637,-0.15167236328125,0.6053924560546875,-0.2030181884765625,0.6180896162986755,-0.3228060007095337,-0.0866784378886222,42.29814147949219,98.28759765625,1.732757568359375
253638,-0.1854248046875,0.56732177734375,-0.2550506591796875,0.6180896162986755,-0.3228060007095337,-0.0866784378886222,42.41477966308594,98.4237823486328,1.440628051757812
253639,-0.2147369384765625,0.551666259765625,-0.2568206787109375,0.480548232793808,-0.3629379868507385,-0.1204728856682777,42.5343017578125,98.5281982421875,1.224349975585938
253640,-0.2147369384765625,0.551666259765625,-0.2568206787109375,0.480548232793808,-0.3629379868507385,-0.1204728856682777,42.5343017578125,98.5281982421875,1.224349975585938
253641,-0.2038116455078125,0.584747314453125,-0.1979522705078125,0.2043680548667908,-0.4417816698551178,-0.1206403970718384,42.51008605957031,98.54454040527344,1.0294189453125
253642,-0.1078033447265625,0.7628631591796875,0.043182373046875,-0.4159213006496429,-0.5974698066711426,-0.0761608108878135,42.49325561523438,98.75105285644533,0.582550048828125
253643,-0.066680908203125,0.8332672119140625,0.188323974609375,-0.4983043372631073,-0.5189449191093445,0.0067085027694702,42.60597229003906,98.73915100097656,0.5538787841796875
253644,-0.036468505859375,0.9080810546875,0.2179718017578125,-0.4430301487445831,-0.4638195931911469,0.0930207520723342,42.72721862792969,98.70046997070312,0.798797607421875
253645,-0.036468505859375,0.9080810546875,0.2179718017578125,-0.4430301487445831,-0.4638195931911469,0.0930207520723342,42.72721862792969,98.70046997070312,0.798797607421875
253646,-0.0307769775390625,0.987701416015625,0.1739501953125,-0.268833339214325,-0.668411374092102,0.1504816561937332,42.89408874511719,98.49508666992188,1.351837158203125
253647,-0.0171356201171875,0.96209716796875,0.134918212890625,-0.198933333158493,-0.833396315574646,0.1442567706108093,42.99018859863281,98.48199462890624,1.577545166015625
253648,0.022247314453125,0.9020538330078124,0.103515625,-0.1627574861049652,-1.012460112571716,0.1241533756256104,43.23069763183594,98.44032287597656,1.754608154296875
253649,0.07037353515625,0.8444366455078125,0.1055908203125,-0.1416372954845428,-1.158011436462402,0.1070545464754105,43.58895874023438,98.1240692138672,2.128097534179688
253650,0.107818603515625,0.798004150390625,0.1486053466796875,-0.1259763091802597,-1.233353853225708,0.1031152009963989,43.88224792480469,98.26852416992188,2.276885986328125
253651,0.128631591796875,0.7843017578125,0.2116851806640625,-0.1377450823783875,-1.201900005340576,0.1025314331054688,44.05792236328125,98.23831176757812,2.454513549804688
253652,0.128631591796875,0.7843017578125,0.2116851806640625,-0.1377450823783875,-1.201900005340576,0.1025314331054688,44.05792236328125,98.23831176757812,2.454513549804688
253653,0.09320068359375,0.8680419921875,0.29046630859375,-0.2981123924255371,-0.9939846396446228,0.0373452417552471,44.477294921875,98.2967529296875,2.513717651367188
253654,-0.015655517578125,1.03631591796875,0.30859375,-0.5251516699790955,-0.9765654802322388,0.0439576022326946,44.71554565429688,98.40103149414062,2.619064331054688
253655,-0.172149658203125,1.130722045898438,0.349822998046875,-0.8169001340866089,-0.9073150157928468,-0.0829979479312896,44.8817138671875,98.32565307617188,2.982864379882812
253656,-0.172149658203125,1.130722045898438,0.349822998046875,-0.8169001340866089,-0.9073150157928468,-0.0829979479312896,44.8817138671875,98.32565307617188,2.982864379882812
253657,-0.1934661865234375,1.067047119140625,0.3144989013671875,-0.9731837511062622,-0.948012113571167,-0.2006947547197342,45.1015625,98.27366638183594,3.249725341796875
253658,-0.2197723388671875,1.07037353515625,0.3363494873046875,-0.9806414246559144,-0.94241601228714,-0.2870205938816071,45.29055786132812,98.17781066894533,3.702239990234375
253659,-0.2590484619140625,1.151046752929688,0.365478515625,-0.7451987862586975,-0.7109928727149963,-0.3510815799236298,45.43983459472656,97.76002502441406,4.608810424804688
253660,-0.2590484619140625,1.151046752929688,0.365478515625,-0.7451987862586975,-0.7109928727149963,-0.3510815799236298,45.43983459472656,97.76002502441406,4.608810424804688
253661,-0.2546539306640625,1.143508911132812,0.2253875732421875,-0.2651030421257019,-0.3661284446716309,-0.2277189195156097,45.421875,97.3148956298828,5.394546508789062
253662,-0.25640869140625,1.036636352539062,0.1518402099609375,-0.076415941119194,-0.3657625317573547,-0.2003583908081055,45.45829772949219,97.21864318847656,5.65374755859375
253663,-0.2465667724609375,0.918853759765625,0.1073150634765625,0.04421167075634,-0.3447746932506561,-0.1200718134641647,45.34837341308594,97.152587890625,5.85845947265625
253664,-0.22021484375,0.8683013916015625,0.0606842041015625,0.1084670871496201,-0.3034434914588928,-0.0481638014316558,45.35069274902344,97.149658203125,6.028915405273438
253665,-0.22021484375,0.8683013916015625,0.0606842041015625,0.1084670871496201,-0.3034434914588928,-0.0481638014316558,45.35069274902344,97.149658203125,6.028915405273438
253666,-0.171295166015625,0.788909912109375,-0.045806884765625,0.110169380903244,-0.2035928070545197,0.0377037040889263,45.44268798828125,97.10809326171876,6.396530151367188
253667,-0.1333465576171875,0.7524261474609375,-0.10137939453125,0.1626712083816528,-0.1467931717634201,0.0966426506638526,45.55029296875,97.12840270996094,6.439483642578125
253668,-0.1333465576171875,0.7524261474609375,-0.10137939453125,0.1626712083816528,-0.1467931717634201,0.0966426506638526,45.55029296875,97.12840270996094,6.439483642578125
253669,-0.0447540283203125,0.702789306640625,-0.209503173828125,0.2869886159896851,-0.0133102126419544,0.2263947874307632,45.51144409179688,97.20254516601562,5.880844116210938
253670,-0.010284423828125,0.7086334228515625,-0.236785888671875,0.2848676741123199,-0.0117959389463067,0.2775155007839203,45.56703186035156,97.26336669921876,5.859619140625
253671,0.0180511474609375,0.727752685546875,-0.2178497314453125,0.2176401764154434,0.0095996307209134,0.3130676448345184,45.64935302734375,97.286376953125,5.771469116210938
253672,0.0180511474609375,0.727752685546875,-0.2178497314453125,0.2176401764154434,0.0095996307209134,0.3130676448345184,45.64935302734375,97.286376953125,5.771469116210938
253673,0.0625,0.74664306640625,-0.18975830078125,0.1616267114877701,0.1209573149681091,0.3745871782302856,45.68827819824219,97.3718719482422,5.562057495117188
253674,0.0880279541015625,0.8369903564453125,-0.14654541015625,0.0788881555199623,0.2260704189538956,0.4246777892112732,45.87692260742188,97.39773559570312,5.4486083984375
253675,0.09075927734375,1.131256103515625,0.010284423828125,-0.2998865842819214,0.208354264497757,0.386697381734848,46.01315307617188,97.517578125,5.4588623046875
253676,0.09075927734375,1.131256103515625,0.010284423828125,-0.2998865842819214,0.208354264497757,0.386697381734848,46.01315307617188,97.517578125,5.4588623046875
253677,0.0828704833984375,1.255950927734375,0.0829315185546875,-0.3504762649536133,0.2017922401428223,0.3375431597232819,46.13119506835938,97.52766418457033,5.554534912109375
253678,0.0535125732421875,1.3804931640625,0.1514434814453125,-0.2762486338615417,0.256022721529007,0.2826463580131531,46.21612548828125,97.39794921875,5.669235229492188
253679,0.026031494140625,1.61810302734375,0.169921875,-3.27568814100232e-05,0.3791430592536926,0.1722844243049622,46.32406616210938,97.3353271484375,5.928543090820312
253680,0.026031494140625,1.61810302734375,0.169921875,-3.27568814100232e-05,0.3791430592536926,0.1722844243049622,46.32406616210938,97.3353271484375,5.928543090820312
253681,0.035614013671875,1.61199951171875,0.1451416015625,0.1861365884542465,0.3169907331466675,0.042115494608879,46.28733825683594,97.36830139160156,5.910919189453125
253682,-0.021087646484375,1.311813354492188,0.1479339599609375,0.3803380131721497,0.4714796543121338,0.1038869842886925,46.24482727050781,97.35343933105467,5.930892944335938
253683,-0.053741455078125,1.182769775390625,0.0430450439453125,0.5708123445510864,0.4516950249671936,0.2689619660377502,46.14041137695312,97.42364501953124,5.733932495117188
253684,-0.053741455078125,1.182769775390625,0.0430450439453125,0.5708123445510864,0.4516950249671936,0.2689619660377502,46.14041137695312,97.42364501953124,5.733932495117188
253685,-0.06134033203125,0.9973907470703124,0.0380859375,0.5315773487091064,0.213770866394043,0.5117841958999634,46.22392272949219,97.5600128173828,5.243759155273438
253686,-0.008941650390625,0.9632568359375,0.0743865966796875,0.3516725599765778,0.2424520552158356,0.5214170813560486,46.38973999023438,97.67022705078124,4.985031127929688
253687,0.016143798828125,0.9645843505859376,0.089080810546875,0.2026740163564682,0.313630610704422,0.4724484980106354,46.54629516601562,97.6203155517578,4.706207275390625
253688,0.016143798828125,0.9645843505859376,0.089080810546875,0.2026740163564682,0.313630610704422,0.4724484980106354,46.54629516601562,97.6203155517578,4.706207275390625
253689,0.022674560546875,1.016494750976562,0.0112762451171875,0.1945862621068954,0.4046369791030884,0.292070209980011,46.91932678222656,97.9105987548828,4.325347900390625
253690,0.043548583984375,1.020217895507812,-0.056243896484375,0.3057253062725067,0.3734050095081329,0.1991892606019974,47.061767578125,97.80938720703124,4.358627319335938
253691,0.0824737548828125,1.008880615234375,-0.09503173828125,0.4356982111930847,0.3210866749286652,0.1561901420354843,47.10466003417969,97.72718811035156,4.259552001953125
253692,0.0824737548828125,1.008880615234375,-0.09503173828125,0.4356982111930847,0.3210866749286652,0.1561901420354843,47.10466003417969,97.72718811035156,4.259552001953125
253693,0.1684112548828125,1.004745483398438,-0.114349365234375,0.586600124835968,0.1011617705225945,0.1579294502735138,47.11048889160156,97.78060913085938,3.798355102539062
253694,0.205902099609375,1.01898193359375,-0.110565185546875,0.6238979697227478,-0.0479675270617008,0.1482757478952408,47.03228759765625,97.85977172851562,3.483108520507812
253695,0.208892822265625,1.047225952148438,-0.0662384033203125,0.624111533164978,-0.1819354444742203,0.0951704606413841,47.0457763671875,98.000732421875,3.262527465820312
253696,0.208892822265625,1.047225952148438,-0.0662384033203125,0.624111533164978,-0.1819354444742203,0.0951704606413841,47.0457763671875,98.000732421875,3.262527465820312
253697,0.0558929443359375,1.067245483398438,0.07586669921875,0.4040124416351318,-0.4254205524921417,-0.065691664814949,47.17861938476562,98.3188934326172,2.575531005859375
253698,-0.0442047119140625,1.045654296875,0.1162261962890625,0.4040124416351318,-0.4254205524921417,-0.065691664814949,47.25942993164062,98.3690185546875,2.5760498046875
253699,-0.1110687255859375,1.01300048828125,0.1303253173828125,0.3852757811546326,-0.5588228106498718,-0.1210635751485825,47.3133544921875,98.4955596923828,2.46405029296875
253700,-0.1110687255859375,1.01300048828125,0.1303253173828125,0.3852757811546326,-0.5588228106498718,-0.1210635751485825,47.3133544921875,98.4955596923828,2.46405029296875
253701,-0.1774749755859375,0.8567047119140625,0.1259918212890625,0.4065291285514832,-0.8360022306442261,-0.2259417921304703,47.47235107421875,98.66847229003906,2.007949829101562
253702,-0.2037811279296875,0.786346435546875,0.124542236328125,0.4065291285514832,-0.8360022306442261,-0.2259417921304703,47.57269287109375,98.7205810546875,1.833404541015625
253703,-0.2392120361328125,0.7393341064453125,0.1487884521484375,0.2133588790893555,-0.7350585460662842,-0.2410858571529388,47.66807556152344,98.82501220703124,1.555938720703125
253704,-0.2392120361328125,0.7393341064453125,0.1487884521484375,0.2133588790893555,-0.7350585460662842,-0.2410858571529388,47.66807556152344,98.82501220703124,1.555938720703125
253705,-0.3361663818359375,0.729949951171875,0.197174072265625,0.0649276003241539,-0.5950905084609985,-0.2288843095302582,47.82344055175781,98.98764038085938,1.365234375
253706,-0.3985137939453125,0.7591552734375,0.1946563720703125,-0.0873157307505607,-0.4851256906986237,-0.2281961590051651,47.96971130371094,98.94081115722656,1.349563598632812
253707,-0.4673309326171875,0.790985107421875,0.194244384765625,-0.1698931604623795,-0.48352912068367,-0.2327914386987686,48.00570678710938,98.9986572265625,1.295364379882812
253708,-0.4673309326171875,0.790985107421875,0.194244384765625,-0.1698931604623795,-0.48352912068367,-0.2327914386987686,48.00570678710938,98.9986572265625,1.295364379882812
253709,-0.516448974609375,0.8083648681640625,0.2218475341796875,-0.2017261981964111,-0.5594145655632019,-0.2253963649272919,48.08929443359375,98.8466796875,1.416793823242188
253710,-0.4241180419921875,0.900604248046875,0.341796875,-0.3054600358009338,-0.766672670841217,-0.1181692481040955,48.12408447265625,99.0119171142578,1.555099487304688
253711,-0.3984222412109375,1.07025146484375,0.4151458740234375,-0.5008106231689453,-0.8836456537246704,-0.0749240443110466,48.23114013671875,99.0093994140625,1.624603271484375
253712,-0.361083984375,1.041641235351562,0.424957275390625,-0.7126429677009583,-0.9256961345672609,-0.1065847650170326,48.33094787597656,98.8751220703125,1.786651611328125
253713,-0.361083984375,1.041641235351562,0.424957275390625,-0.7126429677009583,-0.9256961345672609,-0.1065847650170326,48.33094787597656,98.8751220703125,1.786651611328125
253714,-0.1196136474609375,0.88037109375,0.30462646484375,-0.8346149921417236,-0.8857386112213135,-0.0747975409030914,48.54991149902344,98.646484375,2.40521240234375
253715,0.0152130126953125,0.996795654296875,0.144439697265625,-0.5122960209846497,-0.2061156183481216,0.0257924478501081,48.61163330078125,98.38131713867188,2.980926513671875
253716,0.0152130126953125,0.996795654296875,0.144439697265625,-0.5122960209846497,-0.2061156183481216,0.0257924478501081,48.61163330078125,98.38131713867188,2.980926513671875
253717,-0.0757293701171875,1.060134887695312,-0.3507232666015625,0.1654185205698013,-0.6006234884262085,0.0031337416730821,48.71324157714844,98.22889709472656,3.430496215820312
253718,-0.090484619140625,0.9444580078125,-0.195343017578125,0.1654185205698013,-0.6006234884262085,0.0031337416730821,48.73796081542969,98.27847290039062,3.673828125
253719,-0.0463714599609375,0.8753814697265625,-0.0955657958984375,0.0787041336297988,-0.5629743933677673,-0.0558384992182254,48.80915832519531,98.2216796875,3.575332641601562
253720,-0.0463714599609375,0.8753814697265625,-0.0955657958984375,0.0787041336297988,-0.5629743933677673,-0.0558384992182254,48.80915832519531,98.2216796875,3.575332641601562
253721,0.0214691162109375,0.848602294921875,-0.0828094482421875,0.0268907360732555,-0.5289812684059143,-0.117464579641819,48.88632202148438,98.28598022460938,3.572708129882812
253722,0.0970458984375,0.8327789306640625,-0.1780242919921875,0.1529328227043152,-0.5152822732925415,-0.1668185442686081,49.04495239257812,98.3760223388672,3.562881469726562
253723,0.10394287109375,0.8344573974609375,-0.2212982177734375,0.3061663210391998,-0.5401186347007751,-0.1569363474845886,49.17190551757812,98.29450988769533,3.697616577148438
253724,0.10394287109375,0.8344573974609375,-0.2212982177734375,0.3061663210391998,-0.5401186347007751,-0.1569363474845886,49.17190551757812,98.29450988769533,3.697616577148438
253725,0.066070556640625,0.8565826416015625,-0.2318572998046875,0.4269569218158722,-0.6150940656661987,-0.0779129043221473,49.11546325683594,98.41587829589844,3.321487426757812
253726,0.035430908203125,0.8783416748046875,-0.214202880859375,0.4269569218158722,-0.6150940656661987,-0.0779129043221473,49.17330932617188,98.5973663330078,3.2464599609375
253727,0.01593017578125,0.927764892578125,-0.189422607421875,0.402310699224472,-0.6034358143806458,-0.0438878275454044,49.24273681640625,98.5400848388672,3.03656005859375
253728,0.01593017578125,0.927764892578125,-0.189422607421875,0.402310699224472,-0.6034358143806458,-0.0438878275454044,49.24273681640625,98.5400848388672,3.03656005859375
253729,0.0114898681640625,0.994720458984375,-0.1560211181640625,0.3947840631008148,-0.5950548648834229,-0.024017984047532,49.328125,98.7078857421875,2.756637573242188
253730,-0.0096282958984375,1.19183349609375,-0.0499725341796875,0.2148523777723312,-0.7470721006393433,0.0226344726979732,49.41055297851562,98.8284149169922,2.644760131835938
253731,-0.0078582763671875,1.300811767578125,0.0270233154296875,0.1546100825071335,-0.8400605916976929,0.0390033237636089,49.54098510742188,98.9974365234375,2.643524169921875
253732,-0.0078582763671875,1.300811767578125,0.0270233154296875,0.1546100825071335,-0.8400605916976929,0.0390033237636089,49.54098510742188,98.9974365234375,2.643524169921875
253733,-0.0216217041015625,1.527862548828125,0.173980712890625,0.2318726480007172,-0.8030605316162109,0.0624633766710758,49.80235290527344,99.11619567871094,2.30181884765625
253734,-0.0331268310546875,1.60626220703125,0.1963043212890625,0.3730630576610565,-0.6878103613853455,0.0471006669104099,49.97944641113281,99.04376220703124,2.312759399414062
253735,-0.054229736328125,1.660263061523438,0.160797119140625,0.570693850517273,-0.5560666918754578,0.0463304817676544,50.22103881835938,99.010986328125,2.146987915039062
253736,-0.054229736328125,1.660263061523438,0.160797119140625,0.570693850517273,-0.5560666918754578,0.0463304817676544,50.22103881835938,99.010986328125,2.146987915039062
253737,-0.1016845703125,1.420059204101562,0.013885498046875,0.8359113931655884,-0.5672205686569214,0.0119517343118786,50.54707336425781,99.05477905273438,1.70831298828125
253738,-0.1143035888671875,1.230575561523438,-0.01080322265625,0.8359113931655884,-0.5672205686569214,0.0119517343118786,50.77731323242188,99.15382385253906,1.450668334960938
253739,-0.113677978515625,1.12445068359375,-0.021575927734375,0.8238614201545715,-0.6316688060760498,0.0102475779131054,50.88914489746094,99.15895080566406,1.355865478515625
253740,-0.113677978515625,1.12445068359375,-0.021575927734375,0.8238614201545715,-0.6316688060760498,0.0102475779131054,50.88914489746094,99.15895080566406,1.355865478515625
253741,-0.104034423828125,1.022491455078125,-0.039947509765625,0.7949860692024231,-0.6921414732933044,0.0019153454340994,50.99809265136719,99.49261474609376,0.8144378662109375
253742,-0.0982666015625,0.9377593994140624,-0.081024169921875,0.7796513438224792,-0.7308928370475769,0.0137597545981407,51.08706665039062,99.6637725830078,0.4006500244140625
253743,-0.10589599609375,0.8635406494140625,-0.1442413330078125,0.755916178226471,-0.8586625456809998,0.0794719234108924,51.40826416015625,99.7620086669922,-0.340423583984375
253744,-0.10589599609375,0.8635406494140625,-0.1442413330078125,0.755916178226471,-0.8586625456809998,0.0794719234108924,51.40826416015625,99.7620086669922,-0.340423583984375
253745,-0.123931884765625,0.8269500732421875,-0.1290435791015625,0.7155746221542358,-0.8854848146438599,0.1091690957546234,51.60270690917969,99.72019958496094,-0.6283721923828125
253746,-0.125457763671875,0.7340087890625,-0.1059112548828125,0.653775155544281,-0.829740047454834,0.1872598975896835,52.05079650878906,99.69358825683594,-1.241729736328125
253747,-0.0900421142578125,0.7006072998046875,-0.11468505859375,0.612604022026062,-0.789911150932312,0.2279146611690521,52.23983764648438,99.6437530517578,-1.405563354492188
253748,-0.0400848388671875,0.7039031982421875,-0.0666351318359375,0.5417865514755249,-0.718264102935791,0.2689768671989441,52.4510498046875,99.73356628417967,-1.78033447265625
253749,-0.0400848388671875,0.7039031982421875,-0.0666351318359375,0.5417865514755249,-0.718264102935791,0.2689768671989441,52.4510498046875,99.73356628417967,-1.78033447265625
253750,0.0060577392578125,0.75103759765625,0.0302276611328125,0.4367530941963196,-0.5884243845939636,0.3290492594242096,52.52452087402344,99.8424835205078,-2.29345703125
253751,0.0806884765625,0.830902099609375,0.2348175048828125,0.1806784272193909,-0.4137479066848755,0.4715941548347473,53.01387023925781,99.792236328125,-2.702468872070312
253752,0.1104278564453125,0.84716796875,0.29522705078125,0.0512520037591457,-0.4081949591636658,0.5275067090988159,53.27297973632812,99.79537963867188,-2.860260009765625
