time_idx,accelerometerAccelerationX(G),accelerometerAccelerationY(G),accelerometerAccelerationZ(G),gyroRotationX(rad/s),gyroRotationY(rad/s),gyroRotationZ(rad/s),magnetometerX(µT),magnetometerY(µT),magnetometerZ(µT)
170656,-0.3958282470703125,0.4371490478515625,-0.137359619140625,0.6319308280944824,0.3383040130138397,0.037487719208002,9.29791259765625,80.7459716796875,-12.32209777832031
170657,-0.2658843994140625,0.3717803955078125,-0.130706787109375,0.4708197116851807,0.0492021664977073,0.0841369777917861,9.40960693359375,80.68695068359375,-12.90821838378906
170658,-0.2658843994140625,0.3717803955078125,-0.130706787109375,0.4708197116851807,0.0492021664977073,0.0841369777917861,9.40960693359375,80.68695068359375,-12.90821838378906
170659,-0.18768310546875,0.4120330810546875,-0.057861328125,0.0484751239418983,-0.1355335861444473,0.1702548265457153,9.519454956054688,80.86933898925781,-13.50787353515625
170660,-0.1714935302734375,0.472381591796875,-0.04522705078125,-0.1589382588863373,-0.2699228227138519,0.1855546832084656,9.572967529296877,81.00852966308594,-13.53387451171875
170661,-0.185302734375,0.5375213623046875,-0.0070343017578125,-0.3048019707202911,-0.4447068870067596,0.1832105666399002,9.613739013671877,81.15762329101562,-13.65666198730469
170662,-0.185302734375,0.5375213623046875,-0.0070343017578125,-0.3048019707202911,-0.4447068870067596,0.1832105666399002,9.613739013671877,81.15762329101562,-13.65666198730469
170663,-0.228668212890625,0.61016845703125,0.07635498046875,-0.3966970145702362,-0.5908651351928711,0.1819474250078201,9.748626708984377,81.00238037109375,-13.37893676757812
170664,-0.286865234375,0.699737548828125,0.1878204345703125,-0.473701000213623,-0.6411754488945007,0.1307971626520157,9.798019409179688,81.06422424316406,-13.21267700195312
170665,-0.5288238525390625,0.82568359375,0.345947265625,-0.5401883721351624,-0.5087287425994873,-0.0334469079971313,9.916900634765623,81.35665893554688,-12.7139892578125
170666,-0.5288238525390625,0.82568359375,0.345947265625,-0.5401883721351624,-0.5087287425994873,-0.0334469079971313,9.916900634765623,81.35665893554688,-12.7139892578125
170667,-0.6676025390625,0.8214874267578125,0.350433349609375,-0.5238637328147888,-0.4260106980800629,-0.1066822409629822,9.950637817382812,81.30863952636719,-12.35920715332031
170668,-0.7771759033203125,0.78826904296875,0.3235626220703125,-0.4762264490127563,-0.401642233133316,-0.1470312625169754,9.991134643554688,81.45521545410156,-12.00704956054688
170669,-0.850250244140625,0.732269287109375,0.2288665771484375,-0.4090301096439362,-0.4810135066509247,-0.2382740825414658,9.851882934570312,81.42648315429688,-11.36085510253906
170670,-0.850250244140625,0.732269287109375,0.2288665771484375,-0.4090301096439362,-0.4810135066509247,-0.2382740825414658,9.851882934570312,81.42648315429688,-11.36085510253906
170671,-0.815826416015625,0.742401123046875,0.16937255859375,-0.3768322169780731,-0.5683510899543762,-0.2744967937469482,9.74945068359375,81.22999572753906,-11.15898132324219
170672,-0.7863922119140625,0.8976287841796875,0.0463409423828125,-0.3868845999240875,-0.2688218653202057,-0.2465642392635345,9.543426513671877,81.11268615722656,-10.43975830078125
170673,-0.7942657470703125,0.984893798828125,-0.069244384765625,-0.3558401167392731,-0.0663886070251464,-0.2285692542791367,9.214263916015623,80.95475769042969,-10.00637817382812
170674,-0.7942657470703125,0.984893798828125,-0.069244384765625,-0.3558401167392731,-0.0663886070251464,-0.2285692542791367,9.214263916015623,80.95475769042969,-10.00637817382812
170675,-0.7819671630859375,1.033416748046875,-0.150299072265625,-0.2953371107578278,0.0701591148972511,-0.2469735741615295,8.969467163085938,80.57206726074219,-9.675155639648438
170676,-0.7673797607421875,1.040176391601562,-0.1775665283203125,-0.2726379334926605,0.1004959791898727,-0.2894096970558167,8.824386596679688,80.44436645507812,-9.551055908203123
170677,-0.730682373046875,1.041351318359375,-0.2473907470703125,-0.2237665206193924,0.0604340471327304,-0.2978412806987762,8.735137939453125,80.24278259277344,-9.534255981445312
170678,-0.730682373046875,1.041351318359375,-0.2473907470703125,-0.2237665206193924,0.0604340471327304,-0.2978412806987762,8.735137939453125,80.24278259277344,-9.534255981445312
170679,-0.6456146240234375,1.042083740234375,-0.2987060546875,-0.1527647823095322,-0.1098780333995819,-0.2216985672712326,8.4598388671875,80.06941223144531,-9.5147705078125
170680,-0.595245361328125,0.9969024658203124,-0.2493438720703125,-0.1526614427566528,-0.0892656967043876,-0.1610235124826431,8.273757934570312,79.94985961914062,-9.3873291015625
170681,-0.585052490234375,0.9290771484375,-0.1967926025390625,-0.142392560839653,0.0416616946458816,-0.08389463275671,8.233108520507812,79.79425048828125,-9.1810302734375
170682,-0.585052490234375,0.9290771484375,-0.1967926025390625,-0.142392560839653,0.0416616946458816,-0.08389463275671,8.233108520507812,79.79425048828125,-9.1810302734375
170683,-0.604400634765625,0.875,-0.225494384765625,-0.1049037799239159,0.15261110663414,-0.0032176312524825,8.135009765625,79.76795959472656,-9.122909545898438
170684,-0.646759033203125,0.8559112548828125,-0.429962158203125,-0.0192147064954042,0.1610978096723557,0.1732596606016159,8.098175048828125,79.71980285644531,-9.171829223632812
170685,-0.655242919921875,0.8944854736328125,-0.5370941162109375,0.0765525624155998,0.1724173128604889,0.2487704008817673,8.150390625,79.68121337890625,-9.140853881835938
170686,-0.655242919921875,0.8944854736328125,-0.5370941162109375,0.0765525624155998,0.1724173128604889,0.2487704008817673,8.150390625,79.68121337890625,-9.140853881835938
170687,-0.645843505859375,0.9701690673828124,-0.630950927734375,0.1820600777864456,0.2441884279251099,0.3043002486228943,8.20330810546875,79.92520141601562,-9.133377075195312
170688,-0.5666656494140625,1.140670776367188,-0.6298370361328125,0.2363899052143097,0.5484934449195862,0.3045628368854523,8.317337036132812,80.06320190429688,-9.23724365234375
170689,-0.5404205322265625,1.148712158203125,-0.5487518310546875,0.2398110032081604,0.6211327910423279,0.2560666799545288,8.450881958007812,80.12722778320312,-9.364471435546877
170690,-0.5404205322265625,1.148712158203125,-0.5487518310546875,0.2398110032081604,0.6211327910423279,0.2560666799545288,8.450881958007812,80.12722778320312,-9.364471435546877
170691,-0.558868408203125,1.04052734375,-0.4502410888671875,0.3513162136077881,0.4335508942604065,0.1387837082147598,8.5467529296875,80.33724975585938,-10.02168273925781
170692,-0.5489349365234375,0.96435546875,-0.4204254150390625,0.4164499342441559,0.3449411392211914,0.0697457939386367,8.663681030273438,80.33529663085938,-10.26303100585938
170693,-0.5072021484375,0.8665618896484375,-0.3855438232421875,0.4653948545455933,0.2629173696041107,0.0089591396972537,8.653030395507812,80.45713806152344,-10.4935302734375
170694,-0.5072021484375,0.8665618896484375,-0.3855438232421875,0.4653948545455933,0.2629173696041107,0.0089591396972537,8.653030395507812,80.45713806152344,-10.4935302734375
170695,-0.431915283203125,0.7137908935546875,-0.3096466064453125,0.472546249628067,0.0199044663459062,0.0222477819770574,8.667892456054688,80.57014465332031,-11.1580810546875
170696,-0.4248504638671875,0.652099609375,-0.2373504638671875,0.4420378804206848,-0.1070044785737991,0.0835865065455436,8.705322265625,80.72943115234375,-11.42770385742188
170697,-0.4308013916015625,0.61785888671875,-0.1585235595703125,0.4177988469600677,-0.2074727714061737,0.180330365896225,8.832427978515625,80.78843688964844,-11.63018798828125
170698,-0.439117431640625,0.6158905029296875,-0.090911865234375,0.3977758586406708,-0.3249312043190002,0.3010857999324799,8.93524169921875,80.96817016601562,-11.6396484375
170699,-0.439117431640625,0.6158905029296875,-0.090911865234375,0.3977758586406708,-0.3249312043190002,0.3010857999324799,8.93524169921875,80.96817016601562,-11.6396484375
170700,-0.448760986328125,0.627471923828125,-0.039825439453125,0.3828728199005127,-0.447375625371933,0.4290107488632202,9.0977783203125,81.04769897460938,-11.75532531738281
170701,-0.4400787353515625,0.68841552734375,0.05145263671875,0.373288094997406,-0.6515710949897766,0.5861513614654541,9.626174926757812,81.27018737792969,-11.63749694824219
170702,-0.4400787353515625,0.68841552734375,0.05145263671875,0.373288094997406,-0.6515710949897766,0.5861513614654541,9.626174926757812,81.27018737792969,-11.63749694824219
170703,-0.4051361083984375,0.6906280517578125,0.08648681640625,0.3768194615840912,-0.7180851697921753,0.5788550972938538,9.880218505859377,81.47453308105469,-11.46534729003906
170704,-0.350433349609375,0.6746063232421875,0.1209869384765625,0.3496336340904236,-0.6955583095550537,0.5474961400032043,10.23358154296875,81.75885009765625,-11.34559631347656
170705,-0.1981964111328125,0.6473388671875,0.1457366943359375,0.1976251900196075,-0.5432310700416565,0.5572645664215088,10.7667236328125,82.03488159179688,-11.22645568847656
170706,-0.1981964111328125,0.6473388671875,0.1457366943359375,0.1976251900196075,-0.5432310700416565,0.5572645664215088,10.7667236328125,82.03488159179688,-11.22645568847656
170707,-0.1544036865234375,0.6279754638671875,0.1693878173828125,0.0714262425899505,-0.4476443529129028,0.5671691298484802,10.97877502441406,82.15447998046875,-11.1075439453125
170708,-0.167724609375,0.6213226318359375,0.1853179931640625,-0.0798130705952644,-0.2944848835468292,0.5221484303474426,11.21577453613281,82.23728942871094,-11.0247802734375
170709,-0.381195068359375,0.6744232177734375,0.1495361328125,-0.3643294870853424,-0.1213764920830727,0.4034371972084045,11.63876342773438,82.61723327636719,-10.60861206054688
170710,-0.381195068359375,0.6744232177734375,0.1495361328125,-0.3643294870853424,-0.1213764920830727,0.4034371972084045,11.63876342773438,82.61723327636719,-10.60861206054688
170711,-0.376708984375,0.658843994140625,0.1431732177734375,-0.4291609525680542,-0.1546588242053986,0.3770039975643158,11.77325439453125,82.79742431640625,-10.32012939453125
170712,-0.380767822265625,0.61199951171875,0.1728668212890625,-0.4646520912647247,-0.0202693194150924,0.3024852871894836,12.11619567871094,83.08921813964844,-10.02919006347656
170713,-0.435577392578125,0.625518798828125,0.1405792236328125,-0.4727949798107147,0.1260442137718201,0.2224818021059036,12.16615295410156,83.18486022949219,-9.889236450195312
170714,-0.49786376953125,0.6522369384765625,0.0940704345703125,-0.518317461013794,0.2049608677625656,0.1240798681974411,12.22627258300781,83.1895751953125,-9.771484375
170715,-0.49786376953125,0.6522369384765625,0.0940704345703125,-0.518317461013794,0.2049608677625656,0.1240798681974411,12.22627258300781,83.1895751953125,-9.771484375
170716,-0.64031982421875,0.75225830078125,0.1109771728515625,-0.6458807587623596,0.3945763409137726,-0.1029599383473396,12.19914245605469,83.36172485351562,-9.530044555664062
170717,-0.683868408203125,0.7858123779296875,0.1517181396484375,-0.6620234847068787,0.5280941724777222,-0.2296004295349121,12.14585876464844,83.41372680664062,-9.457122802734377
170718,-0.683868408203125,0.7858123779296875,0.1517181396484375,-0.6620234847068787,0.5280941724777222,-0.2296004295349121,12.14585876464844,83.41372680664062,-9.457122802734377
170719,-0.714447021484375,0.827484130859375,0.182037353515625,-0.5723332762718201,0.6660107970237732,-0.4395299553871155,11.88705444335938,83.20314025878906,-9.54217529296875
170720,-0.70361328125,0.83428955078125,0.146331787109375,-0.4610238075256348,0.588782548904419,-0.4883928596973419,11.75004577636719,82.99644470214844,-9.53271484375
170721,-0.67938232421875,0.840301513671875,0.08734130859375,-0.3160413205623627,0.435261458158493,-0.4908698499202728,11.41542053222656,82.86524963378906,-9.57342529296875
170722,-0.67938232421875,0.840301513671875,0.08734130859375,-0.3160413205623627,0.435261458158493,-0.4908698499202728,11.41542053222656,82.86524963378906,-9.57342529296875
170723,-0.6344451904296875,0.822235107421875,0.02728271484375,-0.1801809519529343,0.2748960256576538,-0.4629023969173431,11.23576354980469,82.6046142578125,-9.684234619140623
170724,-0.59075927734375,0.7846527099609375,-0.0209197998046875,-0.0953068137168884,0.1554031670093536,-0.4144304692745209,11.00941467285156,82.48664855957031,-9.870513916015623
170725,-0.5338897705078125,0.6819610595703125,-0.06170654296875,-0.056880060583353,0.0878997594118118,-0.4371357858181,10.60745239257812,82.18643188476562,-9.868423461914062
170726,-0.5338897705078125,0.6819610595703125,-0.06170654296875,-0.056880060583353,0.0878997594118118,-0.4371357858181,10.60745239257812,82.18643188476562,-9.868423461914062
170727,-0.591888427734375,0.6372833251953125,-0.1397857666015625,-0.1843695789575577,0.0878845825791358,-0.5236701369285583,10.15802001953125,81.82598876953125,-9.761474609375
170728,-0.652099609375,0.6560516357421875,-0.16229248046875,-0.2721817195415497,0.0085293063893914,-0.5563409924507141,10.02606201171875,81.63412475585938,-9.586837768554688
170729,-0.7245025634765625,0.7048492431640625,-0.1596527099609375,-0.3758774995803833,-0.0703135803341865,-0.5573586225509644,9.71148681640625,81.45391845703125,-9.512069702148438
170730,-0.7245025634765625,0.7048492431640625,-0.1596527099609375,-0.3758774995803833,-0.0703135803341865,-0.5573586225509644,9.71148681640625,81.45391845703125,-9.512069702148438
170731,-0.8244476318359375,0.8807373046875,-0.13397216796875,-0.5349637866020203,-0.137328028678894,-0.5298521518707275,9.174026489257812,81.14895629882812,-9.408843994140623
170732,-0.85394287109375,0.973907470703125,-0.1099090576171875,-0.5588792562484741,-0.1479508429765701,-0.5145466923713684,8.966537475585938,80.95994567871094,-9.135879516601562
170733,-0.862548828125,1.046905517578125,-0.102752685546875,-0.5543888807296753,-0.151322677731514,-0.4863983988761902,8.754562377929688,80.68162536621094,-8.84222412109375
170734,-0.862548828125,1.046905517578125,-0.102752685546875,-0.5543888807296753,-0.151322677731514,-0.4863983988761902,8.754562377929688,80.68162536621094,-8.84222412109375
170735,-0.8598480224609375,1.096511840820312,-0.1151580810546875,-0.5250227451324463,-0.1628653556108475,-0.4338326752185822,8.529159545898438,80.48942565917969,-8.675735473632812
170736,-0.8428955078125,1.105804443359375,-0.1549530029296875,-0.4490073621273041,-0.204987496137619,-0.3571176528930664,8.30389404296875,80.25828552246094,-8.765625
170737,-0.6967926025390625,0.97552490234375,-0.27874755859375,-0.1226556077599525,-0.2362239807844162,-0.101727157831192,7.898452758789062,79.93365478515625,-8.264419555664062
170738,-0.6967926025390625,0.97552490234375,-0.27874755859375,-0.1226556077599525,-0.2362239807844162,-0.101727157831192,7.898452758789062,79.93365478515625,-8.264419555664062
170739,-0.6097259521484375,0.92364501953125,-0.3526458740234375,0.0883644819259643,-0.2180255353450775,0.0486849807202816,7.714126586914062,79.71075439453125,-7.968353271484375
170740,-0.4292449951171875,0.9189605712890624,-0.49932861328125,0.4876112043857574,-0.2755977511405945,0.309441477060318,7.661056518554688,79.63699340820312,-7.80499267578125
170741,-0.3556060791015625,0.95361328125,-0.5428314208984375,0.6503668427467346,-0.3202765583992004,0.3923976123332977,7.785598754882812,79.61604309082031,-7.73748779296875
170742,-0.3556060791015625,0.95361328125,-0.5428314208984375,0.6503668427467346,-0.3202765583992004,0.3923976123332977,7.785598754882812,79.61604309082031,-7.73748779296875
170743,-0.2988128662109375,1.127487182617188,-0.553802490234375,0.8363654613494873,-0.3362677693367004,0.3992286026477814,8.06494140625,79.73780822753906,-7.563262939453125
170744,-0.31268310546875,1.213394165039062,-0.5481414794921875,0.8509086966514587,-0.3151062726974487,0.3461779057979584,8.24334716796875,79.97181701660156,-7.623016357421875
170745,-0.360107421875,1.253204345703125,-0.5337066650390625,0.8535548448562622,-0.3074505031108856,0.300361692905426,8.356414794921875,80.08143615722656,-7.749954223632812
170746,-0.360107421875,1.253204345703125,-0.5337066650390625,0.8535548448562622,-0.3074505031108856,0.300361692905426,8.356414794921875,80.08143615722656,-7.749954223632812
170747,-0.4662322998046875,1.24078369140625,-0.432586669921875,0.9281632900238036,-0.2538914084434509,0.3461222648620605,8.734817504882812,80.41880798339844,-7.984909057617188
170748,-0.4662322998046875,1.24078369140625,-0.432586669921875,0.9281632900238036,-0.2538914084434509,0.3461222648620605,8.734817504882812,80.41880798339844,-7.984909057617188
170749,-0.514923095703125,1.222091674804688,-0.2805023193359375,0.912592887878418,-0.142097219824791,0.3720129728317261,8.994522094726562,80.83560180664062,-8.366302490234375
170750,-0.514923095703125,1.222091674804688,-0.2805023193359375,0.912592887878418,-0.142097219824791,0.3720129728317261,8.994522094726562,80.83560180664062,-8.366302490234375
170751,-0.55218505859375,1.230941772460938,-0.1933441162109375,0.861116349697113,-0.0977854132652282,0.3548174798488617,9.228713989257812,81.0628662109375,-8.584457397460938
170752,-0.653900146484375,1.2520751953125,-0.069549560546875,0.7545465230941772,-0.1156139448285103,0.2448787242174149,9.531341552734377,81.6710205078125,-9.025772094726562
170753,-0.6990814208984375,1.256423950195312,-0.019683837890625,0.7403124570846558,-0.1326760202646255,0.1591121554374695,9.668426513671877,81.78485107421875,-9.365280151367188
170754,-0.6990814208984375,1.256423950195312,-0.019683837890625,0.7403124570846558,-0.1326760202646255,0.1591121554374695,9.668426513671877,81.78485107421875,-9.365280151367188
170755,-0.7680206298828125,1.134689331054688,0.0318450927734375,0.789389967918396,-0.0474159866571426,0.0229449961334466,10.00927734375,82.10736083984375,-9.96405029296875
170756,-0.770233154296875,1.008621215820312,0.0230865478515625,0.828546941280365,-0.0536310039460659,-0.0104158893227577,10.15475463867188,82.18490600585938,-10.27250671386719
170757,-0.7581329345703125,0.875091552734375,0.0082855224609375,0.8292364478111267,-0.0933179631829261,-0.017671937122941,10.24021911621094,82.20863342285156,-10.44989013671875
170758,-0.721832275390625,0.7628631591796875,0.003143310546875,0.7994921207427979,-0.1352888494729996,-0.0153603143990039,10.32380676269531,82.36541748046875,-10.64926147460938
170759,-0.721832275390625,0.7628631591796875,0.003143310546875,0.7994921207427979,-0.1352888494729996,-0.0153603143990039,10.32380676269531,82.36541748046875,-10.64926147460938
170760,-0.671905517578125,0.6620941162109375,0.0191192626953125,0.7408576011657715,-0.1096849516034126,0.0059843892231583,10.39778137207031,82.41743469238281,-10.90388488769531
170761,-0.5373077392578125,0.493438720703125,0.0585479736328125,0.5507071018218994,-0.0014429006259888,-0.0192685034126043,10.52804565429688,82.53794860839844,-11.31564331054688
170762,-0.5373077392578125,0.493438720703125,0.0585479736328125,0.5507071018218994,-0.0014429006259888,-0.0192685034126043,10.52804565429688,82.53794860839844,-11.31564331054688
170763,-0.488800048828125,0.4206085205078125,0.09832763671875,0.4334566295146942,-0.0076973345130681,-0.033930268138647,10.70529174804688,82.59309387207031,-11.54930114746094
170764,-0.4526214599609375,0.286956787109375,0.054656982421875,0.2468422800302505,-0.1771558672189713,-0.0525428354740142,10.97760009765625,82.49418640136719,-11.79039001464844
170765,-0.43310546875,0.2405548095703125,0.00750732421875,0.2977909445762634,-0.3336514830589294,-0.0554725788533687,11.16645812988281,82.45375061035156,-11.74484252929688
170766,-0.43310546875,0.2405548095703125,0.00750732421875,0.2977909445762634,-0.3336514830589294,-0.0554725788533687,11.16645812988281,82.45375061035156,-11.74484252929688
170767,-0.3983917236328125,0.210601806640625,-0.013824462890625,0.389503538608551,-0.4093784689903259,-0.0651989802718162,11.4300537109375,82.43559265136719,-11.67835998535156
170768,-0.320343017578125,0.2390289306640625,-0.032958984375,0.4576098918914795,-0.0741892755031585,-0.0564496926963329,11.406494140625,82.4390869140625,-11.690185546875
170769,-0.2711944580078125,0.3076324462890625,-0.0464019775390625,0.3474479913711548,0.193311408162117,-0.0672024711966514,11.32635498046875,82.34698486328125,-11.63836669921875
170770,-0.2711944580078125,0.3076324462890625,-0.0464019775390625,0.3474479913711548,0.193311408162117,-0.0672024711966514,11.32635498046875,82.34698486328125,-11.63836669921875
170771,-0.2606658935546875,0.534332275390625,-0.0844573974609375,-0.2466380149126053,0.2852860689163208,-0.1015841513872147,11.21725463867188,82.477294921875,-11.89764404296875
170772,-0.333038330078125,0.6066741943359375,-0.0020294189453125,-0.5875750780105591,0.064626932144165,-0.0901008620858192,11.13128662109375,82.53254699707031,-12.1829833984375
170773,-0.3789520263671875,0.65264892578125,0.1323089599609375,-0.8390967845916748,-0.1057599857449532,-0.0542856082320213,11.14962768554688,82.49972534179688,-12.25360107421875
170774,-0.3789520263671875,0.65264892578125,0.1323089599609375,-0.8390967845916748,-0.1057599857449532,-0.0542856082320213,11.14962768554688,82.49972534179688,-12.25360107421875
170775,-0.444183349609375,0.765594482421875,0.298553466796875,-0.9643921256065368,-0.2770259976387024,0.0187388006597757,11.17579650878906,82.44432067871094,-11.96638488769531
170776,-0.47894287109375,0.79205322265625,0.3293914794921875,-0.8655127286911011,-0.3715908527374268,0.0034730283077806,11.11274719238281,82.39877319335938,-11.68412780761719
170777,-0.5103759765625,0.795501708984375,0.3562774658203125,-0.7279558777809143,-0.4500619769096375,-0.0219934489578008,11.19589233398438,82.33831787109375,-11.22885131835938
170778,-0.5103759765625,0.795501708984375,0.3562774658203125,-0.7279558777809143,-0.4500619769096375,-0.0219934489578008,11.19589233398438,82.33831787109375,-11.22885131835938
170779,-0.52294921875,0.798370361328125,0.3558807373046875,-0.6074361205101013,-0.4379885196685791,-0.0478578023612499,11.24755859375,82.39697265625,-10.8194580078125
170780,-0.547943115234375,0.8440704345703125,0.2149810791015625,-0.5138217806816101,-0.4148368835449219,-0.1413304954767227,11.12934875488281,82.22865295410156,-10.15867614746094
170781,-0.5806884765625,0.877716064453125,0.16326904296875,-0.5130582451820374,-0.4895681142807007,-0.1958587169647217,11.04685974121094,82.23873901367188,-9.76177978515625
170782,-0.5806884765625,0.877716064453125,0.16326904296875,-0.5130582451820374,-0.4895681142807007,-0.1958587169647217,11.04685974121094,82.23873901367188,-9.76177978515625
170783,-0.6662445068359375,0.94140625,0.1242218017578125,-0.5074922442436218,-0.6947329640388489,-0.3389410376548767,10.83326721191406,81.96553039550781,-8.986495971679688
170784,-0.7073822021484375,0.973114013671875,0.13507080078125,-0.4930683076381683,-0.7170300483703613,-0.4113672971725464,10.69769287109375,81.91593933105469,-8.696884155273438
170785,-0.7551727294921875,1.0146484375,0.122161865234375,-0.4624166488647461,-0.5111564993858337,-0.4689365923404694,10.58412170410156,81.75083923339844,-8.198745727539062
170786,-0.7551727294921875,1.0146484375,0.122161865234375,-0.4624166488647461,-0.5111564993858337,-0.4689365923404694,10.58412170410156,81.75083923339844,-8.198745727539062
170787,-0.794158935546875,1.01654052734375,0.0481109619140625,-0.3780604898929596,-0.2171778529882431,-0.4745521247386932,10.38249206542969,81.56399536132812,-7.748809814453125
170788,-0.8312225341796875,1.005889892578125,-0.03277587890625,-0.3028429448604584,0.0636338368058204,-0.4639894962310791,10.29191589355469,81.31886291503906,-7.452392578125
170789,-0.870941162109375,0.9755706787109376,-0.230438232421875,-0.2426081150770187,0.1392582952976227,-0.393576055765152,9.899932861328123,80.81758117675781,-7.022491455078125
170790,-0.870941162109375,0.9755706787109376,-0.230438232421875,-0.2426081150770187,0.1392582952976227,-0.393576055765152,9.899932861328123,80.81758117675781,-7.022491455078125
170791,-0.8387908935546875,0.9173736572265624,-0.266265869140625,-0.29939204454422,-0.0206767823547124,-0.2200881540775299,9.505233764648438,80.48524475097656,-6.947982788085938
170792,-0.801971435546875,0.86181640625,-0.2606201171875,-0.2756219804286957,0.0346075110137462,-0.0973305478692054,9.212127685546877,80.469970703125,-6.931961059570312
170793,-0.794036865234375,0.820098876953125,-0.26806640625,-0.2169890403747559,0.2012620121240616,0.0205335039645433,9.128524780273438,80.37901306152344,-6.784912109375
170794,-0.794036865234375,0.820098876953125,-0.26806640625,-0.2169890403747559,0.2012620121240616,0.0205335039645433,9.128524780273438,80.37901306152344,-6.784912109375
170795,-0.7918243408203125,0.780975341796875,-0.308868408203125,-0.153507262468338,0.4039205610752106,0.1286746263504028,8.9796142578125,80.32124328613281,-6.689254760742188
170796,-0.795806884765625,0.7960968017578125,-0.45904541015625,-0.1008568406105042,0.6810997128486633,0.2766017615795135,8.964508056640625,80.20539855957031,-6.52069091796875
170797,-0.7528228759765625,0.8429412841796875,-0.4809112548828125,-0.1224153935909271,0.7231819033622742,0.314748078584671,8.95428466796875,80.23930358886719,-6.613693237304688
170798,-0.7528228759765625,0.8429412841796875,-0.4809112548828125,-0.1224153935909271,0.7231819033622742,0.314748078584671,8.95428466796875,80.23930358886719,-6.613693237304688
170799,-0.6020660400390625,1.04083251953125,-0.4493255615234375,-0.2042423486709595,0.8792386054992676,0.3225173354148865,8.895538330078125,80.32749938964844,-7.1251220703125
170800,-0.6020660400390625,1.04083251953125,-0.4493255615234375,-0.2042423486709595,0.8792386054992676,0.3225173354148865,8.895538330078125,80.32749938964844,-7.1251220703125
170801,-0.493896484375,1.213623046875,-0.451385498046875,-0.2023238092660904,1.014386653900146,0.2734326124191284,8.989089965820312,80.58110046386719,-7.486297607421875
170802,-0.499969482421875,1.23590087890625,-0.4403839111328125,-0.156330481171608,1.010456323623657,0.2367068231105804,9.0323486328125,80.67030334472656,-7.633224487304688
170803,-0.499969482421875,1.23590087890625,-0.4403839111328125,-0.156330481171608,1.010456323623657,0.2367068231105804,9.0323486328125,80.67030334472656,-7.633224487304688
170804,-0.532379150390625,1.150421142578125,-0.3762359619140625,-0.0433554649353027,0.9121147990226746,0.2360439598560333,9.0882568359375,80.98355102539062,-8.493270874023438
170805,-0.53289794921875,1.087936401367188,-0.34619140625,-0.0288175325840711,0.7515754699707031,0.2623581290245056,9.150314331054688,81.01445007324219,-8.728530883789062
170806,-0.53289794921875,1.087936401367188,-0.34619140625,-0.0288175325840711,0.7515754699707031,0.2623581290245056,9.150314331054688,81.01445007324219,-8.728530883789062
170807,-0.493316650390625,0.9513397216796876,-0.2721405029296875,-0.0015094797126948,0.384086936712265,0.3550382554531097,9.132583618164062,81.19351196289062,-9.640090942382812
170808,-0.45672607421875,0.90966796875,-0.2465972900390625,0.0098307924345135,0.1968526095151901,0.4151050448417664,9.137176513671877,81.30838012695312,-9.916213989257812
170809,-0.408203125,0.889556884765625,-0.2245025634765625,0.0107983192428946,0.0072515211068093,0.4850569665431976,9.277023315429688,81.3231201171875,-10.18309020996094
170810,-0.359161376953125,0.880828857421875,-0.1833648681640625,0.019964387640357,-0.1725480705499649,0.5548248887062073,9.447769165039062,81.49818420410156,-10.31288146972656
170811,-0.359161376953125,0.880828857421875,-0.1833648681640625,0.019964387640357,-0.1725480705499649,0.5548248887062073,9.447769165039062,81.49818420410156,-10.31288146972656
170812,-0.324127197265625,0.853485107421875,-0.0511932373046875,0.0423272177577018,-0.3751469850540161,0.6813710927963257,9.865951538085938,81.98631286621094,-10.40908813476562
170813,-0.3349609375,0.845245361328125,0.0032958984375,0.0885264053940773,-0.4067653715610504,0.6989570260047913,10.13040161132812,82.1361083984375,-10.32487487792969
170814,-0.3349609375,0.845245361328125,0.0032958984375,0.0885264053940773,-0.4067653715610504,0.6989570260047913,10.13040161132812,82.1361083984375,-10.32487487792969
170815,-0.34326171875,0.8038482666015625,0.05859375,0.2522175908088684,-0.4385294318199158,0.630173921585083,10.71635437011719,82.66580200195312,-10.02153015136719
170816,-0.34326171875,0.8038482666015625,0.05859375,0.2522175908088684,-0.4385294318199158,0.630173921585083,10.71635437011719,82.66580200195312,-10.02153015136719
170817,-0.2990875244140625,0.730194091796875,0.0903778076171875,0.3481715619564056,-0.4256935119628906,0.4842185974121094,11.3333740234375,83.1243896484375,-9.830856323242188
170818,-0.2990875244140625,0.730194091796875,0.0903778076171875,0.3481715619564056,-0.4256935119628906,0.4842185974121094,11.3333740234375,83.1243896484375,-9.830856323242188
170819,-0.248565673828125,0.7407073974609375,0.2402801513671875,0.2691590189933777,-0.3054209053516388,0.4019887149333954,11.82260131835938,83.62959289550781,-9.708038330078123
170820,-0.2190704345703125,0.735382080078125,0.2452545166015625,0.1903568953275681,-0.2170058190822601,0.3793012499809265,12.11685180664062,83.59048461914062,-9.675888061523438
170821,-0.201904296875,0.7131195068359375,0.20208740234375,0.1087515130639076,-0.168262243270874,0.3632152080535889,12.37469482421875,83.73532104492188,-9.675247192382812
170822,-0.201904296875,0.7131195068359375,0.20208740234375,0.1087515130639076,-0.168262243270874,0.3632152080535889,12.37469482421875,83.73532104492188,-9.675247192382812
170823,-0.2242584228515625,0.66888427734375,0.15802001953125,0.0491052269935607,-0.1619830429553986,0.3468125462532043,12.57844543457031,83.82354736328125,-9.6846923828125
170824,-0.33013916015625,0.574615478515625,0.121185302734375,0.1088058426976204,0.0487353131175041,0.2280249148607254,12.98060607910156,84.18869018554688,-9.55010986328125
170825,-0.3920440673828125,0.539154052734375,0.0713958740234375,0.073604442179203,0.0905597284436225,0.1535578668117523,13.13542175292969,84.36824035644531,-9.554061889648438
170826,-0.3920440673828125,0.539154052734375,0.0713958740234375,0.073604442179203,0.0905597284436225,0.1535578668117523,13.13542175292969,84.36824035644531,-9.554061889648438
170827,-0.553070068359375,0.615509033203125,0.0971832275390625,-0.0694328695535659,0.0985492095351219,-0.0642452985048294,13.28005981445312,84.59126281738281,-9.6129150390625
170828,-0.613861083984375,0.659332275390625,0.104827880859375,-0.1217677146196365,0.1479242146015167,-0.1791074424982071,13.22706604003906,84.66767883300781,-9.666091918945312
170829,-0.641815185546875,0.6886138916015625,0.0891265869140625,-0.1786182075738907,0.1756985932588577,-0.2798891663551331,13.15875244140625,84.61479187011719,-9.660385131835938
170830,-0.649688720703125,0.7054290771484375,0.1012725830078125,-0.2476532012224197,0.2075228244066238,-0.3588798642158508,13.18426513671875,84.51460266113281,-9.61407470703125
170831,-0.649688720703125,0.7054290771484375,0.1012725830078125,-0.2476532012224197,0.2075228244066238,-0.3588798642158508,13.18426513671875,84.51460266113281,-9.61407470703125
170832,-0.6140899658203125,0.7084503173828125,0.141082763671875,-0.3737741112709045,0.2786244451999664,-0.4351650476455688,12.79539489746094,84.18768310546875,-9.490249633789062
170833,-0.5993804931640625,0.6928863525390625,0.1472015380859375,-0.4067163467407227,0.2902126610279083,-0.4333820641040802,12.63912963867188,84.07014465332031,-9.419403076171877
170834,-0.5993804931640625,0.6928863525390625,0.1472015380859375,-0.4067163467407227,0.2902126610279083,-0.4333820641040802,12.63912963867188,84.07014465332031,-9.419403076171877
170835,-0.603271484375,0.671630859375,0.131683349609375,-0.4160086512565613,0.2632375061511993,-0.4119968712329865,12.38836669921875,83.91972351074219,-9.455902099609377
170836,-0.622467041015625,0.6498870849609375,0.105682373046875,-0.4056830406188965,0.2276715040206909,-0.383232593536377,12.21903991699219,83.85054016113281,-9.585540771484377
170837,-0.6443939208984375,0.60064697265625,0.0373992919921875,-0.3713138997554779,0.1801889389753342,-0.3606681823730469,11.8575439453125,83.52766418457031,-9.6209716796875
170838,-0.6443939208984375,0.60064697265625,0.0373992919921875,-0.3713138997554779,0.1801889389753342,-0.3606681823730469,11.8575439453125,83.52766418457031,-9.6209716796875
170839,-0.6351470947265625,0.5640411376953125,0.011962890625,-0.3809574544429779,0.2164793014526367,-0.3623875081539154,11.60153198242188,83.30519104003906,-9.557235717773438
170840,-0.6013946533203125,0.5496826171875,-0.031524658203125,-0.4845637679100037,0.3006618320941925,-0.3565501272678375,11.20368957519531,83.10107421875,-9.638397216796877
170841,-0.5781097412109375,0.582122802734375,-0.0307464599609375,-0.5753583908081055,0.2687068283557892,-0.3535609841346741,11.04341125488281,82.9879150390625,-9.557113647460938
170842,-0.5781097412109375,0.582122802734375,-0.0307464599609375,-0.5753583908081055,0.2687068283557892,-0.3535609841346741,11.04341125488281,82.9879150390625,-9.557113647460938
170843,-0.57672119140625,0.6381683349609375,-0.0163726806640625,-0.6837237477302551,0.2135572880506516,-0.3509553670883179,10.89115905761719,82.85894775390625,-9.53033447265625
170844,-0.5864105224609375,0.7109527587890625,-0.018035888671875,-0.797313928604126,0.1385184675455093,-0.3506600260734558,10.62527465820312,82.5799560546875,-9.521209716796877
170845,-0.59918212890625,0.890228271484375,-0.035491943359375,-0.9193767309188844,-0.0199087262153625,-0.3651742339134216,10.31690979003906,82.16737365722656,-9.111038208007812
170846,-0.59918212890625,0.890228271484375,-0.035491943359375,-0.9193767309188844,-0.0199087262153625,-0.3651742339134216,10.31690979003906,82.16737365722656,-9.111038208007812
170847,-0.58636474609375,0.982940673828125,-0.0460205078125,-0.9108666181564332,-0.0606452375650405,-0.3683165013790131,10.02569580078125,81.90547180175781,-8.748519897460938
170848,-0.53240966796875,1.134841918945312,-0.1481170654296875,-0.7277401685714722,-0.2066844701766968,-0.3089021742343903,9.560516357421877,81.50405883789062,-8.18609619140625
170849,-0.5181732177734375,1.175216674804688,-0.20379638671875,-0.580564558506012,-0.3181675970554352,-0.2608795166015625,9.41162109375,81.17713928222656,-7.802261352539062
170850,-0.5181732177734375,1.175216674804688,-0.20379638671875,-0.580564558506012,-0.3181675970554352,-0.2608795166015625,9.41162109375,81.17713928222656,-7.802261352539062
170851,-0.5085296630859375,1.159317016601562,-0.2512664794921875,-0.3928903043270111,-0.3838925361633301,-0.2066120356321335,9.30364990234375,80.95053100585938,-7.61993408203125
170852,-0.4764404296875,1.037506103515625,-0.422332763671875,0.0398163869976997,-0.3736460208892822,-0.0403594076633453,9.040771484375,80.73570251464844,-6.964767456054688
170853,-0.4733734130859375,1.017822265625,-0.5182342529296875,0.2532687485218048,-0.351539134979248,0.0278563983738422,8.928909301757812,80.63841247558594,-6.711944580078125
170854,-0.4733734130859375,1.017822265625,-0.5182342529296875,0.2532687485218048,-0.351539134979248,0.0278563983738422,8.928909301757812,80.63841247558594,-6.711944580078125
170855,-0.4842529296875,1.069793701171875,-0.663604736328125,0.6303033828735352,-0.2456491738557816,0.0968551710247993,9.115524291992188,80.51679992675781,-6.4368896484375
170856,-0.4869384765625,1.126434326171875,-0.6811065673828125,0.7229568958282471,-0.1537011414766312,0.0890214815735817,9.123977661132812,80.60664367675781,-6.340133666992188
170857,-0.4684600830078125,1.18438720703125,-0.6477203369140625,0.7309149503707886,-0.1016853451728821,0.0760502964258194,9.24603271484375,80.6317138671875,-6.439453125
170858,-0.4684600830078125,1.18438720703125,-0.6477203369140625,0.7309149503707886,-0.1016853451728821,0.0760502964258194,9.24603271484375,80.6317138671875,-6.439453125
170859,-0.43841552734375,1.231155395507812,-0.5661468505859375,0.6894543170928955,-0.0952988192439079,0.0531042292714119,9.380645751953123,80.58476257324219,-6.520477294921875
170860,-0.4416046142578125,1.278244018554688,-0.39239501953125,0.6856193542480469,-0.1625247299671173,0.0798295810818672,9.354141235351562,80.76138305664062,-6.78546142578125
170861,-0.4972991943359375,1.313705444335938,-0.2890167236328125,0.6911517977714539,-0.1831067055463791,0.1083650887012482,9.390457153320312,80.91766357421875,-7.157867431640625
170862,-0.4972991943359375,1.313705444335938,-0.2890167236328125,0.6911517977714539,-0.1831067055463791,0.1083650887012482,9.390457153320312,80.91766357421875,-7.157867431640625
170863,-0.65118408203125,1.368606567382812,-0.069244384765625,0.7473117709159851,-0.1087033078074455,0.0786197111010551,9.590667724609377,81.16087341308594,-7.527969360351562
170864,-0.741729736328125,1.375808715820312,0.002777099609375,0.8257679343223572,-0.0315712429583072,0.0201795697212219,9.72247314453125,81.36898803710938,-7.583297729492188
170865,-0.8146820068359375,1.366592407226562,0.0329437255859375,0.9110589027404784,0.0115743642672896,-0.0369257926940918,9.838546752929688,81.50665283203125,-7.805084228515625
170866,-0.8146820068359375,1.366592407226562,0.0329437255859375,0.9110589027404784,0.0115743642672896,-0.0369257926940918,9.838546752929688,81.50665283203125,-7.805084228515625
170867,-0.869964599609375,1.254135131835938,0.012359619140625,1.058011054992676,-0.0322069376707077,-0.0717801824212074,9.999359130859377,81.73698425292969,-8.452178955078125
170868,-0.843994140625,1.130615234375,0.003326416015625,1.074771642684937,-0.0584108456969261,-0.0728491768240928,10.0660400390625,81.91403198242188,-8.879364013671875
170869,-0.793792724609375,0.98687744140625,-0.003265380859375,1.071603775024414,-0.0691423192620277,-0.0320404917001724,10.19012451171875,81.89013671875,-9.10791015625
170870,-0.746002197265625,0.8630523681640625,-0.0153350830078125,1.043607592582703,-0.103050485253334,-8.655273268232122e-05,10.22360229492188,81.99061584472656,-9.503646850585938
170871,-0.746002197265625,0.8630523681640625,-0.0153350830078125,1.043607592582703,-0.103050485253334,-8.655273268232122e-05,10.22360229492188,81.99061584472656,-9.503646850585938
170872,-0.6421356201171875,0.6390228271484375,-0.01275634765625,0.8067114353179932,-0.3933600783348083,0.0019659455865621,10.37925720214844,82.21501159667969,-10.08491516113281
170873,-0.600189208984375,0.557098388671875,0.0145263671875,0.6618977785110474,-0.5553963780403137,0.014912636950612,10.56288146972656,82.29345703125,-10.31327819824219
170874,-0.600189208984375,0.557098388671875,0.0145263671875,0.6618977785110474,-0.5553963780403137,0.014912636950612,10.56288146972656,82.29345703125,-10.31327819824219
170875,-0.550750732421875,0.5115509033203125,0.0342864990234375,0.562698483467102,-0.6842001676559448,0.0525641404092311,10.75746154785156,82.42276000976562,-10.45640563964844
170876,-0.5021209716796875,0.4965057373046875,0.0417327880859375,0.5373742580413818,-0.760547935962677,0.0887466445565223,10.88504028320312,82.38214111328125,-10.49185180664062
170877,-0.4213104248046875,0.47216796875,0.051239013671875,0.687018871307373,-0.7086468935012817,0.0725807249546051,11.32373046875,82.46493530273438,-10.071533203125
170878,-0.4213104248046875,0.47216796875,0.051239013671875,0.687018871307373,-0.7086468935012817,0.0725807249546051,11.32373046875,82.46493530273438,-10.071533203125
170879,-0.3531494140625,0.450164794921875,0.0284423828125,0.8049622774124146,-0.561947226524353,0.0380893275141716,11.50929260253906,82.52774047851562,-9.894439697265623
170880,-0.2470703125,0.379364013671875,-0.0476837158203125,0.9123185276985168,-0.1547813266515732,0.0312532596290111,11.78767395019531,82.61384582519531,-9.941558837890623
170881,-0.2090606689453125,0.3498077392578125,-0.099639892578125,0.8674591779708862,-0.0273786280304193,0.039051529020071,11.90399169921875,82.67971801757812,-10.04450988769531
170882,-0.2090606689453125,0.3498077392578125,-0.099639892578125,0.8674591779708862,-0.0273786280304193,0.039051529020071,11.90399169921875,82.67971801757812,-10.04450988769531
170883,-0.181396484375,0.3296051025390625,-0.095550537109375,0.7385550141334534,-0.0060608219355344,0.0513002052903175,11.96083068847656,82.7662353515625,-10.22402954101562
170884,-0.1905975341796875,0.3507843017578125,-0.011688232421875,0.2861550450325012,-0.1495532691478729,0.0838152691721916,11.95237731933594,82.83815002441406,-10.64939880371094
170885,-0.2259521484375,0.400726318359375,0.03564453125,0.0612343288958072,-0.2626995444297791,0.1628246009349823,12.04803466796875,82.908203125,-10.84544372558594
170886,-0.2259521484375,0.400726318359375,0.03564453125,0.0612343288958072,-0.2626995444297791,0.1628246009349823,12.04803466796875,82.908203125,-10.84544372558594
170887,-0.3398590087890625,0.590240478515625,0.1355743408203125,-0.2434789687395096,-0.4475671350955963,0.2261990457773209,12.20932006835938,83.03755187988281,-10.96319580078125
170888,-0.4481201171875,0.7169952392578125,0.171295166015625,-0.3453169167041779,-0.448671281337738,0.1857451051473618,12.26933288574219,83.22407531738281,-10.77490234375
170889,-0.560089111328125,0.8362884521484375,0.187744140625,-0.4130640029907227,-0.437210351228714,0.1153010278940201,12.30970764160156,83.28036499023438,-10.46498107910156
170890,-0.560089111328125,0.8362884521484375,0.187744140625,-0.4130640029907227,-0.437210351228714,0.1153010278940201,12.30970764160156,83.28036499023438,-10.46498107910156
170891,-0.66534423828125,0.9109344482421876,0.2306365966796875,-0.4678614735603333,-0.359844446182251,0.0263972524553537,12.25946044921875,83.39537048339844,-10.20527648925781
170892,-0.75244140625,0.9046630859375,0.323455810546875,-0.5797044038772583,-0.03405437245965,-0.0699039846658706,12.24386596679688,83.46485900878906,-9.8494873046875
170893,-0.7503204345703125,0.9009857177734376,0.35595703125,-0.677170991897583,0.0478183887898922,-0.1233770623803139,12.23069763183594,83.39741516113281,-9.503372192382812
170894,-0.7503204345703125,0.9009857177734376,0.35595703125,-0.677170991897583,0.0478183887898922,-0.1233770623803139,12.23069763183594,83.39741516113281,-9.503372192382812
170895,-0.7982025146484375,0.9185638427734376,0.407562255859375,-0.8904947638511658,-0.0113250920549035,-0.2881204783916473,12.10807800292969,83.30653381347656,-9.3453369140625
170896,-0.85369873046875,0.9353790283203124,0.3864593505859375,-0.9589781761169434,-0.1029918938875198,-0.3648844957351685,11.93486022949219,83.15634155273438,-9.030242919921877
170897,-0.9026641845703124,0.96173095703125,0.315582275390625,-0.9681432247161864,-0.2052812427282333,-0.4070756137371063,11.79670715332031,83.01322937011719,-8.797332763671875
170898,-0.9026641845703124,0.96173095703125,0.315582275390625,-0.9681432247161864,-0.2052812427282333,-0.4070756137371063,11.79670715332031,83.01322937011719,-8.797332763671875
170899,-0.93798828125,0.9852447509765624,0.210235595703125,-0.9169924259185792,-0.2535254657268524,-0.4255537092685699,11.65422058105469,82.74580383300781,-8.295547485351562
170900,-0.8965301513671875,0.9749908447265624,-0.07061767578125,-0.6138074994087219,-0.0498770102858543,-0.3540627360343933,11.20845031738281,82.33218383789062,-7.614425659179688
170901,-0.84246826171875,0.9206695556640624,-0.1559600830078125,-0.5072277784347534,0.1679091155529022,-0.2678508758544922,10.97518920898438,82.05471801757812,-7.216583251953125
170902,-0.779052734375,0.8695831298828125,-0.20391845703125,-0.443898618221283,0.3060571253299713,-0.2354998737573624,10.81263732910156,81.794921875,-6.902420043945312
170903,-0.779052734375,0.8695831298828125,-0.20391845703125,-0.443898618221283,0.3060571253299713,-0.2354998737573624,10.81263732910156,81.794921875,-6.902420043945312
170904,-0.63330078125,0.8350982666015625,-0.2671051025390625,-0.4582847356796265,0.2135956436395645,-0.2405628114938736,10.49957275390625,81.64094543457031,-6.732131958007812
170905,-0.5727386474609375,0.8550262451171875,-0.31610107421875,-0.4477588832378387,0.1066015437245369,-0.2164223194122314,10.34384155273438,81.54621887207031,-6.670578002929688
170906,-0.510955810546875,0.8728790283203125,-0.3567657470703125,-0.369812935590744,0.0324311777949333,-0.1700130105018616,10.16154479980469,81.50021362304688,-6.596817016601562
170907,-0.510955810546875,0.8728790283203125,-0.3567657470703125,-0.369812935590744,0.0324311777949333,-0.1700130105018616,10.16154479980469,81.50021362304688,-6.596817016601562
170908,-0.406768798828125,0.8759002685546875,-0.42059326171875,-0.1043170839548111,0.0806250721216201,-0.0348410718142986,9.948272705078123,81.06671142578125,-6.350753784179688
170909,-0.3641510009765625,0.8779144287109375,-0.4752655029296875,0.0178026985377073,0.1349618136882782,0.023790018633008,9.913406372070312,80.91352844238281,-6.149154663085938
170910,-0.3641510009765625,0.8779144287109375,-0.4752655029296875,0.0178026985377073,0.1349618136882782,0.023790018633008,9.913406372070312,80.91352844238281,-6.149154663085938
170911,-0.3328094482421875,0.916046142578125,-0.528900146484375,0.0969526469707489,0.1515269428491592,0.0777171626687049,9.895828247070312,80.91572570800781,-6.161773681640625
170912,-0.344635009765625,1.001174926757812,-0.533599853515625,0.1354222744703293,0.1828236132860184,0.0758620053529739,9.851531982421877,80.85643005371094,-6.191314697265625
170913,-0.4633026123046875,1.128326416015625,-0.50018310546875,0.1305907666683197,0.3589698672294617,-0.0273344181478023,9.772933959960938,80.98208618164062,-6.316650390625
170914,-0.5665130615234375,1.15179443359375,-0.4586334228515625,0.1610453426837921,0.4103875160217285,-0.0455323308706283,9.808212280273438,81.077880859375,-6.390579223632812
170915,-0.5665130615234375,1.15179443359375,-0.4586334228515625,0.1610453426837921,0.4103875160217285,-0.0455323308706283,9.808212280273438,81.077880859375,-6.390579223632812
170916,-0.7294464111328125,1.12127685546875,-0.3516693115234375,0.262441486120224,0.5526351928710938,-0.0407373085618019,9.645660400390623,81.27284240722656,-6.820236206054688
170917,-0.7655487060546875,1.05548095703125,-0.3206024169921875,0.2392035275697708,0.5622369647026062,-0.0273413434624671,9.560134887695312,81.33842468261719,-7.054611206054688
170918,-0.7655487060546875,1.05548095703125,-0.3206024169921875,0.2392035275697708,0.5622369647026062,-0.0273413434624671,9.560134887695312,81.33842468261719,-7.054611206054688
170919,-0.71356201171875,0.9039764404296876,-0.2423095703125,0.1604530513286591,0.3851482272148132,0.0975641086697578,9.492340087890623,81.37838745117188,-7.541168212890625
170920,-0.64031982421875,0.8453216552734375,-0.1893310546875,0.1412055939435959,0.2900411486625671,0.2058487683534622,9.434173583984377,81.52203369140625,-7.862960815429688
170921,-0.5703125,0.801666259765625,-0.14215087890625,0.1389962285757065,0.1974137425422668,0.3094246983528137,9.549118041992188,81.46400451660156,-8.1036376953125
170922,-0.50933837890625,0.7943267822265625,-0.125,0.1402042508125305,0.0461794808506965,0.3920647203922272,9.691177368164062,81.55903625488281,-8.25909423828125
170923,-0.50933837890625,0.7943267822265625,-0.125,0.1402042508125305,0.0461794808506965,0.3920647203922272,9.691177368164062,81.55903625488281,-8.25909423828125
170924,-0.3863983154296875,0.8388824462890625,-0.0524444580078125,0.0770037025213241,-0.3538297116756439,0.4897601008415222,9.874343872070312,81.79885864257812,-8.747970581054688
170925,-0.3603668212890625,0.85992431640625,0.019195556640625,0.0446026213467121,-0.4766493737697601,0.5074224472045898,10.13717651367188,81.98016357421875,-8.758468627929688
170926,-0.3603668212890625,0.85992431640625,0.019195556640625,0.0446026213467121,-0.4766493737697601,0.5074224472045898,10.13717651367188,81.98016357421875,-8.758468627929688
170927,-0.3568878173828125,0.8786468505859375,0.08258056640625,0.0477901585400104,-0.5162620544433594,0.509415864944458,10.37690734863281,82.05592346191406,-8.702484130859375
170928,-0.3538818359375,0.873687744140625,0.1292877197265625,0.075730450451374,-0.4414035081863403,0.4303431212902069,10.81883239746094,82.2861328125,-8.385574340820312
170929,-0.3538818359375,0.873687744140625,0.1292877197265625,0.075730450451374,-0.4414035081863403,0.4303431212902069,10.81883239746094,82.2861328125,-8.385574340820312
170930,-0.378997802734375,0.7100067138671875,0.1667633056640625,0.1574828326702118,-0.2331051528453827,0.3102420270442963,11.60383605957031,82.79965209960938,-7.510757446289062
170931,-0.378997802734375,0.7100067138671875,0.1667633056640625,0.1574828326702118,-0.2331051528453827,0.3102420270442963,11.60383605957031,82.79965209960938,-7.510757446289062
170932,-0.3828277587890625,0.648468017578125,0.170684814453125,0.1141209825873375,-0.155989870429039,0.2756997644901276,11.90011596679688,82.81291198730469,-7.408935546875
170933,-0.38507080078125,0.5897216796875,0.1565093994140625,0.0455493740737438,-0.1040393188595772,0.2597309052944183,12.12368774414062,82.8577880859375,-7.338653564453125
170934,-0.38507080078125,0.5897216796875,0.1565093994140625,0.0455493740737438,-0.1040393188595772,0.2597309052944183,12.12368774414062,82.8577880859375,-7.338653564453125
170935,-0.44158935546875,0.5491790771484375,0.1094512939453125,-0.0196567922830581,-0.0371175408363342,0.2450190782546997,12.55532836914062,83.04124450683594,-7.377944946289062
170936,-0.467132568359375,0.5419158935546875,0.0548248291015625,-0.023184148594737,0.0171531550586223,0.2028604298830032,12.78471374511719,83.08268737792969,-7.221908569335938
170937,-0.5064849853515625,0.5388336181640625,0.0180816650390625,-0.0515649244189262,0.0830642580986022,0.1398902535438538,12.84828186035156,83.17875671386719,-7.178268432617188
170938,-0.5064849853515625,0.5388336181640625,0.0180816650390625,-0.0515649244189262,0.0830642580986022,0.1398902535438538,12.84828186035156,83.17875671386719,-7.178268432617188
170939,-0.5513458251953125,0.5530548095703125,0.018402099609375,-0.0942703112959861,0.2007027417421341,0.0512679815292358,12.88981628417969,83.47048950195312,-7.335891723632812
170940,-0.5933380126953125,0.5780029296875,0.027557373046875,-0.1490677744150162,0.3502767980098724,-0.034504447132349,12.86653137207031,83.49127197265625,-7.460830688476562
170941,-0.632659912109375,0.654937744140625,0.077880859375,-0.2240458875894547,0.5143197774887085,-0.1407946646213531,12.76242065429688,83.58563232421875,-7.581558227539062
170942,-0.632659912109375,0.654937744140625,0.077880859375,-0.2240458875894547,0.5143197774887085,-0.1407946646213531,12.76242065429688,83.58563232421875,-7.581558227539062
170943,-0.63299560546875,0.697967529296875,0.1092987060546875,-0.2411471009254456,0.5014772415161133,-0.1797548532485962,12.65890502929688,83.59217834472656,-7.62725830078125
170944,-0.6086273193359375,0.721771240234375,0.1081085205078125,-0.1939311176538467,0.3427160680294037,-0.2191057205200195,12.50572204589844,83.42233276367188,-8.026016235351562
170945,-0.59698486328125,0.70379638671875,0.097564697265625,-0.1421936303377151,0.2739362120628357,-0.2353201061487198,12.37905883789062,83.29591369628906,-8.034194946289062
170946,-0.59698486328125,0.70379638671875,0.097564697265625,-0.1421936303377151,0.2739362120628357,-0.2353201061487198,12.37905883789062,83.29591369628906,-8.034194946289062
170947,-0.59783935546875,0.6691436767578125,0.0804901123046875,-0.0961837917566299,0.2257287353277206,-0.2613389194011688,12.18666076660156,83.25131225585938,-8.249588012695312
170948,-0.58709716796875,0.5814208984375,0.03515625,-0.0553458146750927,0.1969141364097595,-0.3445906639099121,11.99978637695312,83.09550476074219,-8.563064575195312
170949,-0.5785675048828125,0.5425262451171875,0.0120849609375,-0.0768793374300003,0.1709594875574112,-0.3841884136199951,11.7967529296875,82.95152282714844,-8.496688842773438
170950,-0.5785675048828125,0.5425262451171875,0.0120849609375,-0.0768793374300003,0.1709594875574112,-0.3841884136199951,11.7967529296875,82.95152282714844,-8.496688842773438
170951,-0.5666656494140625,0.5303802490234375,-0.0020751953125,-0.1315191388130188,0.1175223663449287,-0.4121888875961304,11.61686706542969,82.73016357421875,-8.387924194335938
170952,-0.5538482666015625,0.5365753173828125,-0.0103302001953125,-0.2259417921304703,0.0372781306505203,-0.4306094348430634,11.36744689941406,82.72126770019531,-8.672744750976562
170953,-0.5692138671875,0.613616943359375,-0.0223846435546875,-0.4432607889175415,-0.0935805514454841,-0.4182696938514709,11.05010986328125,82.3759765625,-8.548171997070312
170954,-0.5692138671875,0.613616943359375,-0.0223846435546875,-0.4432607889175415,-0.0935805514454841,-0.4182696938514709,11.05010986328125,82.3759765625,-8.548171997070312
170955,-0.6166534423828125,0.75128173828125,-0.0469512939453125,-0.5978514552116394,-0.0664778277277946,-0.3799105882644653,10.67298889160156,81.951416015625,-8.11529541015625
170956,-0.6459503173828125,0.8313751220703125,-0.0448760986328125,-0.6598535776138306,-0.0354179106652736,-0.3490538597106934,10.43695068359375,81.8018798828125,-7.93353271484375
170957,-0.6736907958984375,0.9151611328125,-0.0443267822265625,-0.7157407999038696,-0.0251924376934766,-0.3188293874263763,10.09841918945312,81.78128051757812,-7.732254028320312
170958,-0.6736907958984375,0.9151611328125,-0.0443267822265625,-0.7157407999038696,-0.0251924376934766,-0.3188293874263763,10.09841918945312,81.78128051757812,-7.732254028320312
170959,-0.684844970703125,0.985748291015625,-0.04510498046875,-0.7346748113632202,-0.0578220188617706,-0.2932481169700623,9.8883056640625,81.59251403808594,-7.390457153320312
170960,-0.6780242919921875,1.096267700195312,-0.07940673828125,-0.6128529906272888,-0.1034920364618301,-0.219110518693924,9.665252685546877,81.13296508789062,-7.045745849609375
170961,-0.669281005859375,1.14508056640625,-0.1221923828125,-0.4432677030563354,-0.0820701047778129,-0.1828683465719223,9.535415649414062,80.7366943359375,-6.653289794921875
170962,-0.669281005859375,1.14508056640625,-0.1221923828125,-0.4432677030563354,-0.0820701047778129,-0.1828683465719223,9.535415649414062,80.7366943359375,-6.653289794921875
170963,-0.650146484375,1.1650390625,-0.1812896728515625,-0.2441663295030594,-0.0394829623401165,-0.1131393387913704,9.369720458984377,80.53887939453125,-6.364227294921875
170964,-0.62908935546875,1.165679931640625,-0.2536773681640625,-0.0466788224875927,-0.0054171360097825,-0.0618929266929626,9.143234252929688,80.4141845703125,-6.17333984375
170965,-0.5417938232421875,1.09722900390625,-0.4322662353515625,0.3537218570709229,-0.0397266410291194,0.0809046998620033,9.082672119140623,80.00653076171875,-5.935653686523438
170966,-0.5417938232421875,1.09722900390625,-0.4322662353515625,0.3537218570709229,-0.0397266410291194,0.0809046998620033,9.082672119140623,80.00653076171875,-5.935653686523438
170967,-0.4595184326171875,1.067642211914062,-0.643341064453125,0.7907878756523132,-0.0927051678299903,0.2472686469554901,9.082778930664062,80.04385375976562,-5.899612426757812
170968,-0.420135498046875,1.075836181640625,-0.70941162109375,0.9554495215415956,-0.0468964017927646,0.29304039478302,9.245361328125,80.11320495605469,-5.936630249023438
170969,-0.378875732421875,1.06622314453125,-0.728729248046875,1.030920624732971,0.0401426255702972,0.3086622357368469,9.303054809570312,80.22244262695312,-5.9449462890625
170970,-0.378875732421875,1.06622314453125,-0.728729248046875,1.030920624732971,0.0401426255702972,0.3086622357368469,9.303054809570312,80.22244262695312,-5.9449462890625
170971,-0.343109130859375,1.042266845703125,-0.687225341796875,0.9887422323226928,0.1553855985403061,0.2734696269035339,9.4888916015625,80.44908142089844,-6.081314086914062
170972,-0.315673828125,1.024795532226562,-0.6263427734375,0.9334832429885864,0.2055345177650452,0.217538982629776,9.607376098632812,80.6214599609375,-6.445388793945312
170973,-0.3597564697265625,1.005477905273438,-0.442626953125,0.9405099749565125,0.1454767733812332,0.2122355550527573,9.811737060546877,80.92562866210938,-7.266128540039062
170974,-0.3597564697265625,1.005477905273438,-0.442626953125,0.9405099749565125,0.1454767733812332,0.2122355550527573,9.811737060546877,80.92562866210938,-7.266128540039062
170975,-0.3946990966796875,1.052581787109375,-0.4067230224609375,0.9109190702438354,0.0949590057134628,0.2039483338594437,9.939254760742188,81.13009643554688,-7.58612060546875
170976,-0.4590606689453125,1.12841796875,-0.3920440673828125,0.8426372408866882,0.0334327928721904,0.1681898087263107,10.07821655273438,81.27699279785156,-8.006591796875
170977,-0.6540374755859375,1.283050537109375,-0.323211669921875,0.633829653263092,0.0209039505571126,-0.0585775598883628,10.30799865722656,81.635009765625,-8.637481689453125
170978,-0.6540374755859375,1.283050537109375,-0.323211669921875,0.633829653263092,0.0209039505571126,-0.0585775598883628,10.30799865722656,81.635009765625,-8.637481689453125
170979,-0.8303070068359375,1.31878662109375,-0.186920166015625,0.4969972670078278,0.2635674476623535,-0.3230273127555847,10.48309326171875,81.74662780761719,-9.186172485351562
170980,-0.896942138671875,1.241729736328125,-0.1679840087890625,0.5144622921943665,0.4123878180980682,-0.3650842308998108,10.48873901367188,81.82028198242188,-9.44677734375
170981,-0.958984375,1.142623901367188,-0.132171630859375,0.6138442158699036,0.4721899032592773,-0.3165182769298553,10.57473754882812,81.75297546386719,-9.759002685546877
170982,-0.958984375,1.142623901367188,-0.132171630859375,0.6138442158699036,0.4721899032592773,-0.3165182769298553,10.57473754882812,81.75297546386719,-9.759002685546877
170983,-0.954925537109375,1.020355224609375,-0.12591552734375,0.6801335215568542,0.4057307243347168,-0.1892487555742264,10.61697387695312,81.69609069824219,-9.963882446289062
170984,-0.7360382080078125,0.761322021484375,-0.178955078125,0.5512386560440063,-0.0784700438380241,-0.0082965455949306,10.62629699707031,81.68562316894531,-10.62031555175781
170985,-0.6530914306640625,0.6781005859375,-0.16986083984375,0.4438844919204712,-0.2939173877239227,0.0244547426700592,10.78826904296875,81.78697204589844,-11.0008544921875
170986,-0.6530914306640625,0.6781005859375,-0.16986083984375,0.4438844919204712,-0.2939173877239227,0.0244547426700592,10.78826904296875,81.78697204589844,-11.0008544921875
170987,-0.59808349609375,0.6527557373046875,-0.0740966796875,0.3973457515239716,-0.4544026553630829,0.0877213329076767,10.956787109375,81.79425048828125,-11.42692565917969
170988,-0.6054229736328125,0.6700439453125,-0.041229248046875,0.4553571343421936,-0.4223736226558685,0.1204345375299454,10.97171020507812,81.83609008789062,-11.31381225585938
170989,-0.6225738525390625,0.6783447265625,-0.027984619140625,0.5135261416435242,-0.3172293603420258,0.1595081686973572,11.11485290527344,81.76161193847656,-11.43415832519531
170990,-0.6225738525390625,0.6783447265625,-0.027984619140625,0.5135261416435242,-0.3172293603420258,0.1595081686973572,11.11485290527344,81.76161193847656,-11.43415832519531
170991,-0.605194091796875,0.6428070068359375,-0.0449371337890625,0.5314313769340515,-0.1776778548955917,0.1922456026077271,11.29495239257812,81.82984924316406,-11.30218505859375
170992,-0.4489593505859375,0.4582061767578125,-0.0836944580078125,0.4604395031929016,0.0330692715942859,0.2415798753499985,11.74220275878906,82.16668701171875,-11.4932861328125
170993,-0.3581390380859375,0.36187744140625,-0.0845489501953125,0.3588151335716248,0.1151731908321381,0.2796084880828857,11.95664978027344,82.23068237304688,-11.63958740234375
170994,-0.3581390380859375,0.36187744140625,-0.0845489501953125,0.3588151335716248,0.1151731908321381,0.2796084880828857,11.95664978027344,82.23068237304688,-11.63958740234375
170995,-0.277008056640625,0.2886505126953125,-0.0904541015625,0.2230253517627716,0.15670146048069,0.3421565294265747,12.13876342773438,82.26881408691406,-11.78492736816406
170996,-0.2042388916015625,0.232147216796875,-0.0977630615234375,0.0791235789656639,0.1421326398849487,0.4022156298160553,12.17625427246094,82.45143127441406,-11.94119262695312
170997,-0.0797119140625,0.182464599609375,-0.11065673828125,-0.1827658265829086,-0.0072429990395903,0.4921415150165558,12.48304748535156,82.61581420898438,-11.78152465820312
170998,-0.0797119140625,0.182464599609375,-0.11065673828125,-0.1827658265829086,-0.0072429990395903,0.4921415150165558,12.48304748535156,82.61581420898438,-11.78152465820312
170999,-0.02099609375,0.310882568359375,-0.131317138671875,-0.2514322400093079,-0.1753023117780685,0.5759732723236084,12.84347534179688,82.87200927734375,-12.05784606933594
171000,-0.074310302734375,0.514739990234375,-0.115936279296875,-0.2767319977283478,-0.2106917202472687,0.4319798946380615,13.02088928222656,83.10015869140625,-11.86569213867188
171001,-0.150482177734375,0.70489501953125,-0.1430511474609375,-0.3205516338348389,-0.2140046954154968,0.2262195497751236,13.01615905761719,83.26556396484375,-11.65617370605469
171002,-0.2867584228515625,0.83721923828125,-0.189422607421875,-0.3448133170604706,-0.1365043222904205,0.0219846609979867,13.13423156738281,83.47492980957031,-11.50863647460938
171003,-0.2867584228515625,0.83721923828125,-0.189422607421875,-0.3448133170604706,-0.1365043222904205,0.0219846609979867,13.13423156738281,83.47492980957031,-11.50863647460938
171004,-0.5786895751953125,0.9867401123046876,-0.3207550048828125,-0.3950605094432831,-0.0974682345986366,-0.315011203289032,13.0518798828125,83.43092346191406,-11.15916442871094
171005,-0.6611480712890625,1.022659301757812,-0.2385406494140625,-0.4998468458652496,-0.0282263122498989,-0.4230750799179077,12.98136901855469,83.48703002929688,-10.98448181152344
171006,-0.6611480712890625,1.022659301757812,-0.2385406494140625,-0.4998468458652496,-0.0282263122498989,-0.4230750799179077,12.98136901855469,83.48703002929688,-10.98448181152344
171007,-0.568145751953125,0.71551513671875,-0.0787506103515625,-0.5523358583450317,0.1867272704839706,-0.571130096912384,12.61325073242188,83.20759582519531,-10.71324157714844
171008,-0.5372314453125,0.4673309326171875,-0.0423736572265625,-0.5583048462867737,0.1917537152767181,-0.5637584328651428,12.55134582519531,83.06391906738281,-10.57003784179688
171009,-0.5846405029296875,0.3269805908203125,-0.0312652587890625,-0.6248665452003479,0.1601798236370087,-0.4793189167976379,12.31878662109375,82.94645690917969,-10.45130920410156
171010,-0.5846405029296875,0.3269805908203125,-0.0312652587890625,-0.6248665452003479,0.1601798236370087,-0.4793189167976379,12.31878662109375,82.94645690917969,-10.45130920410156
171011,-0.7556915283203125,0.453704833984375,-0.0489349365234375,-0.8946857452392578,0.184104323387146,-0.2842852473258972,11.99003601074219,82.48040771484375,-10.33280944824219
171012,-0.82794189453125,0.6624755859375,-0.081817626953125,-0.9911891222000122,0.3381759226322174,-0.2190585732460022,11.673828125,82.26283264160156,-10.20799255371094
171013,-0.888763427734375,0.8709716796875,-0.108367919921875,-1.004152059555054,0.5448681116104126,-0.1577398329973221,11.50233459472656,82.20890808105469,-10.08425903320312
171014,-0.9424896240234376,1.08648681640625,-0.106842041015625,-0.9956027865409852,0.8072320818901062,-0.101577490568161,11.36148071289062,82.06686401367188,-9.811325073242188
171015,-0.9424896240234376,1.08648681640625,-0.106842041015625,-0.9956027865409852,0.8072320818901062,-0.101577490568161,11.36148071289062,82.06686401367188,-9.811325073242188
171016,-0.973419189453125,1.46478271484375,-0.0959014892578125,-1.064202904701233,1.166482448577881,-0.092562161386013,11.05717468261719,81.89460754394531,-9.58367919921875
171017,-0.9592437744140624,1.564453125,-0.0836181640625,-1.154378056526184,1.109630823135376,-0.1717664301395416,10.89028930664062,81.7158203125,-9.670059204101562
171018,-0.9592437744140624,1.564453125,-0.0836181640625,-1.154378056526184,1.109630823135376,-0.1717664301395416,10.89028930664062,81.7158203125,-9.670059204101562
171019,-0.92138671875,1.576263427734375,-0.08477783203125,-1.244932413101196,0.8430068492889404,-0.2456204146146774,10.68284606933594,81.56570434570312,-9.832260131835938
171020,-0.7298583984375,1.518295288085938,-0.0504302978515625,-1.186154842376709,0.1290189623832703,-0.153436690568924,10.2374267578125,81.22578430175781,-9.896133422851562
171021,-0.6193084716796875,1.501434326171875,-0.0361175537109375,-0.9971985816955566,-0.1098042577505112,-0.0806093588471412,10.013427734375,81.00946044921875,-9.690811157226562
171022,-0.6193084716796875,1.501434326171875,-0.0361175537109375,-0.9971985816955566,-0.1098042577505112,-0.0806093588471412,10.013427734375,81.00946044921875,-9.690811157226562
171023,-0.5869598388671875,1.347824096679688,-0.0521697998046875,-0.6350696682929993,-0.3637925982475281,-0.0680986270308494,9.79473876953125,80.75360107421875,-9.029800415039062
171024,-0.6390380859375,1.261215209960938,-0.0798797607421875,-0.4972337484359741,-0.4392266273498535,-0.0781882777810096,9.8211669921875,80.65505981445312,-8.673995971679688
171025,-0.698974609375,1.182205200195312,-0.085540771484375,-0.3826752007007599,-0.4988228380680084,-0.1041077598929405,9.84967041015625,80.55931091308594,-8.338302612304688
171026,-0.698974609375,1.182205200195312,-0.085540771484375,-0.3826752007007599,-0.4988228380680084,-0.1041077598929405,9.84967041015625,80.55931091308594,-8.338302612304688
171027,-0.7356414794921875,1.087188720703125,-0.077484130859375,-0.308958113193512,-0.5479970574378967,-0.1346480846405029,9.828384399414062,80.54833984375,-8.07647705078125
171028,-0.693206787109375,0.809112548828125,-0.0957794189453125,-0.2694650292396545,-0.4610680043697357,-0.1501578092575073,10.00186157226562,80.34469604492188,-7.38494873046875
171029,-0.639190673828125,0.6357269287109375,-0.1618194580078125,-0.2439844310283661,-0.3941100239753723,-0.0969699546694755,10.03715515136719,80.20700073242188,-7.072219848632812
171030,-0.568878173828125,0.510772705078125,-0.2463531494140625,-0.2188127636909485,-0.369520515203476,-0.0622519217431545,10.1947021484375,80.13252258300781,-6.677947998046875
171031,-0.4766693115234375,0.417236328125,-0.314849853515625,-0.1462296396493912,-0.3695764541625977,-0.0607706718146801,10.33230590820312,79.98348999023438,-6.2357177734375
171032,-0.38397216796875,0.335540771484375,-0.3190460205078125,0.0253996327519416,-0.2273665815591812,-0.0397865623235702,10.59860229492188,79.90048217773438,-5.786819458007812
171033,-0.38397216796875,0.335540771484375,-0.3190460205078125,0.0253996327519416,-0.2273665815591812,-0.0397865623235702,10.59860229492188,79.90048217773438,-5.786819458007812
171034,-0.3056182861328125,0.2584381103515625,-0.31878662109375,0.2426171749830246,0.1447515934705734,-0.0357095263898372,10.87776184082031,79.7916259765625,-5.425506591796875
171035,-0.2140045166015625,0.1936187744140625,-0.380340576171875,0.4599255323410034,0.508081316947937,0.0336695462465286,10.99533081054688,79.77142333984375,-5.34796142578125
171036,-0.1385955810546875,0.1606292724609375,-0.4397125244140625,0.6050015091896057,0.6900564432144165,0.1459857076406479,11.09989929199219,79.84107971191406,-5.629348754882812
171037,0.00225830078125,0.181243896484375,-0.4862823486328125,0.7486606240272522,0.4841608107089996,0.4914464354515076,11.40872192382812,79.84710693359375,-6.266265869140625
171038,0.00225830078125,0.181243896484375,-0.4862823486328125,0.7486606240272522,0.4841608107089996,0.4914464354515076,11.40872192382812,79.84710693359375,-6.266265869140625
171039,0.117767333984375,0.265960693359375,-0.44122314453125,0.8389527201652527,0.2205387651920319,0.8772042393684387,11.6942138671875,80.15316772460938,-7.061004638671875
171040,0.1731414794921875,0.3130340576171875,-0.392608642578125,0.8689996004104614,0.1684641093015671,1.050623178482056,11.84637451171875,80.40054321289062,-7.27557373046875
171041,0.24188232421875,0.3130035400390625,-0.3741302490234375,0.7693099975585938,0.3996352851390839,1.190629482269287,12.13113403320312,80.87150573730469,-7.528350830078125
171042,0.3098297119140625,0.28839111328125,-0.4790191650390625,0.5831590294837952,0.5282342433929443,1.29369044303894,12.42562866210938,81.28672790527344,-7.801727294921875
171043,0.3098297119140625,0.28839111328125,-0.4790191650390625,0.5831590294837952,0.5282342433929443,1.29369044303894,12.42562866210938,81.28672790527344,-7.801727294921875
171044,0.3213348388671875,0.2419891357421875,-0.478057861328125,0.2139815241098404,-0.0135720018297433,1.240019202232361,13.10421752929688,82.19868469238281,-8.371627807617188
171045,0.2811431884765625,0.233673095703125,-0.3507537841796875,0.2105700224637985,-0.2722959816455841,1.132479906082153,13.48774719238281,82.60807800292969,-8.405990600585938
171046,0.2811431884765625,0.233673095703125,-0.3507537841796875,0.2105700224637985,-0.2722959816455841,1.132479906082153,13.48774719238281,82.60807800292969,-8.405990600585938
171047,0.2009735107421875,0.2935638427734375,-0.3265228271484375,0.3972746431827545,-0.3461430370807648,0.6958866715431213,14.137451171875,83.61520385742188,-8.344650268554688
171048,0.1348876953125,0.4440155029296875,-0.429840087890625,0.5281541347503662,-0.1785702705383301,0.2872725129127502,14.53692626953125,83.89030456542969,-8.095458984375
171049,-0.05841064453125,0.6448211669921875,-0.5905914306640625,0.6219474673271179,-0.0503851436078548,-0.1012328788638115,14.65046691894531,84.30195617675781,-8.080123901367188
171050,-0.05841064453125,0.6448211669921875,-0.5905914306640625,0.6219474673271179,-0.0503851436078548,-0.1012328788638115,14.65046691894531,84.30195617675781,-8.080123901367188
171051,-0.25079345703125,0.832305908203125,-0.667327880859375,0.7035844922065735,-0.0501177608966827,-0.4200100600719452,14.57510375976562,84.504150390625,-8.074264526367188
171052,-0.4789581298828125,1.581039428710938,-0.574493408203125,0.609620988368988,-0.1007330045104027,-1.181413888931274,13.98025512695312,84.44194030761719,-8.479705810546875
171053,-0.695556640625,2.166183471679688,-0.5168609619140625,0.0384698957204818,-0.3933592736721039,-1.653022527694702,13.5804443359375,84.2840576171875,-8.932296752929688
171054,-0.695556640625,2.166183471679688,-0.5168609619140625,0.0384698957204818,-0.3933592736721039,-1.653022527694702,13.5804443359375,84.2840576171875,-8.932296752929688
171055,-0.95208740234375,2.7091064453125,-0.375244140625,-0.639203667640686,-0.7182676196098328,-2.281123876571655,12.91673278808594,84.13134765625,-9.333892822265623
171056,-2.274246215820312,2.182342529296875,-0.16204833984375,-1.575913071632385,0.6625601053237915,-1.561819911003113,11.21806335449219,82.80378723144531,-9.491363525390623
171057,-2.338287353515625,1.88623046875,-0.39208984375,-1.483179926872253,0.9626927971839904,-0.5559244751930237,10.46109008789062,81.99412536621094,-9.430648803710938
171058,-2.091110229492188,1.588119506835938,0.00469970703125,-0.8843974471092224,0.0570025667548179,0.1981530338525772,9.988571166992188,81.54714965820312,-9.681411743164062
171059,-2.091110229492188,1.588119506835938,0.00469970703125,-0.8843974471092224,0.0570025667548179,0.1981530338525772,9.988571166992188,81.54714965820312,-9.681411743164062
171060,-1.150802612304688,1.331146240234375,0.39837646484375,-0.1462970227003098,-0.3522469997406006,0.3543279767036438,10.05976867675781,81.34994506835938,-9.403823852539062
171061,-0.863861083984375,1.472763061523438,0.1662750244140625,0.0346312150359153,-0.4598757326602936,0.2907186448574066,10.26950073242188,81.39170837402344,-9.322463989257812
171062,-0.863861083984375,1.472763061523438,0.1662750244140625,0.0346312150359153,-0.4598757326602936,0.2907186448574066,10.26950073242188,81.39170837402344,-9.322463989257812
171063,-0.7357025146484375,1.760086059570312,-0.059112548828125,0.4076191782951355,-0.3671529591083527,0.0286526829004287,10.42898559570312,81.70375061035156,-9.070281982421877
171064,-0.7927093505859375,1.717575073242188,-0.1905975341796875,0.3621105551719666,0.0922785326838493,-0.0015960324089974,10.39588928222656,81.69204711914062,-8.923843383789062
171065,-0.8526153564453125,1.565322875976562,-0.414886474609375,0.243892028927803,0.1070817112922668,-0.0457054376602172,10.47576904296875,81.73408508300781,-8.882736206054688
171066,-0.8526153564453125,1.565322875976562,-0.414886474609375,0.243892028927803,0.1070817112922668,-0.0457054376602172,10.47576904296875,81.73408508300781,-8.882736206054688
171067,-0.9123687744140624,1.220962524414062,-0.1548004150390625,-0.0797283872961998,-0.6071211099624634,-0.0608915798366069,10.83526611328125,81.56367492675781,-9.10107421875
171068,-0.88031005859375,1.090713500976562,-0.003509521484375,-0.0865170508623123,-0.5607424378395081,-0.0331704691052436,11.07402038574219,81.60209655761719,-8.91693115234375
171069,-0.8162384033203125,0.950653076171875,0.0555419921875,0.0413913801312446,-0.4123505353927612,0.0214000977575779,11.24697875976562,81.49234008789062,-8.67999267578125
171070,-0.8162384033203125,0.950653076171875,0.0555419921875,0.0413913801312446,-0.4123505353927612,0.0214000977575779,11.24697875976562,81.49234008789062,-8.67999267578125
171071,-0.7475128173828125,0.8176116943359375,0.0889434814453125,0.184460923075676,-0.2901809513568878,0.0990980863571167,11.44352722167969,81.58592224121094,-8.546829223632812
171072,-0.588958740234375,0.560455322265625,0.106292724609375,0.2987459599971771,-0.2301959246397018,0.2835970818996429,11.77667236328125,81.63027954101562,-8.21234130859375
171073,-0.4862823486328125,0.447601318359375,0.1451416015625,0.2198276966810226,-0.2076818197965622,0.3644594550132751,11.91192626953125,81.74957275390625,-8.134613037109375
171074,-0.4862823486328125,0.447601318359375,0.1451416015625,0.2198276966810226,-0.2076818197965622,0.3644594550132751,11.91192626953125,81.74957275390625,-8.134613037109375
171075,-0.2782135009765625,0.2457275390625,0.1962127685546875,-0.0008663262706249,-0.1180470138788223,0.4478733837604523,12.32383728027344,81.90824890136719,-8.048553466796875
171076,-0.20062255859375,0.162384033203125,0.193115234375,-0.0635640621185302,-0.0755285769701004,0.4504569172859192,12.57164001464844,81.95079040527344,-7.8187255859375
171077,-0.1384429931640625,0.091278076171875,0.1754302978515625,-0.0779145061969757,-0.0196567922830581,0.4288445711135864,12.78509521484375,82.14801025390625,-7.668548583984375
171078,-0.1384429931640625,0.091278076171875,0.1754302978515625,-0.0779145061969757,-0.0196567922830581,0.4288445711135864,12.78509521484375,82.14801025390625,-7.668548583984375
171079,-0.08563232421875,0.0158233642578125,0.147613525390625,-0.0625171735882759,0.0421953909099102,0.3923520743846893,13.03573608398438,82.36744689941406,-7.68646240234375
171080,-0.0294036865234375,-0.1356048583984375,0.0534515380859375,-0.0189779512584209,0.1484344750642776,0.3055799007415771,13.36676025390625,82.59013366699219,-7.324417114257812
171081,-0.006378173828125,-0.21917724609375,-0.003021240234375,-0.0236621852964162,0.1898895055055618,0.2755314409732819,13.54737854003906,82.6414794921875,-7.252853393554688
171082,0.00518798828125,-0.292938232421875,-0.0941619873046875,-0.0023307986557483,0.1713608354330063,0.3165915310382843,13.63864135742188,82.80511474609375,-7.180862426757812
171083,0.00518798828125,-0.292938232421875,-0.0941619873046875,-0.0023307986557483,0.1713608354330063,0.3165915310382843,13.63864135742188,82.80511474609375,-7.180862426757812
171084,-0.0053253173828125,-0.33673095703125,-0.166961669921875,-0.0536278076469898,0.1470725387334824,0.4550207853317261,14.01119995117188,82.81938171386719,-7.170974731445312
171085,0.012054443359375,-0.333648681640625,-0.1986846923828125,-0.2813025116920471,0.2271396815776825,0.518172025680542,14.11610412597656,82.92135620117188,-7.10675048828125
171086,0.012054443359375,-0.333648681640625,-0.1986846923828125,-0.2813025116920471,0.2271396815776825,0.518172025680542,14.11610412597656,82.92135620117188,-7.10675048828125
171087,0.0405120849609375,-0.331451416015625,-0.3267364501953125,-0.5531122088432312,0.1879334151744843,0.5582987070083618,14.22431945800781,83.08804321289062,-7.147720336914062
171088,0.0653076171875,-0.3156890869140625,-0.4423675537109375,-0.7947381138801575,-0.0764162093400955,0.5882725715637207,14.50296020507812,83.19572448730469,-7.034210205078125
171089,0.1219482421875,-0.1627960205078125,-0.3941497802734375,-1.113738775253296,-1.014051079750061,0.6409472227096558,14.93003845214844,83.44367980957031,-6.235122680664062
171090,0.1219482421875,-0.1627960205078125,-0.3941497802734375,-1.113738775253296,-1.014051079750061,0.6409472227096558,14.93003845214844,83.44367980957031,-6.235122680664062
171091,0.1172943115234375,-0.0381622314453125,-0.1745147705078125,-1.123338341712952,-1.187332034111023,0.6000394821166992,15.20271301269531,83.73025512695312,-5.682052612304688
171092,0.0944671630859375,0.0695648193359375,-0.022491455078125,-1.094778656959534,-1.093476414680481,0.49082350730896,15.41506958007812,83.79893493652344,-4.984588623046875
171093,0.066314697265625,0.10882568359375,0.1161956787109375,-1.059523224830627,-0.805148720741272,0.3874790072441101,15.67121887207031,83.92176818847656,-3.984207153320312
171094,0.0164337158203125,0.1136932373046875,0.35845947265625,-1.108472347259521,0.3625784516334534,0.2185879945755005,16.06239318847656,83.98580932617188,-2.29559326171875
171095,0.0164337158203125,0.1136932373046875,0.35845947265625,-1.108472347259521,0.3625784516334534,0.2185879945755005,16.06239318847656,83.98580932617188,-2.29559326171875
171096,0.00958251953125,0.1295623779296875,0.4641571044921875,-1.076599597930908,1.136947989463806,0.1328981220722198,16.10279846191406,84.04261779785156,-1.590240478515625
171097,-0.2470855712890625,1.115921020507812,0.8636932373046875,-1.245456576347351,3.199362754821777,-0.0720326453447341,15.89518737792969,83.88742065429688,0.0216522216796875
171098,-0.61932373046875,2.34893798828125,0.9669952392578124,-1.526973485946655,3.927928686141968,-0.0715756490826606,15.66447448730469,83.61819458007812,0.3510589599609375
171099,-1.270004272460938,3.153152465820312,1.07415771484375,-1.969572186470032,3.725186109542847,-0.3299901485443115,15.12789916992188,83.50148010253906,-0.516082763671875
171100,-2.148300170898438,3.715484619140625,1.135711669921875,-2.172738075256348,3.050068616867065,-1.372990012168884,14.64231872558594,83.54444885253906,-1.841751098632812
171101,-2.834320068359375,3.664260864257812,0.796112060546875,-1.657375931739807,1.838649272918701,-2.705875873565674,14.35121154785156,83.11827087402344,-2.26776123046875
171102,-3.0152587890625,2.933334350585938,-0.08782958984375,-0.3517574965953827,-0.4952433109283447,-3.564294338226318,13.950439453125,82.59967041015625,-2.423721313476562
171103,-2.670700073242188,1.599349975585938,-0.530853271484375,0.9783018231391908,-2.976414442062378,-2.77033519744873,12.94717407226562,82.07502746582031,-3.592880249023438
171104,-2.217178344726562,0.949462890625,-0.5909271240234375,1.449191808700562,-3.632365465164185,-0.4864979982376099,11.46351623535156,81.35992431640625,-4.588882446289062
171105,-1.387039184570312,1.746932983398438,-0.88836669921875,0.959069550037384,-2.861648559570312,0.3701983094215393,9.856979370117188,80.81103515625,-5.345352172851562
171106,-1.387039184570312,1.746932983398438,-0.88836669921875,0.959069550037384,-2.861648559570312,0.3701983094215393,9.856979370117188,80.81103515625,-5.345352172851562
171107,-0.83526611328125,2.271484375,-1.217071533203125,-0.3608628511428833,-1.053935289382935,0.697719156742096,8.6417236328125,80.58915710449219,-5.599990844726562
171108,-0.59857177734375,2.211868286132812,-0.53021240234375,-0.4977008700370789,0.2049800455570221,0.6595472693443298,8.461700439453125,80.25450134277344,-4.181472778320312
171109,-0.4067230224609375,1.684494018554688,0.037384033203125,0.4784137308597565,0.2673664689064026,0.4579260051250458,11.04269409179688,79.1668701171875,-0.1934051513671875
171110,-0.4067230224609375,1.684494018554688,0.037384033203125,0.4784137308597565,0.2673664689064026,0.4579260051250458,11.04269409179688,79.1668701171875,-0.1934051513671875
171111,-0.55377197265625,1.549026489257812,-0.0084381103515625,0.5991406440734863,0.7087808847427368,1.049517154693604,12.75286865234375,79.00033569335938,0.0191650390625
171112,-0.610107421875,1.277923583984375,-0.317657470703125,0.9827975034713744,1.331772804260254,1.052887916564941,12.77816772460938,79.60150146484375,-1.133453369140625
171113,-0.5657501220703125,0.9338836669921876,-0.449554443359375,1.138838291168213,1.599041819572449,1.15333354473114,12.81735229492188,80.09791564941406,-1.795013427734375
171114,-0.5657501220703125,0.9338836669921876,-0.449554443359375,1.138838291168213,1.599041819572449,1.15333354473114,12.81735229492188,80.09791564941406,-1.795013427734375
171115,-0.383636474609375,0.560943603515625,-0.4170074462890625,0.964081346988678,0.7613775134086609,1.333985686302185,13.46200561523438,80.98515319824219,-3.019439697265625
171116,-0.2749786376953125,0.431976318359375,-0.357818603515625,0.8321723341941833,0.4063682854175568,1.333706498146057,13.95877075195312,81.36056518554688,-3.511306762695312
171117,-0.1634521484375,0.3206939697265625,-0.3514862060546875,0.8144124746322632,0.1231301873922348,1.347653746604919,14.46856689453125,81.76399230957031,-3.94580078125
171118,-0.1634521484375,0.3206939697265625,-0.3514862060546875,0.8144124746322632,0.1231301873922348,1.347653746604919,14.46856689453125,81.76399230957031,-3.94580078125
171119,-0.0892181396484375,0.256927490234375,-0.274810791015625,0.9033165574073792,-0.0589298941195011,1.337270617485046,14.95159912109375,82.18685913085938,-4.109786987304688
171120,-0.0194244384765625,0.17010498046875,-0.105987548828125,0.9896130561828612,-0.0816133692860603,1.144677519798279,15.75602722167969,83.13935852050781,-4.215652465820312
171121,0.0140533447265625,0.0980682373046875,-0.0960540771484375,0.9728657603263856,-0.1596461236476898,1.033206105232239,16.1209716796875,83.71394348144531,-4.3909912109375
171122,0.046630859375,0.0107421875,-0.1035614013671875,0.9943535327911376,-0.335254967212677,0.9789300560951232,16.49049377441406,84.14927673339844,-4.656417846679688
171123,0.0783233642578125,-0.0650177001953125,-0.094451904296875,1.00484824180603,-0.5487903952598572,0.9779902696609496,16.7979736328125,84.62077331542969,-5.04840087890625
171124,0.105865478515625,-0.11328125,-0.0692291259765625,0.9701203107833862,-0.7347288727760315,1.031332850456238,17.0992431640625,85.14613342285156,-5.350326538085938
171125,0.124786376953125,-0.1194915771484375,-0.0546112060546875,0.9360148310661316,-0.844985842704773,1.118810534477234,17.45870971679688,85.58320617675781,-5.621185302734375
171126,0.124786376953125,-0.1194915771484375,-0.0546112060546875,0.9360148310661316,-0.844985842704773,1.118810534477234,17.45870971679688,85.58320617675781,-5.621185302734375
