time_idx,accelerometerAccelerationX(G),accelerometerAccelerationY(G),accelerometerAccelerationZ(G),gyroRotationX(rad/s),gyroRotationY(rad/s),gyroRotationZ(rad/s),magnetometerX(µT),magnetometerY(µT),magnetometerZ(µT)
268363,-0.069244384765625,1.103302001953125,-0.3961181640625,0.7396011352539062,0.0955486297607421,-0.05556445941329,47.14068603515625,101.1689147949219,-13.398681640625
268364,-0.22247314453125,1.223907470703125,-0.3911285400390625,0.7396011352539062,0.0955486297607421,-0.05556445941329,47.17404174804688,101.1546478271484,-13.49989318847656
268365,-0.42376708984375,1.261978149414062,-0.4169769287109375,0.813594400882721,0.1546657383441925,-0.1920924782752991,47.12359619140625,101.1817474365234,-13.71578979492188
268366,-0.60107421875,1.3709716796875,-0.3662567138671875,0.9578452706336976,0.3569304347038269,-0.3951015174388885,47.14302062988281,101.2788848876953,-14.10528564453125
268367,-0.805328369140625,1.581207275390625,-0.27191162109375,1.125608205795288,0.8042330741882324,-0.724078893661499,46.95808410644531,101.2996826171875,-14.59075927734375
268368,-1.06866455078125,1.841827392578125,-0.1585845947265625,1.229819536209106,1.533592462539673,-1.221403956413269,46.49388122558594,101.5460510253906,-15.20654296875
268369,-1.33935546875,2.122406005859375,-0.114471435546875,1.15649950504303,2.3791344165802,-1.880358457565308,45.89131164550781,101.7395172119141,-15.93052673339844
268370,-1.33935546875,2.122406005859375,-0.114471435546875,1.15649950504303,2.3791344165802,-1.880358457565308,45.89131164550781,101.7395172119141,-15.93052673339844
268371,-2.08660888671875,2.280563354492188,-0.2240753173828125,0.2247814536094666,2.980113983154297,-1.757898569107056,44.13243103027344,102.0589904785156,-17.730224609375
268372,-2.053009033203125,2.554855346679688,-0.1866455078125,0.2354644536972046,2.104712963104248,-0.7276445627212524,43.29196166992188,102.137451171875,-18.53057861328125
268373,-1.636993408203125,2.928207397460938,0.015106201171875,0.3669716119766235,0.481855571269989,0.0944756418466568,42.74626159667969,102.2236328125,-18.90768432617188
268374,-1.125625610351562,3.197006225585938,0.287109375,0.0721865817904472,-0.980648636817932,0.7416762709617615,42.48622131347656,102.2444000244141,-19.21847534179688
268375,-0.7714691162109375,3.324127197265625,0.4495086669921875,-0.234933152794838,-2.109580993652344,1.132155895233154,42.40251159667969,102.1317443847656,-19.52818298339844
268376,-0.7051239013671875,3.24224853515625,0.7093353271484375,0.1488925367593765,-2.102185249328613,1.110912561416626,42.46246337890625,102.1789093017578,-19.57479858398438
268377,-0.68927001953125,2.874374389648438,0.8243560791015625,1.108317136764526,-1.110348224639893,0.915825128555298,42.65928649902344,102.2605590820312,-19.42001342773438
268378,-0.555206298828125,2.44049072265625,0.676361083984375,1.988132834434509,-0.3332080543041229,0.9771612286567688,43.1204833984375,102.3392944335938,-19.51785278320312
268379,-0.5117645263671875,2.252777099609375,0.440032958984375,2.338227510452271,-0.172052189707756,1.252850294113159,43.91987609863281,102.3095703125,-20.18296813964844
268380,-0.63153076171875,1.970001220703125,0.12725830078125,2.115439891815186,-0.6067940592765808,1.015588521957397,44.68849182128906,102.2473907470703,-21.07704162597656
268381,-0.609039306640625,1.4853515625,0.034637451171875,1.705872058868408,-1.293490171432495,0.7686277031898499,45.61647033691406,101.8980712890625,-22.25825500488281
268382,-0.5389862060546875,1.094314575195312,0.099639892578125,1.383654713630676,-1.690517067909241,0.5959421992301941,46.478515625,101.5896759033203,-23.28018188476562
268383,-0.4084625244140625,0.7696075439453125,0.084930419921875,1.278645157814026,-1.877527475357056,0.4988830387592316,47.06196594238281,101.3689117431641,-23.9853515625
268384,-0.297088623046875,0.5180816650390625,0.0424346923828125,1.325095176696777,-1.884076714515686,0.4586482644081116,47.52931213378906,101.2229919433594,-24.53309631347656
268385,-0.1941375732421875,0.3558807373046875,0.014984130859375,1.428558230400085,-1.67458188533783,0.4581340253353119,47.78744506835938,100.9839630126953,-25.01387023925781
268386,-0.070648193359375,0.272369384765625,0.0153961181640625,1.477362513542175,-1.273894548416138,0.5398584604263306,47.95838928222656,100.7383422851562,-25.77166748046875
268387,0.0015411376953125,0.2982330322265625,0.1197509765625,1.33613395690918,0.0283794440329074,0.7763290405273438,48.20037841796875,100.5911865234375,-26.47334289550781
268388,-0.00616455078125,0.416351318359375,0.2355194091796875,1.33613395690918,0.0283794440329074,0.7763290405273438,48.45890808105469,100.2664337158203,-27.07792663574219
268389,-0.0618896484375,0.518402099609375,0.3084869384765625,1.182886123657227,0.5210184454917908,0.8607022166252136,48.79685974121094,100.073974609375,-27.80033874511719
268390,-0.1432342529296875,0.5635986328125,0.3691558837890625,0.9809950590133668,0.7384831309318542,0.9342318177223206,49.25553894042969,99.76292419433594,-28.25238037109375
268391,-0.2375946044921875,0.573516845703125,0.410369873046875,0.6806374192237854,0.819496750831604,0.9033178687095642,49.87696838378906,99.73452758789062,-29.00761413574219
268392,-0.3328857421875,0.519134521484375,0.3760223388671875,0.3267424404621124,0.7115151286125183,0.7985413670539856,50.40753173828125,99.54647827148438,-29.66549682617188
268393,-0.3914337158203125,0.409027099609375,0.2807769775390625,0.0243586022406816,0.4707062542438507,0.6710255146026611,51.05630493164062,99.37030029296876,-29.86000061035156
268394,-0.31353759765625,0.3152618408203125,0.159759521484375,-0.1288048475980759,0.1145372316241264,0.5991137623786926,51.60601806640625,99.30226135253906,-30.00602722167969
268395,-0.16802978515625,0.310760498046875,0.155517578125,-0.1466815918684006,-0.1375147253274918,0.5313246250152588,51.98646545410156,99.19561767578124,-30.09783935546875
268396,-0.056365966796875,0.320037841796875,0.246551513671875,-0.1372302919626236,-0.0883570238947868,0.4525661468505859,52.23356628417969,99.16566467285156,-30.04275512695312
268397,0.0145721435546875,0.31256103515625,0.3575439453125,-0.1693645268678665,0.1668294668197632,0.4134525656700134,52.5184326171875,99.16218566894533,-29.93267822265625
268398,0.0145721435546875,0.31256103515625,0.3575439453125,-0.1693645268678665,0.1668294668197632,0.4134525656700134,52.5184326171875,99.16218566894533,-29.93267822265625
268399,0.0411529541015625,0.318145751953125,0.4672088623046875,-0.2980948090553284,0.5473035573959351,0.4185144305229187,52.62528991699219,99.3081512451172,-29.85845947265625
268400,-0.0604400634765625,0.47698974609375,0.56201171875,-0.9687235355377196,1.088427782058716,0.2848309278488159,53.29232788085938,99.35862731933594,-29.42364501953125
268401,-0.1832122802734375,0.5993194580078125,0.589630126953125,-1.404823541641235,1.069427490234375,0.0469874814152717,53.64459228515625,99.3702392578125,-29.02493286132812
268402,-0.32354736328125,0.69818115234375,0.6417083740234375,-1.809847474098206,0.9334054589271544,-0.1391056925058365,53.93061828613281,99.53695678710938,-28.48472595214844
268403,-0.4527740478515625,0.786163330078125,0.6788787841796875,-2.123416900634766,0.7456209063529968,-0.2473738342523575,54.06069946289062,99.79313659667967,-27.80441284179688
268404,-0.545257568359375,0.8602447509765625,0.6416015625,-2.301797389984131,0.4386015832424164,-0.3070587515830994,54.07759094238281,100.1768798828125,-27.04420471191406
268405,-0.5753631591796875,0.895355224609375,0.5406951904296875,-2.310935020446777,-0.0886188149452209,-0.3400161564350128,53.82759094238281,100.489501953125,-25.91371154785156
268406,-0.5400238037109375,0.8742218017578125,0.46075439453125,-2.19573450088501,-0.6892625689506531,-0.3684254288673401,53.59451293945312,100.8698883056641,-24.78584289550781
268407,-0.4608612060546875,0.8130950927734375,0.4233245849609375,-2.010252714157104,-1.133112668991089,-0.4907153844833374,53.30535888671875,101.2439422607422,-23.67277526855469
268408,-0.3864288330078125,0.6744384765625,0.3899078369140625,-1.813995361328125,-1.285278558731079,-0.6030794978141785,52.96784973144531,101.5476379394531,-22.69291687011719
268409,-0.329315185546875,0.5347442626953125,0.3387603759765625,-1.622669339179993,-1.180478930473328,-0.6859117746353149,52.52549743652344,101.8044128417969,-21.64070129394531
268410,-0.2806549072265625,0.4117584228515625,0.243988037109375,-1.455785036087036,-0.9761923551559448,-0.7441474199295044,52.09834289550781,101.8228149414062,-20.751953125
268411,-0.237213134765625,0.3026123046875,0.08258056640625,-1.248593211174011,-0.8282055258750916,-0.7662819623947144,51.80960083007812,101.9080810546875,-19.97572326660156
268412,-0.2157440185546875,0.207244873046875,-0.0675048828125,-0.9614900946617126,-0.7589210271835327,-0.7688570022583008,51.42628479003906,102.0630493164062,-19.30247497558594
268413,-0.2119293212890625,0.12957763671875,-0.150421142578125,-0.6750780344009399,-0.7059155702590942,-0.7715217471122742,50.99411010742188,102.0218048095703,-18.68711853027344
268414,-0.1902313232421875,0.064910888671875,-0.1810455322265625,-0.4448666870594025,-0.5754715800285339,-0.7593095898628235,50.65287780761719,102.0354766845703,-18.1827392578125
268415,-0.136566162109375,0.020660400390625,-0.2235565185546875,-0.2644862532615662,-0.3901110291481018,-0.7034593224525452,50.2147216796875,101.9428253173828,-17.91627502441406
268416,-0.0527801513671875,-0.00042724609375,-0.2931671142578125,-0.1127379983663559,-0.2831677794456482,-0.5935730338096619,49.97262573242188,101.9804077148438,-17.65440368652344
268417,0.0179290771484375,-0.0137939453125,-0.3545989990234375,0.0016588830621913,-0.3377096056938171,-0.4406357109546661,49.74263000488281,101.8494110107422,-17.50196838378906
268418,0.055206298828125,-0.02264404296875,-0.373779296875,0.0739607736468315,-0.4754632115364075,-0.27376788854599,49.52745056152344,101.8080902099609,-17.28042602539062
268419,0.08502197265625,-0.0235443115234375,-0.38104248046875,0.1037777960300446,-0.9057512283325196,0.0261370614171028,49.21821594238281,101.71484375,-17.12782287597656
268420,0.11724853515625,0.0088958740234375,-0.4058074951171875,0.1037777960300446,-0.9057512283325196,0.0261370614171028,48.94493103027344,101.7037353515625,-17.09335327148438
268421,0.1413726806640625,0.0860443115234375,-0.4062652587890625,0.1059818267822266,-1.174236178398132,0.1122527718544006,48.80088806152344,101.5277862548828,-16.94473266601562
268422,0.159637451171875,0.1976470947265625,-0.3429718017578125,0.0509689077734947,-1.209947347640991,0.0887631550431251,48.76434326171875,101.5713043212891,-16.80953979492188
268423,0.1678924560546875,0.3349151611328125,-0.34765625,-0.1873371303081512,-0.3733355104923248,-0.3477553129196167,48.53932189941406,101.4787445068359,-16.60166931152344
268424,0.14569091796875,0.493988037109375,-0.460845947265625,-0.1873371303081512,-0.3733355104923248,-0.3477553129196167,48.41673278808594,101.6144714355469,-16.57626342773438
268425,0.0729217529296875,0.6103668212890625,-0.4735260009765625,-0.2398024797439575,-0.1954230219125748,-0.6501266360282898,48.26472473144531,101.6955108642578,-16.46524047851562
268426,-0.034881591796875,0.642059326171875,-0.3242645263671875,-0.2669113278388977,-0.0998360514640808,-0.8963207006454468,48.01397705078125,101.7293548583984,-16.140380859375
268427,-0.1300048828125,0.6346893310546875,-0.26763916015625,-0.0252289231866598,-0.0134212663397193,-1.182786822319031,47.64033508300781,101.7705230712891,-16.01414489746094
268428,-0.1300048828125,0.6346893310546875,-0.26763916015625,-0.0252289231866598,-0.0134212663397193,-1.182786822319031,47.64033508300781,101.7705230712891,-16.01414489746094
268429,-0.3079681396484375,0.7749481201171875,-0.4274139404296875,0.3077029585838318,-0.0978120490908622,-1.321295380592346,46.57879638671875,101.9258270263672,-15.40594482421875
268430,-0.3079681396484375,0.7749481201171875,-0.4274139404296875,0.3077029585838318,-0.0978120490908622,-1.321295380592346,46.57879638671875,101.9258270263672,-15.40594482421875
268431,-0.6244964599609375,1.106491088867188,-0.5625,1.032445549964905,0.0741192325949668,-1.41888964176178,45.30007934570312,101.9395294189453,-15.39596557617188
268432,-0.864013671875,1.390060424804688,-0.5328369140625,1.259584069252014,0.5048232078552246,-1.355448603630066,44.44551086425781,102.0559387207031,-15.61341857910156
268433,-1.127090454101562,1.752731323242188,-0.26519775390625,0.5444316267967224,2.325954914093018,-1.923771977424622,43.50115966796875,102.21826171875,-16.10003662109375
268434,-1.375,2.217681884765625,-0.1488037109375,0.5444316267967224,2.325954914093018,-1.923771977424622,42.60208129882812,102.3488159179688,-16.56143188476562
268435,-1.375,2.217681884765625,-0.1488037109375,0.5444316267967224,2.325954914093018,-1.923771977424622,42.60208129882812,102.3488159179688,-16.56143188476562
268436,-2.552154541015625,2.39556884765625,-0.4166107177734375,-0.6671106815338135,1.638048887252808,-2.334481954574585,40.57040405273438,102.8301239013672,-17.72807312011719
268437,-3.06292724609375,2.409683227539062,-0.2431793212890625,-1.000625729560852,0.4450376629829407,-0.5849787592887878,39.38087463378906,103.0357666015625,-18.23004150390625
268438,-2.822402954101562,2.669891357421875,-0.02117919921875,-0.9452046155929564,-1.064786672592163,0.5830317139625549,38.35978698730469,103.2772979736328,-18.39910888671875
268439,-2.000045776367188,2.7686767578125,0.491546630859375,-0.7705214619636536,-1.672722697257996,1.211367249488831,37.72509765625,103.6481018066406,-18.14895629882812
268440,-1.35382080078125,2.7884521484375,0.71331787109375,-0.3093242943286896,-0.8079359531402588,1.562276840209961,37.51516723632812,103.7249603271484,-17.78181457519531
268441,-1.054611206054688,2.73492431640625,0.6120452880859375,0.3355993032455444,0.0563799180090427,1.754728555679321,37.64254760742188,103.8449554443359,-17.22410583496094
268442,-1.054611206054688,2.73492431640625,0.6120452880859375,0.3355993032455444,0.0563799180090427,1.754728555679321,37.64254760742188,103.8449554443359,-17.22410583496094
268443,-1.073959350585938,2.397018432617188,0.4888153076171875,1.052051424980164,0.7097896933555603,1.892789244651794,39.04684448242188,103.7048797607422,-17.15510559082031
268444,-1.12091064453125,2.174148559570312,0.271881103515625,1.363110780715942,1.047290444374084,1.872473120689392,40.16441345214844,103.5466461181641,-17.80178833007812
268445,-0.9515380859375,2.052398681640625,-0.1695709228515625,1.631509780883789,0.6877610683441162,1.863430261611938,41.40159606933594,103.4371643066406,-18.43910217285156
268446,-0.82037353515625,2.047943115234375,-0.2285003662109375,1.629540085792542,-0.1984752714633942,1.844098687171936,42.81234741210938,103.1355133056641,-19.34463500976562
268447,-0.7712249755859375,1.80023193359375,-0.1168975830078125,1.597271919250488,-1.036345958709717,1.391824126243591,44.40304565429688,102.7494354248047,-20.39291381835938
268448,-0.63372802734375,1.388565063476562,0.092926025390625,1.681058645248413,-1.797957062721252,0.9298879504203796,45.72337341308594,102.3738250732422,-21.21490478515625
268449,-0.46875,1.026580810546875,0.1698760986328125,1.650111675262451,-2.000299453735352,0.9321455359458924,46.99885559082031,101.9338073730469,-22.08872985839844
268450,-0.035675048828125,0.638885498046875,0.2298431396484375,1.844848155975342,-1.637582302093506,1.069860816001892,48.52342224121094,101.09326171875,-23.39173889160156
268451,-0.035675048828125,0.638885498046875,0.2298431396484375,1.844848155975342,-1.637582302093506,1.069860816001892,48.52342224121094,101.09326171875,-23.39173889160156
268452,0.12164306640625,0.6691741943359375,0.553375244140625,1.844848155975342,-1.637582302093506,1.069860816001892,49.01264953613281,100.8489990234375,-23.96038818359375
268453,0.1950836181640625,0.7328948974609375,0.8154144287109375,2.031136274337769,-0.781471848487854,1.233816385269165,49.38357543945312,100.5977783203125,-24.60157775878906
268454,0.180816650390625,0.798492431640625,0.94842529296875,1.981764912605286,0.227813720703125,1.466490983963013,49.80247497558594,100.4103393554688,-25.52091979980469
268455,0.1031036376953125,0.885162353515625,0.948333740234375,1.098802447319031,1.660602331161499,1.481540203094482,50.30426025390625,100.0835113525391,-26.47299194335938
268456,0.0008087158203125,0.92047119140625,0.7476348876953125,1.098802447319031,1.660602331161499,1.481540203094482,51.02597045898438,99.8003387451172,-27.36428833007812
268457,-0.137298583984375,0.7277679443359375,0.3738861083984375,0.6535120010375977,1.385544657707214,1.121956467628479,52.04949951171875,99.4805145263672,-28.13862609863281
268458,-0.2839202880859375,0.43450927734375,0.1589202880859375,0.5117101669311523,0.6361905932426453,0.7879704833030701,53.122314453125,99.23178100585938,-28.57173156738281
268459,-0.310211181640625,0.259124755859375,0.1933441162109375,0.6084809303283691,0.0444502905011177,0.6048435568809509,54.21182250976562,98.80165100097656,-28.89894104003906
268460,-0.2482147216796875,0.21282958984375,0.3132171630859375,0.7233912348747253,-0.1170206293463707,0.4286855757236481,54.90217590332031,98.63558959960938,-29.06907653808594
268461,-0.1509857177734375,0.1661529541015625,0.41925048828125,0.7141335606575012,0.090799942612648,0.2319485396146774,55.2947998046875,98.57969665527344,-29.37440490722656
268462,-0.05255126953125,0.09173583984375,0.4329071044921875,0.6066116094589233,0.4247361123561859,0.0938247591257095,55.421142578125,98.57534790039062,-29.78744506835938
268463,0.034576416015625,-0.0007781982421875,0.357269287109375,0.4578631818294525,0.61186683177948,0.0355497375130653,55.58155822753906,98.3914031982422,-30.12367248535156
268464,0.1090850830078125,-0.0841522216796875,0.2844390869140625,0.2865348160266876,0.541325569152832,0.073188729584217,55.65127563476562,98.48426818847656,-30.41964721679688
268465,0.1496124267578125,-0.124847412109375,0.27044677734375,0.1109142675995827,0.3023137748241425,0.1457886248826981,55.68280029296875,98.57682800292967,-30.56809997558594
268466,0.179962158203125,-0.1205291748046875,0.296356201171875,-0.1074007600545883,-0.0446747913956642,0.2238227128982544,55.76348876953125,98.54644775390624,-30.52975463867188
268467,0.21112060546875,-0.0751190185546875,0.341064453125,-0.6441826820373535,-1.051337122917175,0.3277749419212341,55.87521362304688,98.5141143798828,-30.45655822753906
268468,0.2195892333984375,0.04217529296875,0.446075439453125,-0.6441826820373535,-1.051337122917175,0.3277749419212341,56.04389953613281,98.54426574707033,-30.24844360351562
268469,0.1812744140625,0.207122802734375,0.6264190673828125,-0.912597358226776,-1.499688625335693,0.2066503763198853,56.177978515625,98.57232666015624,-29.94454956054688
268470,0.11767578125,0.3420257568359375,0.7840728759765625,-1.132965683937073,-1.798555493354797,-0.0206845048815012,56.32781982421875,98.54534912109376,-29.41481018066406
268471,0.0309600830078125,0.43621826171875,0.891387939453125,-1.331459045410156,-1.943495035171509,-0.2567790746688843,56.42526245117188,98.52435302734376,-28.89498901367188
268472,-0.084442138671875,0.541717529296875,0.951690673828125,-1.496807098388672,-1.828560471534729,-0.4651037752628326,56.407470703125,98.5738525390625,-28.5137939453125
268473,-0.1771392822265625,0.6081695556640625,0.925201416015625,-1.602210640907288,-1.447239518165588,-0.6401578783988953,56.23141479492188,98.37901306152344,-27.90875244140625
268474,-0.1771392822265625,0.6081695556640625,0.925201416015625,-1.602210640907288,-1.447239518165588,-0.6401578783988953,56.23141479492188,98.37901306152344,-27.90875244140625
268475,-0.2575531005859375,0.51251220703125,0.6154632568359375,-1.836232781410217,0.107249490916729,-0.8478245139122009,55.73898315429688,98.6720733642578,-26.67141723632812
268476,-0.2183685302734375,0.391143798828125,0.4333343505859375,-1.836232781410217,0.107249490916729,-0.8478245139122009,55.45869445800781,98.7760772705078,-25.90379333496094
268477,-0.179962158203125,0.28936767578125,0.2713775634765625,-1.947348594665527,0.4707392752170563,-0.8775251507759094,55.09243774414062,98.8086395263672,-25.17083740234375
268478,-0.13446044921875,0.2260284423828125,0.1177978515625,-2.063422679901123,0.621204137802124,-1.001797318458557,54.66423034667969,99.04624938964844,-24.32955932617188
268479,-0.09234619140625,0.1768035888671875,-0.0567474365234375,-2.186394453048706,0.5320505499839783,-1.121933579444885,54.10739135742188,99.51454162597656,-23.42527770996094
268480,-0.0854034423828125,0.0579681396484375,-1.42242431640625,-1.940361022949219,-0.6187809705734253,-1.233305096626282,53.400146484375,99.87278747558594,-22.57185363769531
268481,0.1003265380859375,-0.1152801513671875,-2.606277465820312,0.6009625196456909,-6.124301910400391,-1.052066564559937,52.62413024902344,100.1171417236328,-21.55201721191406
268482,0.103424072265625,-0.015625,-0.036590576171875,1.028363704681396,-6.121681213378906,-0.8884835243225098,51.71200561523438,100.4499816894531,-20.78683471679688
268483,0.056884765625,0.051483154296875,-0.2615814208984375,-1.047280311584473,-0.3742348551750183,-0.5345827341079712,50.42646789550781,100.7382965087891,-20.65322875976562
268484,0.1732940673828125,0.3645477294921875,-0.76019287109375,-0.5437130928039551,0.3898867666721344,-0.2555454969406128,49.06509399414062,100.7889099121094,-21.13911437988281
268485,0.0699615478515625,0.39202880859375,-0.337249755859375,-0.1930442899465561,0.4579137563705444,-0.0772913247346878,48.25051879882812,100.8277893066406,-21.19308471679688
268486,0.06036376953125,0.4619903564453125,-0.2900390625,-0.2387800812721252,0.1131904721260071,0.0914497524499893,48.38328552246094,100.6443176269531,-20.47711181640625
268487,0.0912322998046875,0.5679168701171875,-0.3110198974609375,-0.4334752559661865,-0.4243126511573792,0.3426755964756012,48.53645324707031,100.5299987792969,-20.23262023925781
268488,0.0912322998046875,0.5679168701171875,-0.3110198974609375,-0.4334752559661865,-0.4243126511573792,0.3426755964756012,48.53645324707031,100.5299987792969,-20.23262023925781
268489,0.180633544921875,0.891204833984375,-0.2474365234375,-0.4083685874938965,-0.9869920015335084,0.897510290145874,48.88510131835938,100.5905303955078,-19.53941345214844
268490,0.1582489013671875,1.078872680664062,-0.2012939453125,-0.2183017134666443,-0.4651216268539429,0.7616976499557495,49.04595947265625,100.5819854736328,-19.09931945800781
268491,0.1678314208984375,1.178970336914062,-0.2750244140625,0.3304887115955353,-0.0334591567516326,0.2184071689844131,49.33856201171875,100.6301116943359,-18.79733276367188
268492,0.1826324462890625,1.207992553710938,-0.36248779296875,0.3304887115955353,-0.0334591567516326,0.2184071689844131,49.61846923828125,100.5551452636719,-18.66719055175781
268493,0.2178497314453125,1.194351196289062,-0.421417236328125,0.5912886261940002,-0.252094566822052,0.0040285638533532,49.79554748535156,100.3906097412109,-18.59921264648438
268494,0.26495361328125,1.212005615234375,-0.4286041259765625,0.8088629841804504,-0.4879904389381409,-0.0249282531440258,49.91018676757812,100.3728790283203,-18.64500427246094
268495,0.2796630859375,1.304779052734375,-0.372711181640625,0.9126983284950256,-0.4234045147895813,0.1646392792463303,49.96406555175781,100.3990020751953,-18.83477783203125
268496,0.2465972900390625,1.505828857421875,-0.36932373046875,0.8940857648849487,-7.723167072981596e-05,0.4419627785682678,49.90940856933594,100.3983459472656,-19.05760192871094
268497,0.1488494873046875,1.766342163085938,-0.4530181884765625,0.8128412365913391,0.3974805176258087,0.6982459425926208,50.00515747070312,100.351318359375,-19.30113220214844
268498,-0.037017822265625,2.092941284179688,-0.487823486328125,0.747928261756897,0.5248810648918152,0.7744227647781372,50.28388977050781,100.4277954101562,-19.66836547851562
268499,-0.263702392578125,2.497772216796875,-0.3878173828125,0.8001618981361389,0.7197411060333252,0.5465530753135681,50.58584594726562,100.4362335205078,-19.98794555664062
268500,-0.6278533935546875,3.03961181640625,-0.3004302978515625,0.9563794732093812,1.051807165145874,-0.2143213450908661,50.84260559082031,100.3278503417969,-20.2520751953125
268501,-1.10076904296875,3.72705078125,-0.269622802734375,1.046849727630615,1.569544315338135,-1.657378911972046,50.8570556640625,100.1930999755859,-20.78744506835938
268502,-1.10076904296875,3.72705078125,-0.269622802734375,1.046849727630615,1.569544315338135,-1.657378911972046,50.8570556640625,100.1930999755859,-20.78744506835938
268503,-1.62200927734375,4.5067138671875,-0.6493377685546875,0.9725313186645508,1.893229722976685,-3.623951196670532,50.28828430175781,100.3168334960938,-21.4410400390625
268504,-3.14959716796875,3.34271240234375,-0.6593017578125,0.4018630087375641,3.078583478927612,-3.936997652053833,47.05429077148438,100.5562133789062,-23.69905090332031
268505,-3.508651733398438,1.915069580078125,-0.624969482421875,0.6403586864471436,4.471475124359131,0.1025849655270576,45.116943359375,100.6861267089844,-25.12092590332031
268506,-3.508651733398438,1.915069580078125,-0.624969482421875,0.6403586864471436,4.471475124359131,0.1025849655270576,45.116943359375,100.6861267089844,-25.12092590332031
268507,-0.8175506591796875,1.896560668945312,0.1361083984375,2.879730463027954,3.242887020111084,1.263146042823792,45.20944213867188,100.6088256835938,-27.04544067382812
268508,-0.58544921875,1.334060668945312,0.223602294921875,3.097460508346558,3.098293304443359,1.307575583457947,46.37779235839844,100.4716491699219,-28.33111572265625
268509,-0.4135894775390625,0.9998931884765624,0.2628631591796875,2.999480485916138,3.172752141952515,1.375015377998352,47.26898193359375,100.35302734375,-29.78706359863281
268510,-0.240966796875,0.7716217041015625,0.270721435546875,2.703991651535034,3.186139345169067,1.400089859962463,48.10096740722656,100.1616821289062,-31.34608459472656
268511,-0.1394195556640625,0.5693206787109375,0.244110107421875,2.309086322784424,3.006094694137573,1.406161308288574,49.14356994628906,99.66960144042967,-32.64944458007812
268512,-0.0849151611328125,0.3860015869140625,0.144012451171875,1.889809727668762,2.508624315261841,1.313250780105591,50.34393310546875,99.00442504882812,-33.57232666015625
268513,-0.0335845947265625,0.2459716796875,0.068603515625,1.525444865226746,1.723245739936829,1.158417582511902,51.57655334472656,98.46141052246094,-34.29388427734375
268514,-0.0034027099609375,0.1910247802734375,0.1561737060546875,1.148563027381897,0.9688257575035096,0.9722505807876588,52.79682922363281,98.07176208496094,-34.86512756347656
268515,-0.0222930908203125,0.31134033203125,0.34649658203125,0.7096868753433228,0.5657928586006165,0.6573477983474731,53.584228515625,97.65568542480467,-35.255615234375
268516,-0.08154296875,0.60186767578125,0.504486083984375,0.2549777030944824,0.4569643437862396,0.1999655812978745,54.15583801269531,97.36151123046876,-35.37333679199219
268517,-0.2232513427734375,0.945770263671875,0.618743896484375,-0.2004111260175705,0.5356698036193848,-0.1166541799902916,54.49186706542969,97.09487915039062,-35.4932861328125
268518,-0.42022705078125,1.287673950195312,0.6175384521484375,-0.5903791189193726,0.6632855534553528,-0.3500112593173981,54.65754699707031,97.08688354492188,-35.58761596679688
268519,-0.6204071044921875,1.445327758789062,0.4225311279296875,-0.7750720381736755,0.5658732652664185,-0.573528528213501,54.61460876464844,97.19752502441406,-35.47232055664062
268520,-0.6204071044921875,1.445327758789062,0.4225311279296875,-0.7750720381736755,0.5658732652664185,-0.573528528213501,54.61460876464844,97.19752502441406,-35.47232055664062
268521,-0.6099853515625,0.843414306640625,0.2722320556640625,-0.1048670262098312,-0.3423592150211334,-0.7258632183074951,54.303466796875,97.61683654785156,-34.94894409179688
268522,-0.494232177734375,0.60162353515625,0.4055938720703125,0.2457059025764465,-0.0497023090720176,-0.7472997903823853,53.94178771972656,97.9870147705078,-34.809814453125
268523,-0.4363555908203125,0.41961669921875,0.43170166015625,0.326181560754776,0.5485480427742004,-0.86650151014328,53.46420288085938,98.24864196777344,-35.00347900390625
268524,-0.44146728515625,0.2288055419921875,0.40594482421875,0.161015510559082,1.158674478530884,-0.9775183200836182,52.94012451171875,98.36677551269533,-35.13514709472656
268525,-0.4914703369140625,0.075897216796875,0.3662109375,-0.1279291957616806,1.574216604232788,-1.034386396408081,52.60983276367188,98.5267333984375,-35.22288513183594
268526,-0.654754638671875,-0.1201019287109375,0.2410430908203125,-0.6803162097930908,1.350310802459717,-0.8211790323257446,52.37139892578125,98.7419891357422,-35.22346496582031
268527,-0.654754638671875,-0.1201019287109375,0.2410430908203125,-0.6803162097930908,1.350310802459717,-0.8211790323257446,52.37139892578125,98.7419891357422,-35.22346496582031
268528,-0.7287445068359375,-0.0514984130859375,0.212371826171875,-0.9252790808677672,0.8315781950950623,-0.7351474761962891,52.2606201171875,98.9856414794922,-34.89642333984375
268529,-0.7671051025390625,0.149505615234375,0.1802825927734375,-1.118760704994202,0.1434634178876877,-0.7458747029304504,52.10067749023438,99.1840362548828,-34.53240966796875
268530,-0.7149505615234375,0.3683013916015625,0.1718597412109375,-1.245695233345032,-0.6514424681663513,-0.7996455430984497,51.87713623046875,99.3419189453125,-34.13713073730469
268531,-0.6353759765625,0.5045166015625,0.2378997802734375,-1.325308203697205,-1.482053399085999,-0.9996859431266784,51.41731262207031,99.62680053710938,-33.75062561035156
268532,-0.552886962890625,0.566864013671875,0.27386474609375,-1.249815344810486,-1.732851028442383,-1.084403991699219,50.97116088867188,99.91819763183594,-33.30300903320312
268533,-0.47894287109375,0.582183837890625,0.2640838623046875,-1.249815344810486,-1.732851028442383,-1.084403991699219,50.41020202636719,100.0816040039062,-32.69233703613281
268534,-0.47894287109375,0.582183837890625,0.2640838623046875,-1.249815344810486,-1.732851028442383,-1.084403991699219,50.41020202636719,100.0816040039062,-32.69233703613281
268535,-0.37646484375,0.557159423828125,0.27435302734375,-1.212263703346252,-2.069828987121582,-1.187285900115967,49.31895446777344,100.1462860107422,-31.58882141113281
268536,-0.2866668701171875,0.528778076171875,0.236572265625,-1.370828628540039,-2.149667978286743,-1.14471447467804,48.77284240722656,100.1248474121094,-31.08074951171875
268537,-0.17578125,0.488616943359375,0.17431640625,-1.594790101051331,-2.275425672531128,-1.037837862968445,48.18032836914062,100.1996154785156,-30.45272827148438
268538,-0.17578125,0.488616943359375,0.17431640625,-1.594790101051331,-2.275425672531128,-1.037837862968445,48.18032836914062,100.1996154785156,-30.45272827148438
268539,0.074462890625,0.3726348876953125,-0.3253936767578125,-1.835485816001892,-3.259353399276733,-0.6437281370162964,46.81425476074219,100.1529388427734,-28.94534301757812
268540,0.2310943603515625,0.2595977783203125,-0.5223846435546875,-1.644405603408813,-4.302709579467773,-0.1577235907316208,46.14126586914062,100.3123321533203,-27.86967468261719
268541,0.313140869140625,0.146514892578125,-0.4384918212890625,-1.049081206321716,-4.956692218780518,0.4395906925201416,45.30899047851562,100.4719085693359,-26.76876831054688
268542,0.313140869140625,0.146514892578125,-0.4384918212890625,-1.049081206321716,-4.956692218780518,0.4395906925201416,45.30899047851562,100.4719085693359,-26.76876831054688
268543,0.3212432861328125,0.099395751953125,0.227508544921875,-0.2148105651140213,-1.479077339172363,0.9549751877784728,43.87498474121094,100.9584655761719,-24.703369140625
268544,0.2967376708984375,0.067901611328125,-0.3253936767578125,-0.3143272995948792,0.7081475853919983,0.7957514524459839,43.70318603515625,100.9674377441406,-23.77922058105469
268545,0.2576141357421875,0.06695556640625,-0.6386260986328125,-0.3284862637519836,0.9150387048721312,0.6492871642112732,44.03591918945312,100.9060668945312,-23.2491455078125
268546,0.2388153076171875,0.063751220703125,-0.640167236328125,-0.5944297909736633,0.4173434376716614,0.477633148431778,44.57719421386719,100.9179229736328,-22.9937744140625
268547,0.202972412109375,0.0822906494140625,-0.5524444580078125,-0.9366694092750548,-0.2771911323070526,0.3213356733322144,44.96989440917969,100.8752288818359,-22.68196105957031
268548,0.15594482421875,0.1659393310546875,-0.4792633056640625,-1.074097871780396,-0.8548709750175476,0.1118692755699158,45.42826843261719,101.0004272460938,-22.39044189453125
268549,0.0594940185546875,0.268798828125,-0.4637908935546875,-0.7491171360015869,-0.6240811944007874,0.2009690552949905,45.51893615722656,101.0566253662109,-21.7030029296875
268550,0.0594940185546875,0.268798828125,-0.4637908935546875,-0.7491171360015869,-0.6240811944007874,0.2009690552949905,45.51893615722656,101.0566253662109,-21.7030029296875
268551,-0.06768798828125,0.4611053466796875,-0.4625396728515625,-0.3411104381084442,-0.2198410183191299,0.2828735113143921,45.52322387695312,101.0949859619141,-20.40005493164062
268552,-0.076873779296875,0.5807952880859375,-0.5144500732421875,0.028218587860465,0.0602921023964881,0.3585222065448761,45.53814697265625,101.0764770507812,-19.83992004394531
268553,-0.1012725830078125,0.7181243896484375,-0.5225982666015625,0.2866557240486145,0.2113055884838104,0.4250524938106537,45.65327453613281,101.1601409912109,-19.61740112304688
268554,-0.1410369873046875,0.887847900390625,-0.5699920654296875,0.4298073053359985,0.3048664331436157,0.5148712992668152,45.75856018066406,100.9656677246094,-19.53709411621094
268555,-0.200164794921875,1.114349365234375,-0.70782470703125,0.5430483818054199,0.3530872166156769,0.59131920337677,45.965087890625,100.8619079589844,-19.65829467773438
268556,-0.200164794921875,1.114349365234375,-0.70782470703125,0.5430483818054199,0.3530872166156769,0.59131920337677,45.965087890625,100.8619079589844,-19.65829467773438
268557,-0.3459625244140625,1.60992431640625,-0.770599365234375,0.4935583174228668,0.7955173850059509,0.5735726952552795,46.43507385253906,100.7811889648438,-20.18472290039062
268558,-0.349609375,1.839370727539062,-0.415374755859375,0.1064899563789368,1.47163462638855,0.4384258091449738,46.62202453613281,100.8074035644531,-20.38505554199219
268559,-0.349609375,1.839370727539062,-0.415374755859375,0.1064899563789368,1.47163462638855,0.4384258091449738,46.62202453613281,100.8074035644531,-20.38505554199219
268560,-0.3524017333984375,2.237869262695312,0.1185150146484375,-0.6300477385520935,1.533779740333557,-0.2164630591869354,47.02464294433594,100.8865661621094,-20.8587646484375
268561,-0.44085693359375,2.843902587890625,0.3213958740234375,-0.6416359543800354,1.192367553710938,-0.3504272699356079,47.08610534667969,100.8260498046875,-20.66950988769531
268562,-0.66912841796875,3.943634033203125,0.243560791015625,-0.1860513687133789,0.7490659952163696,-0.6345700025558472,47.08413696289062,100.8038330078125,-20.57785034179688
268563,-0.945953369140625,5.228347778320312,0.118865966796875,0.5722059607505798,-0.1085126250982285,-1.186365246772766,46.93675231933594,100.7173309326172,-20.60304260253906
268564,-0.945953369140625,5.228347778320312,0.118865966796875,0.5722059607505798,-0.1085126250982285,-1.186365246772766,46.93675231933594,100.7173309326172,-20.60304260253906
268565,-2.365097045898438,3.902725219726562,0.578582763671875,1.098325967788696,1.699958562850952,-0.7733132839202881,45.50086975097656,100.6996002197266,-21.63554382324219
268566,-2.45184326171875,2.432281494140625,-0.2530975341796875,0.9302898049354552,3.315934419631958,0.2917261123657227,44.47088623046875,100.9084777832031,-22.82821655273438
268567,-1.959686279296875,1.913848876953125,-0.24658203125,1.340795636177063,2.450530052185059,0.2600989639759064,44.18862915039062,101.0505218505859,-23.8270263671875
268568,-1.847610473632812,1.532424926757812,0.4102783203125,1.51976478099823,1.545292854309082,0.1736018806695938,44.52313232421875,101.2181549072266,-24.54637145996094
268569,-1.7572021484375,1.279556274414062,0.5276031494140625,1.246076583862305,1.457147002220154,0.3021345436573029,45.1744384765625,101.4447631835938,-25.35891723632812
268570,-1.51324462890625,1.146636962890625,0.0834503173828125,0.8667537569999695,1.23774516582489,0.2552493512630463,45.60945129394531,101.7104034423828,-26.15132141113281
268571,-1.195068359375,0.991973876953125,-0.1748046875,0.6113238334655762,0.2975770831108093,0.1611305624246597,46.04055786132812,101.8427429199219,-26.78828430175781
268572,-0.9278411865234376,0.8344268798828125,0.0196685791015625,0.5338618159294128,-0.5812714099884033,0.1400697529315948,46.4140625,101.7811126708984,-27.34771728515625
268573,-0.7472991943359375,0.668060302734375,0.275177001953125,0.5807248950004578,-0.8921626806259155,0.1655269116163254,46.66107177734375,101.6686706542969,-27.55694580078125
268574,-0.59417724609375,0.509490966796875,0.34832763671875,0.7400221824645996,-0.7983810901641846,0.2047523409128189,46.96775817871094,101.3911895751953,-27.77581787109375
268575,-0.450164794921875,0.385528564453125,0.2800750732421875,1.156493663787842,-0.3736739754676819,0.2085502743721008,47.245361328125,101.1185913085938,-27.84309387207031
268576,-0.3217620849609375,0.3152008056640625,0.15484619140625,1.156493663787842,-0.3736739754676819,0.2085502743721008,47.42037963867188,100.7723083496094,-28.10601806640625
268577,-0.1649169921875,0.255584716796875,0.07080078125,1.115471124649048,-0.0641299858689308,0.2083255052566528,47.59481811523438,100.4405212402344,-28.49417114257812
268578,-0.0102081298828125,0.2413482666015625,0.0029296875,0.9044744968414308,0.441918820142746,0.3161582350730896,47.75221252441406,100.1772766113281,-28.99456787109375
268579,-0.0290679931640625,0.4982147216796875,-0.0107574462890625,0.5466159582138062,1.39134693145752,-0.1530273705720901,47.742431640625,99.96649169921876,-29.36686706542969
268580,-0.2013702392578125,0.809417724609375,-0.0380401611328125,0.5466159582138062,1.39134693145752,-0.1530273705720901,47.75384521484375,99.83392333984376,-29.71261596679688
268581,-0.4006805419921875,0.8623504638671875,-0.0932769775390625,0.4528849124908447,0.929857075214386,-0.3681204915046692,47.80439758300781,99.70703125,-30.075439453125
268582,-0.4006805419921875,0.8623504638671875,-0.0932769775390625,0.4528849124908447,0.929857075214386,-0.3681204915046692,47.80439758300781,99.70703125,-30.075439453125
268583,-0.41192626953125,0.655609130859375,-0.1464080810546875,0.4214092791080475,0.3529181182384491,-0.3542797863483429,47.8505859375,99.66148376464844,-30.73042297363281
268584,-0.2972869873046875,0.43267822265625,-0.128082275390625,0.4214092791080475,0.3529181182384491,-0.3542797863483429,47.75334167480469,99.5856475830078,-30.98873901367188
268585,-0.2429351806640625,0.28704833984375,-0.151611328125,0.4282543957233429,0.3559298813343048,-0.2598124146461487,47.71946716308594,99.44027709960938,-31.05410766601562
268586,-0.2214508056640625,0.1918792724609375,-0.1116485595703125,0.447625458240509,0.4361656010150909,-0.1989509165287018,47.69963073730469,99.35969543457033,-31.33650207519531
268587,-0.2201690673828125,0.13031005859375,-0.0731048583984375,0.3910212814807892,0.5507947206497192,-0.2019112855195999,47.59794616699219,99.37701416015624,-31.52073669433594
268588,-0.2201690673828125,0.13031005859375,-0.0731048583984375,0.3910212814807892,0.5507947206497192,-0.2019112855195999,47.59794616699219,99.37701416015624,-31.52073669433594
268589,-0.2345123291015625,0.099151611328125,-0.001953125,0.2638433575630188,0.5547659993171692,-0.2691792845726013,47.61674499511719,99.23577880859376,-31.83415222167969
268590,-0.2456817626953125,0.090057373046875,0.0641021728515625,0.0657321438193321,0.5190969705581665,-0.3226648569107056,47.68405151367188,99.4203643798828,-32.03224182128906
268591,-0.263946533203125,0.1306915283203125,0.182891845703125,-0.3941284120082855,0.5625262260437012,-0.3277360498905182,47.67536926269531,99.447998046875,-32.1494140625
268592,-0.29510498046875,0.17584228515625,0.3529205322265625,-0.3941284120082855,0.5625262260437012,-0.3277360498905182,47.77015686035156,99.59922790527344,-32.24314880371094
268593,-0.3639373779296875,0.2664794921875,0.5254974365234375,-0.5598127245903015,0.9159023761749268,-0.299544095993042,47.72799682617188,99.75381469726562,-32.07402038574219
268594,-0.3639373779296875,0.2664794921875,0.5254974365234375,-0.5598127245903015,0.9159023761749268,-0.299544095993042,47.72799682617188,99.75381469726562,-32.07402038574219
268595,-0.572784423828125,0.5187530517578125,0.5089111328125,-0.89010089635849,0.957130253314972,-0.5964098572731018,47.61857604980469,99.96173095703124,-31.69020080566406
268596,-0.6892852783203125,0.6168212890625,0.3733367919921875,-0.89010089635849,0.957130253314972,-0.5964098572731018,47.65847778320312,100.0635070800781,-31.51483154296875
268597,-0.7603607177734375,0.6305694580078125,0.2250823974609375,-0.9486470222473145,0.2307983338832855,-0.7245542407035828,47.67829895019531,100.2464599609375,-31.24081420898438
268598,-0.7603607177734375,0.6305694580078125,0.2250823974609375,-0.9486470222473145,0.2307983338832855,-0.7245542407035828,47.67829895019531,100.2464599609375,-31.24081420898438
268599,-0.5607147216796875,0.4331512451171875,0.1034088134765625,-1.243801116943359,-1.538447380065918,-0.8496767282485962,47.17308044433594,100.7500457763672,-30.64013671875
268600,-0.403167724609375,0.3380584716796875,0.110809326171875,-1.243801116943359,-1.538447380065918,-0.8496767282485962,46.6265869140625,100.8964080810547,-30.23837280273438
268601,-0.2598876953125,0.2730712890625,0.0970306396484375,-1.267760038375854,-1.602388381958008,-0.833311915397644,45.98966979980469,101.072021484375,-29.63473510742188
268602,-0.1268768310546875,0.2297821044921875,0.017425537109375,-1.221909999847412,-1.524727344512939,-0.7712024450302124,45.2974853515625,101.2396697998047,-29.054931640625
268603,-0.023895263671875,0.194549560546875,-0.0963897705078125,-0.9439273476600648,-1.655750632286072,-0.5252954959869385,44.68582153320312,101.4838104248047,-28.32798767089844
268604,-0.023895263671875,0.194549560546875,-0.0963897705078125,-0.9439273476600648,-1.655750632286072,-0.5252954959869385,44.68582153320312,101.4838104248047,-28.32798767089844
268605,0.1011810302734375,0.0818634033203125,-0.13916015625,-0.8335995078086853,-1.732680320739746,-0.346801370382309,43.67167663574219,101.5635986328125,-26.94270324707031
268606,0.1011810302734375,0.0818634033203125,-0.13916015625,-0.8335995078086853,-1.732680320739746,-0.346801370382309,43.67167663574219,101.5635986328125,-26.94270324707031
268607,0.1461944580078125,-0.004302978515625,-0.1544952392578125,-0.7151937484741211,-1.870808601379395,0.0306764189153909,42.89962768554688,101.4941711425781,-25.60685729980469
268608,0.1592559814453125,-0.0155487060546875,-0.1354522705078125,-0.6353287696838379,-1.890980124473572,0.1707941144704819,42.61174011230469,101.5095062255859,-24.93257141113281
268609,0.1669464111328125,0.0052490234375,-0.1014556884765625,-0.5582526326179504,-1.779272317886353,0.2649573683738708,42.46682739257812,101.4351196289062,-24.19723510742188
268610,0.17864990234375,0.0512847900390625,-0.081878662109375,-0.5543801188468933,-1.39198899269104,0.3032421767711639,42.20973205566406,101.4513702392578,-23.46946716308594
268611,0.1780548095703125,0.151947021484375,-0.1780548095703125,-0.6473694443702698,-0.7429748177528381,0.2755452990531921,42.11851501464844,101.5174865722656,-22.96485900878906
268612,0.0979461669921875,0.315704345703125,-0.36279296875,-0.6194403171539307,-0.4398753643035889,0.034931618720293,42.10211181640625,101.5742797851562,-22.39045715332031
268613,-0.0201873779296875,0.4422454833984375,-0.4370574951171875,-0.6194403171539307,-0.4398753643035889,0.034931618720293,42.10911560058594,101.5273284912109,-21.86505126953125
268614,-0.0201873779296875,0.4422454833984375,-0.4370574951171875,-0.6194403171539307,-0.4398753643035889,0.034931618720293,42.10911560058594,101.5273284912109,-21.86505126953125
268615,-0.12786865234375,0.530731201171875,-0.384918212890625,-0.5183584690093994,-0.5678762197494507,-0.0514480099081993,42.12405395507812,101.4412536621094,-21.31513977050781
268616,-0.205718994140625,0.6161346435546875,-0.3742218017578125,-0.4257006943225861,-0.6484304666519165,-0.0701692327857017,42.14433288574219,101.4118041992188,-20.89488220214844
268617,-0.3540496826171875,0.815216064453125,-0.42608642578125,-0.2725790739059448,-0.5931820869445801,0.0899362787604332,41.854736328125,101.4031829833984,-20.31169128417969
268618,-0.3540496826171875,0.815216064453125,-0.42608642578125,-0.2725790739059448,-0.5931820869445801,0.0899362787604332,41.854736328125,101.4031829833984,-20.31169128417969
268619,-0.4086151123046875,1.14459228515625,-0.5409698486328125,-0.0129642682150006,-0.4923122227191925,0.5191760659217834,41.64244079589844,101.3396606445312,-19.64056396484375
268620,-0.3858642578125,1.4322509765625,-0.5693511962890625,0.1533346921205521,-0.3011792898178101,0.5946577787399292,41.74522399902344,101.2750701904297,-19.43962097167969
268621,-0.2890167236328125,1.734512329101562,-0.441925048828125,0.1533346921205521,-0.3011792898178101,0.5946577787399292,41.84909057617188,101.2132568359375,-19.25495910644531
268622,-0.2890167236328125,1.734512329101562,-0.441925048828125,0.1533346921205521,-0.3011792898178101,0.5946577787399292,41.84909057617188,101.2132568359375,-19.25495910644531
268623,-0.219696044921875,1.977096557617188,-0.2936859130859375,0.3661636114120483,0.0148109039291739,0.6347758769989014,42.10423278808594,101.0691070556641,-19.02127075195312
268624,-0.3306121826171875,2.267959594726562,-0.3035125732421875,1.118049025535583,0.2184801399707794,0.640623927116394,42.68772888183594,100.7990417480469,-19.08102416992188
268625,-0.3907318115234375,2.456329345703125,-0.3568572998046875,1.335079669952393,0.3719530403614044,0.6504531502723694,42.99195861816406,100.8279724121094,-19.49382019042969
268626,-0.3907318115234375,2.456329345703125,-0.3568572998046875,1.335079669952393,0.3719530403614044,0.6504531502723694,42.99195861816406,100.8279724121094,-19.49382019042969
268627,-0.35992431640625,2.52471923828125,-0.539337158203125,0.8253506422042847,0.5676149725914001,0.970284640789032,43.531982421875,100.7942657470703,-20.7896728515625
268628,-0.4865875244140625,2.527786254882812,-0.5719146728515625,0.6162930130958557,0.4073802828788757,0.9687504172325134,43.82046508789062,100.7852172851562,-21.52590942382812
268629,-0.751922607421875,2.719772338867188,-0.5382080078125,0.7410517334938049,0.2836407721042633,0.6931015253067017,44.11508178710938,100.7806396484375,-22.02890014648438
268630,-0.751922607421875,2.719772338867188,-0.5382080078125,0.7410517334938049,0.2836407721042633,0.6931015253067017,44.11508178710938,100.7806396484375,-22.02890014648438
268631,-1.3369140625,3.4027099609375,0.0365447998046875,1.196205377578735,1.511492729187012,-0.7159863114356995,44.64797973632812,101.1912689208984,-23.00764465332031
268632,-1.658035278320312,3.585311889648438,0.194549560546875,1.158042311668396,2.359269380569458,-1.789474368095398,44.58283996582031,101.2135314941406,-23.70362854003906
268633,-2.231796264648438,3.220870971679688,0.2489013671875,0.7578229904174805,3.180781602859497,-2.239316701889038,44.18679809570312,101.3197021484375,-24.47872924804688
268634,-2.231796264648438,3.220870971679688,0.2489013671875,0.7578229904174805,3.180781602859497,-2.239316701889038,44.18679809570312,101.3197021484375,-24.47872924804688
268635,-2.55126953125,1.1866455078125,-0.0830230712890625,0.7245534658432007,2.654113054275513,-0.391928106546402,43.16246032714844,101.3741760253906,-26.51600646972656
268636,-2.10247802734375,0.824127197265625,0.139190673828125,1.099276423454285,1.836948871612549,0.2692125737667084,42.91035461425781,101.5796661376953,-27.47221374511719
268637,-1.631179809570312,0.8407745361328125,0.232330322265625,1.018876671791077,1.513930082321167,0.3117890357971191,43.03669738769531,101.6767883300781,-28.14268493652344
268638,-1.631179809570312,0.8407745361328125,0.232330322265625,1.018876671791077,1.513930082321167,0.3117890357971191,43.03669738769531,101.6767883300781,-28.14268493652344
268639,-1.265792846679688,0.7153778076171875,0.1216583251953125,0.7152105569839478,1.225060224533081,0.3239037692546844,43.48463439941406,101.712890625,-28.80372619628906
268640,-0.7821044921875,0.558685302734375,0.071441650390625,0.5853130221366882,0.218156561255455,0.5015193223953247,44.41233825683594,101.6329650878906,-29.84449768066406
268641,-0.591552734375,0.55633544921875,0.1466217041015625,0.5853130221366882,0.218156561255455,0.5015193223953247,44.82386779785156,101.6110382080078,-30.05145263671875
268642,-0.591552734375,0.55633544921875,0.1466217041015625,0.5853130221366882,0.218156561255455,0.5015193223953247,44.82386779785156,101.6110382080078,-30.05145263671875
268643,-0.391265869140625,0.4726104736328125,0.2445831298828125,1.034210085868835,1.679399013519287,-0.0215420443564653,45.36524963378906,101.3931579589844,-30.27790832519531
268644,-0.2883148193359375,0.419891357421875,0.1171722412109375,0.9633567333221436,1.861849188804626,-0.1867195516824722,45.42105102539062,101.3111572265625,-30.47634887695312
268645,-0.18597412109375,0.3695831298828125,-0.042327880859375,0.9633567333221436,1.861849188804626,-0.1867195516824722,45.61997985839844,101.1257171630859,-30.63920593261719
268646,-0.100799560546875,0.333038330078125,-0.0711517333984375,0.8372603058815002,1.647003412246704,-0.2387710362672806,45.92854309082031,100.8671417236328,-30.93258666992188
268647,-0.100799560546875,0.333038330078125,-0.0711517333984375,0.8372603058815002,1.647003412246704,-0.2387710362672806,45.92854309082031,100.8671417236328,-30.93258666992188
268648,-0.05145263671875,0.330352783203125,0.05804443359375,0.5166508555412292,0.8121549487113953,-0.2998727262020111,46.67147827148438,100.0897674560547,-31.36836242675781
268649,-0.0445556640625,0.291900634765625,0.0684051513671875,0.3975479006767273,0.3566649258136749,-0.3490312397480011,47.0499267578125,99.85629272460938,-31.8323974609375
268650,-0.0445556640625,0.291900634765625,0.0684051513671875,0.3975479006767273,0.3566649258136749,-0.3490312397480011,47.0499267578125,99.85629272460938,-31.8323974609375
268651,-0.039703369140625,0.227874755859375,0.0256195068359375,0.3867285251617432,-0.5900188088417053,-0.4969021677970886,47.23570251464844,99.61003112792967,-32.28445434570312
268652,-0.011444091796875,0.0724639892578125,0.0509490966796875,0.380350261926651,-0.7773306369781494,-0.5466449856758118,47.14497375488281,99.31065368652344,-32.43792724609375
268653,-0.0156402587890625,0.030517578125,0.0290069580078125,0.3214267492294312,-0.7738538980484009,-0.6079288125038147,46.98410034179688,99.18415832519533,-32.36773681640625
268654,-0.0156402587890625,0.030517578125,0.0290069580078125,0.3214267492294312,-0.7738538980484009,-0.6079288125038147,46.98410034179688,99.18415832519533,-32.36773681640625
268655,-0.020599365234375,0.0149383544921875,-0.056640625,0.2411742657423019,-0.8055183291435242,-0.687995433807373,46.134033203125,99.16961669921876,-32.85763549804688
268656,-0.06103515625,0.0634307861328125,-0.060089111328125,0.126029834151268,-0.9459731578826904,-0.6470022201538086,45.73521423339844,99.09979248046876,-33.1455078125
268657,-0.320343017578125,0.4561004638671875,0.2675628662109375,-0.2856709063053131,-0.8413783311843872,-0.4602887630462646,44.92384338378906,98.9931182861328,-33.20872497558594
268658,-0.320343017578125,0.4561004638671875,0.2675628662109375,-0.2856709063053131,-0.8413783311843872,-0.4602887630462646,44.92384338378906,98.9931182861328,-33.20872497558594
268659,-0.485687255859375,0.6678924560546875,0.3726043701171875,-0.4021636843681335,-0.732234001159668,-0.5933759808540344,44.58628845214844,99.05206298828124,-33.14665222167969
268660,-0.6727447509765625,0.834808349609375,0.4325408935546875,-0.4448054134845734,-0.6622245907783508,-0.8028940558433533,44.27397155761719,99.09817504882812,-33.00881958007812
268661,-0.9832305908203124,0.87286376953125,0.340545654296875,-0.4891920685768127,-0.91214120388031,-1.107771635055542,43.27497863769531,99.29623413085938,-32.76087951660156
268662,-0.9832305908203124,0.87286376953125,0.340545654296875,-0.4891920685768127,-0.91214120388031,-1.107771635055542,43.27497863769531,99.29623413085938,-32.76087951660156
268663,-1.052978515625,0.6879119873046875,0.2311248779296875,-0.5565125346183777,-1.208187222480774,-1.038682341575623,42.67134094238281,99.4372100830078,-32.72418212890625
268664,-0.71466064453125,0.3888092041015625,0.1102447509765625,-0.8498309254646301,-1.710434913635254,-0.7495421767234802,41.53274536132812,99.47735595703124,-32.23884582519531
268665,-0.49835205078125,0.3562164306640625,0.06109619140625,-1.030834317207336,-1.784862518310547,-0.6461271047592163,41.04974365234375,99.46974182128906,-31.62518310546875
268666,-0.49835205078125,0.3562164306640625,0.06109619140625,-1.030834317207336,-1.784862518310547,-0.6461271047592163,41.04974365234375,99.46974182128906,-31.62518310546875
268667,-0.189178466796875,0.21258544921875,-0.12164306640625,-1.085941433906555,-1.852218389511108,-0.3960826396942139,40.22177124023438,99.5869598388672,-30.37193298339844
268668,-0.059326171875,0.1410369873046875,-0.1390838623046875,-0.9513788819313048,-1.827882170677185,-0.2816258072853088,39.78373718261719,99.6478271484375,-29.53990173339844
268669,0.0494384765625,0.07373046875,-0.111328125,-0.7985230088233948,-1.69663941860199,-0.1472733467817307,39.44401550292969,99.8256378173828,-28.87908935546875
268670,0.0494384765625,0.07373046875,-0.111328125,-0.7985230088233948,-1.69663941860199,-0.1472733467817307,39.44401550292969,99.8256378173828,-28.87908935546875
268671,0.1191864013671875,-0.0005950927734375,-0.0935211181640625,-0.6808019876480103,-1.517865419387817,0.0130215259268879,39.03810119628906,99.91537475585938,-28.06575012207031
268672,0.1417083740234375,-0.0493011474609375,-0.11077880859375,-0.5893682241439819,-1.426181077957153,0.1720133125782013,38.79759216308594,99.98773193359376,-27.26043701171875
268673,0.1559600830078125,-0.0887908935546875,-0.182586669921875,-0.4443942308425903,-1.795906186103821,0.3979092836380005,38.81671142578125,99.99310302734376,-25.68804931640625
268674,0.1895751953125,-0.08367919921875,-0.2335968017578125,-0.4026190936565399,-2.155217409133911,0.508984386920929,38.8349609375,100.1447906494141,-24.99891662597656
268675,0.1895751953125,-0.08367919921875,-0.2335968017578125,-0.4026190936565399,-2.155217409133911,0.508984386920929,38.8349609375,100.1447906494141,-24.99891662597656
268676,0.2560272216796875,-0.0735015869140625,-0.22607421875,-0.6303033828735352,-2.111485958099365,0.5571433901786804,38.91104125976562,100.1597747802734,-24.31298828125
268677,0.246826171875,0.206298828125,-0.5267181396484375,-0.9913737177848816,-1.232771873474121,0.3410388231277466,38.60928344726562,100.27587890625,-22.83609008789062
268678,0.246826171875,0.206298828125,-0.5267181396484375,-0.9913737177848816,-1.232771873474121,0.3410388231277466,38.60928344726562,100.27587890625,-22.83609008789062
268679,-0.03240966796875,0.2709197998046875,0.0308380126953125,-0.574429452419281,-0.3091530501842499,0.0624599158763885,38.64787292480469,100.4926147460938,-21.75302124023438
268680,-0.0619049072265625,0.3310089111328125,0.029205322265625,-0.4951958954334259,0.0641257241368293,-0.0790756419301033,38.74241638183594,100.4294738769531,-21.5343017578125
268681,-0.1286773681640625,0.606597900390625,-0.107818603515625,-0.441424548625946,0.1311814486980438,-0.1618474870920181,38.65025329589844,100.4178314208984,-21.20896911621094
268682,-0.1286773681640625,0.606597900390625,-0.107818603515625,-0.441424548625946,0.1311814486980438,-0.1618474870920181,38.65025329589844,100.4178314208984,-21.20896911621094
268683,-0.258544921875,0.9889373779296876,-0.2579498291015625,-0.36705282330513,-0.0843018293380737,-0.1632704138755798,38.53347778320312,100.3615875244141,-20.97320556640625
268684,-0.525238037109375,1.202682495117188,-0.3007049560546875,-0.3630791306495667,-0.307461142539978,-0.0620543174445629,38.04423522949219,100.2859649658203,-20.83772277832031
268685,-0.563720703125,1.185653686523438,-0.3070526123046875,-0.3349433839321136,-0.130434438586235,0.0623477958142757,37.80494689941406,100.2295227050781,-20.58824157714844
268686,-0.563720703125,1.185653686523438,-0.3070526123046875,-0.3349433839321136,-0.130434438586235,0.0623477958142757,37.80494689941406,100.2295227050781,-20.58824157714844
268687,-0.5630340576171875,1.186080932617188,-0.2946929931640625,-0.1011761501431465,0.1464280486106873,0.2072565108537674,37.65211486816406,100.1956176757812,-20.34696960449219
268688,-0.5550079345703125,1.450714111328125,-0.32525634765625,0.5722861289978027,0.9058247208595276,0.2372903078794479,37.85781860351562,99.98147583007812,-20.13693237304688
268689,-0.5899810791015625,1.620269775390625,-0.3873138427734375,0.6615563631057739,1.034259676933289,0.0945025384426116,37.89344787597656,99.87106323242188,-20.37828063964844
268690,-0.5899810791015625,1.620269775390625,-0.3873138427734375,0.6615563631057739,1.034259676933289,0.0945025384426116,37.89344787597656,99.87106323242188,-20.37828063964844
268691,-0.6156005859375,1.740768432617188,-0.2855987548828125,0.485327273607254,1.03610098361969,-0.0738851428031921,37.95741271972656,99.76725769042967,-20.71206665039062
268692,-0.5444183349609375,2.017288208007812,0.0191497802734375,-0.1859932988882065,1.278338670730591,0.071112260222435,37.98748779296875,99.58314514160156,-21.64593505859375
268693,-0.574432373046875,2.393081665039062,0.0763397216796875,-0.349672794342041,1.113344073295593,0.3225426375865936,38.08738708496094,99.48358154296876,-21.84494018554688
268694,-0.574432373046875,2.393081665039062,0.0763397216796875,-0.349672794342041,1.113344073295593,0.3225426375865936,38.08738708496094,99.48358154296876,-21.84494018554688
268695,-0.754913330078125,3.125030517578125,0.0774688720703125,-0.2776585221290588,0.8451927900314331,0.4039647877216339,38.09161376953125,99.45166015625,-22.02900695800781
268696,-1.07177734375,3.921157836914062,0.1209564208984375,0.1115491613745689,0.6453302502632141,0.3761547207832336,38.20428466796875,99.50503540039062,-22.19668579101562
268697,-1.863174438476562,4.179229736328125,0.3937530517578125,0.9469590783119202,1.945290565490723,0.1750879287719727,38.0257568359375,99.58395385742188,-23.02078247070312
268698,-1.698196411132812,3.174896240234375,0.2741546630859375,0.8417996764183044,2.475866556167603,-0.2397438883781433,38.16279602050781,99.71778869628906,-23.77191162109375
268699,-1.698196411132812,3.174896240234375,0.2741546630859375,0.8417996764183044,2.475866556167603,-0.2397438883781433,38.16279602050781,99.71778869628906,-23.77191162109375
268700,-1.533447265625,1.489166259765625,0.3352813720703125,0.8977774381637573,1.71474277973175,-0.9048790335655212,38.53823852539062,99.9618682861328,-25.4285888671875
268701,-1.676132202148438,0.9612579345703124,0.284515380859375,0.933735966682434,1.319707155227661,-0.6868175268173218,38.53094482421875,100.2037811279297,-26.12710571289062
268702,-1.676132202148438,0.9612579345703124,0.284515380859375,0.933735966682434,1.319707155227661,-0.6868175268173218,38.53094482421875,100.2037811279297,-26.12710571289062
268703,-1.708145141601562,0.6830596923828125,0.066253662109375,0.7418368458747864,0.8154692649841309,-0.3254289627075195,38.37992858886719,100.1929321289062,-26.81240844726562
268704,-1.14697265625,0.737091064453125,-0.14251708984375,0.2586374282836914,-0.5109593868255615,-0.0234627146273851,38.16603088378906,100.2823028564453,-27.95317077636719
268705,-0.92156982421875,0.6859130859375,-0.0869140625,0.1811303794384003,-0.7935476899147034,0.0442785136401653,38.25048828125,100.3271636962891,-28.02674865722656
268706,-0.7518157958984375,0.5687408447265625,-0.039031982421875,0.2681339681148529,-0.799705982208252,0.1581009477376938,38.37858581542969,100.3401031494141,-28.04476928710938
268707,-0.7518157958984375,0.5687408447265625,-0.039031982421875,0.2681339681148529,-0.799705982208252,0.1581009477376938,38.37858581542969,100.3401031494141,-28.04476928710938
268708,-0.50048828125,0.4309234619140625,0.0803985595703125,0.6863812804222107,-0.2284030765295029,0.383449912071228,38.61399841308594,100.1043395996094,-27.75776672363281
268709,-0.455078125,0.4142608642578125,0.1035919189453125,0.8833721280097961,0.4565816521644592,0.3306660652160645,38.8621826171875,100.1486053466797,-27.78306579589844
268710,-0.455078125,0.4142608642578125,0.1035919189453125,0.8833721280097961,0.4565816521644592,0.3306660652160645,38.8621826171875,100.1486053466797,-27.78306579589844
268711,-0.4484100341796875,0.4054718017578125,0.03961181640625,1.087491750717163,1.035381674766541,0.107031375169754,38.95600891113281,100.0567932128906,-27.95454406738281
268712,-0.45977783203125,0.3643341064453125,-0.012176513671875,1.274665832519531,1.215350866317749,-0.3438141047954559,39.09873962402344,99.96446228027344,-28.37734985351562
268713,-0.4353179931640625,0.3197174072265625,-0.1058502197265625,1.259585738182068,0.8126547932624817,-0.4255481064319611,39.47994995117188,99.63536071777344,-29.51277160644531
268714,-0.4353179931640625,0.3197174072265625,-0.1058502197265625,1.259585738182068,0.8126547932624817,-0.4255481064319611,39.47994995117188,99.63536071777344,-29.51277160644531
268715,-0.3056488037109375,0.2713623046875,-0.1697540283203125,0.956901490688324,-0.0348381400108337,-0.4397430121898651,39.572265625,99.0482177734375,-31.00962829589844
268716,-0.2503662109375,0.22686767578125,-0.181915283203125,0.956901490688324,-0.0348381400108337,-0.4397430121898651,39.53877258300781,98.64126586914062,-31.64762878417969
268717,-0.2118072509765625,0.1962738037109375,-0.124298095703125,0.9045549035072328,-0.0041486723348498,-0.4295649528503418,39.39042663574219,98.40272521972656,-32.04637145996094
268718,-0.2118072509765625,0.1962738037109375,-0.124298095703125,0.9045549035072328,-0.0041486723348498,-0.4295649528503418,39.39042663574219,98.40272521972656,-32.04637145996094
268719,-0.1812896728515625,0.187255859375,-0.082489013671875,0.8130137920379639,0.0848379284143447,-0.4628547430038452,39.07730102539062,98.33775329589844,-32.53826904296875
268720,-0.1580352783203125,0.1818389892578125,-0.09710693359375,0.6548206806182861,0.070380687713623,-0.5157882571220398,38.88288879394531,98.1275634765625,-32.94581604003906
268721,-0.1615753173828125,0.173828125,-0.088348388671875,0.1954834759235382,-0.407434344291687,-0.6281765699386597,38.54074096679688,97.85487365722656,-33.48698425292969
268722,-0.1615753173828125,0.173828125,-0.088348388671875,0.1954834759235382,-0.407434344291687,-0.6281765699386597,38.54074096679688,97.85487365722656,-33.48698425292969
268723,-0.206695556640625,0.138702392578125,-0.0133209228515625,0.0568315908312797,-1.265281438827515,-0.4943391680717468,37.97801208496094,97.68734741210938,-33.74488830566406
268724,-0.2960662841796875,0.2728729248046875,0.22381591796875,0.1218113899230957,-1.306357741355896,-0.3646109998226166,37.58229064941406,97.6319580078125,-33.70477294921875
268725,-0.404296875,0.400299072265625,0.47821044921875,0.1363067030906677,-0.8069766759872437,-0.2211707383394241,37.15988159179688,97.73959350585938,-33.51103210449219
268726,-0.404296875,0.400299072265625,0.47821044921875,0.1363067030906677,-0.8069766759872437,-0.2211707383394241,37.15988159179688,97.73959350585938,-33.51103210449219
268727,-0.7160797119140625,0.8716888427734375,0.4591827392578125,-0.1041232049465179,0.3099988698959351,-0.4709949493408203,36.41404724121094,97.82429504394533,-33.65286254882812
268728,-0.9172821044921876,1.0147705078125,0.388824462890625,-0.1041232049465179,0.3099988698959351,-0.4709949493408203,36.21151733398438,97.91293334960938,-33.80380249023438
268729,-1.10101318359375,1.075820922851562,0.372528076171875,-0.2970689535140991,0.051367849111557,-0.5897051095962524,36.23216247558594,97.77574157714844,-33.964111328125
268730,-1.10101318359375,1.075820922851562,0.372528076171875,-0.2970689535140991,0.051367849111557,-0.5897051095962524,36.23216247558594,97.77574157714844,-33.964111328125
268731,-1.166152954101562,0.8177337646484375,0.2804107666015625,-0.8813316226005554,-0.7497232556343079,-0.5253455638885498,36.27993774414062,97.83943176269533,-34.16482543945312
268732,-0.95343017578125,0.580474853515625,0.2131500244140625,-1.086856007575989,-1.181906342506409,-0.5209894180297852,35.92221069335938,97.74095153808594,-33.89179992675781
268733,-0.690582275390625,0.4405059814453125,0.145477294921875,-1.209323287010193,-1.400673031806946,-0.4344925880432129,35.52198791503906,97.87736511230467,-33.38442993164062
268734,-0.690582275390625,0.4405059814453125,0.145477294921875,-1.209323287010193,-1.400673031806946,-0.4344925880432129,35.52198791503906,97.87736511230467,-33.38442993164062
268735,-0.251556396484375,0.3530426025390625,0.018463134765625,-1.061713576316833,-1.501920580863953,-0.3968919515609741,34.74287414550781,98.29681396484376,-32.05451965332031
268736,-0.1109619140625,0.2861175537109375,0.013092041015625,-0.8569527864456177,-1.500332593917847,-0.3786785900592804,34.25088500976562,98.32208251953124,-31.14273071289062
268737,-0.0088653564453125,0.2287750244140625,-0.0111541748046875,-0.6815236806869507,-1.452945828437805,-0.3918378055095673,33.937744140625,98.33241271972656,-30.24838256835938
268738,-0.0088653564453125,0.2287750244140625,-0.0111541748046875,-0.6815236806869507,-1.452945828437805,-0.3918378055095673,33.937744140625,98.33241271972656,-30.24838256835938
268739,0.0946502685546875,0.1162567138671875,-0.0904998779296875,-0.553651750087738,-1.449340462684631,-0.3270028829574585,33.62506103515625,98.36534118652344,-29.45768737792969
268740,0.216461181640625,-0.073333740234375,-0.350830078125,-0.3543034791946411,-1.930429339408875,0.0909168571233749,33.2401123046875,98.47390747070312,-28.07272338867188
268741,0.2471160888671875,-0.1107025146484375,-0.387908935546875,-0.1615449488162994,-2.382744550704956,0.3018487989902496,33.04978942871094,98.3327178955078,-27.19961547851562
268742,0.2471160888671875,-0.1107025146484375,-0.387908935546875,-0.1615449488162994,-2.382744550704956,0.3018487989902496,33.04978942871094,98.3327178955078,-27.19961547851562
268743,0.3011016845703125,-0.089019775390625,-0.3633270263671875,-0.0269573144614696,-2.700203418731689,0.4668358862400055,33.07914733886719,98.16200256347656,-26.38752746582031
268744,0.44451904296875,-0.042572021484375,-0.20361328125,-0.6443888545036316,-1.490450024604797,0.4644393026828766,32.77749633789062,98.11077880859376,-24.68409729003906
268745,0.406341552734375,-0.0020904541015625,-0.146942138671875,-0.3454468846321106,-0.8198011517524719,0.661027193069458,32.9290771484375,98.11312866210938,-23.93339538574219
268746,0.406341552734375,-0.0020904541015625,-0.146942138671875,-0.3454468846321106,-0.8198011517524719,0.661027193069458,32.9290771484375,98.11312866210938,-23.93339538574219
268747,0.3757781982421875,0.062286376953125,-0.1062164306640625,-0.0549548603594303,-0.2730347216129303,0.8627749681472778,33.12974548339844,97.94367980957033,-23.12867736816406
268748,0.2520904541015625,0.288330078125,-0.258575439453125,0.1120045632123947,-0.0097879162058234,1.046799182891846,33.95468139648438,97.92990112304688,-22.17744445800781
268749,0.136688232421875,0.50042724609375,-0.3591156005859375,0.1384734511375427,-0.3305603265762329,0.9735819101333618,34.36557006835938,97.955078125,-21.97691345214844
268750,-0.046539306640625,0.84478759765625,-0.457763671875,0.190270334482193,-0.7167485356330872,0.7599146366119385,34.91011047363281,97.91867065429688,-21.69081115722656
268751,-0.286376953125,1.245956420898438,-0.613983154296875,0.3620205223560333,-0.9493588805198668,0.3965723812580109,35.28169250488281,98.02252197265624,-21.51664733886719
268752,-0.5561065673828125,1.551345825195312,-0.7947540283203125,0.6885714530944824,-0.7523376941680908,-0.0301368627697229,35.38705444335938,97.9940948486328,-21.36775207519531
268753,-0.7043609619140625,1.659820556640625,-0.838958740234375,0.9345982670783995,-0.0661473274230957,-0.2801041007041931,35.33720397949219,98.02146911621094,-21.36607360839844
268754,-0.7043609619140625,1.659820556640625,-0.838958740234375,0.9345982670783995,-0.0661473274230957,-0.2801041007041931,35.33720397949219,98.02146911621094,-21.36607360839844
268755,-0.6792449951171875,1.6317138671875,-0.117523193359375,-0.2145876586437225,1.438566088676453,-0.7771884202957153,34.83906555175781,97.8974151611328,-22.16592407226562
268756,-0.83319091796875,1.805084228515625,-0.0637969970703125,-0.2145876586437225,1.438566088676453,-0.7771884202957153,34.80604553222656,97.71432495117188,-22.75367736816406
268757,-0.9315032958984376,2.125747680664062,-0.3100433349609375,0.2058903127908707,0.1706566959619522,-2.00606107711792,34.74412536621094,97.62088012695312,-23.19822692871094
268758,-0.9315032958984376,2.125747680664062,-0.3100433349609375,0.2058903127908707,0.1706566959619522,-2.00606107711792,34.74412536621094,97.62088012695312,-23.19822692871094
268759,-0.896270751953125,2.26092529296875,-0.1666412353515625,0.2058903127908707,0.1706566959619522,-2.00606107711792,34.461669921875,97.46726989746094,-23.573486328125
268760,-0.9382476806640624,2.1824951171875,-0.179351806640625,0.3386214673519135,-0.0484487600624561,-0.7985608577728271,32.91111755371094,96.89511108398438,-24.44190979003906
268761,-1.235366821289062,2.239013671875,-0.1483001708984375,-0.0890166908502578,0.2108762860298157,0.2639642655849457,32.02177429199219,96.65104675292967,-24.99833679199219
268762,-1.235366821289062,2.239013671875,-0.1483001708984375,-0.0890166908502578,0.2108762860298157,0.2639642655849457,32.02177429199219,96.65104675292967,-24.99833679199219
268763,-1.482406616210938,2.677276611328125,-0.0330657958984375,-0.373778909444809,0.6970667243003845,0.9267781972885132,31.3304443359375,96.55599975585938,-25.55461120605469
268764,-1.64300537109375,2.904388427734375,0.652801513671875,0.6620434522628784,1.559260845184326,0.5648934841156006,31.17245483398438,96.86296081542967,-26.06851196289062
268765,-1.753738403320312,2.759384155273438,0.8202972412109375,0.9881406426429749,2.354835987091064,0.0182301364839077,31.44674682617188,97.14224243164062,-26.33891296386719
268766,-1.753738403320312,2.759384155273438,0.8202972412109375,0.9881406426429749,2.354835987091064,0.0182301364839077,31.44674682617188,97.14224243164062,-26.33891296386719
268767,-1.885467529296875,2.5322265625,0.5575714111328125,0.9680086970329284,2.580868244171143,-0.7310233116149902,31.67535400390625,97.44172668457033,-27.00901794433594
268768,-1.993408203125,1.98431396484375,0.247161865234375,0.719910204410553,2.029500246047974,-1.272337675094604,31.87315368652344,97.63119506835938,-28.02320861816406
268769,-1.749160766601562,0.7288665771484375,0.12335205078125,0.0142316659912467,0.7765654921531677,-0.4342797994613647,31.67118835449219,97.55654907226562,-30.14347839355469
268770,-1.749160766601562,0.7288665771484375,0.12335205078125,0.0142316659912467,0.7765654921531677,-0.4342797994613647,31.67118835449219,97.55654907226562,-30.14347839355469
268771,-1.036453247070312,0.6429901123046875,0.17938232421875,0.0193968676030635,-0.2281444817781448,-0.0401583388447761,31.23606872558594,97.37559509277344,-31.1884765625
268772,-0.8607330322265625,0.5211944580078125,0.1858673095703125,0.0697412639856338,-0.1183016076683998,0.1166248843073845,31.24990844726562,97.32040405273438,-31.12992858886719
268773,-0.7163543701171875,0.4245758056640625,0.0423736572265625,0.2185049057006836,0.0866211801767349,0.2827557921409607,31.35185241699219,97.4341278076172,-31.00912475585938
268774,-0.7163543701171875,0.4245758056640625,0.0423736572265625,0.2185049057006836,0.0866211801767349,0.2827557921409607,31.35185241699219,97.4341278076172,-31.00912475585938
268775,-0.635711669921875,0.360870361328125,-0.060394287109375,0.7025823593139648,0.6441944241523743,0.4334036409854889,31.41447448730469,97.45567321777344,-30.8587646484375
268776,-0.5938568115234375,0.4322357177734375,0.00335693359375,0.861560046672821,1.089465141296387,0.3263061940670013,31.99357604980469,97.40093994140624,-31.06121826171875
268777,-0.5980682373046875,0.512176513671875,-0.0100860595703125,0.9453811645507812,1.267184019088745,0.1341000199317932,32.41152954101562,97.3882293701172,-31.21734619140625
268778,-0.5980682373046875,0.512176513671875,-0.0100860595703125,0.9453811645507812,1.267184019088745,0.1341000199317932,32.41152954101562,97.3882293701172,-31.21734619140625
268779,-0.5836181640625,0.563201904296875,-0.0511322021484375,0.9434317350387572,1.093720078468323,-0.0533391200006008,32.85740661621094,97.32431030273438,-31.71246337890625
268780,-0.4759979248046875,0.5246429443359375,-0.0943603515625,0.7728149890899658,0.4489016234874725,-0.3633265495300293,33.45246887207031,97.11363220214844,-32.80262756347656
268781,-0.4003753662109375,0.440093994140625,-0.1328887939453125,0.7518218159675598,0.1856875717639923,-0.4310491383075714,33.55264282226562,96.8226318359375,-33.2874755859375
