time_idx,accelerometerAccelerationX(G),accelerometerAccelerationY(G),accelerometerAccelerationZ(G),gyroRotationX(rad/s),gyroRotationY(rad/s),gyroRotationZ(rad/s),magnetometerX(µT),magnetometerY(µT),magnetometerZ(µT)
255806,0.4958953857421875,2.994049072265625,1.050186157226562,0.6464280486106873,2.101777791976929,2.945798635482788,59.33927917480469,100.5946655273438,-26.61325073242188
255807,0.4418487548828125,3.94512939453125,1.082992553710938,0.4448938369750977,2.757505655288696,3.09491491317749,60.43319702148438,100.3018188476562,-26.85545349121094
255808,0.2900543212890625,4.894180297851562,1.081649780273438,0.2004982084035873,2.88666558265686,2.65156888961792,61.81887817382812,99.91413879394533,-27.08491516113281
255809,0.2900543212890625,4.894180297851562,1.081649780273438,0.2004982084035873,2.88666558265686,2.65156888961792,61.81887817382812,99.91413879394533,-27.08491516113281
255810,0.0131988525390625,5.253997802734375,1.071197509765625,-0.0396187826991081,2.697737455368042,1.510835289955139,63.31390380859375,99.46142578125,-27.11402893066406
255811,-0.1241302490234375,3.54913330078125,0.6175994873046875,-0.3641734421253204,1.509901523590088,-0.3478386700153351,65.77713012695312,98.87327575683594,-26.47795104980469
255812,-0.11669921875,2.877227783203125,0.46929931640625,-0.0778431296348571,0.7602232694625854,-0.5011363625526428,66.2532958984375,98.76437377929688,-25.90318298339844
255813,-0.11669921875,2.877227783203125,0.46929931640625,-0.0778431296348571,0.7602232694625854,-0.5011363625526428,66.2532958984375,98.76437377929688,-25.90318298339844
255814,-0.2756500244140625,1.86932373046875,0.154998779296875,1.227614164352417,0.0772053077816963,-0.7378402352333069,66.1031494140625,99.04689025878906,-25.56529235839844
255815,-0.3255767822265625,1.432754516601562,-0.1697235107421875,1.227614164352417,0.0772053077816963,-0.7378402352333069,65.88340759277344,99.21160888671876,-25.79652404785156
255816,-0.398040771484375,1.152175903320312,-0.6173095703125,1.228154301643372,-0.6865112781524658,-0.64720219373703,65.62841796875,99.27413940429688,-26.26762390136719
255817,-0.398040771484375,1.152175903320312,-0.6173095703125,1.228154301643372,-0.6865112781524658,-0.64720219373703,65.62841796875,99.27413940429688,-26.26762390136719
255818,-0.58795166015625,0.9170684814453124,-0.3555755615234375,0.9060441255569458,-0.7259100675582886,-0.265170156955719,65.28831481933594,99.3623046875,-26.99018859863281
255819,-0.3349761962890625,0.6862945556640625,-0.1039886474609375,0.399779886007309,1.042261123657227,0.691735029220581,64.93484497070312,99.22624206542967,-28.24923706054688
255820,-0.2081298828125,0.6971282958984375,-0.101043701171875,0.6905286312103271,0.8103631734848022,0.593187153339386,65.24795532226562,98.91343688964844,-28.46054077148438
255821,-0.2081298828125,0.6971282958984375,-0.101043701171875,0.6905286312103271,0.8103631734848022,0.593187153339386,65.24795532226562,98.91343688964844,-28.46054077148438
255822,-0.191009521484375,0.5755157470703125,-0.038482666015625,1.074167966842651,0.5689601302146912,0.4181770086288452,65.84461975097656,98.44020080566406,-28.35284423828125
255823,-0.2773284912109375,0.427276611328125,-0.1339874267578125,1.49755859375,0.6777153611183167,0.0566797889769077,66.70364379882812,97.77156066894533,-28.58329772949219
255824,-0.3607025146484375,0.3951568603515625,-0.2678680419921875,1.389521598815918,0.7436379194259644,-0.1571022719144821,66.9097900390625,97.6488800048828,-29.16609191894531
255825,-0.3607025146484375,0.3951568603515625,-0.2678680419921875,1.389521598815918,0.7436379194259644,-0.1571022719144821,66.9097900390625,97.6488800048828,-29.16609191894531
255826,-0.402984619140625,0.4014892578125,-0.3222198486328125,1.139128804206848,0.7426474690437317,-0.287176638841629,66.94230651855469,97.42138671875,-29.62944030761719
255827,-0.2104034423828125,0.452911376953125,-0.2125244140625,0.7672713398933411,0.4166747331619263,-0.49175164103508,66.80894470214844,97.25843811035156,-30.40882873535156
255828,-0.095489501953125,0.329376220703125,-0.2427825927734375,0.7937740683555603,0.1221373602747917,-0.5298427939414978,66.7291259765625,97.1814422607422,-30.68655395507812
255829,-0.095489501953125,0.329376220703125,-0.2427825927734375,0.7937740683555603,0.1221373602747917,-0.5298427939414978,66.7291259765625,97.1814422607422,-30.68655395507812
255830,-0.0189361572265625,0.24176025390625,-0.204345703125,0.9432905912399292,-0.1485410034656525,-0.4847142100334167,66.59257507324219,97.1442413330078,-30.99754333496094
255831,0.03094482421875,0.2111968994140625,-0.149749755859375,1.061994075775146,-0.3191718757152557,-0.4144698977470398,66.37130737304688,97.13661193847656,-31.28367614746094
255832,0.0213470458984375,0.2089385986328125,-0.2172698974609375,0.9837616086006165,-0.6594660878181458,-0.2954524159431458,65.87358093261719,96.942626953125,-32.18446350097656
255833,0.0213470458984375,0.2089385986328125,-0.2172698974609375,0.9837616086006165,-0.6594660878181458,-0.2954524159431458,65.87358093261719,96.942626953125,-32.18446350097656
255834,-0.0739593505859375,0.223236083984375,-0.307769775390625,0.786327600479126,-1.1346355676651,-0.3347068727016449,65.34660339355469,96.66233825683594,-33.40290832519531
255835,-0.0834503173828125,0.2638397216796875,-0.167236328125,0.717886745929718,-1.161731839179993,-0.3247317373752594,64.96754455566406,96.64825439453124,-33.982421875
255836,-0.0485687255859375,0.3231353759765625,0.104034423828125,0.6082087159156799,-0.7774430513381958,-0.3095815479755402,64.61930847167969,96.6555633544922,-34.40058898925781
255837,-0.0485687255859375,0.3231353759765625,0.104034423828125,0.6082087159156799,-0.7774430513381958,-0.3095815479755402,64.61930847167969,96.6555633544922,-34.40058898925781
255838,-0.0254669189453125,0.3990325927734375,0.3471832275390625,0.461304783821106,-0.0116020608693361,-0.2955988943576813,64.20140075683594,96.61363220214844,-34.90916442871094
255839,-0.006805419921875,0.444488525390625,0.4695281982421875,0.2934872806072235,0.8659366965293884,-0.2504945397377014,64.04164123535156,96.69070434570312,-35.31782531738281
255840,0.0677337646484375,0.5692901611328125,0.4678955078125,-0.1267582178115845,2.267259359359741,-0.0120998062193393,64.06846618652344,96.7855224609375,-35.58912658691406
255841,0.04119873046875,0.7563934326171875,0.3949432373046875,-0.3139685690402985,1.749588131904602,-0.206404834985733,64.48118591308594,96.74111938476562,-35.41072082519531
255842,0.04119873046875,0.7563934326171875,0.3949432373046875,-0.3139685690402985,1.749588131904602,-0.206404834985733,64.48118591308594,96.74111938476562,-35.41072082519531
255843,-0.31011962890625,1.162185668945312,0.581146240234375,-0.2307402640581131,0.9061506986618042,-0.6154493093490601,65.74287414550781,96.94889831542967,-34.54251098632812
255844,-0.5904541015625,1.06219482421875,0.7415008544921875,-0.2351105213165283,0.1945977061986923,-0.9300980567932128,66.17204284667969,96.99563598632812,-34.00642395019531
255845,-0.5904541015625,1.06219482421875,0.7415008544921875,-0.2351105213165283,0.1945977061986923,-0.9300980567932128,66.17204284667969,96.99563598632812,-34.00642395019531
255846,-0.716033935546875,0.71405029296875,0.7612457275390625,-1.117873072624207,-1.422150373458862,-1.45276665687561,66.23916625976562,97.14376831054688,-33.611083984375
255847,-0.6564178466796875,0.4967803955078125,0.709564208984375,-1.117873072624207,-1.422150373458862,-1.45276665687561,65.84844970703125,97.23883056640624,-33.42903137207031
255848,-0.5558624267578125,0.294769287109375,0.5894012451171875,-1.341814279556274,-1.280142664909363,-1.212456822395325,65.14033508300781,97.6727294921875,-33.38156127929688
255849,-0.4409637451171875,0.195037841796875,0.446624755859375,-1.483193516731262,-1.015056967735291,-0.8383708000183105,64.27987670898438,98.1190185546875,-33.17172241210938
255850,-0.4409637451171875,0.195037841796875,0.446624755859375,-1.483193516731262,-1.015056967735291,-0.8383708000183105,64.27987670898438,98.1190185546875,-33.17172241210938
255851,-0.2710113525390625,0.241943359375,0.1033782958984375,-1.60366690158844,-0.8930516242980957,-0.4178246855735779,62.71682739257812,99.17953491210938,-32.49324035644531
255852,-0.196258544921875,0.2588348388671875,-0.2486114501953125,-1.614403486251831,-1.307454943656921,-0.3572201728820801,62.17567443847656,99.6115264892578,-31.79640197753906
255853,-0.196258544921875,0.2588348388671875,-0.2486114501953125,-1.614403486251831,-1.307454943656921,-0.3572201728820801,62.17567443847656,99.6115264892578,-31.79640197753906
255854,0.0825347900390625,0.17083740234375,-0.8777008056640625,-1.927671074867249,-2.438043355941772,0.2100544273853302,61.24180603027344,100.0242462158203,-30.57574462890625
255855,0.2313232421875,0.1715087890625,-0.19268798828125,-0.5230749249458313,-0.0856179669499397,0.9348270893096924,60.74931335449219,100.2431335449219,-29.92626953125
255856,0.2703704833984375,0.169586181640625,0.16937255859375,-0.0575117617845535,0.8134647011756897,1.133124709129333,60.29885864257812,100.5165710449219,-29.24917602539062
255857,0.231842041015625,0.1610565185546875,0.143463134765625,-0.0159177128225565,0.967890739440918,1.231131672859192,60.20050048828125,100.6729736328125,-28.42396545410156
255858,0.231842041015625,0.1610565185546875,0.143463134765625,-0.0159177128225565,0.967890739440918,1.231131672859192,60.20050048828125,100.6729736328125,-28.42396545410156
255859,0.2147064208984375,0.1762847900390625,-0.201416015625,-0.2346774935722351,0.5161946415901184,1.223644495010376,60.94924926757812,100.1966094970703,-27.40689086914062
255860,0.2928466796875,0.2095794677734375,-0.4106903076171875,-0.5493781566619873,-0.2251503020524979,1.163001894950867,61.6170654296875,99.85934448242188,-27.1007080078125
255861,0.392608642578125,0.3365936279296875,-0.5317230224609375,-0.8304545879364014,-0.7661733031272888,1.018559217453003,62.12814331054688,99.47836303710938,-26.90676879882812
255862,0.392608642578125,0.3365936279296875,-0.5317230224609375,-0.8304545879364014,-0.7661733031272888,1.018559217453003,62.12814331054688,99.47836303710938,-26.90676879882812
255863,0.501556396484375,0.5667724609375,-0.655029296875,-0.9233536124229432,-0.880683958530426,0.8592742681503296,62.56338500976562,99.53408813476562,-26.77903747558594
255864,0.67401123046875,1.237991333007812,-1.016220092773438,0.019000856205821,-0.0668000727891922,0.9054321646690368,63.12013244628906,99.29730224609376,-25.78755187988281
255865,0.65191650390625,1.516448974609375,-0.9109954833984376,0.5920875668525696,0.8256638050079346,1.157296657562256,63.338134765625,99.2262725830078,-25.38636779785156
255866,0.65191650390625,1.516448974609375,-0.9109954833984376,0.5920875668525696,0.8256638050079346,1.157296657562256,63.338134765625,99.2262725830078,-25.38636779785156
255867,0.3990631103515625,2.056671142578125,-0.2366180419921875,0.3129104971885681,1.891908049583435,1.135642170906067,64.08251953125,98.87858581542967,-25.20356750488281
255868,0.3563690185546875,2.40374755859375,-0.2828216552734375,0.006254700012505,1.474558234214783,0.7788366675376892,64.623291015625,98.49665832519533,-25.31207275390625
255869,0.4754791259765625,2.808502197265625,-0.4438323974609375,0.0868693813681602,0.8275152444839478,0.7135066390037537,65.16304016113281,98.2205810546875,-25.315673828125
255870,0.4754791259765625,2.808502197265625,-0.4438323974609375,0.0868693813681602,0.8275152444839478,0.7135066390037537,65.16304016113281,98.2205810546875,-25.315673828125
255871,0.7650299072265625,3.586807250976562,-0.1258392333984375,0.7825949192047119,1.689771175384521,0.9946592450141908,65.94993591308594,97.87930297851562,-25.17826843261719
255872,0.775909423828125,3.879074096679688,-0.0372467041015625,1.149626493453979,1.957673668861389,0.9284256100654602,66.29911804199219,97.850341796875,-25.36564636230469
255873,0.775909423828125,3.879074096679688,-0.0372467041015625,1.149626493453979,1.957673668861389,0.9284256100654602,66.29911804199219,97.850341796875,-25.36564636230469
255874,0.5237579345703125,3.989791870117188,0.1040802001953125,1.467661380767822,1.944295883178711,0.5078701376914978,66.73759460449219,97.72209167480467,-25.53533935546875
255875,-0.11248779296875,3.574844360351562,-0.0191192626953125,1.578903555870056,1.395710468292236,-0.5695947408676147,67.57298278808594,97.50439453125,-26.03791809082031
255876,-0.4256439208984375,2.902923583984375,-0.043182373046875,1.37196147441864,0.978567361831665,-1.190772533416748,67.89814758300781,97.42649841308594,-26.40083312988281
255877,-0.4256439208984375,2.902923583984375,-0.043182373046875,1.37196147441864,0.978567361831665,-1.190772533416748,67.89814758300781,97.42649841308594,-26.40083312988281
255878,-0.5779266357421875,2.211318969726562,-0.0532073974609375,1.040903925895691,0.7754725813865662,-1.578928589820862,67.87660217285156,97.61784362792967,-26.91098022460938
255879,-0.684906005859375,1.429397583007812,-0.285186767578125,0.5638692378997803,0.5289157629013062,-1.072015762329102,67.32565307617188,97.69831848144533,-28.01565551757812
255880,-0.6772003173828125,1.332992553710938,-0.0006561279296875,0.674100399017334,0.5030913949012756,-0.3510666787624359,66.83348083496094,97.97445678710938,-28.51242065429688
255881,-0.6772003173828125,1.332992553710938,-0.0006561279296875,0.674100399017334,0.5030913949012756,-0.3510666787624359,66.83348083496094,97.97445678710938,-28.51242065429688
255882,-0.3923187255859375,1.366989135742188,0.41876220703125,0.8978546857833862,1.202889442443848,0.2098072916269302,66.61854553222656,98.13265991210938,-29.16230773925781
255883,-0.333221435546875,1.21966552734375,0.4331512451171875,0.7592695951461792,1.465470671653748,0.1617548167705536,66.84547424316406,97.89259338378906,-29.45254516601562
255884,-0.3022613525390625,1.04205322265625,0.4065704345703125,0.5438268184661865,1.710441827774048,0.1386116743087769,67.20864868164062,97.6740264892578,-29.59231567382812
255885,-0.3022613525390625,1.04205322265625,0.4065704345703125,0.5438268184661865,1.710441827774048,0.1386116743087769,67.20864868164062,97.6740264892578,-29.59231567382812
255886,-0.2549591064453125,0.8385467529296875,0.3300323486328125,0.3654144704341888,1.86528468132019,0.1078162118792534,67.68182373046875,97.35588073730467,-29.71910095214844
255887,-0.2214202880859375,0.6315765380859375,0.225616455078125,0.262665182352066,1.849880695343018,0.0576960518956184,68.12629699707031,97.13734436035156,-29.69825744628906
255888,-0.1268157958984375,0.2185211181640625,-0.0328216552734375,0.4378726780414581,1.178778529167175,-0.0040032635442912,68.89956665039062,96.82229614257812,-29.41134643554688
255889,-0.1268157958984375,0.2185211181640625,-0.0328216552734375,0.4378726780414581,1.178778529167175,-0.0040032635442912,68.89956665039062,96.82229614257812,-29.41134643554688
255890,-0.0756378173828125,0.089447021484375,-0.03302001953125,0.648618757724762,0.7220029234886169,0.0399383604526519,69.27305603027344,96.71035766601562,-29.1693115234375
255891,-0.01971435546875,0.014251708984375,0.0678253173828125,0.7773679494857788,0.3163782060146332,0.0579138994216918,69.60939025878906,96.60488891601562,-29.09219360351562
255892,-0.0207061767578125,-0.0013275146484375,0.0816497802734375,0.5866698622703552,0.1528404057025909,-0.0117943417280912,69.75634765625,96.47740173339844,-29.0760498046875
255893,-0.0207061767578125,-0.0013275146484375,0.0816497802734375,0.5866698622703552,0.1528404057025909,-0.0117943417280912,69.75634765625,96.47740173339844,-29.0760498046875
255894,-0.116912841796875,0.002838134765625,0.1797332763671875,-0.2060319930315018,0.0367798507213592,-0.2937195003032684,69.90133666992188,96.105712890625,-29.17742919921875
255895,-0.243377685546875,0.0492706298828125,0.274322509765625,-0.635543704032898,0.2853252291679382,-0.4211325943470001,69.86984252929688,96.07931518554688,-29.15432739257812
255896,-0.37890625,0.103424072265625,0.2600555419921875,-0.9830086827278136,0.6377509236335754,-0.4918528199195862,69.71099853515625,96.18727111816406,-29.15431213378906
255897,-0.5224761962890625,0.1215057373046875,0.1061859130859375,-1.184075236320496,0.799626886844635,-0.5027704834938049,69.54643249511719,96.32614135742188,-28.8101806640625
255898,-0.5224761962890625,0.1215057373046875,0.1061859130859375,-1.184075236320496,0.799626886844635,-0.5027704834938049,69.54643249511719,96.32614135742188,-28.8101806640625
255899,-0.7265625,0.0814971923828125,-0.1125030517578125,-1.180534243583679,0.3162743449211121,-0.3142133355140686,69.19798278808594,96.93829345703124,-28.12905883789062
255900,-0.756195068359375,0.1038665771484375,-0.0303955078125,-1.157849788665771,0.1271297186613083,-0.178758293390274,69.15182495117188,97.1641845703125,-27.62184143066406
255901,-0.7375335693359375,0.2083587646484375,0.133697509765625,-1.238680362701416,0.3743392527103424,-0.160307377576828,68.99859619140625,97.46099853515624,-26.9981689453125
255902,-0.7375335693359375,0.2083587646484375,0.133697509765625,-1.238680362701416,0.3743392527103424,-0.160307377576828,68.99859619140625,97.46099853515624,-26.9981689453125
255903,-0.53826904296875,0.6677398681640625,0.2084808349609375,-1.371525287628174,1.973714232444763,-0.5775280594825745,68.70140075683594,98.03948974609376,-25.9658203125
255904,-0.3932952880859375,0.8140106201171875,0.1526947021484375,-1.153087258338928,1.941740036010742,-0.7026990056037903,68.55525207519531,98.1652374267578,-25.12358093261719
255905,-0.334808349609375,0.9141082763671876,0.1994781494140625,-0.9201109409332277,1.978556394577026,-0.7651680111885071,68.53810119628906,98.2969970703125,-24.23912048339844
255906,-0.3002471923828125,0.962432861328125,0.27142333984375,-0.9201109409332277,1.978556394577026,-0.7651680111885071,68.3709716796875,98.4889678955078,-23.34487915039062
255907,-0.282684326171875,1.00701904296875,0.3217010498046875,-0.7789109349250793,2.160621881484985,-0.7837851047515869,68.10734558105469,98.69523620605467,-22.3077392578125
255908,-0.2991943359375,1.080398559570312,0.323028564453125,-0.757563591003418,2.359424829483032,-0.8099194765090942,67.79945373535156,99.22296142578124,-20.66073608398438
255909,-0.2991943359375,1.080398559570312,0.323028564453125,-0.757563591003418,2.359424829483032,-0.8099194765090942,67.79945373535156,99.22296142578124,-20.66073608398438
255910,-0.34619140625,1.13714599609375,0.2674560546875,-0.8551551103591919,2.334823608398438,-0.8941081166267395,67.49391174316406,99.6287841796875,-19.91273498535156
255911,-0.362762451171875,0.943450927734375,0.179168701171875,-1.228839993476868,1.367477059364319,-0.918188452720642,66.8775634765625,100.2269439697266,-18.37237548828125
255912,-0.3028411865234375,0.7740936279296875,0.17816162109375,-1.385964393615723,0.6982347369194031,-0.798126757144928,66.60273742675781,100.5784301757812,-17.63604736328125
255913,-0.3028411865234375,0.7740936279296875,0.17816162109375,-1.385964393615723,0.6982347369194031,-0.798126757144928,66.60273742675781,100.5784301757812,-17.63604736328125
255914,-0.2103271484375,0.6085052490234375,0.180450439453125,-1.468721866607666,0.1307207345962524,-0.6629963517189026,66.25288391113281,100.6358337402344,-16.8023681640625
255915,-0.0436553955078125,0.3575286865234375,0.142242431640625,-1.428454637527466,-0.559776246547699,-0.342435896396637,65.77145385742188,100.7105865478516,-15.57933044433594
255916,0.00360107421875,0.291259765625,0.097442626953125,-1.36329984664917,-0.7438291311264038,-0.1474315375089645,65.65133666992188,100.6900177001953,-14.919921875
255917,0.00360107421875,0.291259765625,0.097442626953125,-1.36329984664917,-0.7438291311264038,-0.1474315375089645,65.65133666992188,100.6900177001953,-14.919921875
255918,0.0358428955078125,0.2537689208984375,0.0091400146484375,-1.295435905456543,-0.9610317945480348,0.0478098653256893,65.55009460449219,100.5218048095703,-14.16459655761719
255919,0.103271484375,0.2393035888671875,-0.1237640380859375,-1.109732866287231,-1.369869828224182,0.4463689625263214,65.55744934082031,100.4072113037109,-13.2041015625
255920,0.14056396484375,0.2399139404296875,-0.188201904296875,-0.9073144793510436,-1.466660857200623,0.667224109172821,65.5618896484375,100.2896728515625,-12.747314453125
255921,0.160552978515625,0.23675537109375,-0.213623046875,-0.5653355717658997,-1.444120168685913,0.9017530083656312,65.80087280273438,100.2443237304688,-12.54429626464844
255922,0.160552978515625,0.23675537109375,-0.213623046875,-0.5653355717658997,-1.444120168685913,0.9017530083656312,65.80087280273438,100.2443237304688,-12.54429626464844
255923,-0.0099639892578125,0.4430084228515625,-0.064727783203125,0.1905084252357483,-0.2917602062225342,0.7302017211914062,66.26554870605469,100.1380615234375,-12.18836975097656
255924,-0.1009063720703125,0.5096588134765625,-0.113372802734375,0.2706781029701233,0.780351996421814,0.2793589234352112,66.62049865722656,100.2334594726562,-12.3292236328125
255925,-0.1009063720703125,0.5096588134765625,-0.113372802734375,0.2706781029701233,0.780351996421814,0.2793589234352112,66.62049865722656,100.2334594726562,-12.3292236328125
255926,-0.2606353759765625,0.5638580322265625,-0.4251556396484375,0.0338013730943203,1.387142539024353,-0.0232882779091596,66.79165649414062,100.2045288085938,-12.4971923828125
255927,-0.4174346923828125,0.8085479736328125,-0.571929931640625,-0.5429874062538147,0.8576412200927734,-0.5034245252609253,66.63278198242188,100.1896362304688,-12.15547180175781
255928,-0.41607666015625,0.8512725830078125,-0.496246337890625,-0.4851222336292267,0.5015003681182861,-0.469343513250351,66.49618530273438,100.1475982666016,-11.91477966308594
255929,-0.41607666015625,0.8512725830078125,-0.496246337890625,-0.4851222336292267,0.5015003681182861,-0.469343513250351,66.49618530273438,100.1475982666016,-11.91477966308594
255930,-0.3496551513671875,0.90826416015625,-0.42193603515625,-0.4332552850246429,0.2960702776908875,-0.1405690908432007,66.0982666015625,100.3385467529297,-11.52101135253906
255931,0.0275421142578125,1.23626708984375,-0.176025390625,-0.6184621453285217,0.2843409180641174,0.5744278430938721,65.55421447753906,100.6070404052734,-11.0928955078125
255932,0.155426025390625,1.540069580078125,-0.1564788818359375,-0.6655052900314331,0.1728018671274185,0.907140851020813,65.48715209960938,100.4041900634766,-10.58651733398438
255933,0.155426025390625,1.540069580078125,-0.1564788818359375,-0.6655052900314331,0.1728018671274185,0.907140851020813,65.48715209960938,100.4041900634766,-10.58651733398438
255934,0.5335235595703125,2.460342407226562,-0.1724700927734375,-0.1943058222532272,-1.014764189720154,1.475313425064087,65.87678527832031,99.85609436035156,-9.608001708984377
255935,0.9031524658203124,2.9942626953125,0.01678466796875,0.1052073761820793,-1.475600600242615,1.896403193473816,66.39039611816406,99.34455871582033,-9.223129272460938
255936,1.314697265625,3.499237060546875,-0.025360107421875,0.4618200957775116,-1.710357427597046,2.407751083374023,67.03544616699219,98.86721801757812,-9.124862670898438
255937,1.314697265625,3.499237060546875,-0.025360107421875,0.4618200957775116,-1.710357427597046,2.407751083374023,67.03544616699219,98.86721801757812,-9.124862670898438
255938,1.483062744140625,3.715377807617188,-0.1316986083984375,1.123581290245056,-1.657397747039795,2.617152214050293,67.84352111816406,98.5760498046875,-9.449066162109377
255939,0.9656829833984376,3.057159423828125,-0.455291748046875,2.367796897888184,-0.2832841575145721,1.468629479408264,69.97494506835938,97.48835754394533,-10.51449584960938
255940,0.4388580322265625,2.576187133789062,-0.7322845458984375,2.405645608901978,-0.439558207988739,0.8632237315177917,70.82353210449219,97.17831420898438,-11.43092346191406
255941,0.1445770263671875,2.29925537109375,-0.623016357421875,2.222679615020752,-0.6736769676208496,0.5628945231437683,71.5479736328125,96.96102905273438,-12.5443115234375
255942,0.1445770263671875,2.29925537109375,-0.623016357421875,2.222679615020752,-0.6736769676208496,0.5628945231437683,71.5479736328125,96.96102905273438,-12.5443115234375
255943,-0.0376129150390625,1.874282836914062,-0.3398590087890625,1.865726470947266,-0.0400946885347366,0.5426403880119324,72.36782836914062,96.68838500976562,-14.80097961425781
255944,-0.0952606201171875,1.679733276367188,-0.35455322265625,1.920412421226501,0.1362547725439072,0.71683669090271,72.61705017089844,96.5281219482422,-15.85221862792969
255945,-0.0952606201171875,1.679733276367188,-0.35455322265625,1.920412421226501,0.1362547725439072,0.71683669090271,72.61705017089844,96.5281219482422,-15.85221862792969
255946,-0.114227294921875,1.525619506835938,-0.376068115234375,2.060980319976807,0.018254904076457,0.9087610840797424,73.03216552734375,96.4124755859375,-16.85504150390625
255947,-0.255340576171875,1.261184692382812,-0.0624847412109375,2.617354154586792,0.0467022582888603,1.101405382156372,73.961669921875,95.9406280517578,-18.7745361328125
255948,-0.348785400390625,1.152175903320312,0.027801513671875,2.827717065811157,0.3344890475273132,1.028730392456055,74.56825256347656,95.50422668457033,-19.83538818359375
255949,-0.371246337890625,1.022506713867188,0.1503753662109375,2.881036996841431,0.6231583952903748,0.8151879906654358,75.12210083007812,95.00816345214844,-20.91621398925781
255950,-0.371246337890625,1.022506713867188,0.1503753662109375,2.881036996841431,0.6231583952903748,0.8151879906654358,75.12210083007812,95.00816345214844,-20.91621398925781
255951,-0.3657073974609375,0.712493896484375,0.4573211669921875,2.466114044189453,1.470398306846619,0.0946916192770004,76.06088256835938,94.18478393554688,-23.51242065429688
255952,-0.3967437744140625,0.6127777099609375,0.54364013671875,1.995787262916565,2.091903924942017,-0.3670938611030579,76.49154663085938,93.8206024169922,-24.42402648925781
255953,-0.57733154296875,0.5008087158203125,0.394561767578125,0.0379969179630279,2.932336091995239,-1.337471127510071,76.90171813964844,93.74630737304688,-25.508056640625
255954,-0.57733154296875,0.5008087158203125,0.394561767578125,0.0379969179630279,2.932336091995239,-1.337471127510071,76.90171813964844,93.74630737304688,-25.508056640625
255955,-0.753509521484375,0.389129638671875,0.2500762939453125,0.0379969179630279,2.932336091995239,-1.337471127510071,76.88999938964844,93.88313293457033,-25.29289245605469
255956,-0.894561767578125,0.2403411865234375,0.2573394775390625,-0.1037239953875542,2.699186086654663,0.1828971207141876,76.84066772460938,94.31057739257812,-24.82481384277344
255957,-0.827239990234375,0.1814727783203125,0.3160552978515625,-0.1037239953875542,2.699186086654663,0.1828971207141876,76.74623107910156,94.79786682128906,-24.00161743164062
255958,-0.827239990234375,0.1814727783203125,0.3160552978515625,-0.1037239953875542,2.699186086654663,0.1828971207141876,76.74623107910156,94.79786682128906,-24.00161743164062
255959,-0.1375274658203125,0.7089385986328125,0.3759307861328125,0.2683528959751129,2.054590940475464,0.8428199291229248,76.93995666503906,95.10159301757812,-22.55548095703125
255960,-0.0780487060546875,0.8731842041015625,0.365875244140625,0.0951534137129783,1.675056099891663,0.924256145954132,77.38015747070312,94.95246887207033,-21.86546325683594
255961,-0.0780487060546875,0.8731842041015625,0.365875244140625,0.0951534137129783,1.675056099891663,0.924256145954132,77.38015747070312,94.95246887207033,-21.86546325683594
255962,-0.041473388671875,0.96746826171875,0.3905181884765625,-0.4075022637844086,0.820917010307312,0.5876115560531616,77.93778991699219,94.7587432861328,-21.63014221191406
255963,-0.0648956298828125,0.7567596435546875,0.6038665771484375,-0.5455256700515747,0.4221387207508087,0.1224992871284485,78.91143798828125,94.02723693847656,-20.71635437011719
255964,-0.140045166015625,0.46759033203125,0.7768707275390625,-0.6806879639625549,0.0638428926467895,-0.28310626745224,79.26243591308594,93.66436767578124,-20.19685363769531
255965,-0.2334136962890625,0.296630859375,0.972808837890625,-0.8427831530570984,-0.0415415838360786,-0.5682663917541504,79.63743591308594,93.4609832763672,-19.87205505371094
255966,-0.2334136962890625,0.296630859375,0.972808837890625,-0.8427831530570984,-0.0415415838360786,-0.5682663917541504,79.63743591308594,93.4609832763672,-19.87205505371094
255967,-0.172210693359375,0.2418212890625,1.04010009765625,-1.339149475097656,-0.3395620882511139,-0.8786966800689697,79.68954467773438,93.02589416503906,-19.08119201660156
255968,-0.06207275390625,0.407989501953125,0.934356689453125,-1.708836436271667,-0.4557068049907684,-0.9229515194892884,79.47299194335938,92.87638854980467,-18.66722106933594
255969,-0.06207275390625,0.407989501953125,0.934356689453125,-1.708836436271667,-0.4557068049907684,-0.9229515194892884,79.47299194335938,92.87638854980467,-18.66722106933594
255970,0.0364837646484375,0.6845245361328125,0.8482666015625,-2.465628623962402,-0.2988689839839935,-1.025185704231262,78.60600280761719,93.51405334472656,-17.80633544921875
255971,-0.025390625,0.7330169677734375,0.929656982421875,-2.762663841247559,0.1670265346765518,-0.9219514727592468,78.11277770996094,93.91551208496094,-17.1337890625
255972,-0.1190338134765625,0.827972412109375,0.985015869140625,-2.905679702758789,0.918952226638794,-0.8394742012023926,77.62579345703125,94.140625,-16.06471252441406
255973,-0.204010009765625,0.9561614990234376,0.8770904541015625,-2.878530979156494,1.455655097961426,-0.828986406326294,77.21263122558594,94.49000549316406,-14.96452331542969
255974,-0.204010009765625,0.9561614990234376,0.8770904541015625,-2.878530979156494,1.455655097961426,-0.828986406326294,77.21263122558594,94.49000549316406,-14.96452331542969
255975,-0.289825439453125,1.056930541992188,0.7679290771484375,-2.749834775924683,1.670066118240356,-0.8631802797317505,76.83328247070312,94.62631225585938,-13.40370178222656
255976,-0.4109954833984375,1.097198486328125,0.5809478759765625,-2.511102199554443,1.540162801742554,-1.077251315116882,76.16180419921875,94.72810363769533,-10.25860595703125
255977,-0.42376708984375,1.029541015625,0.453857421875,-2.452197074890137,1.370192646980286,-1.185328006744385,75.68055725097656,94.73316955566406,-8.821273803710938
255978,-0.4009246826171875,0.9478607177734376,0.3082275390625,-2.383267641067505,0.6769046783447266,-1.361624240875244,75.12193298339844,95.0290069580078,-7.455215454101562
255979,-0.3521881103515625,0.878814697265625,0.1638031005859375,-2.383267641067505,0.6769046783447266,-1.361624240875244,74.39637756347656,95.0777587890625,-6.146530151367188
255980,-0.279510498046875,0.81951904296875,0.040618896484375,-2.344167709350586,0.1483639031648636,-1.406878232955933,73.69998168945312,95.16627502441406,-4.868057250976562
255981,-0.1927642822265625,0.740570068359375,-0.0432891845703125,-2.274050712585449,-0.382888525724411,-1.407195448875427,73.10818481445312,95.13607788085938,-3.716964721679688
255982,-0.1927642822265625,0.740570068359375,-0.0432891845703125,-2.274050712585449,-0.382888525724411,-1.407195448875427,73.10818481445312,95.13607788085938,-3.716964721679688
255983,-0.067138671875,0.6350860595703125,-0.1330413818359375,-2.071418285369873,-1.341402769088745,-1.285339593887329,71.78672790527344,95.3204345703125,-2.060302734375
255984,-0.0352935791015625,0.6427459716796875,-0.1445770263671875,-1.910447597503662,-1.600757360458374,-1.178599715232849,71.11250305175781,95.20437622070312,-1.2718505859375
255985,0.02618408203125,0.6812591552734375,-0.3612823486328125,-0.5631943941116333,-2.567178726196289,-0.610210120677948,70.57878112792969,95.22492980957033,-0.72796630859375
255986,0.02618408203125,0.6812591552734375,-0.3612823486328125,-0.5631943941116333,-2.567178726196289,-0.610210120677948,70.57878112792969,95.22492980957033,-0.72796630859375
255987,0.370849609375,0.8688201904296875,-1.348831176757812,1.373835802078247,-3.416440010070801,0.2197075933218002,69.48347473144531,95.47679138183594,-0.1898040771484375
255988,0.263336181640625,1.070144653320312,-0.8189697265625,2.803306102752686,-0.0934785529971122,0.2300896644592285,68.94171142578125,95.96922302246094,-0.2889251708984375
255989,0.305511474609375,0.7789154052734375,-1.1658935546875,2.588032484054565,1.911049246788025,-0.0431133806705474,68.68603515625,96.67303466796876,-1.184112548828125
255990,0.3185882568359375,0.5716400146484375,-1.059463500976562,0.6714939475059509,0.9017516374588012,0.0850035771727562,68.43748474121094,97.13542175292967,-2.006561279296875
255991,0.333099365234375,0.4639739990234375,-0.627532958984375,0.6714939475059509,0.9017516374588012,0.0850035771727562,68.27410888671875,97.42388916015624,-2.75146484375
255992,0.31402587890625,0.5012054443359375,-0.5659942626953125,-0.0459230169653892,0.3609536588191986,0.3096761107444763,68.09840393066406,97.4851531982422,-3.291915893554688
255993,0.3106536865234375,0.5771636962890625,-0.6721649169921875,-0.354830265045166,-0.7447426319122314,0.5272979140281677,68.12684631347656,97.54786682128906,-3.214340209960938
255994,0.3106536865234375,0.5771636962890625,-0.6721649169921875,-0.354830265045166,-0.7447426319122314,0.5272979140281677,68.12684631347656,97.54786682128906,-3.214340209960938
255995,0.3811798095703125,0.8419342041015625,-0.4408416748046875,-0.1759537160396576,-0.6515383720397949,0.705775260925293,68.28762817382812,97.2037353515625,-2.718124389648438
255996,0.430633544921875,1.08514404296875,-0.338592529296875,0.2045547366142273,-0.2153067141771317,0.8736827373504639,68.59806823730469,96.89683532714844,-2.385513305664062
255997,0.4486083984375,1.395233154296875,-0.3345794677734375,0.7305652499198914,-0.0981422811746597,0.9177053570747375,68.88775634765625,96.73797607421876,-2.371170043945312
255998,0.4486083984375,1.395233154296875,-0.3345794677734375,0.7305652499198914,-0.0981422811746597,0.9177053570747375,68.88775634765625,96.73797607421876,-2.371170043945312
255999,0.3114166259765625,2.10797119140625,0.1162872314453125,1.617684245109558,-0.3888244330883026,0.593397319316864,69.46427917480469,96.80119323730467,-2.336685180664062
256000,0.175567626953125,2.633697509765625,0.3293914794921875,1.821927070617676,-0.4240876138210297,0.2064383924007416,69.58250427246094,96.92787170410156,-2.687606811523438
256001,0.0247344970703125,3.147048950195312,0.651611328125,1.82772159576416,0.0141898551955819,-0.3509731888771057,69.73377990722656,97.17645263671876,-3.412216186523438
256002,0.0247344970703125,3.147048950195312,0.651611328125,1.82772159576416,0.0141898551955819,-0.3509731888771057,69.73377990722656,97.17645263671876,-3.412216186523438
256003,-0.453704833984375,3.565200805664062,0.697052001953125,0.1418170481920242,0.6552113890647888,-1.750389218330383,69.48637390136719,98.04981994628906,-5.4652099609375
256004,-0.7700958251953125,3.196823120117188,0.6495819091796875,-0.2340761423110962,0.5905748605728149,-1.946753978729248,69.14472961425781,98.48835754394533,-6.145156860351562
256005,-1.150833129882812,2.492431640625,0.8257598876953125,0.2287658005952835,1.121258974075317,-1.22038209438324,68.67071533203125,98.73757934570312,-6.657470703125
256006,-1.150833129882812,2.492431640625,0.8257598876953125,0.2287658005952835,1.121258974075317,-1.22038209438324,68.67071533203125,98.73757934570312,-6.657470703125
256007,-0.809783935546875,1.787841796875,0.415771484375,1.884716987609863,1.899159789085388,1.194998502731323,67.80027770996094,99.22903442382812,-7.084686279296875
256008,-0.576385498046875,1.950271606445312,0.3448486328125,2.113066673278809,0.8085684776306152,1.30460798740387,68.02897644042969,98.9920654296875,-7.320663452148438
256009,-0.4127349853515625,1.904830932617188,0.4190826416015625,1.576826453208923,-0.3914109170436859,1.198814749717712,68.51266479492188,98.7348175048828,-7.849884033203125
256010,-0.4127349853515625,1.904830932617188,0.4190826416015625,1.576826453208923,-0.3914109170436859,1.198814749717712,68.51266479492188,98.7348175048828,-7.849884033203125
256011,-0.151214599609375,1.590545654296875,0.5614776611328125,1.156638264656067,-0.2383254915475845,1.122207880020142,69.63970947265625,98.381103515625,-9.37945556640625
256012,-0.0688018798828125,1.448562622070312,0.5330047607421875,0.8585474491119385,0.1833112388849258,0.9562798738479614,70.13644409179688,98.2996826171875,-10.0634765625
256013,0.0363311767578125,1.262542724609375,0.203826904296875,1.024801969528198,0.6130146980285645,0.6304200291633606,71.01667785644531,97.57260131835938,-10.90943908691406
256014,0.0363311767578125,1.262542724609375,0.203826904296875,1.024801969528198,0.6130146980285645,0.6304200291633606,71.01667785644531,97.57260131835938,-10.90943908691406
256015,0.0436859130859375,1.15081787109375,0.0311737060546875,1.024801969528198,0.6130146980285645,0.6304200291633606,71.36953735351562,97.25482177734376,-11.26799011230469
256016,0.050750732421875,1.016159057617188,-0.062347412109375,1.316520571708679,0.3776738047599792,0.661023736000061,71.61810302734375,97.18312072753906,-11.56178283691406
256017,0.066375732421875,0.8628692626953125,-0.2101593017578125,1.582164525985718,-0.0540017150342464,0.7141468524932861,71.90480041503906,97.0937957763672,-11.86909484863281
256018,0.066375732421875,0.8628692626953125,-0.2101593017578125,1.582164525985718,-0.0540017150342464,0.7141468524932861,71.90480041503906,97.0937957763672,-11.86909484863281
256019,-0.0137786865234375,0.594818115234375,-0.0666351318359375,1.759289026260376,-0.6306818127632141,0.7236634492874146,72.426513671875,96.98629760742188,-12.92793273925781
256020,-0.068695068359375,0.477142333984375,0.1210479736328125,1.664580583572388,-0.2184282094240189,0.7046148777008057,72.71467590332031,96.90679931640624,-13.65159606933594
256021,-0.08172607421875,0.3641204833984375,0.161590576171875,1.167424321174622,0.874055027961731,0.6840054988861084,72.94996643066406,96.85890197753906,-14.5277099609375
256022,-0.08074951171875,0.2611083984375,0.104248046875,0.8738702535629272,1.249893665313721,0.6494868993759155,73.19758605957031,96.52899169921876,-15.45849609375
256023,-0.0792388916015625,0.1807708740234375,0.088958740234375,0.8738702535629272,1.249893665313721,0.6494868993759155,73.54432678222656,96.31486511230467,-16.08576965332031
256024,-0.0693511962890625,0.10980224609375,0.0953369140625,0.6318890452384949,1.587185978889465,0.5991478562355042,73.85298156738281,96.23078918457033,-16.39903259277344
256025,-0.05120849609375,0.0337066650390625,0.0886383056640625,0.4166691303253174,2.015862941741943,0.5348505973815918,74.14897155761719,96.0725555419922,-16.46932983398438
256026,-0.05120849609375,0.0337066650390625,0.0886383056640625,0.4166691303253174,2.015862941741943,0.5348505973815918,74.14897155761719,96.0725555419922,-16.46932983398438
256027,-0.013702392578125,-0.07568359375,0.0140533447265625,0.4042327105998993,1.982207059860229,0.5120233297348022,74.89970397949219,95.59738159179688,-16.14492797851562
256028,0.01861572265625,-0.0718231201171875,0.0403594970703125,0.3949654400348663,1.858205676078796,0.4873600602149963,75.23216247558594,95.4241943359375,-15.73799133300781
256029,0.064117431640625,-0.0011138916015625,0.1409454345703125,0.3376379609107971,1.769757032394409,0.4620584547519684,75.61476135253906,95.16535949707033,-15.38168334960938
256030,0.064117431640625,-0.0011138916015625,0.1409454345703125,0.3376379609107971,1.769757032394409,0.4620584547519684,75.61476135253906,95.16535949707033,-15.38168334960938
256031,0.0814971923828125,0.3089599609375,0.3062896728515625,-0.1079032942652702,1.664490103721619,0.48581862449646,76.22750854492188,94.84701538085938,-14.76200866699219
256032,0.0582122802734375,0.5528106689453125,0.447784423828125,-0.489993155002594,1.681292414665222,0.4433026015758514,76.41398620605469,94.68017578125,-14.33906555175781
256033,-0.0065460205078125,0.8297882080078125,0.6305084228515625,-1.349737167358398,2.281995296478271,0.0874693915247917,76.68840026855469,94.40106201171876,-13.88578796386719
256034,-0.0065460205078125,0.8297882080078125,0.6305084228515625,-1.349737167358398,2.281995296478271,0.0874693915247917,76.68840026855469,94.40106201171876,-13.88578796386719
256035,-0.2526092529296875,1.383941650390625,0.934173583984375,-1.630303859710693,2.697504043579102,-0.1928360313177109,77.13772583007812,93.95211791992188,-12.51182556152344
256036,-0.3922576904296875,1.570816040039062,1.00384521484375,-1.763258695602417,2.968762874603271,-0.5063172578811646,77.23016357421875,93.76022338867188,-11.46040344238281
256037,-0.4891510009765625,1.628631591796875,0.9364776611328124,-1.722711563110352,2.901089906692505,-0.7057126760482788,77.24510192871094,93.56863403320312,-10.19853210449219
256038,-0.4891510009765625,1.628631591796875,0.9364776611328124,-1.722711563110352,2.901089906692505,-0.7057126760482788,77.24510192871094,93.56863403320312,-10.19853210449219
256039,-0.532012939453125,1.35491943359375,0.6339569091796875,-1.403597235679626,1.859314918518066,-0.6300232410430908,76.78411865234375,93.61407470703124,-7.362411499023438
256040,-0.3994598388671875,1.060653686523438,0.45635986328125,-1.381796002388,1.130120158195496,-0.646594226360321,76.34927368164062,93.67221069335938,-6.041946411132812
256041,-0.2894287109375,0.7289276123046875,0.30706787109375,-1.452329635620117,0.4217341840267181,-0.708397388458252,75.98359680175781,93.6469268798828,-4.980010986328125
256042,-0.2894287109375,0.7289276123046875,0.30706787109375,-1.452329635620117,0.4217341840267181,-0.708397388458252,75.98359680175781,93.6469268798828,-4.980010986328125
256043,-0.1567535400390625,0.355560302734375,0.101806640625,-1.515321373939514,-0.5502548813819885,-0.670287549495697,75.22409057617188,93.70216369628906,-3.363616943359375
256044,-0.1102752685546875,0.30194091796875,0.041290283203125,-1.504222631454468,-0.9542351365089417,-0.6445741653442383,74.92510986328125,93.69435119628906,-2.730148315429688
256045,-0.0380401611328125,0.339599609375,0.021514892578125,-1.440993547439575,-1.603287100791931,-0.6610586047172546,74.41011047363281,93.53060913085938,-1.571151733398438
256046,-0.0380401611328125,0.339599609375,0.021514892578125,-1.440993547439575,-1.603287100791931,-0.6610586047172546,74.41011047363281,93.53060913085938,-1.571151733398438
256047,-0.006134033203125,0.3684234619140625,0.050262451171875,-1.417840361595154,-1.681889295578003,-0.680234968662262,74.20393371582031,93.59642028808594,-1.270156860351562
256048,0.03070068359375,0.3865814208984375,0.0766143798828125,-1.413972854614258,-1.426845550537109,-0.662969708442688,73.95759582519531,93.64485168457033,-1.159500122070312
256049,0.07061767578125,0.3798675537109375,0.0713958740234375,-1.186341881752014,-0.3167790174484253,-0.4101185500621796,73.72518920898438,93.70889282226562,-0.987701416015625
256050,0.07061767578125,0.3798675537109375,0.0713958740234375,-1.186341881752014,-0.3167790174484253,-0.4101185500621796,73.72518920898438,93.70889282226562,-0.987701416015625
256051,0.1552734375,0.441253662109375,-0.2407989501953125,-0.7613916397094727,0.043718185275793,-0.1865102201700211,72.99172973632812,93.84820556640624,-0.5471649169921875
256052,0.128997802734375,0.5165252685546875,-0.5679168701171875,-0.0372238010168075,-0.1173130422830582,-0.0962820574641227,72.66233825683594,93.88540649414062,-0.0466156005859375
256053,0.11541748046875,0.5469818115234375,-0.81524658203125,1.734081387519836,-1.312365770339966,-0.3603030443191528,72.37493896484375,93.9792022705078,0.481719970703125
256054,0.11541748046875,0.5469818115234375,-0.81524658203125,1.734081387519836,-1.312365770339966,-0.3603030443191528,72.37493896484375,93.9792022705078,0.481719970703125
256055,0.088592529296875,0.354583740234375,-0.2825927734375,2.121985912322998,-0.6764708757400513,-0.460073322057724,71.97726440429688,94.4049835205078,0.677978515625
256056,0.0296478271484375,0.2554779052734375,-0.3477630615234375,1.516353607177734,1.016687035560608,-0.3007595539093018,71.73191833496094,94.81794738769533,0.110687255859375
256057,0.000518798828125,0.2288665771484375,-0.7049560546875,1.516353607177734,1.016687035560608,-0.3007595539093018,71.57865905761719,95.37605285644533,-0.815032958984375
256058,0.000518798828125,0.2288665771484375,-0.7049560546875,1.516353607177734,1.016687035560608,-0.3007595539093018,71.57865905761719,95.37605285644533,-0.815032958984375
256059,0.08502197265625,0.5059356689453125,-0.44573974609375,0.1387725323438644,0.1671852618455887,0.0837108790874481,71.10691833496094,96.06288146972656,-2.122482299804688
256060,0.07415771484375,0.7121429443359375,-0.5089111328125,-0.277651309967041,-0.3466958999633789,0.1138037964701653,70.93373107910156,96.20249938964844,-2.376419067382812
256061,0.10943603515625,0.957550048828125,-0.6582794189453125,-0.5470303297042847,-1.426900386810303,0.069214753806591,70.82781982421875,96.250244140625,-2.331253051757812
256062,0.10943603515625,0.957550048828125,-0.6582794189453125,-0.5470303297042847,-1.426900386810303,0.069214753806591,70.82781982421875,96.250244140625,-2.331253051757812
256063,0.2388458251953125,1.675033569335938,-0.1277618408203125,-0.3967659771442413,-0.5050682425498962,0.1238196790218353,70.92060852050781,96.0302734375,-2.177444458007812
256064,0.1640777587890625,2.074569702148438,0.0612335205078125,0.1793660223484039,0.8257522583007812,-0.0628300979733467,71.00572204589844,95.87342834472656,-1.9798583984375
256065,0.0250244140625,2.4635009765625,-0.25677490234375,0.9349258542060852,0.5386291146278381,-0.5356311798095703,71.11997985839844,95.81321716308594,-1.8988037109375
256066,-0.0865478515625,2.891448974609375,-0.2009124755859375,1.798183083534241,-0.315640777349472,-1.106728792190552,71.16061401367188,95.83062744140624,-1.894073486328125
256067,-0.2182159423828125,3.133132934570312,0.087188720703125,2.349192380905151,-0.7522303462028503,-1.560419321060181,71.07261657714844,95.84396362304688,-1.991500854492188
256068,-0.7367706298828125,2.926712036132812,0.4524078369140625,2.256947040557861,0.3174242973327637,-1.533104300498962,70.63417053222656,96.24459838867188,-2.613754272460938
256069,-1.433120727539062,2.264694213867188,0.17889404296875,1.746174216270447,2.239367961883545,-0.3624133467674255,70.19235229492188,96.93150329589844,-3.864273071289062
256070,-1.433120727539062,2.264694213867188,0.17889404296875,1.746174216270447,2.239367961883545,-0.3624133467674255,70.19235229492188,96.93150329589844,-3.864273071289062
256071,-0.5729522705078125,1.687210083007812,-0.738494873046875,0.8828080892562866,-0.1570905447006226,0.147846445441246,69.16160583496094,98.1730499267578,-6.011627197265625
256072,-0.3455047607421875,1.593780517578125,-0.0389556884765625,0.8828080892562866,-0.1570905447006226,0.147846445441246,69.0550537109375,98.21958923339844,-6.230758666992188
256073,-0.2093048095703125,1.559677124023438,0.2797698974609375,0.7189844846725464,0.2954873144626617,0.2852924466133118,69.34974670410156,98.18829345703124,-6.981369018554688
256074,-0.2093048095703125,1.559677124023438,0.2797698974609375,0.7189844846725464,0.2954873144626617,0.2852924466133118,69.34974670410156,98.18829345703124,-6.981369018554688
256075,-0.1217498779296875,1.971649169921875,0.3882293701171875,0.8079972267150879,0.9511458277702332,0.860287070274353,69.54830932617188,98.2854461669922,-7.811813354492188
256076,-0.0965118408203125,2.218368530273438,0.4449920654296875,0.8770039677619934,1.140854477882385,1.004799008369446,69.81224060058594,98.08537292480467,-7.871734619140625
256077,-0.081268310546875,2.376495361328125,0.4710540771484375,0.8957683444023132,1.380761384963989,0.9760107398033142,70.06571960449219,97.89561462402344,-7.928192138671875
256078,-0.03662109375,2.347000122070312,0.42633056640625,0.9136344194412231,1.429521203041077,0.786561131477356,70.38975524902344,97.71356201171876,-8.248184204101562
256079,0.019134521484375,2.067550659179688,0.3455352783203125,0.9206036329269408,1.198816895484924,0.526012122631073,70.69819641113281,97.62786865234376,-8.53643798828125
256080,0.0557098388671875,1.646743774414062,0.2734527587890625,0.9217535853385924,0.7449412941932678,0.4468315541744232,70.9173583984375,97.46160888671876,-8.796524047851562
256081,0.2313079833984375,1.266830444335938,0.18017578125,1.021453857421875,-0.4752938151359558,0.4958153367042542,71.2294921875,97.02288818359376,-9.425857543945312
256082,0.2313079833984375,1.266830444335938,0.18017578125,1.021453857421875,-0.4752938151359558,0.4958153367042542,71.2294921875,97.02288818359376,-9.425857543945312
256083,0.372894287109375,1.15008544921875,0.1709136962890625,1.021281003952026,-1.144662618637085,0.6218960285186768,71.328125,96.97882080078124,-9.826828002929688
256084,0.5174102783203125,1.0841064453125,0.1351318359375,0.9523181915283204,-1.629077196121216,0.8713013529777527,71.55018615722656,96.94059753417967,-10.47996520996094
256085,0.584716796875,1.133163452148438,0.093719482421875,0.8541668057441711,-1.290143370628357,1.061253428459167,72.05184936523438,96.64480590820312,-11.56338500976562
256086,0.584716796875,1.133163452148438,0.093719482421875,0.8541668057441711,-1.290143370628357,1.061253428459167,72.05184936523438,96.64480590820312,-11.56338500976562
256087,0.4673614501953125,1.0745849609375,0.10992431640625,0.7188133001327515,-0.2804473638534546,0.7451705932617188,72.49885559082031,96.46784973144533,-12.00630187988281
256088,0.17584228515625,0.9196319580078124,0.081298828125,0.616868257522583,0.3521644473075867,0.5027856230735779,72.81808471679688,96.35481262207033,-12.55964660644531
256089,-0.082916259765625,0.892364501953125,0.1392669677734375,0.5748805999755859,0.6336680054664612,0.4898898005485535,73.27597045898438,96.10906982421876,-12.93016052246094
256090,-0.082916259765625,0.892364501953125,0.1392669677734375,0.5748805999755859,0.6336680054664612,0.4898898005485535,73.27597045898438,96.10906982421876,-12.93016052246094
256091,-0.22955322265625,0.69683837890625,0.05145263671875,0.4275545179843903,0.6093637347221375,0.22353695333004,73.899169921875,95.65293884277344,-13.23637390136719
256092,-0.247772216796875,0.5429840087890625,0.0103302001953125,0.3740476369857788,0.3977596163749695,0.0848645567893981,74.16534423828125,95.57740783691406,-13.22837829589844
256093,-0.2382965087890625,0.406646728515625,0.0301361083984375,0.34208944439888,0.3171167075634003,0.0281200520694255,74.36611938476562,95.42263793945312,-13.2415771484375
256094,-0.2079010009765625,0.2828826904296875,0.001617431640625,0.3012056350708008,0.3208059668540955,0.0736132338643074,74.41873168945312,95.37905883789062,-13.21870422363281
256095,-0.15753173828125,0.1793365478515625,-0.01007080078125,0.2134696692228317,0.3576201796531677,0.1793015748262405,74.4925537109375,95.27352905273438,-13.31526184082031
256096,-0.0637054443359375,0.1311492919921875,0.0540313720703125,0.0828208476305007,0.5724424719810486,0.2653898596763611,74.52894592285156,95.2667236328125,-13.47250366210938
256097,0.0388946533203125,0.145965576171875,0.1342010498046875,-0.2938209772109985,1.410478591918945,0.2032663077116013,74.65888977050781,94.99920654296876,-13.51570129394531
256098,0.0388946533203125,0.145965576171875,0.1342010498046875,-0.2938209772109985,1.410478591918945,0.2032663077116013,74.65888977050781,94.99920654296876,-13.51570129394531
256099,0.0757598876953125,0.3354949951171875,0.2864990234375,-0.4907790422439575,1.874096512794495,0.0962458401918411,74.91938781738281,94.79579162597656,-12.84858703613281
256100,0.0065155029296875,0.533172607421875,0.381134033203125,-0.718031644821167,2.366196393966675,-0.0349984653294086,75.17010498046875,94.69444274902344,-12.387451171875
256101,-0.0754547119140625,0.7360382080078125,0.4974517822265625,-1.1393141746521,3.265461921691895,-0.3441331386566162,75.19966125488281,94.67247009277344,-11.65907287597656
256102,-0.0754547119140625,0.7360382080078125,0.4974517822265625,-1.1393141746521,3.265461921691895,-0.3441331386566162,75.19966125488281,94.67247009277344,-11.65907287597656
256103,-0.296844482421875,0.912384033203125,0.58953857421875,-1.215920805931091,3.466183423995972,-0.4569270610809326,75.197998046875,94.39706420898438,-9.597671508789062
256104,-0.4036865234375,0.949493408203125,0.5654754638671875,-1.189871311187744,3.39988112449646,-0.5823965668678284,75.04132080078125,94.3746337890625,-8.224838256835938
256105,-0.4989776611328125,0.9414520263671876,0.4794158935546875,-1.089480876922607,2.958451271057129,-0.6859408020973206,74.80279541015625,94.37081909179688,-6.856689453125
256106,-0.4989776611328125,0.9414520263671876,0.4794158935546875,-1.089480876922607,2.958451271057129,-0.6859408020973206,74.80279541015625,94.37081909179688,-6.856689453125
256107,-0.5263214111328125,0.7830810546875,0.3645782470703125,-1.017559766769409,1.565672159194946,-0.7944563627243042,73.89888000488281,94.4043426513672,-4.507537841796875
256108,-0.442779541015625,0.6759796142578125,0.360321044921875,-1.149498343467712,0.9570463299751282,-0.7353445887565613,73.45037841796875,94.5184326171875,-3.642745971679688
256109,-0.2894134521484375,0.6200408935546875,0.318878173828125,-1.3326655626297,0.4504563808441162,-0.7467697858810425,72.88520812988281,94.62092590332033,-2.881576538085938
256110,-0.2894134521484375,0.6200408935546875,0.318878173828125,-1.3326655626297,0.4504563808441162,-0.7467697858810425,72.88520812988281,94.62092590332033,-2.881576538085938
256111,-0.161407470703125,0.4887237548828125,0.283966064453125,-1.561696529388428,-0.5016862750053406,-0.9843477606773376,72.1158447265625,94.51211547851562,-1.520980834960938
256112,-0.1424560546875,0.3884735107421875,0.30206298828125,-1.601008772850037,-0.6647327542304993,-1.061332225799561,71.79277038574219,94.51652526855467,-0.9566650390625
256113,-0.1170806884765625,0.3180694580078125,0.2938232421875,-1.622601509094238,-0.640927255153656,-1.092622756958008,71.25111389160156,94.4943389892578,-0.545257568359375
256114,-0.1170806884765625,0.3180694580078125,0.2938232421875,-1.622601509094238,-0.640927255153656,-1.092622756958008,71.25111389160156,94.4943389892578,-0.545257568359375
256115,-0.0326995849609375,0.2934112548828125,0.086334228515625,-1.563493371009827,-0.2362117320299149,-1.035657525062561,70.28445434570312,94.447998046875,0.7342681884765625
256116,0.0172271728515625,0.311065673828125,-0.1241607666015625,-1.345993280410767,-0.2372381091117859,-0.98066246509552,69.75350952148438,94.5048370361328,1.258270263671875
256117,0.0944671630859375,0.3300323486328125,-0.3787841796875,-0.917918622493744,-0.5302833318710327,-0.840941309928894,69.19735717773438,94.59242248535156,1.679351806640625
256118,0.0944671630859375,0.3300323486328125,-0.3787841796875,-0.917918622493744,-0.5302833318710327,-0.840941309928894,69.19735717773438,94.59242248535156,1.679351806640625
256119,0.129974365234375,0.352264404296875,-0.2379608154296875,0.1586141437292099,-0.8337390422821045,-0.3824869096279144,68.28684997558594,94.69491577148438,2.320053100585938
256120,0.1216888427734375,0.3439178466796875,-0.09686279296875,0.3938716650009155,-0.3439658880233765,-0.2424049079418182,67.99624633789062,94.76773071289062,2.386520385742188
256121,0.133026123046875,0.316192626953125,-0.1215972900390625,0.4563909769058228,0.0809864625334739,-0.1626190096139908,67.738525390625,95.04942321777344,2.320907592773438
256122,0.1411285400390625,0.3056182861328125,-0.2104339599609375,0.4679584205150604,0.1613635867834091,-0.1365133672952652,67.5660400390625,95.21096801757812,2.246170043945312
256123,0.1221466064453125,0.3291778564453125,-0.2554931640625,0.4875994920730591,0.0040898164734244,-0.2115652412176132,67.41410827636719,95.37353515625,2.259414672851562
256124,0.0836181640625,0.360107421875,-0.2535552978515625,0.5175352692604065,-0.155448704957962,-0.385392963886261,67.26571655273438,95.5451202392578,2.264312744140625
256125,0.0341033935546875,0.3914031982421875,-0.26800537109375,0.5858768224716187,-0.1995690315961838,-0.5135237574577332,67.0916748046875,95.72737121582033,2.09814453125
256126,0.0341033935546875,0.3914031982421875,-0.26800537109375,0.5858768224716187,-0.1995690315961838,-0.5135237574577332,67.0916748046875,95.72737121582033,2.09814453125
256127,-0.04437255859375,0.59722900390625,-0.4577178955078125,1.024142861366272,-0.1175372824072838,-0.5473248958587646,66.47555541992188,96.04473876953124,1.826644897460938
256128,0.00653076171875,0.8020782470703125,-0.6356201171875,1.528178572654724,0.0319241099059581,-0.4588229656219482,66.12905883789062,96.23609924316406,1.627212524414062
256129,0.1036224365234375,1.067169189453125,-0.855316162109375,2.111303329467773,0.2714709341526031,-0.2691372036933899,65.81875610351562,96.48826599121094,1.106277465820312
256130,0.1036224365234375,1.067169189453125,-0.855316162109375,2.111303329467773,0.2714709341526031,-0.2691372036933899,65.81875610351562,96.48826599121094,1.106277465820312
256131,0.08148193359375,1.746780395507812,-0.96636962890625,1.615965127944946,0.4645445048809052,0.1648182421922684,65.24125671386719,97.0409698486328,-0.3585662841796875
256132,-0.0615386962890625,2.049591064453125,-0.5502471923828125,1.048198103904724,0.3985324800014496,-0.0816413313150405,65.02568054199219,97.23214721679688,-1.05291748046875
256133,-0.143524169921875,2.3958740234375,-0.5526123046875,0.9626573324203492,-0.0744119137525558,-0.419988751411438,64.9775390625,97.48675537109376,-1.64166259765625
256134,-0.164520263671875,2.674575805664062,-0.5578765869140625,1.367974996566772,-0.5713939666748047,-0.471359521150589,64.83731079101562,97.54957580566406,-2.13531494140625
256135,-0.2111358642578125,2.804977416992188,-0.394561767578125,1.78460419178009,-0.1004797369241714,-0.1975847184658051,64.66717529296875,97.72836303710938,-2.650665283203125
256136,-0.2420654296875,2.71734619140625,-0.4366912841796875,1.879204273223877,0.7229984402656555,0.1291071176528931,64.49786376953125,98.0029296875,-3.370529174804688
256137,-0.2323760986328125,2.391860961914062,-0.6450347900390625,1.660972833633423,0.7913673520088196,0.1310506910085678,64.39515686035156,98.3084716796875,-4.048065185546875
256138,-0.2323760986328125,2.391860961914062,-0.6450347900390625,1.660972833633423,0.7913673520088196,0.1310506910085678,64.39515686035156,98.3084716796875,-4.048065185546875
256139,-0.0754547119140625,2.02435302734375,-0.61456298828125,1.181065559387207,0.321657121181488,-0.048389371484518,64.39820861816406,98.84982299804688,-5.687637329101562
256140,0.072723388671875,2.031280517578125,-0.638336181640625,0.9821868538856506,0.1687943488359451,0.1925497353076935,64.32611083984375,98.83976745605467,-6.27655029296875
256141,0.132293701171875,2.140243530273438,-0.5369110107421875,0.7885923385620117,0.087864875793457,0.4903731644153595,64.31013488769531,99.04421997070312,-6.621200561523438
256142,0.0810546875,2.293991088867188,-0.3387298583984375,0.6384539604187012,0.1051261499524117,0.696212887763977,64.52813720703125,98.98687744140624,-7.004196166992188
256143,0.0181427001953125,2.366043090820312,-0.20074462890625,0.5933834314346313,0.1107121333479881,0.8056509494781494,64.74449157714844,98.98330688476562,-7.496337890625
256144,-0.0422210693359375,2.249099731445312,-0.1026153564453125,0.6800531148910522,0.0751027390360832,0.833180844783783,65.04736328125,98.98892211914062,-7.838897705078125
256145,-0.1080780029296875,2.01043701171875,-0.003936767578125,0.8379271626472473,0.1311271339654922,0.7618017792701721,65.40213012695312,99.0533447265625,-8.183242797851562
256146,-0.1080780029296875,2.01043701171875,-0.003936767578125,0.8379271626472473,0.1311271339654922,0.7618017792701721,65.40213012695312,99.0533447265625,-8.183242797851562
256147,-0.1887969970703125,1.531402587890625,0.058502197265625,0.9639037251472472,0.124827153980732,0.556495189666748,66.13475036621094,99.07354736328124,-9.112503051757812
256148,-0.11932373046875,1.24505615234375,-0.0201263427734375,0.7976649403572083,-0.1455952823162079,0.4297758638858795,66.52069091796875,98.89900207519533,-9.611434936523438
256149,0.0765838623046875,1.08465576171875,0.0619354248046875,0.3854214549064636,-0.72005295753479,0.4848865270614624,67.07771301269531,98.74563598632812,-10.52861022949219
256150,0.0765838623046875,1.08465576171875,0.0619354248046875,0.3854214549064636,-0.72005295753479,0.4848865270614624,67.07771301269531,98.74563598632812,-10.52861022949219
256151,0.1506195068359375,1.169601440429688,0.1215667724609375,0.3298202455043793,-0.6532201766967773,0.6259374022483826,67.35653686523438,98.81150817871094,-10.92312622070312
256152,0.16033935546875,1.262069702148438,0.149200439453125,0.3716590404510498,-0.3952309489250183,0.6517860293388367,67.56201171875,98.69210815429688,-11.11538696289062
256153,0.07049560546875,1.288925170898438,0.16162109375,0.4387888014316559,-0.0711327642202377,0.5718286037445068,67.95500183105469,98.44639587402344,-11.37548828125
256154,0.07049560546875,1.288925170898438,0.16162109375,0.4387888014316559,-0.0711327642202377,0.5718286037445068,67.95500183105469,98.44639587402344,-11.37548828125
256155,-0.1361846923828125,1.171142578125,0.2886199951171875,0.4902107119560242,0.914923369884491,0.3709540963172913,68.49053955078125,98.33018493652344,-12.08554077148438
256156,-0.174713134765625,1.053436279296875,0.350677490234375,0.3476857841014862,1.255021810531616,0.3012538552284241,68.8341064453125,98.12281799316406,-12.27276611328125
256157,-0.1656341552734375,0.8853302001953125,0.3416900634765625,0.3476857841014862,1.255021810531616,0.3012538552284241,69.05351257324219,97.86135864257812,-12.10585021972656
256158,-0.1656341552734375,0.8853302001953125,0.3416900634765625,0.3476857841014862,1.255021810531616,0.3012538552284241,69.05351257324219,97.86135864257812,-12.10585021972656
256159,-0.1203460693359375,0.583404541015625,0.2448577880859375,-0.0680946335196495,1.462031483650208,0.1824302673339844,69.56936645507812,97.61318969726562,-12.03944396972656
256160,-0.11248779296875,0.46881103515625,0.189544677734375,-0.2150316089391708,1.201005220413208,0.0935954675078392,69.82243347167969,97.50375366210938,-11.91653442382812
256161,-0.10546875,0.3653564453125,0.1463623046875,-0.1823580861091614,0.9521759748458862,0.0530368536710739,69.95213317871094,97.44032287597656,-11.75323486328125
256162,-0.10546875,0.3653564453125,0.1463623046875,-0.1823580861091614,0.9521759748458862,0.0530368536710739,69.95213317871094,97.44032287597656,-11.75323486328125
256163,-0.0692138671875,0.1863861083984375,0.0547637939453125,-0.1132653057575226,0.6401248574256897,0.028667863458395,70.36763000488281,96.99327087402344,-11.2254638671875
256164,-0.0489501953125,0.1248626708984375,0.023162841796875,-0.0395548678934574,0.3069956302642822,0.0136489672586321,70.5313720703125,96.6962890625,-10.7891845703125
256165,0.00079345703125,0.073577880859375,0.042999267578125,-0.1975586116313934,-0.0125932898372411,-0.0216427110135555,70.611572265625,96.65065002441406,-10.38140869140625
256166,0.00079345703125,0.073577880859375,0.042999267578125,-0.1975586116313934,-0.0125932898372411,-0.0216427110135555,70.611572265625,96.65065002441406,-10.38140869140625
256167,0.0076141357421875,0.101409912109375,0.09381103515625,-0.1975586116313934,-0.0125932898372411,-0.0216427110135555,70.63331604003906,96.75399780273438,-10.403076171875
256168,-0.0148773193359375,0.1990203857421875,0.186981201171875,-0.4310866892337799,0.3251112401485443,-0.1188331767916679,70.59886169433594,96.7192840576172,-10.30342102050781
256169,-0.10919189453125,0.5233306884765625,0.30181884765625,-1.171826004981995,1.47708797454834,-0.4722200036048889,70.42585754394531,96.69296264648438,-10.04576110839844
256170,-0.10919189453125,0.5233306884765625,0.30181884765625,-1.171826004981995,1.47708797454834,-0.4722200036048889,70.42585754394531,96.69296264648438,-10.04576110839844
256171,-0.143646240234375,0.676116943359375,0.328521728515625,-1.530170798301697,1.998011827468872,-0.6603193283081055,70.17459106445312,96.697021484375,-9.5191650390625
256172,-0.18255615234375,0.7696380615234375,0.2994842529296875,-1.723839402198792,2.248342990875244,-0.7612515687942505,70.02090454101562,96.82308959960938,-8.755599975585938
256173,-0.2751312255859375,0.8066253662109375,0.258453369140625,-1.609013795852661,2.068334817886353,-0.7364655137062073,69.85081481933594,96.72323608398438,-7.733612060546875
256174,-0.2751312255859375,0.8066253662109375,0.258453369140625,-1.609013795852661,2.068334817886353,-0.7364655137062073,69.85081481933594,96.72323608398438,-7.733612060546875
256175,-0.38525390625,0.7853851318359375,0.286407470703125,-1.218591928482056,1.719795107841492,-0.6500842571258545,69.56808471679688,96.62249755859376,-6.55194091796875
256176,-0.4180145263671875,0.6036224365234375,0.351287841796875,-0.5397101044654846,0.9897606372833252,-0.4759766459465027,68.84439086914062,96.58079528808594,-4.724822998046875
256177,-0.3602294921875,0.55718994140625,0.37579345703125,-0.7716102004051208,0.5335781574249268,-0.4827032685279846,68.55978393554688,96.65139770507812,-4.192138671875
256178,-0.3602294921875,0.55718994140625,0.37579345703125,-0.7716102004051208,0.5335781574249268,-0.4827032685279846,68.55978393554688,96.65139770507812,-4.192138671875
256179,-0.1903533935546875,0.491668701171875,0.2733154296875,-1.050586938858032,0.2416642904281616,-0.5307576060295105,67.88722229003906,96.65290832519533,-3.172836303710938
256180,-0.107208251953125,0.4828948974609375,0.235748291015625,-1.234359383583069,-0.1015681698918343,-0.6012850403785706,67.4901123046875,96.72381591796876,-2.788986206054688
256181,-0.046600341796875,0.4652862548828125,0.22735595703125,-1.325166821479797,-0.397869348526001,-0.6681460738182068,67.24972534179688,96.7388153076172,-2.412429809570312
256182,-0.046600341796875,0.4652862548828125,0.22735595703125,-1.325166821479797,-0.397869348526001,-0.6681460738182068,67.24972534179688,96.7388153076172,-2.412429809570312
256183,0.041900634765625,0.455963134765625,0.1934661865234375,-1.391425013542175,-0.7864375710487366,-0.7415617108345032,66.57041931152344,96.64512634277344,-1.388214111328125
256184,0.0761260986328125,0.4536285400390625,0.1707611083984375,-1.386530637741089,-0.9349013566970824,-0.7798702120780945,66.21035766601562,96.51100158691406,-0.829254150390625
256185,0.103759765625,0.4324188232421875,0.1479339599609375,-1.344560265541077,-1.024835228919983,-0.80156010389328,65.98326110839844,96.4658203125,-0.4060211181640625
256186,0.103759765625,0.4324188232421875,0.1479339599609375,-1.344560265541077,-1.024835228919983,-0.80156010389328,65.98326110839844,96.4658203125,-0.4060211181640625
256187,0.043853759765625,0.35894775390625,0.014007568359375,-0.9982744455337524,-0.8868483304977417,-0.8884262442588806,65.26701354980469,96.47096252441406,0.5332794189453125
256188,-0.0206451416015625,0.3395538330078125,-0.099884033203125,-0.6870377659797668,-0.7892807722091675,-0.9785739779472352,65.00825500488281,96.48960876464844,1.011566162109375
256189,-0.0709991455078125,0.3679046630859375,-0.2076416015625,-0.3414278924465179,-0.8225359320640564,-1.097393870353699,64.60336303710938,96.57701110839844,1.397659301757812
256190,-0.0709991455078125,0.3679046630859375,-0.2076416015625,-0.3414278924465179,-0.8225359320640564,-1.097393870353699,64.60336303710938,96.57701110839844,1.397659301757812
256191,-0.1815338134765625,0.53961181640625,-0.28125,0.3064049482345581,-1.024312734603882,-1.364151000976562,63.67803955078125,97.03182983398438,1.811004638671875
256192,-0.2207489013671875,0.6192169189453125,-0.253143310546875,0.5655224919319153,-0.8689612150192261,-1.379966735839844,63.12681579589844,97.4451141357422,1.8419189453125
256193,-0.223052978515625,0.6996002197265625,-0.28558349609375,1.078191995620728,-0.0274518635123968,-0.9563954472541808,62.47944641113281,97.9023895263672,1.33697509765625
256194,-0.223052978515625,0.6996002197265625,-0.28558349609375,1.078191995620728,-0.0274518635123968,-0.9563954472541808,62.47944641113281,97.9023895263672,1.33697509765625
256195,-0.081634521484375,0.9338531494140624,-0.450469970703125,1.242557168006897,0.2169600129127502,-0.7400684952735901,61.22630310058594,98.76805114746094,0.7912750244140625
256196,0.0162200927734375,1.015335083007812,-0.5181884765625,1.209875106811523,0.1759529262781143,-0.2473653256893158,60.65110778808594,99.01678466796876,0.5171966552734375
256197,0.116912841796875,1.129562377929688,-0.5875701904296875,1.209875106811523,0.1759529262781143,-0.2473653256893158,60.13877868652344,99.27137756347656,0.0803070068359375
256198,0.116912841796875,1.129562377929688,-0.5875701904296875,1.209875106811523,0.1759529262781143,-0.2473653256893158,60.13877868652344,99.27137756347656,0.0803070068359375
256199,0.233795166015625,1.782394409179688,-1.10125732421875,0.9178611040115356,0.2762235999107361,0.3420651853084564,59.54293823242188,99.47200012207033,-0.7491455078125
256200,0.1595306396484375,2.063003540039062,-1.067642211914062,0.752789318561554,-0.0400829724967479,0.3173851370811462,59.34967041015625,99.50619506835938,-1.168350219726562
256201,-0.108795166015625,2.189071655273438,-0.83172607421875,0.9149742722511292,-0.2380186915397644,0.2079311013221741,59.40290832519531,99.4780731201172,-1.504241943359375
256202,-0.108795166015625,2.189071655273438,-0.83172607421875,0.9149742722511292,-0.2380186915397644,0.2079311013221741,59.40290832519531,99.4780731201172,-1.504241943359375
256203,-0.388427734375,2.353958129882812,-1.1162109375,1.723477721214294,0.1625761240720749,0.2529307901859283,59.72286987304688,99.3081512451172,-2.205917358398438
256204,-0.1464996337890625,2.035995483398438,-1.174713134765625,1.665729761123657,0.4270536005496979,0.2560453712940216,59.84576416015625,99.5221710205078,-2.754592895507812
256205,0.034698486328125,1.8924560546875,-1.044265747070312,1.346813559532166,0.4169706106185913,0.0754273757338523,60.007568359375,99.56277465820312,-3.30706787109375
256206,0.034698486328125,1.8924560546875,-1.044265747070312,1.346813559532166,0.4169706106185913,0.0754273757338523,60.007568359375,99.56277465820312,-3.30706787109375
256207,0.106292724609375,1.864181518554688,-0.81146240234375,1.05938732624054,0.2086378931999207,0.0729626268148422,60.00953674316406,99.873046875,-4.643386840820312
256208,0.17828369140625,1.851531982421875,-0.7718505859375,0.9701709151268004,0.1891249120235443,0.2929171025753021,60.09353637695312,99.9621124267578,-5.428680419921875
256209,0.2305450439453125,1.908599853515625,-0.8238525390625,0.7354063391685486,0.2329368442296982,1.032778143882751,60.11871337890625,100.1830749511719,-5.95343017578125
256210,0.2305450439453125,1.908599853515625,-0.8238525390625,0.7354063391685486,0.2329368442296982,1.032778143882751,60.11871337890625,100.1830749511719,-5.95343017578125
256211,0.2060089111328125,2.165069580078125,-0.8268585205078125,0.6944626569747925,0.3230624794960022,1.254754781723022,60.54205322265625,100.24462890625,-7.095932006835938
256212,0.1183624267578125,2.178268432617188,-0.727996826171875,0.6911912560462952,0.4100221395492554,1.236302256584167,60.89057922363281,100.3202819824219,-7.352447509765625
256213,0.012176513671875,2.038467407226562,-0.5607147216796875,0.7019357681274414,0.4463812112808228,1.058661937713623,61.46662902832031,100.1904602050781,-7.748306274414062
256214,0.012176513671875,2.038467407226562,-0.5607147216796875,0.7019357681274414,0.4463812112808228,1.058661937713623,61.46662902832031,100.1904602050781,-7.748306274414062
256215,-0.04290771484375,1.721527099609375,-0.1265106201171875,0.7046487331390381,0.5593434572219849,0.6824731230735779,62.41145324707031,100.0637969970703,-8.5234375
256216,-0.0125579833984375,1.641830444335938,0.0020599365234375,0.6691599488258362,0.5027012228965759,0.5444960594177246,62.85598754882812,100.0384216308594,-8.949188232421875
256217,0.095184326171875,1.580062866210938,0.0824432373046875,0.603195071220398,0.3849386274814606,0.5979086756706238,63.17276000976562,100.0598602294922,-9.3270263671875
256218,0.095184326171875,1.580062866210938,0.0824432373046875,0.603195071220398,0.3849386274814606,0.5979086756706238,63.17276000976562,100.0598602294922,-9.3270263671875
256219,0.2180938720703125,1.566146850585938,0.168853759765625,0.3694214522838593,0.0168897677212953,1.150774240493774,63.8197021484375,99.92042541503906,-10.01255798339844
256220,0.2338104248046875,1.432601928710938,0.1602783203125,0.405976802110672,-0.1586716622114182,1.216094732284546,64.34721374511719,99.66024780273438,-10.35653686523438
256221,0.19354248046875,1.246200561523438,0.1371307373046875,0.5932782292366028,-0.3645451962947845,1.178425550460815,64.86720275878906,99.30575561523438,-10.55769348144531
256222,0.19354248046875,1.246200561523438,0.1371307373046875,0.5932782292366028,-0.3645451962947845,1.178425550460815,64.86720275878906,99.30575561523438,-10.55769348144531
256223,-0.002777099609375,0.89276123046875,0.253753662109375,1.170263290405273,0.1971077471971512,0.959986448287964,66.120361328125,98.78646850585938,-11.05062866210938
256224,-0.07025146484375,0.8091583251953125,0.3548431396484375,1.170263290405273,0.1971077471971512,0.959986448287964,66.80685424804688,98.5714111328125,-11.40951538085938
256225,-0.10821533203125,0.8000030517578125,0.4389801025390625,0.9890964031219482,1.344179153442383,0.7626853585243225,67.34477233886719,98.33013916015624,-11.85452270507812
256226,-0.1280670166015625,0.748291015625,0.4534454345703125,0.9890964031219482,1.344179153442383,0.7626853585243225,67.861572265625,98.17724609375,-12.52210998535156
256227,-0.15472412109375,0.6565093994140625,0.4484710693359375,0.7246991395950317,1.767269968986511,0.6128886938095093,68.388916015625,97.91836547851562,-12.87440490722656
256228,-0.1892852783203125,0.5581817626953125,0.437347412109375,0.4220146238803864,2.050544261932373,0.4304919838905334,68.95191955566406,97.6833038330078,-13.13674926757812
256229,-0.2305145263671875,0.45404052734375,0.38165283203125,0.1709733456373215,2.116289138793945,0.2163655906915665,69.42716979980469,97.47259521484376,-13.26065063476562
256230,-0.2305145263671875,0.45404052734375,0.38165283203125,0.1709733456373215,2.116289138793945,0.2163655906915665,69.42716979980469,97.47259521484376,-13.26065063476562
256231,-0.311492919921875,0.2306060791015625,0.2527923583984375,-0.0530706755816936,1.546863555908203,-0.0821529254317283,70.32154846191406,97.08160400390624,-12.79154968261719
256232,-0.320465087890625,0.1207122802734375,0.2283782958984375,-0.0941933467984199,1.101808309555054,-0.0955768525600433,70.53228759765625,96.98756408691406,-12.34719848632812
256233,-0.1962890625,0.075225830078125,0.26727294921875,-0.2732352614402771,0.4350737035274506,0.0208442956209182,70.610107421875,96.95075988769533,-11.66549682617188
256234,-0.1962890625,0.075225830078125,0.26727294921875,-0.2732352614402771,0.4350737035274506,0.0208442956209182,70.610107421875,96.95075988769533,-11.66549682617188
256235,-0.1417388916015625,0.16265869140625,0.3517913818359375,-0.4776935875415802,0.3699977695941925,-0.008568188175559,70.4127197265625,97.03392028808594,-11.32786560058594
256236,-0.10687255859375,0.3232574462890625,0.430084228515625,-0.7772467732429504,0.4093947112560272,-0.0865969434380531,70.35484313964844,97.09986877441406,-10.90827941894531
256237,-0.1028900146484375,0.5041961669921875,0.5035552978515625,-1.165475487709045,0.4794036149978638,-0.1994699686765671,70.41091918945312,97.15371704101562,-10.27816772460938
256238,-0.1028900146484375,0.5041961669921875,0.5035552978515625,-1.165475487709045,0.4794036149978638,-0.1994699686765671,70.41091918945312,97.15371704101562,-10.27816772460938
256239,-0.1785888671875,0.831787109375,0.6754913330078125,-1.891604900360107,0.6175249814987183,-0.4599851667881012,70.27301025390625,97.03253173828124,-9.239700317382812
256240,-0.24395751953125,0.9455718994140624,0.779693603515625,-2.061551094055176,0.7350239157676697,-0.5871554017066956,70.05349731445312,96.95559692382812,-8.30828857421875
256241,-0.3188934326171875,0.978790283203125,0.81085205078125,-2.077996492385864,0.8729727268218994,-0.7046050429344177,69.89523315429688,96.89030456542967,-7.477874755859375
256242,-0.3629150390625,0.9261474609375,0.743408203125,-1.900735020637512,0.7619258761405945,-0.8497869968414307,69.64022827148438,96.81307983398438,-6.426544189453125
256243,-0.3526458740234375,0.813690185546875,0.6333770751953125,-1.900735020637512,0.7619258761405945,-0.8497869968414307,69.36332702636719,96.66731262207033,-5.2777099609375
256244,-0.3100738525390625,0.6874847412109375,0.526153564453125,-1.892177581787109,0.4756613373756409,-0.8714033365249634,68.95976257324219,96.66070556640624,-4.1832275390625
256245,-0.2504730224609375,0.5955047607421875,0.4232177734375,-1.976680994033813,0.1262623369693756,-0.8617267608642578,68.37980651855469,96.53041076660156,-3.221450805664062
256246,-0.2504730224609375,0.5955047607421875,0.4232177734375,-1.976680994033813,0.1262623369693756,-0.8617267608642578,68.37980651855469,96.53041076660156,-3.221450805664062
256247,-0.1344146728515625,0.553924560546875,0.245697021484375,-2.222913980484009,-0.5733913779258728,-0.8676900863647461,67.73515319824219,96.39886474609376,-1.630752563476562
256248,-0.07122802734375,0.574554443359375,0.1885833740234375,-2.335932016372681,-0.8432058095932007,-0.889297366142273,67.30780029296875,96.15000915527344,-0.8295440673828125
256249,-0.013763427734375,0.57550048828125,0.153045654296875,-2.421784639358521,-0.9155529737472534,-0.928062379360199,66.84486389160156,95.98886108398438,0.0113067626953125
256250,-0.013763427734375,0.57550048828125,0.153045654296875,-2.421784639358521,-0.9155529737472534,-0.928062379360199,66.84486389160156,95.98886108398438,0.0113067626953125
256251,0.0300750732421875,0.4728240966796875,0.0154571533203125,-2.464122772216797,-0.4886122941970825,-1.004165410995483,66.16989135742188,95.61009216308594,1.723770141601562
256252,0.0272369384765625,0.4040374755859375,-0.3405914306640625,-2.32171368598938,-0.4166930913925171,-1.09314239025116,65.68804931640625,95.3799285888672,2.760910034179688
256253,0.04608154296875,0.34259033203125,-0.9231719970703124,-1.795713067054749,-1.400818943977356,-1.171393513679504,65.13423156738281,95.25735473632812,3.563888549804688
256254,0.04608154296875,0.34259033203125,-0.9231719970703124,-1.795713067054749,-1.400818943977356,-1.171393513679504,65.13423156738281,95.25735473632812,3.563888549804688
256255,-0.0045318603515625,0.421051025390625,-0.296875,-0.4813056290149689,-1.164175868034363,-1.013785004615784,64.24635314941406,95.03623962402344,4.751937866210938
256256,-0.0045318603515625,0.421051025390625,-0.296875,-0.4813056290149689,-1.164175868034363,-1.013785004615784,64.24635314941406,95.03623962402344,4.751937866210938
256257,-0.0366668701171875,0.4942169189453125,-0.2751007080078125,-0.2999326586723328,0.0221274066716432,-0.8287355303764343,63.63331604003906,95.36819458007812,4.967926025390625
256258,0.01251220703125,0.5021820068359375,-0.5234832763671875,0.0789866968989372,0.2955605387687683,-0.6441611647605896,63.32942199707031,95.58372497558594,5.1441650390625
256259,0.0587310791015625,0.512359619140625,-0.5936279296875,0.0789866968989372,0.2955605387687683,-0.6441611647605896,62.95443725585938,95.63273620605467,5.421218872070312
256260,0.108978271484375,0.5210723876953125,-0.536224365234375,0.1676611751317978,-0.0325070768594741,-0.5859737396240234,62.51205444335938,95.65557861328124,5.540359497070312
256261,0.1495819091796875,0.5528106689453125,-0.46368408203125,0.2384144365787506,-0.2726413905620575,-0.495041161775589,62.0968017578125,95.92953491210938,5.318008422851562
256262,0.17779541015625,0.60638427734375,-0.4477081298828125,0.375421017408371,-0.4156398177146912,-0.3970538675785065,61.78549194335938,96.13093566894533,5.26483154296875
256263,0.2143096923828125,0.69586181640625,-0.5116119384765625,0.6010653376579285,-0.5517454743385315,-0.3133280873298645,61.62832641601562,96.23948669433594,5.33636474609375
256264,0.253509521484375,0.84405517578125,-0.652618408203125,0.9181021451950072,-0.7865601181983948,-0.2469349503517151,61.38508605957031,96.31190490722656,5.248611450195312
256265,0.2852935791015625,1.071731567382812,-0.843017578125,1.296775102615356,-1.139902234077454,-0.1971032172441483,61.30654907226562,96.3628387451172,5.211212158203125
256266,0.2852935791015625,1.071731567382812,-0.843017578125,1.296775102615356,-1.139902234077454,-0.1971032172441483,61.30654907226562,96.3628387451172,5.211212158203125
256267,0.2808837890625,1.60137939453125,-0.74615478515625,1.577795624732971,-0.5906379818916321,0.0230637732893228,61.20790100097656,97.13705444335938,4.33306884765625
256268,0.111907958984375,1.7640380859375,-0.4146881103515625,1.197299957275391,0.0476197153329849,-0.0014580807182937,61.24649047851562,97.5071258544922,3.660293579101562
256269,-0.1172943115234375,1.95703125,-0.1353607177734375,0.8387377858161926,0.3657100796699524,-0.4296195507049561,61.32664489746094,97.74104309082033,3.026397705078125
256270,-0.1172943115234375,1.95703125,-0.1353607177734375,0.8387377858161926,0.3657100796699524,-0.4296195507049561,61.32664489746094,97.74104309082033,3.026397705078125
256271,-0.44940185546875,2.805267333984375,-0.267852783203125,0.976477026939392,-0.1225296407938004,-1.619778275489807,60.90330505371094,98.53433227539062,1.990829467773438
256272,-0.842559814453125,2.946151733398438,-0.22265625,1.228456020355225,0.2456417232751846,-1.525549173355103,60.43170166015625,98.92913818359376,1.527236938476562
256273,-1.19842529296875,2.8026123046875,-0.3351287841796875,1.305054903030396,0.9212505221366882,-0.5602433085441589,59.9005126953125,99.50213623046876,0.8777008056640625
256274,-1.19842529296875,2.8026123046875,-0.3351287841796875,1.305054903030396,0.9212505221366882,-0.5602433085441589,59.9005126953125,99.50213623046876,0.8777008056640625
256275,-0.4828643798828125,2.598785400390625,-0.3588714599609375,0.9644467234611512,0.505693256855011,0.1591936498880386,59.0882568359375,100.3644104003906,-0.3795623779296875
256276,-0.3404083251953125,2.433013916015625,-0.2051239013671875,0.8639880418777466,0.4274493455886841,0.3224965631961823,58.97540283203125,100.5427703857422,-0.8623504638671875
256277,-0.2281036376953125,2.305160522460938,-0.179931640625,0.8628487586975098,0.4796262681484222,0.6237072348594666,58.91183471679688,100.6102447509766,-1.238739013671875
256278,-0.2281036376953125,2.305160522460938,-0.179931640625,0.8628487586975098,0.4796262681484222,0.6237072348594666,58.91183471679688,100.6102447509766,-1.238739013671875
256279,-0.0822906494140625,2.2454833984375,0.1106719970703125,0.8328900337219238,0.3840826749801636,1.126593589782715,59.24044799804688,100.7142791748047,-2.062271118164062
256280,0.0170135498046875,2.2279052734375,0.312103271484375,1.04439115524292,0.5732832551002502,1.222954154014587,59.73411560058594,100.5388031005859,-2.497451782226562
256281,0.10125732421875,2.207855224609375,0.4144744873046875,1.327600121498108,0.8116515874862671,1.38732373714447,60.29209899902344,100.3147583007812,-3.074630737304688
256282,0.10125732421875,2.207855224609375,0.4144744873046875,1.327600121498108,0.8116515874862671,1.38732373714447,60.29209899902344,100.3147583007812,-3.074630737304688
256283,0.1065521240234375,1.95458984375,0.4269256591796875,1.635846138000488,0.9742913842201232,1.236964821815491,61.63822937011719,99.90492248535156,-4.20428466796875
256284,0.1255950927734375,1.613128662109375,0.411590576171875,1.575497627258301,0.8716422319412231,1.098678350448608,62.27658081054688,99.61570739746094,-4.908157348632812
256285,0.1572265625,0.9822845458984376,0.299468994140625,1.235060691833496,0.4478395581245422,0.8322538137435913,63.25450134277344,99.48704528808594,-6.272445678710938
256286,0.1572265625,0.9822845458984376,0.299468994140625,1.235060691833496,0.4478395581245422,0.8322538137435913,63.25450134277344,99.48704528808594,-6.272445678710938
256287,0.20391845703125,0.7689208984375,0.160247802734375,1.074234485626221,-0.0503899380564689,0.7156057357788086,63.6812744140625,99.26956176757812,-6.738998413085938
256288,0.2821044921875,0.611083984375,0.0472412109375,0.9289193749427797,-0.8067982792854309,0.6422337889671326,64.10069274902344,99.1452178955078,-7.265106201171875
256289,0.376800537109375,0.517730712890625,0.040740966796875,0.7908376455307007,-2.046720027923584,0.6847333312034607,64.43942260742188,98.94212341308594,-7.795700073242188
256290,0.376800537109375,0.517730712890625,0.040740966796875,0.7908376455307007,-2.046720027923584,0.6847333312034607,64.43942260742188,98.94212341308594,-7.795700073242188
256291,0.5082244873046875,0.57891845703125,0.084136962890625,0.8148889541625977,-2.013800144195557,0.6839476823806763,64.99092102050781,98.92575073242188,-8.606857299804688
256292,0.3908233642578125,0.75506591796875,0.1768341064453125,0.8291105031967163,-1.268306970596313,0.5636386275291443,65.29476928710938,98.9202117919922,-9.050506591796877
256293,-0.109466552734375,0.7260284423828125,0.223297119140625,0.507625937461853,0.6033119559288025,0.6673274636268616,65.94088745117188,98.96556091308594,-10.199951171875
256294,-0.109466552734375,0.7260284423828125,0.223297119140625,0.507625937461853,0.6033119559288025,0.6673274636268616,65.94088745117188,98.96556091308594,-10.199951171875
256295,-0.1507720947265625,0.7086639404296875,0.2534332275390625,0.2702448070049286,0.998607099056244,0.655046284198761,66.24482727050781,98.84097290039062,-10.34165954589844
256296,-0.21417236328125,0.64398193359375,0.2391204833984375,0.0526493638753891,1.029063820838928,0.4798321127891541,66.6395263671875,98.58056640625,-10.54216003417969
256297,-0.24176025390625,0.525970458984375,0.19647216796875,0.0526493638753891,1.029063820838928,0.4798321127891541,67.0540771484375,98.46908569335938,-10.61944580078125
256298,-0.2230682373046875,0.3964996337890625,0.16021728515625,0.0369084812700748,0.8255367875099182,0.400703489780426,67.43913269042969,98.24266052246094,-10.34407043457031
256299,-0.183319091796875,0.29595947265625,0.1301727294921875,0.0486583486199379,0.5989422798156738,0.350385457277298,67.69874572753906,98.02719116210938,-10.20391845703125
256300,-0.1277618408203125,0.2146453857421875,0.1412811279296875,-0.0446108765900135,0.4866127967834473,0.3251570463180542,67.97386169433594,97.89739990234376,-10.13911437988281
256301,-0.021240234375,0.20849609375,0.2873077392578125,-0.2317187190055847,0.7451015710830688,0.2834306359291077,68.24652099609375,97.64663696289062,-10.02456665039062
256302,-0.021240234375,0.20849609375,0.2873077392578125,-0.2317187190055847,0.7451015710830688,0.2834306359291077,68.24652099609375,97.64663696289062,-10.02456665039062
256303,-0.0022735595703125,0.3293609619140625,0.39263916015625,-0.53191739320755,1.180664300918579,0.2150318771600723,68.36045837402344,97.5594482421875,-10.07011413574219
256304,-0.0046539306640625,0.5070953369140625,0.4894866943359375,-0.931212604045868,1.726620316505432,0.1175455376505852,68.57861328125,97.53363037109376,-9.834442138671877
256305,-0.0016937255859375,0.6893463134765625,0.511322021484375,-1.63714075088501,2.206262350082397,-0.1582314521074295,68.75050354003906,97.37841796875,-9.325927734375
256306,-0.0386505126953125,0.8607940673828125,0.50665283203125,-1.63714075088501,2.206262350082397,-0.1582314521074295,68.86045837402344,97.16917419433594,-8.539260864257812
256307,-0.13140869140625,0.978759765625,0.569122314453125,-1.69598913192749,2.016985893249512,-0.2659331560134888,68.79190063476562,97.021240234375,-7.532958984375
256308,-0.2296905517578125,1.03021240234375,0.6390380859375,-1.557804822921753,1.707332611083984,-0.3076803386211395,68.80534362792969,96.84622192382812,-6.379852294921875
256309,-0.322418212890625,1.022491455078125,0.695526123046875,-1.401663184165955,1.412674903869629,-0.3154074847698212,68.67449951171875,96.58634948730467,-5.28277587890625
256310,-0.322418212890625,1.022491455078125,0.695526123046875,-1.401663184165955,1.412674903869629,-0.3154074847698212,68.67449951171875,96.58634948730467,-5.28277587890625
256311,-0.4109954833984375,0.8679046630859375,0.7237701416015625,-1.459089279174805,1.030377507209778,-0.4280900955200195,68.3326416015625,96.5458984375,-3.449310302734375
256312,-0.4324798583984375,0.76324462890625,0.6300048828125,-1.673862218856812,0.8634652495384216,-0.615972101688385,68.11537170410156,96.3410186767578,-2.518112182617188
256313,-0.4210662841796875,0.6518707275390625,0.4816436767578125,-1.982480525970459,0.2831917703151703,-0.9731512665748596,67.84913635253906,96.36021423339844,-1.707183837890625
256314,-0.4210662841796875,0.6518707275390625,0.4816436767578125,-1.982480525970459,0.2831917703151703,-0.9731512665748596,67.84913635253906,96.36021423339844,-1.707183837890625
256315,-0.2474365234375,0.405059814453125,0.165740966796875,-2.004402160644531,-0.0368949025869369,-1.02382481098175,67.15199279785156,96.0335693359375,-0.088714599609375
256316,-0.1527862548828125,0.345550537109375,0.0511322021484375,-1.962628483772278,-0.2997225224971771,-1.036776542663574,66.7276611328125,95.99967956542967,0.6350860595703125
256317,-0.0520782470703125,0.3292236328125,-0.0540008544921875,-1.79266083240509,-0.8662962317466736,-0.9458996653556824,66.22756958007812,95.99078369140624,1.603591918945312
256318,-0.0520782470703125,0.3292236328125,-0.0540008544921875,-1.79266083240509,-0.8662962317466736,-0.9458996653556824,66.22756958007812,95.99078369140624,1.603591918945312
256319,0.113189697265625,0.2481231689453125,-0.55511474609375,-1.520291566848755,-1.617713451385498,-0.8554494380950928,65.2042236328125,95.7021026611328,3.017578125
256320,0.1330413818359375,0.26019287109375,-0.505523681640625,-1.096771478652954,-2.33062481880188,-0.8004388809204102,64.76885986328125,95.66444396972656,3.726394653320312
256321,0.1009521484375,0.31451416015625,-0.2244110107421875,-0.7166047096252441,-2.301534652709961,-0.8243298530578613,64.48193359375,95.60017395019533,4.14862060546875
256322,0.1009521484375,0.31451416015625,-0.2244110107421875,-0.7166047096252441,-2.301534652709961,-0.8243298530578613,64.48193359375,95.60017395019533,4.14862060546875
256323,0.057281494140625,0.38983154296875,-0.1205596923828125,-0.143158495426178,-0.133970320224762,-0.7482334971427917,64.15940856933594,95.6190185546875,4.412673950195312
256324,0.03216552734375,0.435302734375,-0.3601837158203125,0.0352554582059383,0.5457639694213867,-0.656098484992981,63.84742736816406,95.66525268554688,4.48895263671875
256325,0.0054168701171875,0.4481048583984375,-0.481048583984375,0.0970541089773178,0.5454803705215454,-0.6571781635284424,63.46517944335938,95.75666809082033,4.5657958984375
256326,0.0054168701171875,0.4481048583984375,-0.481048583984375,0.0970541089773178,0.5454803705215454,-0.6571781635284424,63.46517944335938,95.75666809082033,4.5657958984375
256327,0.0850067138671875,0.3923797607421875,-0.4248046875,-0.0119040636345744,-0.0332692749798297,-0.6401405930519104,62.51676940917969,96.01300048828124,4.689559936523438
256328,0.1232147216796875,0.3646392822265625,-0.383941650390625,-0.0242371633648872,-0.2453583627939224,-0.5453967452049255,62.11019897460938,96.28842163085938,4.714141845703125
256329,0.1514434814453125,0.371368408203125,-0.3211669921875,0.0334471724927425,-0.326291561126709,-0.4315551221370697,61.73855590820312,96.4609375,4.782424926757812
256330,0.1514434814453125,0.371368408203125,-0.3211669921875,0.0334471724927425,-0.326291561126709,-0.4315551221370697,61.73855590820312,96.4609375,4.782424926757812
256331,0.1736297607421875,0.4748992919921875,-0.29144287109375,0.3219282329082489,-0.3595145046710968,-0.3026911616325378,61.31541442871094,96.66110229492188,4.969772338867188
256332,0.1797027587890625,0.6101226806640625,-0.40618896484375,0.5852773189544678,-0.4941396713256836,-0.3031233847141266,61.20893859863281,96.64463806152344,5.1380615234375
256333,0.202178955078125,0.8567352294921875,-0.628631591796875,1.102698564529419,-0.6923060417175293,-0.2919168174266815,61.10350036621094,96.73648071289062,5.377761840820312
256334,0.202178955078125,0.8567352294921875,-0.628631591796875,1.102698564529419,-0.6923060417175293,-0.2919168174266815,61.10350036621094,96.73648071289062,5.377761840820312
256335,0.1401824951171875,1.577957153320312,-1.014938354492188,2.205461502075195,0.0723120123147964,0.0433006025850772,60.82508850097656,96.92886352539062,4.89056396484375
256336,-0.0375518798828125,1.92864990234375,-0.9198760986328124,1.327857732772827,0.7733548283576965,0.1070710569620132,60.63365173339844,97.28712463378906,4.103439331054688
256337,-0.1220855712890625,2.183502197265625,-0.576873779296875,0.2170958369970322,-0.2003610581159592,-0.8446734547615051,60.4273681640625,97.71791076660156,3.253768920898438
256338,-0.1220855712890625,2.183502197265625,-0.576873779296875,0.2170958369970322,-0.2003610581159592,-0.8446734547615051,60.4273681640625,97.71791076660156,3.253768920898438
256339,-0.28082275390625,2.809844970703125,-0.665374755859375,0.7719952464103699,-0.7805234789848328,-0.918950617313385,60.15275573730469,98.01228332519533,2.396682739257812
256340,-0.28082275390625,2.809844970703125,-0.665374755859375,0.7719952464103699,-0.7805234789848328,-0.918950617313385,60.15275573730469,98.01228332519533,2.396682739257812
256341,-0.668365478515625,2.451431274414062,-0.570281982421875,1.901367783546448,0.9544670581817628,-0.1590024381875992,59.71607971191406,98.46035766601562,1.808074951171875
256342,-0.642364501953125,1.99932861328125,-0.78570556640625,1.879047870635986,1.091617703437805,0.1233917102217674,59.47929382324219,98.80113220214844,1.028366088867188
256343,-0.4347076416015625,1.900650024414062,-0.8780670166015625,1.519539475440979,0.7964534759521484,0.1165865361690521,59.26933288574219,99.23558044433594,0.2044830322265625
256344,-0.3050689697265625,1.910171508789062,-0.8640289306640625,1.024891138076782,0.4976558685302734,0.1913475841283798,59.16020202636719,99.64390563964844,-0.592987060546875
256345,-0.16015625,1.930419921875,-0.7073211669921875,0.5980093479156494,0.4192710220813751,0.4232098460197449,59.02194213867188,100.0809326171875,-1.388839721679688
256346,-0.16015625,1.930419921875,-0.7073211669921875,0.5980093479156494,0.4192710220813751,0.4232098460197449,59.02194213867188,100.0809326171875,-1.388839721679688
256347,0.038848876953125,2.219406127929688,-0.2280120849609375,0.2490090280771255,0.771375298500061,0.9955039620399476,59.16287231445312,100.3090209960938,-2.34527587890625
256348,0.0421600341796875,2.426284790039062,0.01519775390625,0.2284137308597565,0.9227808117866516,1.212542295455933,59.31893920898438,100.3434600830078,-2.551849365234375
256349,0.013946533203125,2.531326293945312,0.2365875244140625,0.3187188506126404,1.05954897403717,1.381247162818909,59.66532897949219,100.2621002197266,-2.640884399414062
256350,0.013946533203125,2.531326293945312,0.2365875244140625,0.3187188506126404,1.05954897403717,1.381247162818909,59.66532897949219,100.2621002197266,-2.640884399414062
256351,-0.071014404296875,2.53778076171875,0.380767822265625,1.04733145236969,1.215362548828125,1.714884519577026,60.83114624023438,99.90916442871094,-3.044952392578125
256352,-0.0421905517578125,2.350494384765625,0.387908935546875,1.570119619369507,0.9702372550964355,1.627137660980225,61.65606689453125,99.72718811035156,-3.380508422851562
256353,0.004608154296875,1.920989990234375,0.428375244140625,1.987836122512817,0.6494578719139099,1.385866165161133,62.44851684570312,99.47305297851562,-3.882675170898438
256354,0.064361572265625,1.506561279296875,0.470672607421875,2.041693687438965,0.3517977297306061,1.119316458702087,63.16798400878906,99.20686340332033,-4.394119262695312
256355,0.1376800537109375,1.201416015625,0.42462158203125,2.041693687438965,0.3517977297306061,1.119316458702087,63.79086303710938,99.03459167480467,-5.155517578125
256356,0.211181640625,0.94085693359375,0.3396148681640625,1.753286719322205,0.1422926932573318,1.104942560195923,64.29585266113281,98.8511962890625,-6.006484985351562
256357,0.2798004150390625,0.746673583984375,0.27996826171875,1.064209818840027,-0.5295634269714355,1.180907368659973,64.71539306640625,98.85057067871094,-6.819839477539062
256358,0.2798004150390625,0.746673583984375,0.27996826171875,1.064209818840027,-0.5295634269714355,1.180907368659973,64.71539306640625,98.85057067871094,-6.819839477539062
256359,0.39129638671875,0.5200958251953125,0.26446533203125,0.8113767504692078,-0.8974519968032837,1.240557193756104,65.92190551757812,98.4619598388672,-8.248123168945312
256360,0.39703369140625,0.51361083984375,0.3437652587890625,0.6299899220466614,-1.074638724327087,1.245941758155823,66.4691162109375,98.2294464111328,-8.727890014648438
256361,0.3593902587890625,0.5671844482421875,0.4240875244140625,0.3789206743240356,-0.5139565467834473,0.8883431553840637,66.98663330078125,98.0572509765625,-9.168426513671877
256362,0.3593902587890625,0.5671844482421875,0.4240875244140625,0.3789206743240356,-0.5139565467834473,0.8883431553840637,66.98663330078125,98.0572509765625,-9.168426513671877
256363,0.00274658203125,0.6767425537109375,0.549591064453125,0.2075686305761337,0.2210375815629959,0.7342489361763,68.18673706054688,97.57212829589844,-9.968597412109377
256364,-0.1690673828125,0.6694183349609375,0.427093505859375,-0.0645835176110267,0.7868495583534241,0.5874227285385132,68.80929565429688,97.35400390625,-10.08642578125
256365,-0.2550201416015625,0.5902099609375,0.3403167724609375,-0.4842748045921326,1.165310025215149,0.1709195524454117,69.21969604492188,97.0419464111328,-9.967453002929688
256366,-0.2550201416015625,0.5902099609375,0.3403167724609375,-0.4842748045921326,1.165310025215149,0.1709195524454117,69.21969604492188,97.0419464111328,-9.967453002929688
256367,-0.2576904296875,0.3162384033203125,0.227508544921875,-0.5173653960227966,1.177530765533447,0.074796475470066,69.85539245605469,96.75083923339844,-9.7017822265625
256368,-0.227264404296875,0.225311279296875,0.231964111328125,-0.446583092212677,1.229968905448914,0.0588510669767856,70.04779052734375,96.6916961669922,-9.350738525390623
256369,-0.19366455078125,0.2047882080078125,0.26904296875,-0.402171403169632,1.352275967597961,0.112179271876812,70.07315063476562,96.66627502441406,-9.056396484375
256370,-0.19366455078125,0.2047882080078125,0.26904296875,-0.402171403169632,1.352275967597961,0.112179271876812,70.07315063476562,96.66627502441406,-9.056396484375
256371,-0.144012451171875,0.3813018798828125,0.3697662353515625,-0.6936426758766174,1.587122797966003,0.174110010266304,70.08853149414062,96.6072235107422,-8.416046142578125
256372,-0.1543731689453125,0.5455169677734375,0.393951416015625,-0.9557459354400636,1.564789772033691,-0.0237524677067995,70.13948059082031,96.44464111328124,-7.862289428710938
256373,-0.195037841796875,0.67462158203125,0.456298828125,-1.255414605140686,1.496921062469482,-0.2015855759382248,70.21603393554688,96.3828125,-7.245391845703125
256374,-0.195037841796875,0.67462158203125,0.456298828125,-1.255414605140686,1.496921062469482,-0.2015855759382248,70.21603393554688,96.3828125,-7.245391845703125
256375,-0.300750732421875,0.943572998046875,0.629486083984375,-1.781819343566895,1.65315318107605,-0.453015148639679,70.01388549804688,96.20549011230467,-5.7257080078125
256376,-0.3186798095703125,1.050064086914062,0.62103271484375,-1.934102296829224,1.704767942428589,-0.5800508856773376,69.76811218261719,96.03134155273438,-4.7918701171875
256377,-0.2969512939453125,1.058837890625,0.5390777587890625,-1.95576024055481,1.545007824897766,-0.6858537197113037,69.54591369628906,95.89620971679688,-3.831085205078125
256378,-0.2969512939453125,1.058837890625,0.5390777587890625,-1.95576024055481,1.545007824897766,-0.6858537197113037,69.54591369628906,95.89620971679688,-3.831085205078125
256379,-0.1473541259765625,0.8707733154296875,0.3630218505859375,-1.772735834121704,0.7605535387992859,-0.8381452560424805,68.80116271972656,95.72193908691406,-1.746566772460938
256380,-0.0366058349609375,0.731597900390625,0.3025360107421875,-1.732652902603149,0.4116658568382263,-0.8375721573829651,68.33955383300781,95.52586364746094,-0.829559326171875
256381,0.039398193359375,0.60699462890625,0.260223388671875,-1.723652482032776,0.2583535313606262,-0.7848088145256042,67.9215087890625,95.37203979492188,0.139251708984375
256382,0.039398193359375,0.60699462890625,0.260223388671875,-1.723652482032776,0.2583535313606262,-0.7848088145256042,67.9215087890625,95.37203979492188,0.139251708984375
256383,0.0506134033203125,0.4534912109375,0.1667022705078125,-1.740404486656189,0.6103538870811462,-0.6916658282279968,66.98468017578125,95.169921875,1.578857421875
256384,0.0249786376953125,0.4249725341796875,0.078857421875,-1.737623691558838,0.8541615009307861,-0.7458704710006714,66.50640869140625,95.05059814453124,2.405319213867188
256385,0.002593994140625,0.4011993408203125,-0.0710296630859375,-1.622681617736816,0.592815101146698,-0.9310967922210692,66.02967834472656,94.82389831542967,3.125900268554688
256386,0.002593994140625,0.4011993408203125,-0.0710296630859375,-1.622681617736816,0.592815101146698,-0.9310967922210692,66.02967834472656,94.82389831542967,3.125900268554688
256387,0.0047454833984375,0.382171630859375,-0.4849853515625,-1.442084908485413,-0.0787829607725143,-1.020902872085571,64.94264221191406,94.52227783203124,4.656661987304688
256388,0.0591888427734375,0.3624114990234375,-0.4596710205078125,-1.143140077590942,-0.6853208541870117,-1.074597001075745,64.39588928222656,94.353515625,5.518051147460938
256389,0.0932464599609375,0.3422698974609375,-0.335693359375,-0.47624671459198,-0.8545061349868774,-0.984710454940796,63.93772888183594,94.3041534423828,6.197311401367188
256390,0.0932464599609375,0.3422698974609375,-0.335693359375,-0.47624671459198,-0.8545061349868774,-0.984710454940796,63.93772888183594,94.3041534423828,6.197311401367188
256391,0.1180877685546875,0.29473876953125,-0.1976776123046875,-0.2127135992050171,-0.5665960311889648,-0.8720278739929199,62.94535827636719,94.32395935058594,7.0804443359375
256392,0.1334228515625,0.284912109375,-0.222137451171875,-0.0112920692190527,-0.3005262613296509,-0.7247982025146484,62.52543640136719,94.30241394042967,7.29132080078125
256393,0.1516876220703125,0.3025970458984375,-0.2674560546875,0.1191096156835556,-0.1778727918863297,-0.576665461063385,62.18968200683594,94.41354370117188,7.442657470703125
256394,0.1516876220703125,0.3025970458984375,-0.2674560546875,0.1191096156835556,-0.1778727918863297,-0.576665461063385,62.18968200683594,94.41354370117188,7.442657470703125
256395,0.199554443359375,0.3556060791015625,-0.3803863525390625,0.2620353400707245,-0.3981159627437592,-0.3151182532310486,61.45733642578125,94.63343811035156,7.532730102539062
256396,0.197601318359375,0.4099273681640625,-0.432891845703125,0.3349500298500061,-0.6558700203895569,-0.2715883553028107,61.19093322753906,94.81379699707033,7.445266723632812
256397,0.2026519775390625,0.476898193359375,-0.4627685546875,0.4099845886230469,-0.8857487440109253,-0.3087029755115509,60.91856384277344,94.92637634277344,7.560958862304688
256398,0.2026519775390625,0.476898193359375,-0.4627685546875,0.4099845886230469,-0.8857487440109253,-0.3087029755115509,60.91856384277344,94.92637634277344,7.560958862304688
256399,0.2349395751953125,0.635894775390625,-0.6616058349609375,0.6240883469581604,-0.9898746013641356,-0.4288650751113892,60.65968322753906,95.335205078125,7.546371459960938
256400,0.2285308837890625,0.75927734375,-0.9786224365234376,0.7778949737548828,-1.097064733505249,-0.423617035150528,60.54168701171875,95.63606262207033,7.307586669921875
256401,0.2686004638671875,0.9344482421875,-1.245986938476562,0.975582242012024,-1.434043049812317,-0.2578698992729187,60.38087463378906,95.9875946044922,7.02117919921875
256402,0.2686004638671875,0.9344482421875,-1.245986938476562,0.975582242012024,-1.434043049812317,-0.2578698992729187,60.38087463378906,95.9875946044922,7.02117919921875
256403,0.47430419921875,1.385482788085938,-0.6633758544921875,0.934718906879425,0.0449818558990955,0.6448719501495361,60.39205932617188,96.549560546875,5.899383544921875
256404,0.3986968994140625,1.692123413085938,-0.304168701171875,0.5646090507507324,0.9531328082084656,0.6672208905220032,60.54827880859375,96.71189880371094,5.643798828125
256405,0.2270355224609375,2.065963745117188,-0.299041748046875,0.2836897671222687,0.779904305934906,0.1526694297790527,60.80195617675781,96.86363220214844,5.21026611328125
256406,0.2270355224609375,2.065963745117188,-0.299041748046875,0.2836897671222687,0.779904305934906,0.1526694297790527,60.80195617675781,96.86363220214844,5.21026611328125
256407,-0.0335845947265625,2.921356201171875,-0.39013671875,0.9556857347488404,-1.548724293708801,-0.9253779053688048,60.82449340820312,96.92971801757812,5.077651977539062
256408,-0.20343017578125,3.098388671875,-0.10858154296875,1.517940282821655,-1.388011336326599,-1.194743871688843,60.71018981933594,97.19798278808594,4.674560546875
256409,-0.4992523193359375,2.78497314453125,-0.150909423828125,1.833831429481506,0.077080138027668,-1.129454851150513,60.46354675292969,97.87771606445312,3.6761474609375
256410,-0.4992523193359375,2.78497314453125,-0.150909423828125,1.833831429481506,0.077080138027668,-1.129454851150513,60.46354675292969,97.87771606445312,3.6761474609375
256411,-0.8458709716796875,1.863815307617188,-0.6159820556640625,1.697347283363342,1.187973856925964,-0.1657908260822296,59.5460205078125,99.09457397460938,1.596298217773438
256412,-0.8458709716796875,1.863815307617188,-0.6159820556640625,1.697347283363342,1.187973856925964,-0.1657908260822296,59.5460205078125,99.09457397460938,1.596298217773438
256413,-0.1267547607421875,2.154388427734375,-0.016082763671875,0.8513108491897583,-0.1333812326192856,0.6644781231880188,59.23663330078125,100.0162353515625,-0.5615234375
256414,-0.1267547607421875,2.154388427734375,-0.016082763671875,0.8513108491897583,-0.1333812326192856,0.6644781231880188,59.23663330078125,100.0162353515625,-0.5615234375
256415,-0.083892822265625,2.173751831054688,0.161163330078125,0.7962904572486877,0.0478753820061683,0.900413453578949,59.52091979980469,99.989013671875,-1.00701904296875
256416,-0.0746002197265625,2.257034301757812,0.25469970703125,0.8436883687973022,0.383562296628952,1.153702735900879,59.92317199707031,99.927978515625,-1.475067138671875
256417,-0.0647735595703125,2.443984985351562,0.3429412841796875,0.90213143825531,0.7152286767959595,1.342607855796814,60.36970520019531,99.7861328125,-2.011611938476562
256418,-0.0647735595703125,2.443984985351562,0.3429412841796875,0.90213143825531,0.7152286767959595,1.342607855796814,60.36970520019531,99.7861328125,-2.011611938476562
256419,-0.057342529296875,2.407760620117188,0.4152984619140625,1.070351362228394,1.118905067443848,1.217410564422607,61.52938842773438,99.31886291503906,-2.825881958007812
256420,-0.0535888671875,1.98553466796875,0.3145599365234375,1.151206731796265,0.9870660305023192,1.004181385040283,62.10697937011719,99.20095825195312,-3.237716674804688
256421,-0.014617919921875,1.563323974609375,0.2508087158203125,1.201232075691223,0.6800104975700378,0.8362927436828613,62.61575317382812,98.96913146972656,-3.599075317382812
256422,0.0612640380859375,1.265411376953125,0.252227783203125,1.249612212181091,0.4250738024711609,0.7015818357467651,63.00320434570312,98.82119750976562,-4.166168212890625
256423,0.1477508544921875,1.056411743164062,0.2166900634765625,1.242937445640564,0.1294418722391129,0.5873031616210938,63.38188171386719,98.7920379638672,-4.649566650390625
256424,0.235504150390625,0.8625335693359375,0.1692352294921875,1.151246666908264,-0.2512934803962708,0.5267223715782166,63.60556030273438,98.79110717773438,-5.131668090820312
256425,0.336639404296875,0.6858673095703125,0.12249755859375,1.039011836051941,-0.6885714530944824,0.5733724236488342,63.89088439941406,98.67977905273438,-5.527603149414062
256426,0.336639404296875,0.6858673095703125,0.12249755859375,1.039011836051941,-0.6885714530944824,0.5733724236488342,63.89088439941406,98.67977905273438,-5.527603149414062
256427,0.5206451416015625,0.5129241943359375,0.1468963623046875,0.8744537234306335,-1.450966835021973,0.7618390321731567,64.57173156738281,98.45954895019533,-6.417938232421875
256428,0.559600830078125,0.5159454345703125,0.257171630859375,0.8194833993911743,-1.222071886062622,0.8040940761566162,64.96537780761719,98.4146728515625,-6.887786865234375
256429,0.4810333251953125,0.5976715087890625,0.358856201171875,0.7294954657554626,-0.4541938602924347,0.6974949240684509,65.40864562988281,98.34051513671876,-7.12176513671875
256430,0.4810333251953125,0.5976715087890625,0.358856201171875,0.7294954657554626,-0.4541938602924347,0.6974949240684509,65.40864562988281,98.34051513671876,-7.12176513671875
256431,-0.1233367919921875,0.6442718505859375,0.30194091796875,0.3652983605861664,1.123453736305237,0.6569456458091736,66.07586669921875,98.07835388183594,-7.863433837890625
256432,-0.1233367919921875,0.6442718505859375,0.30194091796875,0.3652983605861664,1.123453736305237,0.6569456458091736,66.07586669921875,98.07835388183594,-7.863433837890625
256433,-0.270263671875,0.4947052001953125,0.0980224609375,-0.1303526759147644,0.8684224486351013,0.4246836304664612,66.85324096679688,97.759521484375,-7.990478515625
256434,-0.274078369140625,0.390228271484375,0.123321533203125,-0.1303526759147644,0.8684224486351013,0.4246836304664612,67.3046875,97.47291564941406,-7.7943115234375
256435,-0.23321533203125,0.2821044921875,0.167724609375,-0.1221088618040085,0.8615296483039856,0.3839207589626312,67.49859619140625,97.29617309570312,-7.569732666015625
256436,-0.172760009765625,0.21734619140625,0.2071380615234375,-0.0976429358124733,1.076109886169434,0.3670006394386292,67.68701171875,97.27156066894533,-7.555862426757812
256437,-0.0883026123046875,0.1875457763671875,0.234527587890625,-0.1354113519191742,1.423326730728149,0.3804759681224823,67.79902648925781,97.0708465576172,-7.366409301757812
256438,-0.0883026123046875,0.1875457763671875,0.234527587890625,-0.1354113519191742,1.423326730728149,0.3804759681224823,67.79902648925781,97.0708465576172,-7.366409301757812
256439,0.02685546875,0.341064453125,0.3733673095703125,-0.5359854102134705,2.079989194869995,0.3187375068664551,67.9951171875,97.02316284179688,-6.830291748046875
256440,0.02685546875,0.341064453125,0.3733673095703125,-0.5359854102134705,2.079989194869995,0.3187375068664551,67.9951171875,97.02316284179688,-6.830291748046875
256441,-0.0290679931640625,0.650360107421875,0.4836883544921875,-1.277473330497742,2.758396625518799,0.0280452165752649,68.05035400390625,96.66911315917967,-5.656448364257812
256442,-0.1096343994140625,0.8184661865234375,0.5001068115234375,-1.536380767822266,2.864845514297485,-0.1105840355157852,68.08444213867188,96.40641784667967,-4.681411743164062
256443,-0.2003326416015625,0.9866943359375,0.53680419921875,-1.673501133918762,2.83526349067688,-0.265800267457962,67.82572937011719,96.19778442382812,-3.592575073242188
256444,-0.2818145751953125,1.088775634765625,0.56268310546875,-1.72641921043396,2.66901159286499,-0.4294613599777222,67.61447143554688,96.02268981933594,-2.436721801757812
256445,-0.3447113037109375,1.090606689453125,0.55743408203125,-1.698319673538208,2.397626876831055,-0.5837518572807312,67.25596618652344,95.74880981445312,-1.285568237304688
256446,-0.353057861328125,1.016403198242188,0.5204925537109375,-1.648706793785095,2.041361331939697,-0.6997362375259399,66.94845581054688,95.54313659667967,-0.1598968505859375
256447,-0.284881591796875,0.9135284423828124,0.4367828369140625,-1.588599324226379,1.620586514472961,-0.785807192325592,66.4078369140625,95.41737365722656,0.9590911865234376
256448,-0.1686859130859375,0.8002166748046875,0.319793701171875,-1.516590595245361,1.182822465896606,-0.8482764363288879,65.79148864746094,95.21481323242188,2.02850341796875
256449,-0.04986572265625,0.69073486328125,0.19390869140625,-1.45984959602356,0.7529861330986023,-0.8784002661705017,65.16542053222656,95.04437255859376,2.751129150390625
256450,-0.04986572265625,0.69073486328125,0.19390869140625,-1.45984959602356,0.7529861330986023,-0.8784002661705017,65.16542053222656,95.04437255859376,2.751129150390625
256451,0.0390472412109375,0.58001708984375,0.052764892578125,-1.470104813575745,-0.0089404983446002,-0.952879011631012,63.95370483398438,94.73820495605467,4.206039428710938
256452,0.0778961181640625,0.5207061767578125,0.0143280029296875,-1.519148349761963,-0.2408245950937271,-0.981721580028534,63.38713073730469,94.54612731933594,4.77294921875
256453,0.12017822265625,0.4448394775390625,-0.074615478515625,-1.533915042877197,-0.3244345486164093,-0.951080322265625,62.91961669921875,94.26687622070312,5.17242431640625
256454,0.12017822265625,0.4448394775390625,-0.074615478515625,-1.533915042877197,-0.3244345486164093,-0.951080322265625,62.91961669921875,94.26687622070312,5.17242431640625
256455,0.2745361328125,0.276611328125,-0.7391815185546875,-0.4030742347240448,-2.460376739501953,-0.508160412311554,61.94303894042969,94.0658721923828,6.513931274414062
256456,0.2745361328125,0.276611328125,-0.7391815185546875,-0.4030742347240448,-2.460376739501953,-0.508160412311554,61.94303894042969,94.0658721923828,6.513931274414062
256457,0.2538299560546875,0.2173004150390625,-0.467498779296875,-0.4030742347240448,-2.460376739501953,-0.508160412311554,61.55517578125,94.0574188232422,6.981063842773438
256458,0.1515350341796875,0.08917236328125,-0.138397216796875,0.1584301143884659,-0.143983006477356,-0.1647471338510513,61.45231628417969,94.23243713378906,7.226791381835938
256459,0.1912078857421875,0.001556396484375,-0.260467529296875,0.1584301143884659,-0.143983006477356,-0.1647471338510513,61.45730590820312,94.2431640625,7.156707763671875
256460,0.2345428466796875,-0.0478363037109375,-0.5051727294921875,-0.1445510536432266,0.4641777873039246,-0.1182574033737183,61.37602233886719,94.35223388671876,7.070846557617188
256461,0.2257843017578125,0.009552001953125,-0.5698089599609375,-0.6510153412818909,0.2520431578159332,-0.2268400639295578,61.18977355957031,94.52377319335938,6.932861328125
256462,0.1724090576171875,0.1283111572265625,-0.44189453125,-0.6510153412818909,0.2520431578159332,-0.2268400639295578,61.11253356933594,94.54542541503906,7.030044555664062
256463,0.1251068115234375,0.248382568359375,-0.3202972412109375,-0.6328011751174927,0.133032888174057,-0.3970583975315094,60.94190979003906,94.517822265625,7.153717041015625
256464,0.096710205078125,0.3439788818359375,-0.330780029296875,-0.4963208138942719,0.0043486757203936,-0.5489429831504822,60.78511047363281,94.42301940917967,7.443374633789062
256465,0.066314697265625,0.4331207275390625,-0.38629150390625,-0.2636122107505798,-0.1973191946744919,-0.6426263451576233,60.57133483886719,94.3524932861328,7.791122436523438
256466,0.066314697265625,0.4331207275390625,-0.38629150390625,-0.2636122107505798,-0.1973191946744919,-0.6426263451576233,60.57133483886719,94.3524932861328,7.791122436523438
256467,0.058868408203125,0.6858062744140625,-0.532806396484375,0.417075514793396,-0.5864911675453186,-0.676262378692627,60.00845336914062,94.3633270263672,8.236862182617188
256468,0.0264129638671875,0.841644287109375,-0.6811981201171875,0.8070877194404602,-0.6669559478759766,-0.5844885110855103,59.62837219238281,94.549560546875,8.338394165039062
256469,-0.0193023681640625,1.011306762695312,-0.920379638671875,1.168144226074219,-0.6462581157684326,-0.4364739954471588,59.43524169921875,94.83650207519533,8.206817626953125
256470,-0.0193023681640625,1.011306762695312,-0.920379638671875,1.168144226074219,-0.6462581157684326,-0.4364739954471588,59.43524169921875,94.83650207519533,8.206817626953125
256471,0.0701751708984375,1.3883056640625,-0.7626953125,1.289554238319397,0.136522963643074,0.0300556365400552,58.91009521484375,95.61320495605467,7.463241577148438
256472,0.053863525390625,1.55291748046875,-0.1772003173828125,0.9205809831619264,0.8773936033248901,-0.0659635737538337,58.84446716308594,95.97418212890624,6.845443725585938
256473,-0.024688720703125,1.856430053710938,0.214324951171875,0.4332401156425476,1.25106942653656,-1.327068328857422,58.66488647460938,96.33241271972656,6.416778564453125
256474,-0.024688720703125,1.856430053710938,0.214324951171875,0.4332401156425476,1.25106942653656,-1.327068328857422,58.66488647460938,96.33241271972656,6.416778564453125
256475,-0.1238555908203125,3.3409423828125,-0.20123291015625,0.5394738912582397,0.0120185799896717,-2.051443815231323,57.99119567871094,96.90275573730467,5.77008056640625
256476,-0.3317413330078125,4.076126098632812,0.12603759765625,0.5046117901802063,-0.8882609009742737,-2.497236013412476,57.19831848144531,97.0920867919922,5.518630981445312
256477,-1.250015258789062,4.318328857421875,0.500640869140625,0.0459933243691921,0.2897117137908936,-1.636906623840332,56.33808898925781,97.49601745605467,5.100250244140625
256478,-1.250015258789062,4.318328857421875,0.500640869140625,0.0459933243691921,0.2897117137908936,-1.636906623840332,56.33808898925781,97.49601745605467,5.100250244140625
256479,-1.057418823242188,2.794143676757812,-0.6798858642578125,1.061657190322876,1.185247778892517,0.6672880053520203,54.78326416015625,98.21383666992188,4.001632690429688
256480,-1.057418823242188,2.794143676757812,-0.6798858642578125,1.061657190322876,1.185247778892517,0.6672880053520203,54.78326416015625,98.21383666992188,4.001632690429688
256481,-0.5500030517578125,1.526702880859375,-0.1459503173828125,1.420642018318176,0.4314749836921692,0.3705895245075226,54.98892211914062,98.4387664794922,3.47760009765625
256482,-0.39947509765625,1.327545166015625,-0.217559814453125,1.420642018318176,0.4314749836921692,0.3705895245075226,55.20945739746094,98.511474609375,3.012939453125
256483,-0.2670745849609375,1.457260131835938,-0.027191162109375,0.7987483143806458,0.0778167694807052,0.4810579717159271,55.3343505859375,98.7523956298828,2.46759033203125
256484,-0.1385040283203125,1.70458984375,0.0972137451171875,0.7987483143806458,0.0778167694807052,0.4810579717159271,55.45269775390625,98.85546875,1.784042358398438
256485,-0.0026702880859375,1.793487548828125,0.1187286376953125,0.5517241358757019,-0.006329268682748,0.6004669070243835,55.58248901367188,98.86073303222656,1.236602783203125
256486,-0.0026702880859375,1.793487548828125,0.1187286376953125,0.5517241358757019,-0.006329268682748,0.6004669070243835,55.58248901367188,98.86073303222656,1.236602783203125
256487,0.23883056640625,1.653579711914062,0.286163330078125,0.519508957862854,0.0722076147794723,0.7614241242408752,56.02079772949219,98.7392120361328,0.5219268798828125
256488,0.2698974609375,1.419052124023438,0.20703125,0.7494558691978455,0.2079516053199768,0.7299287915229797,56.29981994628906,98.64093017578124,0.2442626953125
256489,0.250518798828125,1.187820434570312,0.0907745361328125,1.205282807350159,0.0424782186746597,0.730362594127655,56.69248962402344,98.4990692138672,0.0583038330078125
256490,0.250518798828125,1.187820434570312,0.0907745361328125,1.205282807350159,0.0424782186746597,0.730362594127655,56.69248962402344,98.4990692138672,0.0583038330078125
256491,0.1977996826171875,1.026824951171875,0.0424957275390625,1.33374297618866,-0.0391897484660148,0.6653830409049988,57.32435607910156,98.55714416503906,-0.756866455078125
256492,0.1905670166015625,0.993560791015625,0.0554962158203125,1.308298945426941,-0.0397519394755363,0.5402874946594238,57.65495300292969,98.51066589355467,-1.251663208007812
256493,0.1801300048828125,0.8744659423828125,0.1694488525390625,0.8345513343811035,0.192753478884697,0.4126749038696289,58.13465881347656,98.61761474609376,-2.155914306640625
256494,0.1801300048828125,0.8744659423828125,0.1694488525390625,0.8345513343811035,0.192753478884697,0.4126749038696289,58.13465881347656,98.61761474609376,-2.155914306640625
256495,0.1478118896484375,0.7882843017578125,0.27178955078125,0.8345513343811035,0.192753478884697,0.4126749038696289,58.42263793945312,98.66015625,-2.741104125976562
256496,0.070465087890625,0.6982269287109375,0.33843994140625,0.6650336384773254,0.3001888394355774,0.5177930593490601,58.60926818847656,98.800048828125,-3.3118896484375
256497,-0.0369415283203125,0.6210479736328125,0.32049560546875,0.290499210357666,0.3556787371635437,0.6771771311759949,58.85943603515625,98.81233215332033,-3.67730712890625
256498,-0.0369415283203125,0.6210479736328125,0.32049560546875,0.290499210357666,0.3556787371635437,0.6771771311759949,58.85943603515625,98.81233215332033,-3.67730712890625
