time_idx,accelerometerAccelerationX(G),accelerometerAccelerationY(G),accelerometerAccelerationZ(G),gyroRotationX(rad/s),gyroRotationY(rad/s),gyroRotationZ(rad/s),magnetometerX(µT),magnetometerY(µT),magnetometerZ(µT)
180186,0.274322509765625,1.74560546875,0.185699462890625,0.1025151908397675,-0.2019570916891098,0.7590011954307556,39.16288757324219,99.06591796875,-30.51841735839844
180187,0.282470703125,1.614273071289062,0.0354156494140625,0.1589422523975372,-0.0711279734969139,0.8645872473716736,39.45799255371094,98.95333862304688,-30.50816345214844
180188,0.282470703125,1.614273071289062,0.0354156494140625,0.1589422523975372,-0.0711279734969139,0.8645872473716736,39.45799255371094,98.95333862304688,-30.50816345214844
180189,0.1947784423828125,1.366470336914062,-0.1395111083984375,0.4052979648113251,-0.631216824054718,0.8735818266868591,40.38916015625,98.73837280273438,-30.43974304199219
180190,0.13482666015625,1.23968505859375,-0.0591583251953125,0.5143658518791199,-0.8604422807693481,0.7916672229766846,40.877197265625,98.75318908691406,-30.43118286132812
180191,0.073822021484375,1.113800048828125,0.00543212890625,0.6067543625831604,-0.9262828230857848,0.698458194732666,41.22467041015625,98.76008605957033,-30.46340942382812
180192,0.015960693359375,0.989227294921875,0.016754150390625,0.6918801665306091,-0.8921632170677185,0.6058893799781799,41.56439208984375,98.70989990234376,-30.57612609863281
180193,-0.0245513916015625,0.8447265625,-0.025177001953125,0.79222571849823,-0.9030553102493286,0.4977482557296753,41.86198425292969,98.57281494140624,-30.692626953125
180194,-0.05963134765625,0.693572998046875,-0.05804443359375,0.9327524304389954,-0.9877477884292604,0.4019452929496765,42.18113708496094,98.51576232910156,-30.89399719238281
180195,-0.1112060546875,0.5628662109375,-0.031768798828125,1.060199379920959,-1.004092693328857,0.1209541186690331,42.36297607421875,98.3564910888672,-31.2056884765625
180196,-0.1112060546875,0.5628662109375,-0.031768798828125,1.060199379920959,-1.004092693328857,0.1209541186690331,42.36297607421875,98.3564910888672,-31.2056884765625
180197,-0.20599365234375,0.264801025390625,-0.1440582275390625,1.025931119918823,-1.066191792488098,-0.0051058125682175,42.53437805175781,97.9623565673828,-31.86874389648438
180198,-0.269775390625,0.08673095703125,-0.2416229248046875,0.9604767560958862,-1.122188210487366,-0.0292127467691898,42.48747253417969,97.8137664794922,-32.33273315429688
180199,-0.263153076171875,-0.058380126953125,-0.3729095458984375,0.7860144376754761,-1.208716988563538,0.1968259811401367,42.29623413085938,97.6772003173828,-32.73239135742188
180200,-0.263153076171875,-0.058380126953125,-0.3729095458984375,0.7860144376754761,-1.208716988563538,0.1968259811401367,42.29623413085938,97.6772003173828,-32.73239135742188
180201,0.0969390869140625,-0.052001953125,-0.3525238037109375,0.7131404876708984,-1.116510272026062,0.1793343424797058,41.94515991210938,97.52728271484376,-33.32516479492188
180202,0.25604248046875,0.0317535400390625,-0.0449371337890625,0.6525642275810242,-0.7255228161811829,0.1327119767665863,41.82554626464844,97.37411499023438,-33.4344482421875
180203,0.2910003662109375,0.1110687255859375,0.21173095703125,0.6183884143829346,-0.1705813258886337,0.1246393993496895,41.81901550292969,97.16827392578124,-33.64469909667969
180204,0.2910003662109375,0.1110687255859375,0.21173095703125,0.6183884143829346,-0.1705813258886337,0.1246393993496895,41.81901550292969,97.16827392578124,-33.64469909667969
180205,0.2519378662109375,0.185577392578125,0.2266387939453125,0.4515112638473511,0.7211576700210571,0.1228710636496544,41.85415649414062,97.04238891601562,-34.0142822265625
180206,0.2123565673828125,0.1686859130859375,0.1209716796875,0.3655497431755066,0.7711371779441833,0.0818413347005844,41.85987854003906,96.84342956542967,-34.19705200195312
180207,0.0540924072265625,0.0743255615234375,0.092803955078125,0.3341321647167206,0.5978556871414185,-0.1377440094947815,42.31031799316406,96.74153137207033,-34.60453796386719
180208,0.0540924072265625,0.0743255615234375,0.092803955078125,0.3341321647167206,0.5978556871414185,-0.1377440094947815,42.31031799316406,96.74153137207033,-34.60453796386719
180209,0.005157470703125,0.0226287841796875,0.1158294677734375,0.3059535324573517,0.5868504643440247,-0.2304254770278931,42.43489074707031,96.77546691894533,-34.69233703613281
180210,-0.0142364501953125,-0.0295562744140625,0.1353302001953125,0.2230141758918762,0.6278644800186157,-0.2895897328853607,42.69253540039062,96.6675262451172,-34.85453796386719
180211,-0.0272216796875,-0.0679168701171875,0.1334381103515625,-0.0017712684348225,0.689788281917572,-0.375750720500946,42.89422607421875,96.55816650390624,-35.05819702148438
180212,-0.0272216796875,-0.0679168701171875,0.1334381103515625,-0.0017712684348225,0.689788281917572,-0.375750720500946,42.89422607421875,96.55816650390624,-35.05819702148438
180213,-0.0406036376953125,-0.086273193359375,0.074951171875,-0.1191836521029472,0.6466381549835205,-0.4224218130111694,43.03192138671875,96.34953308105467,-35.2254638671875
180214,-0.048187255859375,-0.0839385986328125,0.056915283203125,-0.2325035482645035,0.5461376309394836,-0.4852343499660492,43.03169250488281,96.2903289794922,-35.14460754394531
180215,-0.0537872314453125,-0.080902099609375,0.045989990234375,-0.3210126459598541,0.4331074953079224,-0.5564461946487427,43.11589050292969,96.43522644042967,-35.056884765625
180216,-0.0537872314453125,-0.080902099609375,0.045989990234375,-0.3210126459598541,0.4331074953079224,-0.5564461946487427,43.11589050292969,96.43522644042967,-35.056884765625
180217,-0.048858642578125,-0.0873870849609375,0.025054931640625,-0.4243020117282867,0.2135876417160034,-0.6946560144424438,42.94869995117188,96.39509582519533,-34.46177673339844
180218,-0.0374603271484375,-0.0877838134765625,0.012664794921875,-0.4633247852325439,0.145567312836647,-0.7356910705566406,42.82131958007812,96.57406616210938,-34.28143310546875
180219,-0.0234527587890625,-0.0854949951171875,-0.0090789794921875,-0.549915611743927,-0.012271580286324,-0.7797828912734985,42.60531616210938,96.64366149902344,-33.98097229003906
180220,-0.0113677978515625,-0.08856201171875,-0.0734710693359375,-0.549915611743927,-0.012271580286324,-0.7797828912734985,42.29435729980469,96.67340087890624,-33.50471496582031
180221,-0.01025390625,-0.0824737548828125,-0.23638916015625,-0.6091794371604919,-1.101313471794128,-0.8069484829902649,41.92648315429688,96.88034057617188,-33.01518249511719
180222,-0.0353546142578125,0.0540771484375,-0.27508544921875,-0.6091794371604919,-1.101313471794128,-0.8069484829902649,41.5338134765625,96.98036193847656,-32.55241394042969
180223,-0.0645751953125,0.111968994140625,-0.0465545654296875,-0.7158923149108887,-1.606614232063293,-0.8277621269226074,41.02569580078125,97.09407043457033,-32.12655639648438
180224,-0.175994873046875,0.2222900390625,0.3246612548828125,-1.218517065048218,-0.465899795293808,-1.001664996147156,40.34062194824219,97.25851440429688,-31.65423583984375
180225,-0.4354705810546875,0.558441162109375,0.9449005126953124,-1.218517065048218,-0.465899795293808,-1.001664996147156,39.56362915039062,97.40365600585938,-31.18983459472656
180226,-0.6578369140625,1.820465087890625,1.550033569335938,-1.323200345039368,1.689026236534119,-1.330058813095093,38.68414306640625,97.52279663085938,-30.75227355957031
180227,-0.57177734375,5.558013916015625,2.098846435546875,-0.0189664997160434,6.090871810913086,-0.9330818653106688,37.89781188964844,97.81739807128906,-30.64157104492188
180228,-0.57177734375,5.558013916015625,2.098846435546875,-0.0189664997160434,6.090871810913086,-0.9330818653106688,37.89781188964844,97.81739807128906,-30.64157104492188
180229,-0.2509765625,3.353347778320312,0.6549530029296875,-1.049330234527588,-2.840189456939697,-0.971997082233429,37.52366638183594,98.5459442138672,-32.61720275878906
180230,0.6844482421875,1.8939208984375,1.394744873046875,0.4394199848175049,-2.317532777786255,-0.0224568396806716,37.68023681640625,99.08424377441406,-33.25466918945312
180231,-0.1659698486328125,2.171310424804688,1.284500122070312,1.089096546173096,-0.9158573746681212,-0.1304661333560944,36.76931762695312,99.40040588378906,-32.59367370605469
180232,-0.1659698486328125,2.171310424804688,1.284500122070312,1.089096546173096,-0.9158573746681212,-0.1304661333560944,36.76931762695312,99.40040588378906,-32.59367370605469
180233,-0.3677825927734375,2.05615234375,0.7527008056640625,-0.0754755809903144,-0.6897440552711487,-0.7231385111808777,35.79701232910156,98.8780517578125,-32.13185119628906
180234,-0.3884735107421875,2.249359130859375,0.4222564697265625,-0.9579350352287292,-1.423699498176575,-0.8592817187309265,35.78758239746094,98.16482543945312,-32.33535766601562
180235,-0.3600311279296875,2.587142944335938,0.2420654296875,-1.874395608901978,-0.7163293361663818,-0.7050333023071289,35.78477478027344,97.62396240234376,-32.27290344238281
180236,-0.3600311279296875,2.587142944335938,0.2420654296875,-1.874395608901978,-0.7163293361663818,-0.7050333023071289,35.78477478027344,97.62396240234376,-32.27290344238281
180237,0.7525634765625,2.1690673828125,-2.567947387695312,-2.366598844528198,-4.322505950927734,0.3542534112930298,35.36360168457031,96.75718688964844,-30.92166137695312
180238,0.660369873046875,1.730560302734375,-0.1838226318359375,-0.1543368399143219,-3.859429836273193,0.9200473427772522,35.05279541015625,96.75816345214844,-29.61195373535156
180239,0.56982421875,1.50567626953125,0.60107421875,1.569186687469482,-1.424892663955688,1.327462792396545,34.70123291015625,97.16543579101562,-28.04110717773438
180240,0.56982421875,1.50567626953125,0.60107421875,1.569186687469482,-1.424892663955688,1.327462792396545,34.70123291015625,97.16543579101562,-28.04110717773438
180241,0.3870086669921875,1.231719970703125,0.38702392578125,2.479269742965698,1.176065564155579,1.668506860733032,34.73933410644531,97.53045654296876,-26.5289306640625
180242,0.25885009765625,0.9864501953125,0.1576690673828125,2.349640846252441,1.18442964553833,1.530361533164978,35.374755859375,97.35592651367188,-26.97012329101562
180243,0.1636199951171875,0.6911468505859375,-0.1328277587890625,1.69137966632843,-0.633897066116333,1.181613683700562,36.34603881835938,97.03327941894533,-27.97305297851562
180244,0.1636199951171875,0.6911468505859375,-0.1328277587890625,1.69137966632843,-0.633897066116333,1.181613683700562,36.34603881835938,97.03327941894533,-27.97305297851562
180245,0.0533905029296875,0.3135223388671875,0.138824462890625,1.441027402877808,-1.115835189819336,1.028468608856201,38.17839050292969,96.78164672851562,-30.08164978027344
180246,0.024688720703125,0.2077789306640625,0.258026123046875,1.256862640380859,-1.119850754737854,0.9061152338981628,38.91004943847656,96.73361206054688,-30.74880981445312
180247,0.016448974609375,0.0959930419921875,0.2552947998046875,1.103280782699585,-0.9428828358650208,0.8227247595787048,39.29713439941406,96.72080993652344,-31.28852844238281
180248,0.016448974609375,0.0959930419921875,0.2552947998046875,1.103280782699585,-0.9428828358650208,0.8227247595787048,39.29713439941406,96.72080993652344,-31.28852844238281
180249,-0.0168609619140625,-0.0615234375,0.1208648681640625,0.7243078947067261,-0.5380852818489075,0.6495084762573242,39.90341186523438,96.553955078125,-31.93067932128906
180250,-0.0175323486328125,-0.086944580078125,-0.01776123046875,0.7243078947067261,-0.5380852818489075,0.6495084762573242,40.17073059082031,96.51097106933594,-32.19699096679688
180251,0.0060882568359375,-0.1432952880859375,-0.3858795166015625,0.5246914625167847,-1.090039849281311,0.6147553324699402,40.41120910644531,96.51554870605467,-32.56240844726562
180252,0.0060882568359375,-0.1432952880859375,-0.3858795166015625,0.5246914625167847,-1.090039849281311,0.6147553324699402,40.41120910644531,96.51554870605467,-32.56240844726562
180253,0.0238037109375,-0.215179443359375,-0.350677490234375,0.4006510078907013,-3.024798631668091,0.6761696934700012,40.84098815917969,96.28521728515624,-32.80300903320312
180254,0.0030364990234375,-0.2234344482421875,-0.0880279541015625,0.5533769130706787,-3.085532665252686,0.6723001003265381,40.90667724609375,96.2609405517578,-32.75807189941406
180255,-0.0312652587890625,-0.252044677734375,0.12225341796875,0.8068661689758301,-0.8366621732711792,0.5046871304512024,40.75534057617188,96.34967041015624,-32.63302612304688
180256,-0.0312652587890625,-0.252044677734375,0.12225341796875,0.8068661689758301,-0.8366621732711792,0.5046871304512024,40.75534057617188,96.34967041015624,-32.63302612304688
180257,-0.1733856201171875,-0.23272705078125,0.253631591796875,0.7488859295845032,0.6232353448867798,0.354277640581131,40.36666870117188,96.5942840576172,-32.23649597167969
180258,-0.1726531982421875,-0.156402587890625,0.05609130859375,0.5860299468040466,0.8624168038368225,0.2384993880987167,40.6190185546875,96.3981475830078,-32.38505554199219
180259,-0.2034149169921875,-0.0914459228515625,0.02532958984375,0.3913507163524628,0.6469683647155762,0.0776306092739105,41.04893493652344,96.15191650390624,-32.46366882324219
180260,-0.2034149169921875,-0.0914459228515625,0.02532958984375,0.3913507163524628,0.6469683647155762,0.0776306092739105,41.04893493652344,96.15191650390624,-32.46366882324219
180261,-0.1246490478515625,-0.0908966064453125,0.0745086669921875,0.1169753521680832,0.4370907843112946,-0.218996524810791,41.45988464355469,95.94271850585938,-32.83897399902344
180262,-0.0601806640625,-0.108734130859375,0.0889129638671875,-0.0248997565358877,0.4569752812385559,-0.2585239708423615,41.58155822753906,95.9228057861328,-32.88101196289062
180263,-0.0401153564453125,-0.1035919189453125,0.098541259765625,-0.1628352552652359,0.5489866733551025,-0.2750195860862732,41.68695068359375,95.7798309326172,-32.80117797851562
180264,-0.0401153564453125,-0.1035919189453125,0.098541259765625,-0.1628352552652359,0.5489866733551025,-0.2750195860862732,41.68695068359375,95.7798309326172,-32.80117797851562
180265,-0.020050048828125,-0.10089111328125,0.0546112060546875,-0.4697946608066559,0.6245677471160889,-0.3044051826000214,41.83236694335938,95.7100067138672,-32.79180908203125
180266,-0.0200347900390625,-0.1028289794921875,0.0430908203125,-0.6518568992614746,0.5516170859336853,-0.3312905728816986,41.81101989746094,95.6553192138672,-32.55818176269531
180267,-0.026336669921875,-0.1044769287109375,0.0411529541015625,-0.8477009534835815,0.4551627337932587,-0.3607901334762573,41.8507080078125,95.58848571777344,-32.31307983398438
180268,-0.026336669921875,-0.1044769287109375,0.0411529541015625,-0.8477009534835815,0.4551627337932587,-0.3607901334762573,41.8507080078125,95.58848571777344,-32.31307983398438
180269,-0.053009033203125,-0.1065673828125,0.0251312255859375,-1.19076132774353,0.386025995016098,-0.4250476956367493,41.9071044921875,95.60089111328124,-31.31527709960938
180270,-0.0741729736328125,-0.1077117919921875,-0.04522705078125,-1.282738447189331,0.386999100446701,-0.4663892686367035,41.89369201660156,95.7294464111328,-30.697021484375
180271,-0.1023712158203125,-0.106781005859375,-0.208709716796875,-1.295703172683716,0.2256877273321152,-0.5069090127944946,41.86927795410156,95.94352722167967,-30.09072875976562
180272,-0.1023712158203125,-0.106781005859375,-0.208709716796875,-1.295703172683716,0.2256877273321152,-0.5069090127944946,41.86927795410156,95.94352722167967,-30.09072875976562
180273,-0.1209716796875,0.150665283203125,-0.4357147216796875,-0.9319795966148376,0.0620652362704277,-0.5700176954269409,41.83097839355469,96.2365264892578,-28.82333374023438
180274,-0.057159423828125,0.201202392578125,-0.370635986328125,-0.7250384092330933,0.2293455749750137,-0.627700686454773,41.56663513183594,96.5892333984375,-28.24195861816406
180275,0.0174102783203125,0.128753662109375,-0.1573638916015625,-0.6855538487434387,0.1957628428936005,-0.6077740788459778,40.73716735839844,96.9196319580078,-27.74858093261719
180276,0.0174102783203125,0.128753662109375,-0.1573638916015625,-0.6855538487434387,0.1957628428936005,-0.6077740788459778,40.73716735839844,96.9196319580078,-27.74858093261719
180277,0.0201568603515625,0.0983734130859375,-0.0347442626953125,-0.8745088577270508,-0.0683252587914466,-0.5880922675132751,40.15907287597656,97.19293212890624,-27.69044494628906
180278,0.0199127197265625,0.1091766357421875,0.243316650390625,-1.128194093704224,-0.2148595750331879,-0.5916798114776611,39.36727905273438,97.42210388183594,-27.82266235351562
180279,0.0716094970703125,0.4451904296875,0.6607513427734375,-1.37021017074585,0.5098552703857422,-0.6612953543663025,38.52250671386719,97.8093719482422,-28.13163757324219
180280,0.0716094970703125,0.4451904296875,0.6607513427734375,-1.37021017074585,0.5098552703857422,-0.6612953543663025,38.52250671386719,97.8093719482422,-28.13163757324219
180281,0.3113861083984375,2.934310913085938,0.961700439453125,-1.551019906997681,1.714960098266602,-0.4688798785209656,37.60812377929688,98.2475128173828,-28.60343933105469
180282,-0.331695556640625,7.866134643554688,1.512725830078125,-2.824369192123413,1.085499167442322,2.339982032775879,36.88803100585938,99.77235412597656,-29.52796936035156
180283,-1.2847900390625,7.986083984375,1.610397338867188,-2.208920001983643,-0.0501443929970264,0.2281418293714523,37.58157348632812,100.5635986328125,-29.31575012207031
180284,-1.2847900390625,7.986083984375,1.610397338867188,-2.208920001983643,-0.0501443929970264,0.2281418293714523,37.58157348632812,100.5635986328125,-29.31575012207031
180285,-0.17449951171875,2.700164794921875,0.910247802734375,-0.1498723179101944,-1.052389860153198,-1.451331377029419,38.39230346679688,100.9191741943359,-27.65925598144531
180286,-0.0557098388671875,1.529678344726562,0.6136322021484375,0.3654272556304932,-0.7910999655723572,-0.847885251045227,37.91232299804688,100.4699859619141,-26.75112915039062
180287,0.0384521484375,1.112716674804688,0.3628692626953125,0.55784010887146,-0.3769273161888123,-0.1465319097042084,37.42582702636719,100.1243591308594,-26.22000122070312
180288,0.04791259765625,1.2564697265625,0.139617919921875,0.541106104850769,0.2426728308200836,0.3532733619213104,37.10008239746094,99.886474609375,-26.0201416015625
180289,0.1181793212890625,1.733184814453125,-0.343505859375,0.5567255616188049,0.8916276693344116,0.6405429840087891,37.02995300292969,99.88504028320312,-26.16377258300781
180290,0.3695831298828125,2.158004760742188,-1.683074951171875,0.2759223878383636,-0.9384025931358336,0.7311988472938538,37.09939575195312,99.86799621582033,-26.56800842285156
180291,0.203155517578125,1.701522827148438,0.2556610107421875,-0.2497118264436722,-0.3750995695590973,0.49141526222229,37.4676513671875,99.66026306152344,-26.83848571777344
180292,0.203155517578125,1.701522827148438,0.2556610107421875,-0.2497118264436722,-0.3750995695590973,0.49141526222229,37.4676513671875,99.66026306152344,-26.83848571777344
180293,0.11578369140625,1.471694946289062,0.2987823486328125,-0.2736667096614838,1.044166564941406,0.6017614603042603,37.68666076660156,99.521484375,-26.60279846191406
180294,0.0489349365234375,1.366104125976562,0.1828460693359375,-0.1825796663761139,1.717119693756104,0.6088305711746216,38.13143920898438,99.4144287109375,-26.56320190429688
180295,0.0042724609375,1.23712158203125,0.04901123046875,0.1070654690265656,1.547765851020813,0.4675541520118713,38.69825744628906,99.25045776367188,-26.51432800292969
180296,-0.0897216796875,1.057937622070312,0.0256805419921875,0.5118305087089539,0.9715304970741272,0.3276279270648956,39.35400390625,99.1820068359375,-26.61654663085938
180297,-0.1520843505859375,0.8906707763671875,0.0453643798828125,0.902440905570984,0.4723057448863983,0.341826856136322,40.02659606933594,99.00869750976562,-26.75042724609375
180298,-0.1534576416015625,0.7497711181640625,0.0403900146484375,1.235158920288086,0.031711857765913,0.4101190865039825,40.39285278320312,98.87091064453124,-27.01261901855469
180299,-0.1394500732421875,0.65032958984375,0.102203369140625,1.437085390090942,-0.1729845553636551,0.4604331254959106,40.7669677734375,98.78292846679688,-27.50456237792969
180300,-0.1394500732421875,0.65032958984375,0.102203369140625,1.437085390090942,-0.1729845553636551,0.4604331254959106,40.7669677734375,98.78292846679688,-27.50456237792969
180301,-0.11016845703125,0.5123748779296875,0.1528778076171875,1.459160566329956,0.0353697091341018,0.4444062113761902,41.20783996582031,98.68634033203124,-28.82778930664062
180302,-0.11126708984375,0.437286376953125,0.1235198974609375,1.330562353134155,0.139439657330513,0.3668075501918793,41.48118591308594,98.50527954101562,-29.56741333007812
180303,-0.11688232421875,0.351348876953125,0.0933380126953125,1.160289525985718,0.1486174315214157,0.2570184767246246,41.71487426757812,98.37405395507812,-30.12446594238281
180304,-0.11688232421875,0.351348876953125,0.0933380126953125,1.160289525985718,0.1486174315214157,0.2570184767246246,41.71487426757812,98.37405395507812,-30.12446594238281
180305,-0.13641357421875,0.1651611328125,0.0563507080078125,0.902212381362915,-0.0311003942042589,-0.0110928649082779,42.0623779296875,98.02235412597656,-31.23127746582031
180306,-0.1402130126953125,0.0723876953125,-0.00640869140625,0.8394853472709656,-0.2222402542829514,-0.1359676867723465,42.12687683105469,97.92681884765624,-31.539306640625
180307,-0.13330078125,-0.011016845703125,-0.126220703125,0.8107778429985046,-0.5797171592712402,-0.2285349071025848,42.21710205078125,97.71971130371094,-31.87648010253906
180308,-0.1057281494140625,-0.0849609375,-0.2645721435546875,0.7954252362251282,-1.162176012992859,-0.2813307344913483,42.14556884765625,97.6088409423828,-32.18850708007812
180309,-0.0731658935546875,-0.11065673828125,-0.217559814453125,0.772872805595398,-1.729055762290955,-0.3080941736698151,41.89031982421875,97.4508056640625,-32.48564147949219
180310,-0.0461883544921875,-0.0874786376953125,0.028228759765625,0.7288339734077454,-1.755591750144958,-0.3565996587276459,41.58641052246094,97.21388244628906,-32.54374694824219
180311,0.0110321044921875,-0.0621337890625,0.1786346435546875,0.657132625579834,-1.24524188041687,-0.401193231344223,41.22660827636719,96.99664306640624,-32.69879150390625
180312,0.0110321044921875,-0.0621337890625,0.1786346435546875,0.657132625579834,-1.24524188041687,-0.401193231344223,41.22660827636719,96.99664306640624,-32.69879150390625
180313,0.0884857177734375,0.1025238037109375,0.1659088134765625,0.4610741436481476,-0.0249255895614624,-0.3380283713340759,40.16673278808594,96.67893981933594,-33.32017517089844
180314,0.075653076171875,0.1873321533203125,0.122314453125,0.4003032147884369,0.4259941875934601,-0.2487320601940155,39.81036376953125,96.53248596191406,-33.48674011230469
180315,0.05859375,0.2946929931640625,0.0689544677734375,0.3490115106105804,0.6548806428909302,-0.1149247214198112,39.58358764648438,96.5777587890625,-33.7454833984375
180316,0.05859375,0.2946929931640625,0.0689544677734375,0.3490115106105804,0.6548806428909302,-0.1149247214198112,39.58358764648438,96.5777587890625,-33.7454833984375
180317,-0.0966339111328125,0.3192596435546875,0.08563232421875,0.3516443073749542,0.9551182389259338,-0.0665236338973045,39.6722412109375,96.46005249023438,-34.2493896484375
180318,-0.0885162353515625,0.1275634765625,0.070526123046875,0.3477840721607208,1.036737680435181,-0.1083919852972031,39.78498840332031,96.25660705566406,-34.40945434570312
180319,-0.049896240234375,0.0189208984375,0.11480712890625,0.2231318801641464,1.2466139793396,-0.1488424688577652,39.89663696289062,96.12855529785156,-34.82887268066406
180320,-0.049896240234375,0.0189208984375,0.11480712890625,0.2231318801641464,1.2466139793396,-0.1488424688577652,39.89663696289062,96.12855529785156,-34.82887268066406
180321,-0.036102294921875,-0.0532989501953125,0.1598663330078125,0.0098379831761121,1.414714336395264,-0.2531145513057709,40.31086730957031,96.01368713378906,-35.28335571289062
180322,-0.0380096435546875,-0.0659332275390625,0.1332855224609375,-0.1141284331679344,1.330749154090881,-0.30801722407341,40.50714111328125,95.86312866210938,-35.41041564941406
180323,-0.0369873046875,-0.07232666015625,0.0946197509765625,-0.1141284331679344,1.330749154090881,-0.30801722407341,40.69889831542969,95.81602478027344,-35.51295471191406
180324,-0.0369873046875,-0.07232666015625,0.0946197509765625,-0.1141284331679344,1.330749154090881,-0.30801722407341,40.69889831542969,95.81602478027344,-35.51295471191406
180325,-0.01470947265625,-0.0770721435546875,0.0355072021484375,-0.3355156779289246,0.6974587440490723,-0.4050209820270538,41.10426330566406,95.90705871582033,-35.41650390625
180326,-0.0017242431640625,-0.0748748779296875,0.0195465087890625,-0.3355156779289246,0.6974587440490723,-0.4050209820270538,41.17463684082031,95.84857177734376,-35.29359436035156
180327,0.0117950439453125,-0.0667877197265625,-0.00579833984375,-0.3839647173881531,0.4557486176490784,-0.4418727457523346,41.1339111328125,96.06280517578124,-35.24020385742188
180328,0.0117950439453125,-0.0667877197265625,-0.00579833984375,-0.3839647173881531,0.4557486176490784,-0.4418727457523346,41.1339111328125,96.06280517578124,-35.24020385742188
180329,0.063995361328125,-0.05023193359375,-0.2070465087890625,-0.5299277901649475,-0.1153822541236877,-0.4985064566135406,40.90032958984375,95.97711181640624,-34.99278259277344
180330,0.2091217041015625,-0.0177154541015625,-0.935302734375,-0.5028356909751892,-1.529291987419128,-0.4600203335285187,40.593994140625,96.0740966796875,-34.72259521484375
180331,0.3346405029296875,0.105926513671875,-1.2918701171875,-0.2393806278705597,-4.30451774597168,-0.4009247720241547,40.19117736816406,96.12646484375,-34.30081176757812
180332,0.3346405029296875,0.105926513671875,-1.2918701171875,-0.2393806278705597,-4.30451774597168,-0.4009247720241547,40.19117736816406,96.12646484375,-34.30081176757812
180333,0.323944091796875,0.260772705078125,-0.3663177490234375,0.0475305020809173,-5.899003982543945,-0.4537206292152405,39.43177795410156,96.41706848144533,-33.82901000976562
180334,0.3391876220703125,1.589584350585938,0.7899017333984375,-0.7874911427497864,0.8065454959869385,-0.8754771947860718,36.63581848144531,96.93948364257812,-32.37350463867188
180335,0.465545654296875,2.79632568359375,0.0980072021484375,-1.037588357925415,2.714276075363159,-1.708069801330566,35.32475280761719,97.20790100097656,-31.75819396972656
180336,0.465545654296875,2.79632568359375,0.0980072021484375,-1.037588357925415,2.714276075363159,-1.708069801330566,35.32475280761719,97.20790100097656,-31.75819396972656
180337,0.34075927734375,5.519744873046875,-0.055877685546875,-0.5283588767051697,-1.218342185020447,-2.955269575119019,33.97869873046875,97.41775512695312,-31.49658203125
180338,-0.1934051513671875,6.99114990234375,1.009429931640625,-1.087478399276733,-2.290398359298706,-3.491315841674805,33.06617736816406,97.34132385253906,-31.40322875976562
180339,-0.9401092529296876,6.383514404296875,1.401840209960938,-1.464358329772949,-1.091073632240295,-3.855562686920166,31.70530700683594,96.93849182128906,-31.25253295898438
180340,-0.9401092529296876,6.383514404296875,1.401840209960938,-1.464358329772949,-1.091073632240295,-3.855562686920166,31.70530700683594,96.93849182128906,-31.25253295898438
180341,-1.6748046875,1.301406860351562,-0.2496490478515625,-0.2278339564800262,2.734922170639038,-0.2826737761497498,29.25175476074219,96.26034545898438,-31.10281372070312
180342,-0.9477691650390624,0.931488037109375,-0.7212677001953125,1.143706798553467,1.11932098865509,0.4858631193637848,28.98553466796875,95.78419494628906,-30.98944091796875
180343,-0.5700836181640625,0.8934783935546875,-0.4049224853515625,0.9845927357673644,-0.3791249394416809,0.874643087387085,29.41761779785156,95.47584533691406,-31.18856811523438
180344,-0.5700836181640625,0.8934783935546875,-0.4049224853515625,0.9845927357673644,-0.3791249394416809,0.874643087387085,29.41761779785156,95.47584533691406,-31.18856811523438
180345,0.0554046630859375,1.520904541015625,-0.81390380859375,0.3331923484802246,-1.517829537391663,0.9336976408958436,30.09846496582031,95.224853515625,-32.29414367675781
180346,0.155059814453125,1.72113037109375,-0.4273223876953125,-0.0698539167642593,-2.529645442962646,1.172719478607178,30.31402587890625,95.16226196289062,-32.52568054199219
180347,0.1796112060546875,1.837875366210938,0.062408447265625,-0.1502451598644257,-2.422894954681396,1.399359822273254,30.2613525390625,95.23388671875,-32.48342895507812
180348,0.1796112060546875,1.837875366210938,0.062408447265625,-0.1502451598644257,-2.422894954681396,1.399359822273254,30.2613525390625,95.23388671875,-32.48342895507812
180349,0.1490936279296875,1.90185546875,0.26409912109375,-0.1683914065361023,-0.3601914644241333,1.208950519561768,30.25732421875,95.40240478515624,-31.99169921875
180350,-0.017059326171875,1.829864501953125,0.20672607421875,-0.2050269097089767,0.2953019440174103,0.7409550547599792,30.78379821777344,95.7852783203125,-30.62049865722656
180351,-0.2215423583984375,1.6357421875,0.1777191162109375,0.1057679727673531,0.4091217219829559,-0.1495143920183182,31.26455688476562,95.92874145507812,-30.41609191894531
180352,-0.2215423583984375,1.6357421875,0.1777191162109375,0.1057679727673531,0.4091217219829559,-0.1495143920183182,31.26455688476562,95.92874145507812,-30.41609191894531
180353,-0.4228515625,1.20819091796875,0.13592529296875,0.410273015499115,0.1631164848804474,-0.4520979523658752,32.22372436523438,96.05755615234376,-30.26907348632812
180354,-0.443603515625,0.9821624755859376,0.1253204345703125,0.7261633276939392,-0.0807888582348823,-0.5954822897911072,32.53634643554688,95.77580261230467,-30.4158935546875
180355,-0.5066375732421875,0.717864990234375,0.14019775390625,0.9141784906387328,-0.1142155230045319,-0.5508067011833191,32.54771423339844,95.5504150390625,-30.76045227050781
180356,-0.5066375732421875,0.717864990234375,0.14019775390625,0.9141784906387328,-0.1142155230045319,-0.5508067011833191,32.54771423339844,95.5504150390625,-30.76045227050781
180357,-0.4517822265625,0.175201416015625,-0.1895751953125,0.5987846255302429,0.7463924288749695,0.5182399749755859,32.34416198730469,95.24299621582033,-31.69905090332031
180358,-0.2061614990234375,0.22711181640625,-0.4113922119140625,0.5452803373336792,-0.3133169114589691,0.8436174988746643,32.36677551269531,95.10797119140624,-32.12593078613281
180359,-0.0972442626953125,0.2849273681640625,-0.333404541015625,0.5572260022163391,-0.5455509424209595,0.8697095513343811,32.61203002929688,94.96495056152344,-32.49908447265625
180360,-0.0972442626953125,0.2849273681640625,-0.333404541015625,0.5572260022163391,-0.5455509424209595,0.8697095513343811,32.61203002929688,94.96495056152344,-32.49908447265625
180361,0.063079833984375,0.2291259765625,-0.2180633544921875,0.5886102318763733,-0.6702790260314941,0.9330912232398988,33.22250366210938,94.78321838378906,-32.83062744140625
180362,0.1653289794921875,0.15936279296875,-0.218719482421875,0.6584972143173218,-0.8340176343917847,1.0601407289505,33.49263000488281,94.87181091308594,-32.98849487304688
180363,0.2592010498046875,0.1053924560546875,-0.2020263671875,0.7327695488929749,-0.9698446989059448,1.241629362106323,33.63011169433594,94.9001007080078,-32.94526672363281
180364,0.3098602294921875,0.093170166015625,-0.0797882080078125,0.7680780291557312,-0.8745328187942505,1.389732837677002,33.82269287109375,95.09727478027344,-32.984375
180365,0.329010009765625,0.102630615234375,0.0943145751953125,0.7455703020095825,-0.3483276069164276,1.443018436431885,33.90115356445312,95.19230651855467,-32.97792053222656
180366,0.3153839111328125,0.120361328125,0.170379638671875,0.6781430840492249,0.3649817109107971,1.404714107513428,34.15486145019531,95.4855499267578,-33.122314453125
180367,0.255401611328125,0.159454345703125,0.1389923095703125,0.6197639107704163,0.8437331318855286,1.256673812866211,34.53697204589844,95.5324249267578,-33.27780151367188
180368,0.255401611328125,0.159454345703125,0.1389923095703125,0.6197639107704163,0.8437331318855286,1.256673812866211,34.53697204589844,95.5324249267578,-33.27780151367188
180369,0.1182861328125,0.1384735107421875,-0.0202484130859375,0.4490901827812195,0.4015237390995026,0.3825412392616272,35.75337219238281,95.6098175048828,-33.68464660644531
180370,0.0263824462890625,0.0283660888671875,-0.017791748046875,0.4490901827812195,0.4015237390995026,0.3825412392616272,36.37055969238281,95.59376525878906,-34.19245910644531
180371,-0.02203369140625,-0.0387115478515625,0.0337371826171875,0.3911733627319336,0.165364995598793,0.2744693756103516,36.96089172363281,95.46163940429688,-34.41482543945312
180372,-0.02203369140625,-0.0387115478515625,0.0337371826171875,0.3911733627319336,0.165364995598793,0.2744693756103516,36.96089172363281,95.46163940429688,-34.41482543945312
180373,-0.0113372802734375,-0.084991455078125,0.0589141845703125,0.1453750431537628,-0.0916175320744514,0.1756234914064407,37.58546447753906,95.37489318847656,-34.92660522460938
180374,-0.006500244140625,-0.089599609375,0.088897705078125,-0.0228488575667142,-0.1044787392020226,0.1440636962652206,37.74465942382812,95.31436157226562,-35.13494873046875
180375,-0.001983642578125,-0.093353271484375,0.0872039794921875,-0.1897595524787903,-0.0367833152413368,0.1141968816518784,37.90625,95.20550537109376,-35.04981994628906
180376,-0.001983642578125,-0.093353271484375,0.0872039794921875,-0.1897595524787903,-0.0367833152413368,0.1141968816518784,37.90625,95.20550537109376,-35.04981994628906
180377,0.01129150390625,-0.0933685302734375,0.0334320068359375,-0.434146374464035,0.0562917664647102,0.1079488396644592,38.1175537109375,95.48570251464844,-35.13249206542969
180378,0.01470947265625,-0.0968017578125,-0.0175323486328125,-0.5070224404335022,0.0186186917126178,0.1121760755777359,38.22227478027344,95.53549194335938,-35.06095886230469
180379,0.012237548828125,-0.10186767578125,-0.055572509765625,-0.5713703036308289,-0.1154035553336143,0.1170336753129959,38.31828308105469,95.7884521484375,-34.69334411621094
180380,0.01080322265625,-0.110198974609375,-0.0731658935546875,-0.6136277318000793,-0.2954273819923401,0.1163399219512939,38.47247314453125,95.89471435546876,-34.39926147460938
180381,0.0093994140625,-0.11236572265625,-0.060791015625,-0.6569922566413879,-0.4373693466186523,0.1106807067990303,38.54829406738281,95.98135375976562,-33.94821166992188
180382,0.006134033203125,-0.1202239990234375,-0.0943603515625,-0.7000685930252075,-0.5531989932060242,0.1044337302446365,38.61654663085938,96.09326171875,-33.37919616699219
180383,0.0062408447265625,-0.1416778564453125,-0.22515869140625,-0.7204008102416992,-0.7965682744979858,0.1019487380981445,38.72149658203125,96.185791015625,-32.75740051269531
180384,0.0062408447265625,-0.1416778564453125,-0.22515869140625,-0.7204008102416992,-0.7965682744979858,0.1019487380981445,38.72149658203125,96.185791015625,-32.75740051269531
180385,0.02105712890625,-0.2295379638671875,-0.465728759765625,-0.6507079601287842,-1.754108905792236,0.1278666257858276,38.77940368652344,96.52360534667967,-31.64497375488281
180386,0.1136322021484375,-0.1099395751953125,-0.2693939208984375,-0.6649505496025085,-1.31644070148468,0.0844730734825134,38.7279052734375,96.5912628173828,-30.94841003417969
180387,0.14349365234375,0.20269775390625,-0.1280670166015625,-0.8263500928878784,0.0054773231968283,-0.0115104485303163,38.54048156738281,96.82325744628906,-30.33529663085938
180388,0.14349365234375,0.20269775390625,-0.1280670166015625,-0.8263500928878784,0.0054773231968283,-0.0115104485303163,38.54048156738281,96.82325744628906,-30.33529663085938
180389,0.07098388671875,0.190093994140625,0.4631805419921875,-1.062652111053467,0.5245026350021362,-0.1073498949408531,38.18077087402344,97.09860229492188,-29.13731384277344
180390,0.085113525390625,0.3686981201171875,0.768798828125,-1.425827383995056,1.306315422058105,-0.2760584950447083,37.9080810546875,97.28982543945312,-28.83554077148438
180391,0.1451873779296875,0.8141326904296875,1.08331298828125,-2.128787755966187,2.327605485916138,-0.5978364944458008,37.67230224609375,97.43507385253906,-28.39863586425781
180392,0.1451873779296875,0.8141326904296875,1.08331298828125,-2.128787755966187,2.327605485916138,-0.5978364944458008,37.67230224609375,97.43507385253906,-28.39863586425781
180393,0.16448974609375,6.56854248046875,0.80755615234375,-2.950867652893066,1.710271596908569,-0.6443083882331848,37.07498168945312,98.09832763671876,-28.30223083496094
180394,-0.7842864990234375,8.082992553710938,0.8761138916015625,-2.280097246170044,-0.7676396369934082,-0.3454114496707916,36.93116760253906,98.68862915039062,-28.27047729492188
180395,-1.412490844726562,7.688674926757812,1.012420654296875,-0.5595669150352478,-1.697569489479065,-1.880973100662231,36.66899108886719,99.17381286621094,-27.93075561523438
180396,-1.412490844726562,7.688674926757812,1.012420654296875,-0.5595669150352478,-1.697569489479065,-1.880973100662231,36.66899108886719,99.17381286621094,-27.93075561523438
180397,-0.4643707275390625,1.779052734375,0.17352294921875,0.7427535057067871,-0.6033681631088257,-1.428288459777832,35.87800598144531,99.70832824707033,-27.06694030761719
180398,-0.5328521728515625,0.5438690185546875,-0.0870361328125,0.2433074563741684,1.901967525482178,-0.2840754091739655,34.98353576660156,99.33390808105467,-26.85302734375
180399,-0.0048675537109375,0.40008544921875,-1.5794677734375,0.2814122438430786,1.393325686454773,1.031443357467651,34.21534729003906,98.97103881835938,-26.88345336914062
180400,-0.0048675537109375,0.40008544921875,-1.5794677734375,0.2814122438430786,1.393325686454773,1.031443357467651,34.21534729003906,98.97103881835938,-26.88345336914062
180401,0.07159423828125,1.340408325195312,-1.004226684570312,0.704200267791748,-0.6450533270835876,1.447188377380371,33.87625122070312,98.6518096923828,-27.20234680175781
180402,0.1713714599609375,2.289566040039062,0.122589111328125,0.6155316233634949,-0.4190417230129242,1.218814611434937,34.85615539550781,98.46592712402344,-27.46807861328125
180403,0.244171142578125,2.193206787109375,0.0695953369140625,0.237429067492485,-0.1653796434402466,1.163251399993896,35.32878112792969,98.51084899902344,-27.57791137695312
180404,0.244171142578125,2.193206787109375,0.0695953369140625,0.237429067492485,-0.1653796434402466,1.163251399993896,35.32878112792969,98.51084899902344,-27.57791137695312
180405,0.3034210205078125,1.732589721679688,-0.0796966552734375,0.0866486057639122,-0.1859229952096939,1.058238744735718,36.45480346679688,98.50274658203124,-27.94580078125
180406,0.25506591796875,1.575698852539062,-0.0035858154296875,0.3674200773239136,-0.282537966966629,0.9049969911575316,37.03559875488281,98.3763427734375,-27.94548034667969
180407,0.19610595703125,1.44256591796875,0.133056640625,0.8465033173561096,0.1102724447846413,0.4691602885723114,37.60733032226562,98.39466857910156,-27.85276794433594
180408,0.19610595703125,1.44256591796875,0.133056640625,0.8465033173561096,0.1102724447846413,0.4691602885723114,37.60733032226562,98.39466857910156,-27.85276794433594
180409,0.0047454833984375,1.151168823242188,0.27325439453125,0.8874081373214722,0.5477744340896606,0.3591669499874115,38.59159851074219,98.37693786621094,-27.91217041015625
180410,-0.044525146484375,0.9991607666015624,0.19970703125,0.8253557085990906,0.8398613929748535,0.2431434094905853,38.91229248046875,98.46124267578124,-28.23312377929688
180411,-0.079833984375,0.8263397216796875,0.121734619140625,0.7243952751159668,0.8925192952156067,0.139067068696022,39.256103515625,98.30337524414062,-28.625732421875
180412,-0.079833984375,0.8263397216796875,0.121734619140625,0.7243952751159668,0.8925192952156067,0.139067068696022,39.256103515625,98.30337524414062,-28.625732421875
180413,-0.116180419921875,0.5105133056640625,0.07861328125,0.6383458375930786,0.6697895526885986,-0.0127384318038821,39.880859375,98.15740966796876,-29.62380981445312
180414,-0.1097564697265625,0.3588104248046875,0.0123443603515625,0.6852931380271912,0.4371269941329956,-0.0504557155072689,40.1759033203125,98.03596496582033,-30.00715637207031
180415,-0.095367431640625,0.220184326171875,-0.0498046875,0.7690969705581665,0.0949992164969444,-0.0552619248628616,40.43782043457031,97.9858856201172,-30.36883544921875
180416,-0.095367431640625,0.220184326171875,-0.0498046875,0.7690969705581665,0.0949992164969444,-0.0552619248628616,40.43782043457031,97.9858856201172,-30.36883544921875
180417,-0.072967529296875,0.026275634765625,-0.0773468017578125,0.8627893328666687,-0.592130720615387,-0.1007284745573997,40.6778564453125,97.5458984375,-31.24662780761719
180418,-0.0468292236328125,-0.038238525390625,-0.0874481201171875,0.8236731290817261,-1.157586097717285,-0.1802464723587036,40.70341491699219,97.34521484375,-31.66670227050781
180419,-0.0074310302734375,-0.10040283203125,-0.194915771484375,0.8236731290817261,-1.157586097717285,-0.1802464723587036,40.65425109863281,97.2710418701172,-31.76924133300781
180420,-0.0074310302734375,-0.10040283203125,-0.194915771484375,0.8236731290817261,-1.157586097717285,-0.1802464723587036,40.65425109863281,97.2710418701172,-31.76924133300781
180421,0.073455810546875,-0.196380615234375,-0.4205169677734375,0.8662291169166565,-2.559816360473633,0.0021947110071778,40.0010986328125,96.8339385986328,-32.19749450683594
180422,0.0793304443359375,-0.16424560546875,-0.11602783203125,0.9577561020851136,-2.638117551803589,0.0907386913895607,39.48704528808594,96.71319580078124,-32.39949035644531
180423,0.080108642578125,-0.1659393310546875,0.11395263671875,0.9739766120910645,-1.973251104354858,0.1097411438822746,38.93296813964844,96.62649536132812,-32.1417236328125
180424,0.1267852783203125,-0.2391204833984375,0.2564239501953125,0.7052897214889526,-0.1321268826723099,0.0102806007489562,38.50469970703125,96.68620300292967,-32.05691528320312
180425,0.150054931640625,-0.2537689208984375,-0.0164794921875,0.5426542162895203,1.022672772407532,-0.0440417602658271,38.33790588378906,96.68345642089844,-31.78367614746094
180426,0.13763427734375,-0.216644287109375,0.007354736328125,0.5964250564575195,1.18560254573822,-0.0005704491049982,38.31520080566406,96.4832763671875,-31.7000732421875
180427,0.1183013916015625,-0.1819305419921875,0.172332763671875,0.6096484065055847,1.355125308036804,0.0282116644084453,38.66102600097656,96.27618408203124,-31.94343566894531
180428,0.1183013916015625,-0.1819305419921875,0.172332763671875,0.6096484065055847,1.355125308036804,0.0282116644084453,38.66102600097656,96.27618408203124,-31.94343566894531
180429,0.0777587890625,-0.1589813232421875,0.17926025390625,0.2994967103004456,1.642847895622253,-0.0010455570882186,39.41629028320312,95.73591613769533,-32.30670166015625
180430,0.0582122802734375,-0.1536102294921875,0.1358642578125,0.0632905587553978,1.58319628238678,-0.0640263855457305,39.79942321777344,95.4455108642578,-32.52729797363281
180431,0.041534423828125,-0.14923095703125,0.110443115234375,-0.1763526648283005,1.460376620292664,-0.1438605040311813,40.2022705078125,95.31243896484376,-32.57539367675781
180432,0.041534423828125,-0.14923095703125,0.110443115234375,-0.1763526648283005,1.460376620292664,-0.1438605040311813,40.2022705078125,95.31243896484376,-32.57539367675781
180433,0.0290069580078125,-0.1610260009765625,0.043304443359375,-0.5629344582557678,1.044701933860779,-0.3182536065578461,40.8319091796875,94.96926879882812,-32.24751281738281
180434,0.0360870361328125,-0.173431396484375,-0.011322021484375,-0.6758370399475098,0.7896376252174377,-0.3868409097194672,40.94755554199219,94.91033935546876,-32.16050720214844
180435,0.048797607421875,-0.1876373291015625,-0.10980224609375,-0.7317271828651428,0.4724610149860382,-0.4364311099052429,40.99723815917969,94.817138671875,-31.8797607421875
180436,0.048797607421875,-0.1876373291015625,-0.10980224609375,-0.7317271828651428,0.4724610149860382,-0.4364311099052429,40.99723815917969,94.817138671875,-31.8797607421875
180437,0.1025238037109375,-0.221160888671875,-0.5357818603515625,-0.5340791344642639,-1.097345352172852,-0.4343269467353821,40.88261413574219,94.85099792480467,-31.18345642089844
180438,0.1357574462890625,-0.0713958740234375,-0.543609619140625,-0.3967691957950592,-2.140734195709229,-0.5051183104515076,40.53863525390625,94.86866760253906,-30.71607971191406
180439,0.1171112060546875,0.1707611083984375,-0.2835693359375,-0.4401648640632629,-2.616633892059326,-0.7693528532981873,39.99342346191406,95.0631103515625,-30.33676147460938
180440,0.1171112060546875,0.1707611083984375,-0.2835693359375,-0.4401648640632629,-2.616633892059326,-0.7693528532981873,39.99342346191406,95.0631103515625,-30.33676147460938
180441,0.031036376953125,0.16558837890625,0.3930206298828125,-0.9766852855682372,-1.113786697387695,-1.123478174209595,38.56303405761719,95.3583984375,-29.44880676269531
180442,0.015350341796875,0.1644744873046875,0.49139404296875,-1.251447319984436,0.0082209119573235,-1.23305344581604,37.65821838378906,95.6170654296875,-28.91519165039062
180443,0.0024871826171875,0.27593994140625,0.6378936767578125,-1.678038597106934,0.9720657467842102,-1.385400056838989,36.77578735351562,95.94947814941406,-28.44863891601562
180444,0.0024871826171875,0.27593994140625,0.6378936767578125,-1.678038597106934,0.9720657467842102,-1.385400056838989,36.77578735351562,95.94947814941406,-28.44863891601562
180445,0.0203704833984375,3.32928466796875,1.30419921875,-2.663656234741211,3.995305061340332,-2.398017883300781,34.98223876953125,97.02899169921876,-28.35269165039062
180446,-0.1368408203125,6.923736572265625,1.173065185546875,-2.548891544342041,4.21168327331543,-1.443881988525391,34.27627563476562,97.69784545898438,-28.86701965332031
180447,-2.132278442382812,8.103042602539062,1.194076538085938,-0.7557723522186279,3.621814727783203,1.357613682746887,34.17025756835938,98.29452514648438,-29.86398315429688
180448,-2.132278442382812,8.103042602539062,1.194076538085938,-0.7557723522186279,3.621814727783203,1.357613682746887,34.17025756835938,98.29452514648438,-29.86398315429688
180449,-0.5878448486328125,2.853042602539062,-0.0103302001953125,1.420201778411865,-2.282752990722656,-2.025220394134521,35.59947204589844,98.467529296875,-31.1337890625
180450,-0.6347808837890625,1.151779174804688,0.1396942138671875,1.225820302963257,-4.384610652923584,-1.875314116477966,35.04603576660156,97.89411926269533,-31.05564880371094
180451,-0.4566650390625,0.553192138671875,0.4381103515625,0.5565119981765747,-4.992531299591064,-1.794243574142456,33.62847900390625,97.17337036132812,-30.62449645996094
180452,-0.3961334228515625,0.4007415771484375,0.893035888671875,-0.4004741907119751,-3.723363161087036,-1.423453211784363,32.03073120117188,96.57379150390624,-29.99029541015625
180453,-0.238861083984375,0.860626220703125,0.8998260498046875,-1.803742170333862,0.5475637316703796,-0.2362327724695206,30.49050903320312,96.2227020263672,-29.29396057128906
180454,0.1918487548828125,1.788131713867188,-1.238021850585938,-2.868466377258301,1.131812810897827,0.6994822025299072,29.76881408691406,95.97708129882812,-28.47036743164062
180455,0.40386962890625,2.372528076171875,-1.889083862304688,-2.506541728973389,-2.841168403625488,0.9893017411231996,29.82354736328125,95.86428833007812,-27.5045166015625
180456,0.40386962890625,2.372528076171875,-1.889083862304688,-2.506541728973389,-2.841168403625488,0.9893017411231996,29.82354736328125,95.86428833007812,-27.5045166015625
180457,0.3176422119140625,2.225723266601562,0.6692047119140625,0.8810274600982666,-1.643998622894287,0.9788743853569032,30.19537353515625,96.39256286621094,-24.73712158203125
180458,0.328826904296875,1.83984375,0.345245361328125,1.684240579605103,0.158475399017334,1.065344095230103,30.27900695800781,96.67945861816406,-23.88629150390625
180459,0.1367340087890625,1.57684326171875,0.0493927001953125,1.909008741378784,0.6116082668304443,1.056944489479065,30.56083679199219,96.79177856445312,-23.84979248046875
180460,0.1367340087890625,1.57684326171875,0.0493927001953125,1.909008741378784,0.6116082668304443,1.056944489479065,30.56083679199219,96.79177856445312,-23.84979248046875
180461,-0.21490478515625,1.152786254882812,0.2816619873046875,2.032299041748047,0.633069634437561,0.646072506904602,31.75199890136719,96.93644714355467,-25.21835327148438
180462,-0.2280120849609375,0.930816650390625,0.308746337890625,2.08294939994812,0.5649267435073853,0.6088960766792297,32.43760681152344,96.88020324707033,-26.13392639160156
180463,-0.21466064453125,0.7292327880859375,0.29254150390625,2.066459894180298,0.3857993483543396,0.656612753868103,32.91357421875,96.56910705566406,-27.14363098144531
180464,-0.186920166015625,0.55926513671875,0.2511444091796875,1.942600011825562,0.0820943340659141,0.7209624648094177,33.37814331054688,96.40744018554688,-28.20060729980469
180465,-0.145477294921875,0.42120361328125,0.227569580078125,1.711651206016541,-0.2427087873220444,0.7569433450698853,34.00157165527344,96.19425964355467,-29.12689208984375
180466,-0.09698486328125,0.2759552001953125,0.2119903564453125,1.448631048202515,-0.4877278506755829,0.7955999374389648,34.42919921875,95.93083190917967,-29.98200988769531
180467,-0.0698394775390625,0.16290283203125,0.2259521484375,1.187891244888306,-0.5552991628646851,0.7986465692520142,34.81399536132812,95.7866668701172,-30.50106811523438
180468,-0.04901123046875,0.055877685546875,0.2158355712890625,0.9086154103279114,-0.4786787033081055,0.75472491979599,35.14862060546875,95.75886535644533,-31.08990478515625
180469,-0.036590576171875,-0.03741455078125,0.1859283447265625,0.6952072978019714,-0.3620927035808563,0.7009895443916321,35.34054565429688,95.7597198486328,-31.46794128417969
180470,-0.03973388671875,-0.0864105224609375,0.154052734375,0.4662960767745972,-0.2842181324958801,0.626215398311615,35.58650207519531,95.82223510742188,-31.57621765136719
180471,-0.0572052001953125,-0.0961151123046875,0.1197967529296875,0.2184218168258667,-0.2863992750644684,0.5414409041404724,35.78111267089844,95.80130004882812,-31.6964111328125
180472,-0.0572052001953125,-0.0961151123046875,0.1197967529296875,0.2184218168258667,-0.2863992750644684,0.5414409041404724,35.78111267089844,95.80130004882812,-31.6964111328125
180473,-0.1574554443359375,-0.093719482421875,-0.425933837890625,-0.0743184387683868,-0.7432112693786621,0.4012342393398285,35.98135375976562,95.73922729492188,-31.42872619628906
180474,-0.2784271240234375,-0.0766754150390625,-0.9420928955078124,-0.0248337108641862,-2.796857595443726,0.3669329881668091,36.04669189453125,95.95637512207033,-31.25958251953125
180475,-0.556976318359375,0.027374267578125,-0.04547119140625,0.1421571373939514,0.0295104887336492,0.4301681518554688,35.92564392089844,96.08531188964844,-31.03923034667969
180476,-0.556976318359375,0.027374267578125,-0.04547119140625,0.1421571373939514,0.0295104887336492,0.4301681518554688,35.92564392089844,96.08531188964844,-31.03923034667969
180477,-0.07647705078125,0.236328125,0.1212005615234375,0.3592300713062286,1.237975001335144,0.4714359641075134,35.24433898925781,96.3491668701172,-30.62777709960938
180478,0.06134033203125,0.209259033203125,0.1663055419921875,0.6503567099571228,1.334330797195435,0.3540653884410858,35.32025146484375,96.362060546875,-30.74046325683594
180479,0.067535400390625,0.1475372314453125,0.1983489990234375,0.812396764755249,1.298087239265442,0.2493515014648438,35.61038208007812,96.19081115722656,-31.12103271484375
180480,0.067535400390625,0.1475372314453125,0.1983489990234375,0.812396764755249,1.298087239265442,0.2493515014648438,35.61038208007812,96.19081115722656,-31.12103271484375
180481,0.0749053955078125,0.0263519287109375,0.0958251953125,0.5803989171981812,1.223688960075378,0.2375084310770035,36.37312316894531,96.01861572265624,-32.0938720703125
180482,0.0690155029296875,-0.016265869140625,0.0230560302734375,0.3364304900169373,1.07871687412262,0.2834106683731079,36.61051940917969,95.94276428222656,-32.66557312011719
180483,0.0621490478515625,-0.04461669921875,-0.050506591796875,0.1253688335418701,0.8170977830886841,0.3217106461524963,36.88200378417969,96.01443481445312,-33.20993041992188
180484,0.0621490478515625,-0.04461669921875,-0.050506591796875,0.1253688335418701,0.8170977830886841,0.3217106461524963,36.88200378417969,96.01443481445312,-33.20993041992188
180485,0.05413818359375,-0.0628204345703125,-0.080902099609375,-0.1747414469718933,0.0603688023984432,0.3527987897396088,37.57221984863281,95.89958190917967,-33.52545166015625
180486,0.0466461181640625,-0.06695556640625,-0.0103302001953125,-0.2883220613002777,-0.1593571603298187,0.3348174095153809,37.95826721191406,95.81719970703124,-33.43940734863281
180487,0.0434417724609375,-0.070068359375,0.0314178466796875,-0.5002407431602478,-0.2802875936031342,0.2448694109916687,38.1805419921875,95.81399536132812,-33.24444580078125
180488,0.0434417724609375,-0.070068359375,0.0314178466796875,-0.5002407431602478,-0.2802875936031342,0.2448694109916687,38.1805419921875,95.81399536132812,-33.24444580078125
180489,0.0419769287109375,-0.0835113525390625,0.0558929443359375,-0.6188613772392273,-0.237710028886795,0.1921244412660599,38.48297119140625,95.71298217773438,-32.06227111816406
180490,0.0439910888671875,-0.0907745361328125,0.0426025390625,-0.7356551289558411,-0.1352387815713882,0.1344006806612015,38.64186096191406,95.5657196044922,-31.41900634765625
180491,0.0496826171875,-0.104339599609375,-0.0081329345703125,-0.8742452263832092,-0.050636813044548,0.0731525048613548,38.76889038085938,95.60905456542967,-30.78402709960938
180492,0.0496826171875,-0.104339599609375,-0.0081329345703125,-0.8742452263832092,-0.050636813044548,0.0731525048613548,38.76889038085938,95.60905456542967,-30.78402709960938
180493,0.086395263671875,-0.2373809814453125,-0.49957275390625,-1.214561462402344,-0.7238160371780396,0.0065140919759869,38.97273254394531,95.4768524169922,-29.33293151855469
180494,0.1279144287109375,-0.326751708984375,-0.7837982177734375,-1.338016271591187,-1.759245276451111,-0.0093815177679061,39.06312561035156,95.45277404785156,-28.64643859863281
180495,0.1872711181640625,-0.3110504150390625,-0.4746551513671875,-1.444839954376221,-1.607824087142944,-0.1220478788018227,38.89372253417969,95.49160766601562,-27.86091613769531
180496,0.1872711181640625,-0.3110504150390625,-0.4746551513671875,-1.444839954376221,-1.607824087142944,-0.1220478788018227,38.89372253417969,95.49160766601562,-27.86091613769531
180497,0.104400634765625,0.244903564453125,-0.24737548828125,-1.068273544311523,0.5517963171005249,-0.2888906598091125,38.51785278320312,95.67398071289062,-25.95867919921875
180498,0.0767669677734375,0.254425048828125,-0.1091156005859375,-0.8536094427108765,0.6789755821228027,-0.4029298722743988,38.23390197753906,95.87403869628906,-25.24276733398438
180499,0.044097900390625,0.244476318359375,0.2085113525390625,-0.8775438070297241,0.7035064697265625,-0.576892614364624,37.91371154785156,96.2197723388672,-24.79100036621094
180500,0.044097900390625,0.244476318359375,0.2085113525390625,-0.8775438070297241,0.7035064697265625,-0.576892614364624,37.91371154785156,96.2197723388672,-24.79100036621094
180501,0.13555908203125,1.482040405273438,1.101470947265625,-1.895015954971313,2.186633110046387,-1.190283894538879,36.86886596679688,97.23519897460938,-24.77159118652344
180502,0.274658203125,5.69073486328125,0.8735809326171875,-2.424903392791748,2.56022047996521,-1.506456255912781,36.09707641601562,97.62928771972656,-24.9039306640625
180503,-0.1320648193359375,8.18414306640625,0.4313201904296875,-2.257904767990112,1.636786460876465,-0.4767457842826843,35.21881103515625,98.12307739257812,-25.36088562011719
180504,-0.1320648193359375,8.18414306640625,0.4313201904296875,-2.257904767990112,1.636786460876465,-0.4767457842826843,35.21881103515625,98.12307739257812,-25.36088562011719
180505,-1.131912231445312,6.20654296875,0.366302490234375,0.4953389167785645,-0.5382469296455383,-1.99241840839386,34.18110656738281,99.38235473632812,-26.46859741210938
180506,-0.53216552734375,2.4161376953125,0.3109283447265625,0.8171560764312744,0.3733386993408203,-1.674978137016296,33.8966064453125,99.43450927734376,-26.50518798828125
180507,-0.296295166015625,0.742340087890625,0.126190185546875,0.1619729250669479,1.248550653457642,0.3750316798686981,33.38618469238281,98.81076049804688,-26.40299987792969
180508,-0.296295166015625,0.742340087890625,0.126190185546875,0.1619729250669479,1.248550653457642,0.3750316798686981,33.38618469238281,98.81076049804688,-26.40299987792969
180509,0.0193328857421875,0.45538330078125,-0.423248291015625,0.1595566421747208,-0.5164409875869751,1.048279047012329,33.04739379882812,97.57933044433594,-26.49050903320312
180510,0.0379180908203125,1.071502685546875,-0.0532684326171875,0.1595566421747208,-0.5164409875869751,1.048279047012329,33.3455810546875,97.4159698486328,-26.59996032714844
180511,0.040985107421875,1.781173706054688,0.0834808349609375,0.0350221656262874,-0.2132371813058853,1.239583730697632,33.68199157714844,97.3441162109375,-26.709716796875
180512,0.040985107421875,1.781173706054688,0.0834808349609375,0.0350221656262874,-0.2132371813058853,1.239583730697632,33.68199157714844,97.3441162109375,-26.709716796875
180513,0.1445465087890625,2.224151611328125,-0.2016143798828125,0.1338211745023727,0.2235039323568344,1.262339353561401,34.486083984375,97.7051239013672,-26.8221435546875
180514,0.153167724609375,1.878067016601562,-0.176177978515625,0.4440224468708038,0.0565748624503612,1.093528866767883,35.07658386230469,97.77424621582033,-26.82814025878906
180515,0.1176300048828125,1.542633056640625,-0.0357208251953125,0.8373209834098816,-0.023448335006833,0.7385028004646301,35.787109375,97.77630615234376,-26.81288146972656
180516,0.1176300048828125,1.542633056640625,-0.0357208251953125,0.8373209834098816,-0.023448335006833,0.7385028004646301,35.787109375,97.77630615234376,-26.81288146972656
180517,0.0006103515625,1.07867431640625,0.1127166748046875,0.7123849391937256,0.2714243233203888,0.6376827359199524,36.90391540527344,97.81813049316406,-27.12998962402344
180518,-0.0657958984375,0.9329376220703124,0.1179046630859375,0.6307641267776489,0.3144450187683105,0.5962663292884827,37.37162780761719,97.82418823242188,-27.29949951171875
180519,-0.1220703125,0.79986572265625,0.0520782470703125,0.6307641267776489,0.3144450187683105,0.5962663292884827,37.81069946289062,97.7714385986328,-27.65460205078125
180520,-0.1220703125,0.79986572265625,0.0520782470703125,0.6307641267776489,0.3144450187683105,0.5962663292884827,37.81069946289062,97.7714385986328,-27.65460205078125
180521,-0.2170867919921875,0.59552001953125,0.0132293701171875,0.6570660471916199,0.0675217881798744,0.4213269948959351,38.56912231445312,97.79385375976562,-28.25595092773438
180522,-0.231048583984375,0.4835357666015625,0.046783447265625,0.7643980383872986,0.017697237432003,0.3368595242500305,38.83248901367188,97.8533935546875,-28.90684509277344
180523,-0.234954833984375,0.384857177734375,0.042266845703125,1.024165749549866,-0.0177246686071157,0.2407151460647583,39.09071350097656,97.92536926269533,-29.34024047851562
180524,-0.2219390869140625,0.274169921875,-0.0191192626953125,1.024165749549866,-0.0177246686071157,0.2407151460647583,39.28346252441406,97.86253356933594,-29.55815124511719
180525,-0.1956939697265625,0.1651763916015625,-0.076812744140625,1.1063472032547,-0.1843996644020081,0.201573058962822,39.51771545410156,97.700927734375,-29.93075561523438
180526,-0.16558837890625,0.0709381103515625,-0.1378326416015625,1.128743052482605,-0.7964393496513367,0.1284967213869095,39.58218383789062,97.55305480957033,-30.31022644042969
180527,-0.1184234619140625,-0.0244293212890625,-0.2193450927734375,1.128743052482605,-0.7964393496513367,0.1284967213869095,39.66305541992188,97.43637084960938,-30.92770385742188
180528,-0.0605926513671875,-0.1298065185546875,-0.2900543212890625,1.080856442451477,-1.215496778488159,0.1270716637372971,39.66415405273438,97.18829345703124,-31.55342102050781
180529,0.01263427734375,-0.2065277099609375,-0.3187255859375,1.047094702720642,-1.62129545211792,0.1731480807065964,39.67396545410156,97.07211303710938,-32.22775268554688
180530,0.01263427734375,-0.2065277099609375,-0.3187255859375,1.047094702720642,-1.62129545211792,0.1731480807065964,39.67396545410156,97.07211303710938,-32.22775268554688
180531,0.1341552734375,-0.1834716796875,-0.026885986328125,1.114783763885498,-0.7989832162857056,0.2025568336248398,39.20198059082031,96.7913818359375,-32.96646118164062
180532,0.158843994140625,-0.150054931640625,0.158050537109375,1.114783763885498,-0.7989832162857056,0.2025568336248398,38.90559387207031,96.77024841308594,-33.33970642089844
180533,0.15679931640625,-0.124481201171875,0.278350830078125,1.108893871307373,0.1604743599891663,0.1211503893136978,38.60392761230469,96.74835205078124,-33.42190551757812
180534,0.1488494873046875,-0.1071624755859375,0.2723236083984375,1.048946142196655,0.9513937830924988,0.073431871831417,38.42982482910156,96.65078735351562,-33.57266235351562
180535,0.1414031982421875,-0.104400634765625,0.199432373046875,0.9071695804595948,1.400734543800354,0.0787078589200973,38.38369750976562,96.5224609375,-33.73776245117188
180536,0.1414031982421875,-0.104400634765625,0.199432373046875,0.9071695804595948,1.400734543800354,0.0787078589200973,38.38369750976562,96.5224609375,-33.73776245117188
180537,0.123138427734375,-0.1238861083984375,0.0341796875,0.4528135359287262,1.31853187084198,0.1451119184494019,38.99249267578125,96.01188659667967,-34.17536926269531
180538,0.10491943359375,-0.1284027099609375,0.0406494140625,0.2258949130773544,1.014146089553833,0.1511996388435364,39.38160705566406,95.7895050048828,-34.41606140136719
180539,0.080078125,-0.120819091796875,0.0964508056640625,0.0097120162099599,0.7834263443946838,0.1211469322443008,39.79725646972656,95.51438903808594,-34.54020690917969
180540,0.080078125,-0.120819091796875,0.0964508056640625,0.0097120162099599,0.7834263443946838,0.1211469322443008,39.79725646972656,95.51438903808594,-34.54020690917969
180541,0.0426483154296875,-0.10748291015625,0.1535186767578125,-0.3464074730873108,0.6442596912384033,-0.0289845131337642,40.42958068847656,95.1903839111328,-34.44874572753906
180542,0.0370635986328125,-0.11273193359375,0.150726318359375,-0.467620462179184,0.6298503875732422,-0.1152946352958679,40.68870544433594,95.1836395263672,-34.262451171875
180543,0.0403594970703125,-0.1173248291015625,0.137939453125,-0.5657134652137756,0.6209341287612915,-0.2004497349262238,40.94914245605469,95.11038208007812,-34.03469848632812
180544,0.0403594970703125,-0.1173248291015625,0.137939453125,-0.5657134652137756,0.6209341287612915,-0.2004497349262238,40.94914245605469,95.11038208007812,-34.03469848632812
180545,0.051361083984375,-0.1198883056640625,0.1024932861328125,-0.7885268330574036,0.5045697093009949,-0.405265212059021,41.29386901855469,94.89505004882812,-33.41709899902344
180546,0.0553741455078125,-0.123077392578125,0.0845947265625,-0.9289507865905762,0.3824166059494019,-0.5292369723320007,41.40097045898438,94.94329833984376,-33.05838012695312
180547,0.05889892578125,-0.1178131103515625,0.0475616455078125,-1.105109810829163,0.162975862622261,-0.6688675284385681,41.32994079589844,95.056640625,-32.61294555664062
180548,0.0521392822265625,-0.0381011962890625,-0.08197021484375,-1.289657831192017,-0.3353196680545807,-0.8737117648124695,41.06794738769531,95.19223022460938,-32.09135437011719
180549,0.0092620849609375,0.1471099853515625,-0.1934051513671875,-1.356427311897278,-1.227694034576416,-1.173188209533691,40.920166015625,95.2183837890625,-31.31747436523438
180550,-0.01519775390625,0.2131805419921875,-0.0455780029296875,-1.513742089271545,-2.379478693008423,-1.615847706794739,40.48860168457031,95.4287567138672,-30.62709045410156
180551,-0.0257720947265625,0.2448577880859375,0.2653350830078125,-1.741207480430603,-2.256454944610596,-1.851632237434387,39.838134765625,95.6876220703125,-29.87315368652344
180552,-0.051239013671875,0.375274658203125,0.528106689453125,-1.741207480430603,-2.256454944610596,-1.851632237434387,38.91349792480469,96.1391143798828,-29.1490478515625
180553,-0.0979461669921875,0.87127685546875,0.953948974609375,-2.300005674362183,-1.749111771583557,-2.380905866622925,37.79541015625,96.48150634765624,-28.30531311035156
180554,-0.192626953125,2.232742309570312,1.166915893554688,-2.936714887619019,-0.7988181114196777,-3.156551122665405,36.43940734863281,96.80354309082033,-27.47834777832031
180555,-0.5269927978515625,6.443344116210938,1.046829223632812,-2.11901330947876,-1.461127877235413,-3.185685634613037,34.88275146484375,97.19549560546876,-26.8577880859375
180556,-0.5269927978515625,6.443344116210938,1.046829223632812,-2.11901330947876,-1.461127877235413,-3.185685634613037,34.88275146484375,97.19549560546876,-26.8577880859375
180557,-3.263565063476562,7.509017944335938,1.623489379882812,-0.9533871412277222,-0.465074211359024,-1.685784101486206,31.5203857421875,97.98649597167967,-26.57818603515625
180558,-1.898513793945312,4.036148071289062,1.0498046875,-0.0733703523874282,2.068464994430542,-0.3483949899673462,30.3465576171875,97.87222290039062,-26.62033081054688
180559,-0.5897216796875,1.765548706054688,-0.1992950439453125,0.6280607581138611,1.728608012199402,0.8253439664840698,29.72128295898438,97.5140380859375,-26.28419494628906
180560,-0.5897216796875,1.765548706054688,-0.1992950439453125,0.6280607581138611,1.728608012199402,0.8253439664840698,29.72128295898438,97.5140380859375,-26.28419494628906
180561,0.0440673828125,1.122634887695312,-1.19354248046875,0.1747302711009979,-1.048843622207642,0.9307748079299928,30.03910827636719,96.51155090332033,-25.9248046875
180562,0.15032958984375,1.663772583007812,-1.056533813476562,0.1747302711009979,-1.048843622207642,0.9307748079299928,30.31634521484375,96.46646118164062,-26.12713623046875
180563,0.1756744384765625,2.136978149414062,-0.3316802978515625,0.1675852686166763,-1.563885688781738,0.9988909959793092,30.66374206542969,96.6335906982422,-26.37213134765625
180564,0.1756744384765625,2.136978149414062,-0.3316802978515625,0.1675852686166763,-1.563885688781738,0.9988909959793092,30.66374206542969,96.6335906982422,-26.37213134765625
180565,0.2829132080078125,2.3455810546875,0.3041229248046875,0.6491023898124695,-1.011478424072266,1.471972584724426,31.20912170410156,96.82064819335938,-26.27360534667969
180566,0.3324432373046875,2.079803466796875,0.3405609130859375,0.709224283695221,-0.357786625623703,1.518626093864441,31.54733276367188,96.86241149902344,-26.03639221191406
180567,0.336395263671875,1.7152099609375,0.3398895263671875,0.6868606805801392,0.1190704628825188,1.524805665016174,32.01554870605469,96.83895874023438,-25.94918823242188
180568,0.336395263671875,1.7152099609375,0.3398895263671875,0.6868606805801392,0.1190704628825188,1.524805665016174,32.01554870605469,96.83895874023438,-25.94918823242188
180569,0.23052978515625,1.062255859375,0.3006744384765625,0.799411416053772,0.5531819462776184,1.414089560508728,33.373779296875,96.80966186523438,-26.09217834472656
180570,0.1509552001953125,0.81585693359375,0.2798614501953125,0.9583377242088318,0.6174658536911011,1.313108325004578,34.11349487304688,96.8123779296875,-26.28788757324219
180571,0.072479248046875,0.627838134765625,0.2517547607421875,1.11715292930603,0.6525309085845947,1.213616132736206,34.88612365722656,96.98738098144533,-26.65884399414062
180572,0.072479248046875,0.627838134765625,0.2517547607421875,1.11715292930603,0.6525309085845947,1.213616132736206,34.88612365722656,96.98738098144533,-26.65884399414062
180573,-0.014862060546875,0.3268585205078125,0.2172698974609375,1.26030445098877,0.6141342520713806,1.071032881736755,36.44651794433594,97.11886596679688,-27.53030395507812
180574,-0.040252685546875,0.215789794921875,0.18170166015625,1.239809036254883,0.5609387159347534,1.018467903137207,37.17219543457031,97.03384399414062,-27.95989990234375
180575,-0.04736328125,0.116790771484375,0.127349853515625,1.198257088661194,0.417480856180191,0.9630032777786256,37.9168701171875,96.93560791015624,-28.61451721191406
180576,-0.04736328125,0.116790771484375,0.127349853515625,1.198257088661194,0.417480856180191,0.9630032777786256,37.9168701171875,96.93560791015624,-28.61451721191406
180577,-0.033660888671875,-0.0494842529296875,0.0576019287109375,1.143932104110718,0.0767107531428337,0.8680400252342224,39.11824035644531,97.04180908203124,-29.75601196289062
180578,-0.0222930908203125,-0.0874176025390625,0.04779052734375,1.124704599380493,-0.0902862176299095,0.8452114462852478,39.70751953125,96.94395446777344,-30.20161437988281
180579,-0.01690673828125,-0.0852508544921875,0.05548095703125,1.094214797019958,-0.1800102442502975,0.8216456174850464,40.12077331542969,96.81666564941406,-30.70053100585938
180580,-0.01690673828125,-0.0852508544921875,0.05548095703125,1.094214797019958,-0.1800102442502975,0.8216456174850464,40.12077331542969,96.81666564941406,-30.70053100585938
180581,-0.02886962890625,-0.086273193359375,0.054534912109375,0.896987795829773,-0.4296256601810455,0.729551374912262,40.995849609375,96.58627319335938,-31.42045593261719
180582,-0.02886962890625,-0.086273193359375,0.054534912109375,0.896987795829773,-0.4296256601810455,0.729551374912262,40.995849609375,96.58627319335938,-31.42045593261719
180583,-0.0473785400390625,-0.1074371337890625,0.113861083984375,0.4812470674514771,-0.7337877154350281,0.556041419506073,41.98788452148438,96.18368530273438,-31.80453491210938
180584,-0.0516510009765625,-0.1212615966796875,0.166778564453125,0.3013891279697418,-0.7432752251625061,0.4583824872970581,42.17948913574219,95.99473571777344,-31.74362182617188
180585,-0.0529632568359375,-0.1374969482421875,0.2149810791015625,0.2082796990871429,-0.5941778421401978,0.3810282945632935,42.26734924316406,95.75416564941406,-31.49465942382812
180586,-0.0495452880859375,-0.149627685546875,0.21246337890625,0.2156042009592056,-0.3413916826248169,0.3318729996681213,42.33100891113281,95.67044067382812,-31.39079284667969
180587,-0.037078857421875,-0.1517333984375,0.1704254150390625,0.2776185572147369,-0.049214418977499,0.2910936176776886,42.48867797851562,95.45521545410156,-31.16616821289062
180588,-0.037078857421875,-0.1517333984375,0.1704254150390625,0.2776185572147369,-0.049214418977499,0.2910936176776886,42.48867797851562,95.45521545410156,-31.16616821289062
180589,-0.0210113525390625,-0.1446380615234375,0.116119384765625,0.3417847752571106,0.2554344236850739,0.2546349465847015,42.7337646484375,95.19865417480467,-31.01101684570312
180590,0.0071563720703125,-0.1598968505859375,-0.0221710205078125,0.2790145874023438,0.6418886780738831,0.1453729122877121,43.18296813964844,94.84127807617188,-31.0601806640625
180591,0.012451171875,-0.1587982177734375,-0.0684051513671875,0.1050925999879837,0.6317284107208252,0.0791576728224754,43.29290771484375,94.58477783203124,-31.06217956542969
180592,0.012451171875,-0.1587982177734375,-0.0684051513671875,0.1050925999879837,0.6317284107208252,0.0791576728224754,43.29290771484375,94.58477783203124,-31.06217956542969
180593,0.0133514404296875,-0.1820526123046875,-0.1473846435546875,-0.3812075257301331,0.351355642080307,-0.049502570182085,43.53443908691406,94.28857421875,-31.21575927734375
180594,0.01123046875,-0.1926422119140625,-0.183807373046875,-0.6207346320152283,0.0711351633071899,-0.0847822651267051,43.64817810058594,94.036376953125,-30.90272521972656
180595,0.0028839111328125,-0.204010009765625,-0.1842803955078125,-0.8026807308197021,-0.2349166423082352,-0.1068196594715118,43.61785888671875,93.90603637695312,-30.66876220703125
180596,0.0028839111328125,-0.204010009765625,-0.1842803955078125,-0.8026807308197021,-0.2349166423082352,-0.1068196594715118,43.61785888671875,93.90603637695312,-30.66876220703125
180597,-0.0394287109375,-0.204010009765625,-0.0756988525390625,-1.033337950706482,-0.5566682815551758,-0.1289452016353607,43.33656311035156,93.81236267089844,-29.66178894042969
180598,-0.0629119873046875,-0.1920318603515625,-0.0306549072265625,-1.089791059494019,-0.5675070881843567,-0.1633148938417435,43.07206726074219,93.77154541015624,-29.22984313964844
180599,-0.0893707275390625,-0.177459716796875,-0.00341796875,-1.103943109512329,-0.4524593353271484,-0.3262609243392944,42.84855651855469,93.66917419433594,-28.71861267089844
180600,-0.0893707275390625,-0.177459716796875,-0.00341796875,-1.103943109512329,-0.4524593353271484,-0.3262609243392944,42.84855651855469,93.66917419433594,-28.71861267089844
180601,-0.1578521728515625,-0.0908203125,-0.1330413818359375,-1.052207708358765,-0.442095935344696,-0.4776864051818848,42.42144775390625,93.86174011230467,-27.55465698242188
180602,-0.0769195556640625,0.13311767578125,-0.5831298828125,-0.7482529282569885,-0.8286982178688049,-0.6659183502197266,42.30062866210938,93.9572296142578,-26.88726806640625
180603,0.08807373046875,0.25048828125,-0.8171234130859375,-0.3558763563632965,-2.10516619682312,-0.7854889631271362,42.14964294433594,94.21092224121094,-26.16737365722656
180604,0.08807373046875,0.25048828125,-0.8171234130859375,-0.3558763563632965,-2.10516619682312,-0.7854889631271362,42.14964294433594,94.21092224121094,-26.16737365722656
180605,0.0394287109375,0.22747802734375,0.55706787109375,-0.7862213253974915,-0.9816952347755432,-0.7986772060394287,41.37095642089844,95.2308349609375,-25.10588073730469
180606,0.0394287109375,0.22747802734375,0.55706787109375,-0.7862213253974915,-0.9816952347755432,-0.7986772060394287,41.37095642089844,95.2308349609375,-25.10588073730469
180607,0.053680419921875,0.2899017333984375,0.7260894775390625,-1.918549180030823,1.386714577674866,-0.9723094701766968,40.54093933105469,96.09759521484376,-24.91471862792969
180608,0.092315673828125,0.5928955078125,0.78985595703125,-1.918549180030823,1.386714577674866,-0.9723094701766968,39.41017150878906,97.11196899414062,-25.09025573730469
180609,0.4538421630859375,6.448471069335938,0.249664306640625,-3.306175470352173,0.512855052947998,-1.797155976295471,37.26322937011719,98.26385498046876,-25.42950439453125
180610,0.0282745361328125,8.189956665039062,-0.16351318359375,-1.979530811309814,-3.625099658966064,-0.7436302304267883,36.19505310058594,99.08877563476562,-25.55581665039062
180611,-1.229721069335938,7.793167114257812,1.5206298828125,-0.4871395528316498,-3.40549635887146,-1.711188793182373,35.29264831542969,99.9093017578125,-25.842041015625
180612,-1.229721069335938,7.793167114257812,1.5206298828125,-0.4871395528316498,-3.40549635887146,-1.711188793182373,35.29264831542969,99.9093017578125,-25.842041015625
180613,-0.36541748046875,0.9693603515625,-0.2747344970703125,-0.2695638239383698,3.419530391693115,-0.3620404899120331,34.157470703125,99.32632446289062,-24.45204162597656
180614,-0.1456451416015625,0.305877685546875,-0.9456787109375,0.4967293441295624,2.790144205093384,0.4050982296466827,34.00099182128906,98.78376770019533,-24.12532043457031
180615,-0.0558013916015625,0.2209320068359375,-0.8290557861328125,1.11813485622406,1.635441064834595,0.7628017663955688,34.37593078613281,98.35310363769533,-24.19300842285156
180616,-0.0558013916015625,0.2209320068359375,-0.8290557861328125,1.11813485622406,1.635441064834595,0.7628017663955688,34.37593078613281,98.35310363769533,-24.19300842285156
180617,0.1314849853515625,1.3331298828125,-0.2990875244140625,0.7808183431625366,0.0073444657027721,1.212131381034851,35.4859619140625,97.85173034667967,-25.18931579589844
180618,0.1807708740234375,1.84906005859375,-0.153106689453125,0.3124399185180664,-0.6227245330810547,1.420156478881836,35.98516845703125,97.79824829101562,-25.86758422851562
180619,0.28131103515625,2.05377197265625,-0.0057830810546875,-0.1169801503419876,-0.7878349423408508,1.718048334121704,36.40797424316406,97.85360717773438,-26.25859069824219
180620,0.28131103515625,2.05377197265625,-0.0057830810546875,-0.1169801503419876,-0.7878349423408508,1.718048334121704,36.40797424316406,97.85360717773438,-26.25859069824219
180621,0.4283447265625,1.9326171875,0.138916015625,0.0658613070845603,-0.5400379300117493,1.675792455673218,37.41893005371094,98.21940612792967,-26.15142822265625
180622,0.4459381103515625,1.737518310546875,0.1563873291015625,0.4006920158863068,-0.239341214299202,1.511569261550903,38.02505493164062,98.51844787597656,-25.84942626953125
180623,0.40863037109375,1.49481201171875,0.1398773193359375,0.7402642369270325,0.0258129555732011,1.239776611328125,38.7298583984375,98.59310913085938,-25.53300476074219
180624,0.40863037109375,1.49481201171875,0.1398773193359375,0.7402642369270325,0.0258129555732011,1.239776611328125,38.7298583984375,98.59310913085938,-25.53300476074219
180625,0.227020263671875,1.109725952148438,0.0898284912109375,1.019777059555054,0.4670617282390594,0.5451866388320923,39.95477294921875,98.81915283203124,-25.90592956542969
180626,0.13519287109375,0.9221954345703124,-0.0151519775390625,0.9496768712997437,0.4932126402854919,0.3003252148628235,40.44480895996094,98.676025390625,-26.20661926269531
180627,0.0633697509765625,0.7650299072265625,-0.0831451416015625,0.838028073310852,0.2424195557832718,0.1989945918321609,40.83955383300781,98.58563232421876,-26.91262817382812
180628,0.0633697509765625,0.7650299072265625,-0.0831451416015625,0.838028073310852,0.2424195557832718,0.1989945918321609,40.83955383300781,98.58563232421876,-26.91262817382812
180629,-0.0284423828125,0.53912353515625,0.094451904296875,0.7909923791885376,0.1385645419359207,0.0711407586932182,41.34365844726562,98.39533996582033,-28.08729553222656
180630,-0.0284423828125,0.53912353515625,0.094451904296875,0.7909923791885376,0.1385645419359207,0.0711407586932182,41.34365844726562,98.39533996582033,-28.08729553222656
180631,-0.0475616455078125,0.38653564453125,0.0732879638671875,0.7854048013687134,0.1485196948051453,0.0240145213901996,41.51132202148438,98.32283020019533,-28.39122009277344
180632,-0.076080322265625,0.115203857421875,-0.1200714111328125,0.7199134230613708,-0.3510472476482391,-0.0473667159676551,41.86116027832031,98.05572509765624,-29.04151916503906
180633,-0.0850372314453125,-0.004547119140625,-0.2285919189453125,0.7050897479057312,-0.8794122934341431,-0.0918873101472854,41.91145324707031,97.96774291992188,-29.37075805664062
180634,-0.0832061767578125,-0.1197052001953125,-0.339508056640625,0.7519999742507935,-1.547192454338074,-0.122045211493969,41.84779357910156,97.94590759277344,-29.78558349609375
180635,-0.0565338134765625,-0.2263031005859375,-0.3866424560546875,0.8319046497344971,-2.247974872589111,-0.0980738326907157,41.69558715820312,97.75323486328124,-29.99024963378906
180636,-0.0565338134765625,-0.2263031005859375,-0.3866424560546875,0.8319046497344971,-2.247974872589111,-0.0980738326907157,41.69558715820312,97.75323486328124,-29.99024963378906
180637,0.01531982421875,-0.2859039306640625,-0.0076141357421875,1.027524471282959,-2.165080547332764,0.0048261806368827,41.06005859375,97.65350341796876,-30.46568298339844
180638,0.0218048095703125,-0.2829132080078125,0.1696624755859375,1.01541268825531,-1.151593208312988,-0.0345201604068279,40.56173706054688,97.59881591796876,-30.68801879882812
180639,0.0215911865234375,-0.2754364013671875,0.22998046875,0.7405753135681152,1.030953884124756,-0.2023744136095047,40.27983093261719,97.55760192871094,-30.90261840820312
180640,0.030364990234375,-0.238983154296875,0.131011962890625,0.7405753135681152,1.030953884124756,-0.2023744136095047,40.01588439941406,97.44729614257812,-31.26821899414062
180641,0.0269317626953125,-0.2006988525390625,0.0494232177734375,0.5969579219818115,1.266294479370117,-0.2513651251792908,40.034912109375,97.37081909179688,-31.46818542480469
180642,0.01318359375,-0.1617889404296875,0.0401763916015625,0.4706713855266571,1.200648903846741,-0.2967198193073273,40.2315673828125,97.3734893798828,-31.80508422851562
180643,-0.0046539306640625,-0.1311492919921875,0.0694427490234375,0.3555948436260223,1.068309187889099,-0.345832496881485,40.41058349609375,96.96231079101562,-31.961181640625
180644,-0.0046539306640625,-0.1311492919921875,0.0694427490234375,0.3555948436260223,1.068309187889099,-0.345832496881485,40.41058349609375,96.96231079101562,-31.961181640625
180645,-0.02459716796875,-0.100341796875,0.1223907470703125,0.1175213009119034,0.9219685196876526,-0.4803988337516785,40.83506774902344,96.41567993164062,-32.14010620117188
180646,-0.02899169921875,-0.0915985107421875,0.1338653564453125,-0.031185882166028,0.9145646691322328,-0.5637528300285339,40.92742919921875,96.31996154785156,-32.20719909667969
180647,-0.0319976806640625,-0.09027099609375,0.1329345703125,-0.2049424946308136,0.886737048625946,-0.6524899005889893,40.98536682128906,96.3411865234375,-32.36021423339844
180648,-0.0319976806640625,-0.09027099609375,0.1329345703125,-0.2049424946308136,0.886737048625946,-0.6524899005889893,40.98536682128906,96.3411865234375,-32.36021423339844
180649,-0.028076171875,-0.09576416015625,0.12066650390625,-0.5569250583648682,0.7623493075370789,-0.8077884316444397,40.87541198730469,96.28181457519533,-32.12785339355469
180650,-0.025054931640625,-0.0970611572265625,0.1039276123046875,-0.7008662223815918,0.6920250654220581,-0.8703609704971313,40.80349731445312,96.2102508544922,-31.81202697753906
180651,-0.0198822021484375,-0.0959930419921875,0.0702362060546875,-0.8298913240432739,0.5829808712005615,-0.9316227436065674,40.65811157226562,96.33119201660156,-31.53776550292969
180652,-0.0198822021484375,-0.0959930419921875,0.0702362060546875,-0.8298913240432739,0.5829808712005615,-0.9316227436065674,40.65811157226562,96.33119201660156,-31.53776550292969
180653,0.0046844482421875,0.0181884765625,-0.142547607421875,-1.117389917373657,-0.0161592625081539,-1.099793076515198,39.99481201171875,96.66876220703124,-30.82164001464844
180654,0.0279083251953125,0.18707275390625,-0.73651123046875,-1.220680594444275,-1.286090493202209,-1.194879412651062,39.62214660644531,96.7022705078125,-30.3385009765625
180655,0.0853424072265625,0.2916259765625,-0.9553680419921876,-1.054694890975952,-3.659479141235352,-1.493648290634155,39.03195190429688,96.9868621826172,-29.89651489257812
180656,0.0853424072265625,0.2916259765625,-0.9553680419921876,-1.054694890975952,-3.659479141235352,-1.493648290634155,39.03195190429688,96.9868621826172,-29.89651489257812
180657,0.0275115966796875,0.65277099609375,0.8123931884765625,-1.263060808181763,-0.6801974177360535,-1.540741801261902,36.62222290039062,97.64802551269533,-28.49839782714844
180658,0.0976104736328125,1.444854736328125,0.913482666015625,-1.613252401351929,1.85070788860321,-1.822237849235535,35.06773376464844,97.867919921875,-28.0247802734375
180659,0.284210205078125,3.554580688476562,0.6085968017578125,-1.540690302848816,0.6871240735054016,-0.6781846284866333,33.87715148925781,98.01466369628906,-27.80815124511719
180660,0.284210205078125,3.554580688476562,0.6085968017578125,-1.540690302848816,0.6871240735054016,-0.6781846284866333,33.87715148925781,98.01466369628906,-27.80815124511719
180661,-0.5414886474609375,7.163360595703125,0.674407958984375,-0.7202220559120178,-2.002755880355835,-0.0169347748160362,32.79756164550781,98.01727294921876,-27.83290100097656
180662,-1.0152587890625,6.795364379882812,1.478683471679688,0.1215836927294731,-1.534843921661377,-0.3896526992321014,32.56834411621094,98.19465637207033,-27.76742553710938
180663,-0.5151824951171875,3.861892700195312,0.850067138671875,0.2134968340396881,-0.2769935131072998,-0.800973653793335,32.53880310058594,98.09782409667967,-27.42364501953125
180664,-0.5151824951171875,3.861892700195312,0.850067138671875,0.2134968340396881,-0.2769935131072998,-0.800973653793335,32.53880310058594,98.09782409667967,-27.42364501953125
180665,-0.0798187255859375,1.079940795898438,-0.5312042236328125,-0.0368472300469875,0.3743192851543427,-0.3405064344406128,32.02101135253906,97.77189636230467,-27.12419128417969
180666,0.196624755859375,0.97869873046875,-1.357086181640625,-0.0465379394590854,-1.51085090637207,0.213261142373085,31.79328918457031,97.64344787597656,-27.00703430175781
180667,0.3618011474609375,1.63714599609375,-0.504425048828125,0.3048049211502075,-1.990277767181396,0.4709901511669159,31.53236389160156,97.47293090820312,-26.87188720703125
180668,0.3618011474609375,1.63714599609375,-0.504425048828125,0.3048049211502075,-1.990277767181396,0.4709901511669159,31.53236389160156,97.47293090820312,-26.87188720703125
180669,0.477386474609375,2.1163330078125,0.0617828369140625,0.7842910885810852,-0.3869442641735077,1.178313732147217,31.3955078125,97.6092529296875,-26.2755126953125
180670,0.4147796630859375,2.114898681640625,-0.042755126953125,0.691728949546814,-0.1131252199411392,1.179674863815308,31.59709167480469,97.5006103515625,-26.14372253417969
180671,0.30584716796875,2.025421142578125,-0.0241851806640625,0.6255350112915039,-0.1285270899534225,0.9799087643623352,32.07624816894531,97.4962158203125,-26.27603149414062
180672,0.1278228759765625,1.833633422851562,0.0351104736328125,0.6552625298500061,-0.3016812801361084,0.7155770063400269,32.7855224609375,97.46229553222656,-26.52897644042969
180673,-0.05499267578125,1.550094604492188,0.139068603515625,0.7590906620025635,-0.4093244075775146,0.5581093430519104,33.35054016113281,97.44577026367188,-26.722412109375
180674,-0.1552886962890625,1.279373168945312,0.146636962890625,0.8885924816131592,-0.5364458560943604,0.5072160959243774,33.82240295410156,97.40724182128906,-27.02566528320312
180675,-0.2046051025390625,1.0389404296875,0.1415557861328125,1.031837463378906,-0.7471096515655518,0.4677016735076904,34.21591186523438,97.30453491210938,-27.24526977539062
180676,-0.2046051025390625,1.0389404296875,0.1415557861328125,1.031837463378906,-0.7471096515655518,0.4677016735076904,34.21591186523438,97.30453491210938,-27.24526977539062
180677,-0.2046966552734375,0.6623687744140625,0.190185546875,1.306907892227173,-0.9261795282363892,0.4095105528831482,34.84886169433594,96.9362335205078,-27.660400390625
180678,-0.1915283203125,0.4817352294921875,0.061981201171875,1.292105317115784,-0.9772520065307616,0.351097583770752,35.10675048828125,96.7288818359375,-28.06510925292969
180679,-0.1858367919921875,0.3079071044921875,-0.1469268798828125,1.158187985420227,-1.293231248855591,0.2775849997997284,35.22421264648438,96.70710754394533,-28.48957824707031
180680,-0.1658782958984375,0.1477203369140625,-0.2729644775390625,0.980607569217682,-1.768528342247009,0.190413624048233,35.27333068847656,96.5414581298828,-28.9273681640625
180681,-0.1363372802734375,0.002288818359375,-0.32196044921875,0.8231918811798096,-2.14439868927002,0.1058236360549927,35.17364501953125,96.32209777832033,-29.31411743164062
180682,-0.0892181396484375,-0.1489105224609375,-0.3689727783203125,0.7595774531364441,-2.279061555862427,0.077293187379837,35.06451416015625,96.09797668457033,-29.39360046386719
180683,-0.02630615234375,-0.2872314453125,-0.4022216796875,0.8557026982307434,-2.057228565216064,0.168390080332756,34.65693664550781,96.09991455078124,-29.65611267089844
180684,0.05120849609375,-0.351470947265625,-0.27752685546875,0.9757758378982544,-1.00766396522522,0.2831994891166687,34.21681213378906,96.11746215820312,-29.66310119628906
180685,0.1485595703125,-0.285247802734375,-0.067626953125,1.096881985664368,0.3087138831615448,0.3656029999256134,33.81228637695312,96.2577667236328,-29.69308471679688
180686,0.1867523193359375,-0.093780517578125,0.14263916015625,1.178208827972412,1.055757522583008,0.3706909716129303,33.60037231445312,96.2660675048828,-29.75349426269531
180687,0.1527099609375,0.057373046875,0.2460174560546875,1.101435422897339,1.546245217323303,0.3248992562294006,33.75401306152344,96.08992004394533,-30.11994934082031
180688,0.1527099609375,0.057373046875,0.2460174560546875,1.101435422897339,1.546245217323303,0.3248992562294006,33.75401306152344,96.08992004394533,-30.11994934082031
180689,0.09991455078125,0.0990142822265625,0.00634765625,0.3674155473709106,0.7516119480133057,0.073226012289524,34.4639892578125,95.71978759765624,-31.47732543945312
180690,0.09405517578125,0.044708251953125,-0.0592193603515625,0.28067746758461,0.0633795037865638,-0.0333880521357059,34.93165588378906,95.69761657714844,-32.08021545410156
180691,0.080718994140625,-0.029022216796875,-0.071319580078125,0.2286560833454132,-0.4825610518455505,-0.1313537657260895,35.32232666015625,95.54362487792967,-32.48309326171875
180692,0.080718994140625,-0.029022216796875,-0.071319580078125,0.2286560833454132,-0.4825610518455505,-0.1313537657260895,35.32232666015625,95.54362487792967,-32.48309326171875
180693,0.0469818115234375,-0.1201019287109375,-0.13092041015625,0.154538169503212,-0.8924095630645752,-0.1883763074874878,35.74018859863281,95.242431640625,-32.90518188476562
180694,0.0482940673828125,-0.13507080078125,-0.182647705078125,0.0664445385336875,-1.202063798904419,-0.2026313990354538,35.74330139160156,95.11595153808594,-32.9180908203125
180695,0.044708251953125,-0.1386566162109375,-0.213958740234375,-0.0152295529842376,-1.411153435707092,-0.1926490813493729,35.5531005859375,95.1728515625,-32.94364929199219
180696,0.0374298095703125,-0.1443328857421875,-0.2501373291015625,-0.1031748577952385,-1.510208368301392,-0.1713057011365891,35.20835876464844,95.1012725830078,-32.75631713867188
180697,0.0241851806640625,-0.176116943359375,-0.2620849609375,-0.2535374760627747,-1.422506213188171,-0.1553469747304916,34.84310913085938,95.25604248046876,-32.46586608886719
180698,-0.0202484130859375,-0.2651214599609375,-0.1583099365234375,-0.6306045651435852,-0.3578377664089203,-0.2154121845960617,34.5135498046875,95.3529815673828,-32.04258728027344
180699,-0.03887939453125,-0.2581939697265625,-0.28485107421875,-1.031887531280518,0.6523993611335754,-0.2792529463768005,34.18402099609375,95.4867706298828,-31.57278442382812
180700,-0.0333404541015625,-0.1576995849609375,-0.2687835693359375,-1.17743992805481,0.5438859462738037,-0.3877900838851929,33.98179626464844,95.68206787109376,-31.16990661621094
180701,-0.06292724609375,-0.042999267578125,-0.1363525390625,-1.17743992805481,0.5438859462738037,-0.3877900838851929,34.10435485839844,95.6004638671875,-30.55577087402344
180702,-0.076568603515625,0.079345703125,-0.0460052490234375,-1.119369506835938,0.5610268115997314,-0.5311445593833923,34.17333984375,95.58628845214844,-29.98301696777344
180703,-0.0522308349609375,0.1255035400390625,-0.075653076171875,-1.064731001853943,0.5506349205970764,-0.6266322135925293,34.22361755371094,95.72669982910156,-29.47354125976562
180704,-0.0522308349609375,0.1255035400390625,-0.075653076171875,-1.064731001853943,0.5506349205970764,-0.6266322135925293,34.22361755371094,95.72669982910156,-29.47354125976562
180705,0.0272064208984375,0.21466064453125,0.0034027099609375,-1.117856502532959,0.1584543585777283,-0.7552444934844971,33.886962890625,96.10896301269533,-28.57876586914062
180706,0.0272064208984375,0.21466064453125,0.0034027099609375,-1.117856502532959,0.1584543585777283,-0.7552444934844971,33.886962890625,96.10896301269533,-28.57876586914062
180707,0.091094970703125,0.5809478759765625,0.60430908203125,-1.454890727996826,2.169708490371704,-0.3429493606090546,33.34266662597656,96.2831573486328,-27.91162109375
180708,0.14324951171875,2.281875610351562,0.79559326171875,-1.454890727996826,2.169708490371704,-0.3429493606090546,32.88713073730469,96.47688293457033,-27.69197082519531
180709,-0.070404052734375,3.838058471679688,0.893707275390625,-1.051830887794495,1.760470628738403,0.1309606730937958,32.51252746582031,96.67434692382812,-27.8043212890625
180710,-0.5229644775390625,4.919082641601562,0.8448028564453125,-1.051830887794495,1.760470628738403,0.1309606730937958,32.44035339355469,96.90798950195312,-28.09246826171875
180711,-0.857147216796875,5.42083740234375,0.7892303466796875,-0.5698016881942749,0.4373078346252441,-0.603047251701355,32.68106079101562,97.09715270996094,-28.26161193847656
180712,-0.8853759765625,4.885848999023438,0.8641204833984375,-0.4133982360363007,-0.493167370557785,-1.058493852615356,33.10128784179688,97.18887329101562,-28.27456665039062
180713,-0.531036376953125,3.425399780273438,0.7017364501953125,-0.9020068049430848,-0.9637657403945924,-1.053358793258667,33.24552917480469,97.21817016601562,-28.10685729980469
180714,-0.292236328125,2.309860229492188,0.4631805419921875,-1.26802659034729,-0.726993978023529,-0.8985785245895386,32.930419921875,97.18182373046876,-27.87660217285156
180715,-0.0984344482421875,1.73583984375,-0.2766571044921875,-1.343956470489502,-0.6055668592453003,-0.5438593029975891,32.36383056640625,97.13395690917967,-27.41302490234375
180716,0.1082611083984375,1.815902709960938,-1.022186279296875,-1.253063082695007,-1.865386366844177,-0.027441743761301,31.76065063476562,97.09500122070312,-26.7298583984375
180717,0.253753662109375,2.281280517578125,-0.3193511962890625,-0.6122474074363708,-1.62371301651001,0.3650618493556976,31.1558837890625,97.10687255859376,-25.95443725585938
180718,0.3868865966796875,2.43084716796875,0.0899505615234375,0.2048857659101486,-0.0930074378848075,0.7170845866203308,30.79594421386719,97.27085876464844,-25.18046569824219
180719,0.3223114013671875,2.342514038085938,-0.0189056396484375,0.7099225521087646,0.4361906349658966,0.7892528176307678,30.63633728027344,97.37025451660156,-24.460693359375
180720,0.3223114013671875,2.342514038085938,-0.0189056396484375,0.7099225521087646,0.4361906349658966,0.7892528176307678,30.63633728027344,97.37025451660156,-24.460693359375
180721,0.215667724609375,1.825546264648438,0.085235595703125,0.3217130601406097,-0.133013442158699,0.6800738573074341,31.16549682617188,97.25831604003906,-24.05207824707031
180722,0.167449951171875,1.5889892578125,0.068206787109375,0.3217130601406097,-0.133013442158699,0.6800738573074341,31.65484619140625,97.18556213378906,-24.39315795898438
180723,0.1383209228515625,1.399017333984375,0.000762939453125,0.2339302003383636,-0.3769968152046204,0.6636581420898438,32.07621765136719,97.03125,-24.67488098144531
180724,0.1383209228515625,1.399017333984375,0.000762939453125,0.2339302003383636,-0.3769968152046204,0.6636581420898438,32.07621765136719,97.03125,-24.67488098144531
180725,0.041168212890625,1.023300170898438,0.009063720703125,0.437100350856781,-0.7276166081428528,0.6895379424095154,32.94403076171875,96.90797424316406,-24.68804931640625
180726,-0.012115478515625,0.840087890625,-0.0195159912109375,0.625528872013092,-0.7419566512107849,0.718849241733551,33.28514099121094,96.9800262451172,-24.61354064941406
180727,-0.0559844970703125,0.65869140625,-0.078277587890625,0.7803999185562134,-0.7568722367286682,0.7028012871742249,33.51385498046875,97.14198303222656,-24.73880004882812
180728,-0.0937042236328125,0.4932708740234375,-0.1246185302734375,0.8727357387542725,-0.7980665564537048,0.6397895812988281,33.77890014648438,97.2473602294922,-25.03913879394531
180729,-0.128021240234375,0.36004638671875,-0.14678955078125,0.8868963122367859,-0.8455640077590942,0.5211057662963867,33.96955871582031,97.32911682128906,-25.24165344238281
180730,-0.139984130859375,0.2265625,-0.1809234619140625,0.8463866710662842,-0.9367490410804749,0.3665114045143127,34.25614929199219,97.29168701171876,-25.49128723144531
180731,-0.153228759765625,0.099639892578125,-0.2328338623046875,0.7843227982521057,-1.091221451759338,0.2093670666217804,34.42562866210938,97.16819763183594,-25.59870910644531
180732,-0.168609619140625,-0.0503387451171875,-0.284576416015625,0.7132829427719116,-1.264457941055298,0.0729066953063011,34.49603271484375,97.23304748535156,-26.01792907714844
180733,-0.20599365234375,-0.228118896484375,-0.2976531982421875,0.6070390939712524,-1.186229228973389,0.008005728945136,34.48870849609375,97.2833251953125,-26.33905029296875
180734,-0.1573944091796875,-0.3517303466796875,-0.283660888671875,0.4899683594703674,-0.6359093189239502,0.0218965094536542,34.37680053710938,97.29249572753906,-26.463134765625
180735,0.0125579833984375,-0.29620361328125,-0.248016357421875,0.5256086587905884,-0.3229279816150665,0.033434122800827,34.33457946777344,97.11502075195312,-26.49028015136719
180736,0.113128662109375,-0.1971893310546875,-0.086700439453125,0.6990925669670105,-0.2813001275062561,0.014748053625226,34.32646179199219,97.025390625,-26.65962219238281
180737,0.135345458984375,-0.1355743408203125,0.0589599609375,0.8575155138969421,-0.1774959564208984,-0.030215959995985,34.33106994628906,96.96780395507812,-26.79524230957031
180738,0.133758544921875,-0.1067352294921875,0.0919189453125,0.9205855131149292,-0.0268305484205484,-0.0632119923830032,34.31697082519531,96.83338928222656,-26.8990478515625
180739,0.1316070556640625,-0.10076904296875,0.0380706787109375,0.848188579082489,-0.0527207367122173,-0.0728470459580421,34.2933349609375,96.66995239257812,-27.27030944824219
180740,0.1316070556640625,-0.10076904296875,0.0380706787109375,0.848188579082489,-0.0527207367122173,-0.0728470459580421,34.2933349609375,96.66995239257812,-27.27030944824219
180741,0.130035400390625,-0.1118011474609375,-0.0828857421875,0.7843672633171082,-0.2501624226570129,-0.0737903341650962,34.11585998535156,96.69216918945312,-27.72267150878906
180742,0.1340789794921875,-0.1262054443359375,-0.1169586181640625,0.72199946641922,-0.4714527428150177,-0.0679018199443817,34.05615234375,96.59060668945312,-27.91091918945312
180743,0.1383514404296875,-0.137664794921875,-0.1486968994140625,0.6596988439559937,-0.7336090207099915,-0.0679582804441452,33.91793823242188,96.55984497070312,-28.03446960449219
180744,0.1383514404296875,-0.137664794921875,-0.1486968994140625,0.6596988439559937,-0.7336090207099915,-0.0679582804441452,33.91793823242188,96.55984497070312,-28.03446960449219
180745,0.140106201171875,-0.150726318359375,-0.025054931640625,0.4753239154815674,-0.807778537273407,-0.1128035113215446,33.52593994140625,96.24964904785156,-27.7618408203125
180746,0.1355743408203125,-0.149017333984375,0.037200927734375,0.3366113007068634,-0.6051580905914307,-0.1554074287414551,33.5421142578125,95.9988250732422,-27.76469421386719
180747,0.1239471435546875,-0.1324615478515625,0.082855224609375,0.163130059838295,-0.4354569315910339,-0.1979450434446335,33.39724731445312,95.90176391601562,-27.59027099609375
180748,0.1239471435546875,-0.1324615478515625,0.082855224609375,0.163130059838295,-0.4354569315910339,-0.1979450434446335,33.39724731445312,95.90176391601562,-27.59027099609375
180749,0.0697174072265625,-0.0322113037109375,0.1506500244140625,-0.3456074595451355,-0.2304901927709579,-0.366379052400589,33.12115478515625,95.52931213378906,-27.14900207519531
180750,0.01544189453125,0.130096435546875,0.1902923583984375,-0.675292432308197,-0.1783196777105331,-0.614176869392395,33.07460021972656,95.40115356445312,-26.86968994140625
180751,-0.0132293701171875,0.1973876953125,0.2342376708984375,-1.005955338478088,-0.0840435028076171,-0.8259921669960022,32.81005859375,95.49037170410156,-26.7044677734375
180752,-0.0132293701171875,0.1973876953125,0.2342376708984375,-1.005955338478088,-0.0840435028076171,-0.8259921669960022,32.81005859375,95.49037170410156,-26.7044677734375
180753,-0.027069091796875,0.489837646484375,0.584259033203125,-1.82043993473053,0.3641505241394043,-1.358940243721008,32.06535339355469,95.4959716796875,-25.79879760742188
180754,-0.010711669921875,0.6995697021484375,0.94415283203125,-2.4656822681427,1.322923898696899,-1.815217018127441,31.42295837402344,95.6340789794922,-25.389404296875
180755,-0.1797637939453125,1.588409423828125,1.001373291015625,-2.857445001602173,2.149226665496826,-2.412081718444824,30.72502136230469,95.73284912109376,-24.86056518554688
180756,-0.1797637939453125,1.588409423828125,1.001373291015625,-2.857445001602173,2.149226665496826,-2.412081718444824,30.72502136230469,95.73284912109376,-24.86056518554688
180757,-0.366180419921875,5.309036254882812,0.5034027099609375,-1.143426060676575,0.3186599910259247,-3.30657696723938,28.98699951171875,95.76455688476562,-24.59603881835938
180758,-0.6262359619140625,6.971298217773438,1.156265258789062,0.4973916709423065,-1.213986754417419,-0.9165031909942628,27.86453247070312,95.62443542480467,-24.61500549316406
180759,-1.295364379882812,6.084609985351562,1.29486083984375,2.331490039825439,-0.2823842763900757,-0.0173835176974535,27.11212158203125,95.60850524902344,-25.12483215332031
180760,-1.295364379882812,6.084609985351562,1.29486083984375,2.331490039825439,-0.2823842763900757,-0.0173835176974535,27.11212158203125,95.60850524902344,-25.12483215332031
180761,-0.299468994140625,1.58587646484375,-0.03692626953125,0.9164592623710632,-3.508988380432129,-1.052350282669067,27.05561828613281,94.7529754638672,-26.14389038085938
180762,-0.299468994140625,1.58587646484375,-0.03692626953125,0.9164592623710632,-3.508988380432129,-1.052350282669067,27.05561828613281,94.7529754638672,-26.14389038085938
180763,-0.2755584716796875,0.790771484375,0.6908416748046875,-2.644804954528809,-3.502673149108887,-1.231234788894653,25.93919372558594,93.04403686523438,-24.95742797851562
180764,-0.3191986083984375,1.259628295898438,0.812774658203125,-2.644804954528809,-3.502673149108887,-1.231234788894653,24.77049255371094,92.7010498046875,-22.84922790527344
180765,-0.2694549560546875,2.093582153320312,-0.8678741455078125,-2.483426809310913,-0.8026825785636902,-0.1890969574451447,23.63784790039062,92.638916015625,-20.82176208496094
180766,0.0607757568359375,2.840866088867188,-2.84710693359375,-0.0817388072609901,-3.743374347686768,0.5107240080833435,22.95420837402344,92.6848602294922,-18.94087219238281
180767,0.0805206298828125,2.5662841796875,-0.1578521728515625,1.970159649848938,-2.230944871902466,0.6532403826713562,22.77336120605469,92.759521484375,-17.70159912109375
180768,0.0805206298828125,2.5662841796875,-0.1578521728515625,1.970159649848938,-2.230944871902466,0.6532403826713562,22.77336120605469,92.759521484375,-17.70159912109375
180769,-0.064544677734375,1.892654418945312,0.280181884765625,2.143541812896729,0.7793698310852051,0.6051831245422363,23.28744506835938,92.77548217773438,-17.38108825683594
180770,-0.14410400390625,1.742691040039062,0.1990814208984375,1.575686693191528,0.938135266304016,0.4819559752941132,23.82820129394531,92.56071472167967,-18.14340209960938
180771,-0.2147216796875,1.499832153320312,0.1252288818359375,1.147388100624084,0.7233124375343323,0.2867196500301361,24.42726135253906,92.3996124267578,-19.14382934570312
180772,-0.2147216796875,1.499832153320312,0.1252288818359375,1.147388100624084,0.7233124375343323,0.2867196500301361,24.42726135253906,92.3996124267578,-19.14382934570312
180773,-0.2219390869140625,0.900421142578125,0.0194244384765625,1.147040724754333,-0.2966596186161041,0.1798017174005508,25.19187927246094,92.20832824707033,-20.45265197753906
180774,-0.1915435791015625,0.6605072021484375,0.0229339599609375,1.335880517959595,-0.6989338397979736,0.2538229525089264,25.43316650390625,92.13136291503906,-20.92044067382812
180775,-0.1767120361328125,0.4801025390625,0.0412139892578125,1.489951252937317,-0.8417429327964783,0.3280028998851776,25.556884765625,92.11561584472656,-21.49031066894531
180776,-0.1767120361328125,0.4801025390625,0.0412139892578125,1.489951252937317,-0.8417429327964783,0.3280028998851776,25.556884765625,92.11561584472656,-21.49031066894531
180777,-0.1679840087890625,0.12652587890625,0.0495758056640625,1.512007594108582,-0.4865472912788391,0.4650102853775024,25.67247009277344,92.18951416015624,-22.21080017089844
180778,-0.1536102294921875,-0.0280914306640625,0.0217132568359375,1.401273369789124,-0.0730696842074394,0.5713263750076294,25.77156066894531,92.24430847167967,-22.79330444335938
180779,-0.1215057373046875,-0.13201904296875,-0.0695648193359375,1.281436443328857,0.2855145633220673,0.6856191158294678,25.99261474609375,92.26756286621094,-23.35354614257812
180780,-0.0666046142578125,-0.2009429931640625,-0.24871826171875,1.240921258926392,0.3444167673587799,0.7937692999839783,26.28953552246094,92.13499450683594,-23.60282897949219
180781,0.013580322265625,-0.2823638916015625,-0.6135101318359375,1.312144994735718,-0.2735503315925598,0.9763146042823792,26.59410095214844,92.19863891601562,-24.10829162597656
180782,0.0554656982421875,-0.284912109375,-0.610076904296875,1.359012126922607,-1.285747051239014,1.180336475372314,26.90838623046875,92.21363830566406,-24.57157897949219
180783,0.03460693359375,-0.2047271728515625,-0.1079864501953125,1.279450178146362,-1.469707250595093,1.256106495857239,27.176513671875,92.46572875976562,-24.93577575683594
180784,0.03460693359375,-0.2047271728515625,-0.1079864501953125,1.279450178146362,-1.469707250595093,1.256106495857239,27.176513671875,92.46572875976562,-24.93577575683594
180785,0.026031494140625,-0.17303466796875,0.314697265625,0.7592882513999939,0.215750128030777,1.165823817253113,27.64031982421875,93.17396545410156,-24.86819458007812
180786,0.045654296875,-0.1815643310546875,0.216217041015625,0.547000527381897,0.8522464036941528,1.110060930252075,28.02349853515625,93.61257934570312,-24.89239501953125
180787,0.061279296875,-0.205474853515625,0.0082244873046875,0.4179972410202026,1.009507417678833,1.071616649627686,28.73007202148438,93.81248474121094,-24.83651733398438
180788,0.061279296875,-0.205474853515625,0.0082244873046875,0.4179972410202026,1.009507417678833,1.071616649627686,28.73007202148438,93.81248474121094,-24.83651733398438
180789,0.0845489501953125,-0.262786865234375,-0.2617340087890625,0.461453378200531,0.0994999557733535,1.078211426734924,30.48419189453125,93.88546752929688,-24.54002380371094
180790,0.0989227294921875,-0.2900848388671875,-0.1876068115234375,0.456969678401947,-0.3216419517993927,1.056570529937744,31.29513549804688,93.55624389648438,-24.31510925292969
180791,0.12713623046875,-0.3287811279296875,-0.0458831787109375,0.0452961102128028,0.3027140498161316,0.8779379725456238,32.075439453125,93.17710876464844,-24.17434692382812
180792,0.12713623046875,-0.3287811279296875,-0.0458831787109375,0.0452961102128028,0.3027140498161316,0.8779379725456238,32.075439453125,93.17710876464844,-24.17434692382812
180793,0.1622772216796875,-0.2846832275390625,-0.15765380859375,-0.2488822489976883,0.3737666606903076,0.5844584107398987,32.95051574707031,92.51805114746094,-23.91868591308594
180794,0.1621856689453125,-0.2351837158203125,0.024993896484375,-0.2734081149101257,0.39992955327034,0.4265710115432739,33.08209228515625,92.21975708007812,-23.66336059570312
180795,0.1629791259765625,-0.1966094970703125,0.08740234375,-0.3956610560417175,0.4864676594734192,0.2170505523681641,33.01109313964844,92.20730590820312,-23.67796325683594
180796,0.1629791259765625,-0.1966094970703125,0.08740234375,-0.3956610560417175,0.4864676594734192,0.2170505523681641,33.01109313964844,92.20730590820312,-23.67796325683594
180797,0.16827392578125,-0.1815338134765625,0.0457000732421875,-0.8875617980957031,0.42521733045578,-0.2344654947519302,32.66108703613281,92.23069763183594,-23.60897827148438
180798,0.1685333251953125,-0.183135986328125,-0.0191497802734375,-1.185415387153625,0.0822994038462638,-0.4116509258747101,32.4176025390625,92.35415649414062,-23.38638305664062
180799,0.167236328125,-0.1315155029296875,-0.0425567626953125,-1.491479396820068,-0.4750051498413086,-0.5156012773513794,32.20993041992188,92.34783935546876,-22.96261596679688
180800,0.167236328125,-0.1315155029296875,-0.0425567626953125,-1.491479396820068,-0.4750051498413086,-0.5156012773513794,32.20993041992188,92.34783935546876,-22.96261596679688
180801,0.0126495361328125,0.1988525390625,0.287384033203125,-2.036680221557617,-0.9539642930030824,-0.6053453087806702,31.72419738769531,92.54415893554688,-21.80584716796875
180802,0.0020294189453125,0.2284698486328125,0.510040283203125,-2.347057342529297,-0.5530371069908142,-0.6888953447341919,31.55696105957031,92.60891723632812,-20.90495300292969
180803,-0.0094757080078125,0.280609130859375,0.707061767578125,-2.614841461181641,0.1460155248641968,-0.7835595011711121,31.33509826660156,92.7984619140625,-19.81935119628906
180804,-0.0094757080078125,0.280609130859375,0.707061767578125,-2.614841461181641,0.1460155248641968,-0.7835595011711121,31.33509826660156,92.7984619140625,-19.81935119628906
180805,-0.0563812255859375,0.54339599609375,1.042083740234375,-2.617915391921997,1.280273675918579,-1.192001104354858,30.88865661621094,93.61085510253906,-17.50765991210938
180806,-0.1865692138671875,1.139205932617188,1.278961181640625,-2.387010335922241,0.0402052104473114,-1.869859933853149,30.47268676757812,94.13322448730467,-16.61222839355469
180807,-0.2958526611328125,2.818511962890625,1.311370849609375,-1.472951769828796,-0.6086263060569763,-1.297994375228882,29.84968566894531,94.64231872558594,-16.41201782226562
180808,-0.2958526611328125,2.818511962890625,1.311370849609375,-1.472951769828796,-0.6086263060569763,-1.297994375228882,29.84968566894531,94.64231872558594,-16.41201782226562
180809,-1.60565185546875,8.125274658203125,2.678924560546875,-0.4592789113521576,1.80280077457428,1.74061918258667,28.79852294921875,95.35018920898438,-17.94532775878906
180810,-2.027145385742188,7.280685424804688,1.329330444335938,1.142543196678162,6.543865203857422,0.1382670551538467,28.99737548828125,95.74334716796876,-19.36534118652344
180811,-0.5645294189453125,3.113922119140625,-2.62139892578125,0.8537372946739197,3.144438982009888,-1.667190551757812,29.83515930175781,95.89109802246094,-20.39599609375
180812,-0.5645294189453125,3.113922119140625,-2.62139892578125,0.8537372946739197,3.144438982009888,-1.667190551757812,29.83515930175781,95.89109802246094,-20.39599609375
180813,-0.361236572265625,0.3140411376953125,0.5296173095703125,-3.037282943725586,-4.420566082000732,-2.084560871124268,29.11376953125,95.33786010742188,-20.79588317871094
180814,0.0378265380859375,0.5413970947265625,0.6051483154296875,-3.316724538803101,-0.4680002331733704,-1.033082246780396,27.52583312988281,94.97340393066406,-19.05262756347656
180815,0.3600311279296875,1.139678955078125,0.008056640625,0.4937207698822021,-0.497803121805191,1.205368280410767,26.28773498535156,94.47659301757812,-16.80868530273438
180816,0.3600311279296875,1.139678955078125,0.008056640625,0.4937207698822021,-0.497803121805191,1.205368280410767,26.28773498535156,94.47659301757812,-16.80868530273438
180817,0.453338623046875,1.960693359375,-0.1334381103515625,1.745302557945251,-0.3913853466510773,1.544372916221619,25.85836791992188,93.89569091796876,-14.34754943847656
180818,0.478759765625,1.926895141601562,-0.078094482421875,1.772039890289307,-0.15117247402668,1.711731314659119,26.12199401855469,93.9945831298828,-14.36679077148438
180819,0.3732757568359375,1.847885131835938,0.108673095703125,0.8690778613090515,0.6052603721618652,1.230340480804443,26.65739440917969,94.38624572753906,-14.83837890625
180820,0.3732757568359375,1.847885131835938,0.108673095703125,0.8690778613090515,0.6052603721618652,1.230340480804443,26.65739440917969,94.38624572753906,-14.83837890625
180821,0.203826904296875,1.487762451171875,0.09942626953125,0.6505687236785889,0.4988667964935303,0.8785116076469421,27.94920349121094,95.207763671875,-16.00021362304688
180822,0.1222686767578125,1.143768310546875,0.0519561767578125,0.7867236137390137,-0.2338942587375641,0.6883562803268433,28.51542663574219,95.34585571289062,-16.38699340820312
180823,0.0688629150390625,0.8648529052734375,-0.000244140625,0.7867236137390137,-0.2338942587375641,0.6883562803268433,29.06806945800781,95.4324951171875,-16.74345397949219
180824,0.0688629150390625,0.8648529052734375,-0.000244140625,0.7867236137390137,-0.2338942587375641,0.6883562803268433,29.06806945800781,95.4324951171875,-16.74345397949219
180825,0.039794921875,0.47918701171875,0.0396575927734375,1.142064094543457,-1.120125770568848,0.8783233165740967,30.01678466796875,95.51419067382812,-17.13710021972656
180826,0.0295867919921875,0.3600921630859375,0.0498046875,1.142064094543457,-1.120125770568848,0.8783233165740967,30.44674682617188,95.57469177246094,-17.22218322753906
180827,0.0113983154296875,0.2573394775390625,-0.0135650634765625,0.9905262589454652,-1.42682957649231,0.7628491520881653,30.69660949707031,95.70388793945312,-17.51339721679688
180828,0.0113983154296875,0.2573394775390625,-0.0135650634765625,0.9905262589454652,-1.42682957649231,0.7628491520881653,30.69660949707031,95.70388793945312,-17.51339721679688
180829,-0.05145263671875,0.0543975830078125,-0.2062225341796875,0.7477671504020691,-1.915475964546204,0.453235924243927,31.41352844238281,96.1248779296875,-18.18023681640625
180830,-0.070281982421875,-0.060211181640625,-0.296051025390625,0.7477671504020691,-1.915475964546204,0.453235924243927,31.75474548339844,96.1329345703125,-18.32841491699219
180831,-0.069427490234375,-0.1664276123046875,-0.38018798828125,0.7620840668678284,-2.317549228668213,0.317099392414093,31.87808227539062,96.29454040527344,-18.29647827148438
180832,-0.069427490234375,-0.1664276123046875,-0.38018798828125,0.7620840668678284,-2.317549228668213,0.317099392414093,31.87808227539062,96.29454040527344,-18.29647827148438
180833,0.038116455078125,-0.156097412109375,-0.12567138671875,0.8630191683769226,-1.724467396736145,0.2361038774251938,32.05816650390625,96.5392608642578,-18.17544555664062
180834,0.038116455078125,-0.156097412109375,-0.12567138671875,0.8630191683769226,-1.724467396736145,0.2361038774251938,32.05816650390625,96.5392608642578,-18.17544555664062
180835,0.1983795166015625,0.01495361328125,0.12213134765625,1.062369346618652,0.3236491680145264,0.1333663165569305,32.14385986328125,96.71507263183594,-18.14273071289062
180836,0.1454620361328125,0.1091766357421875,0.174407958984375,1.069734573364258,0.6743803024291992,0.1338451504707336,32.30332946777344,96.61935424804688,-18.38719177246094
180837,0.0677490234375,0.170013427734375,0.20318603515625,1.006538271903992,0.7598658800125122,0.1355381160974503,32.38037109375,96.548828125,-18.8966064453125
180838,0.002593994140625,0.19403076171875,0.2239990234375,0.9316933155059814,0.7936960458755493,0.1297811716794968,32.63214111328125,96.55632019042967,-19.44776916503906
180839,-0.05078125,0.1585845947265625,0.1923370361328125,0.8710060119628906,0.8547082543373108,0.0772148966789245,32.80337524414062,96.58779907226562,-20.10322570800781
180840,-0.05078125,0.1585845947265625,0.1923370361328125,0.8710060119628906,0.8547082543373108,0.0772148966789245,32.80337524414062,96.58779907226562,-20.10322570800781
180841,-0.05963134765625,0.0095062255859375,0.090057373046875,0.7354859709739685,0.7549795508384705,-0.0726521015167236,33.2161865234375,96.66844177246094,-21.07136535644531
180842,-0.0433807373046875,-0.0356597900390625,0.0827178955078125,0.6258100867271423,0.641077995300293,-0.1301129907369614,33.47209167480469,96.67469787597656,-21.56304931640625
180843,-0.0345001220703125,-0.057220458984375,0.0801849365234375,0.4692761301994324,0.4952473044395447,-0.1832726150751114,33.43118286132812,96.73779296875,-21.85011291503906
180844,-0.0280914306640625,-0.0704803466796875,0.0816192626953125,0.2861923575401306,0.3238017559051514,-0.2372775375843048,33.54179382324219,96.61734008789062,-22.27748107910156
180845,-0.023834228515625,-0.07977294921875,0.09735107421875,0.0858581811189651,0.1478323340415955,-0.2931812703609467,33.5521240234375,96.6759796142578,-22.54193115234375
180846,-0.02178955078125,-0.0820770263671875,0.111724853515625,-0.1286764889955521,-0.0016660735709592,-0.3507500290870667,33.50653076171875,96.50822448730467,-22.74560546875
180847,-0.01629638671875,-0.082000732421875,0.1141815185546875,-0.3304769694805145,-0.1191879063844681,-0.4063283503055573,33.408935546875,96.57162475585938,-22.72395324707031
180848,-0.01629638671875,-0.082000732421875,0.1141815185546875,-0.3304769694805145,-0.1191879063844681,-0.4063283503055573,33.408935546875,96.57162475585938,-22.72395324707031
180849,-0.0106353759765625,-0.0588836669921875,0.109832763671875,-0.967281699180603,-0.40362948179245,-0.6699442863464355,33.08462524414062,96.42814636230467,-22.22337341308594
180850,-0.0163421630859375,0.0290069580078125,0.104339599609375,-0.967281699180603,-0.40362948179245,-0.6699442863464355,32.99372863769531,96.4248504638672,-21.77769470214844
180851,-0.0296478271484375,0.1313934326171875,0.114410400390625,-1.537166953086853,-0.8728382587432861,-0.8283610939979553,32.69664001464844,96.47166442871094,-21.3818359375
180852,-0.0296478271484375,0.1313934326171875,0.114410400390625,-1.537166953086853,-0.8728382587432861,-0.8283610939979553,32.69664001464844,96.47166442871094,-21.3818359375
180853,-0.1444091796875,0.9439544677734376,0.3577117919921875,-1.730767369270325,-0.9013093113899232,-1.039579629898071,32.0423583984375,96.63406372070312,-20.304443359375
180854,-0.225311279296875,2.128814697265625,0.557952880859375,-1.557796359062195,-0.6007433533668518,-1.471667051315308,31.54142761230469,96.67349243164062,-19.67904663085938
180855,-0.2247772216796875,2.880966186523438,0.7479400634765625,-1.170009255409241,-0.6091280579566956,-1.571771860122681,30.87205505371094,96.78826904296876,-19.08363342285156
180856,-0.2247772216796875,2.880966186523438,0.7479400634765625,-1.170009255409241,-0.6091280579566956,-1.571771860122681,30.87205505371094,96.78826904296876,-19.08363342285156
180857,-0.443328857421875,4.609527587890625,1.216461181640625,-0.3071807026863098,-1.311993479728699,-1.115285754203796,29.359375,96.70198059082033,-18.21615600585938
180858,-0.443328857421875,4.609527587890625,1.216461181640625,-0.3071807026863098,-1.311993479728699,-1.115285754203796,29.359375,96.70198059082033,-18.21615600585938
180859,-0.3322601318359375,2.63922119140625,0.1372833251953125,1.54047703742981,1.176109671592712,-0.4779436588287354,28.22709655761719,96.39698791503906,-17.73054504394531
180860,-0.3322601318359375,2.63922119140625,0.1372833251953125,1.54047703742981,1.176109671592712,-0.4779436588287354,28.22709655761719,96.39698791503906,-17.73054504394531
180861,-0.5300445556640625,1.855911254882812,-0.1915740966796875,-0.9442706108093262,-3.126465082168579,-1.873398780822754,28.28976440429688,96.2908935546875,-18.51814270019531
180862,-0.426116943359375,1.492813110351562,-0.2816619873046875,-0.9442706108093262,-3.126465082168579,-1.873398780822754,28.19805908203125,95.92481994628906,-19.31953430175781
180863,-0.2530517578125,1.822067260742188,-0.460968017578125,-2.102152585983276,-4.620359897613525,-1.616297960281372,27.89816284179688,95.39630126953124,-19.38761901855469
180864,-0.2530517578125,1.822067260742188,-0.460968017578125,-2.102152585983276,-4.620359897613525,-1.616297960281372,27.89816284179688,95.39630126953124,-19.38761901855469
180865,0.271209716796875,2.715469360351562,-1.222274780273438,-2.38856029510498,-3.709545850753784,0.4975565075874329,26.15402221679688,94.6281280517578,-17.00611877441406
180866,0.599395751953125,2.612060546875,-0.8360748291015625,0.205026388168335,-1.603274583816528,1.276548743247986,25.46646118164062,94.40632629394533,-14.6866455078125
180867,0.4109954833984375,2.287567138671875,-0.3165283203125,2.158201932907104,-0.4621335566043854,1.270476460456848,25.32273864746094,94.4678192138672,-12.66249084472656
180868,0.2853851318359375,1.981674194335938,-0.088409423828125,2.65630054473877,0.285313755273819,1.234163999557495,25.76683044433594,94.46652221679688,-11.54090881347656
180869,0.1071319580078125,1.718917846679688,-0.1082916259765625,1.887495994567871,0.519217312335968,0.9219679832458496,26.36894226074219,94.6251220703125,-11.70428466796875
180870,-0.101318359375,1.5509033203125,-0.0264129638671875,1.887495994567871,0.519217312335968,0.9219679832458496,27.07786560058594,94.77369689941406,-12.61822509765625
180871,-0.1767730712890625,1.364028930664062,0.138946533203125,1.553179025650024,0.5526402592658997,0.6329247355461121,27.79512023925781,94.97601318359376,-13.89195251464844
180872,-0.1924285888671875,1.117889404296875,0.20074462890625,1.395465731620789,0.5819337368011475,0.3959774374961853,28.4044189453125,95.03707885742188,-14.96517944335938
180873,-0.18853759765625,0.849365234375,0.1748504638671875,1.343496084213257,0.5399713516235352,0.2619879245758057,28.8463134765625,95.1550750732422,-15.90158081054688
180874,-0.1629791259765625,0.590179443359375,0.1237945556640625,1.311427593231201,0.4284562766551971,0.2201989442110062,29.0985107421875,95.1964874267578,-16.59051513671875
180875,-0.1415557861328125,0.375823974609375,0.0863189697265625,1.2799072265625,0.3208195567131042,0.2290390431880951,29.45401000976562,95.0998992919922,-17.12106323242188
