time_idx,accelerometerAccelerationX(G),accelerometerAccelerationY(G),accelerometerAccelerationZ(G),gyroRotationX(rad/s),gyroRotationY(rad/s),gyroRotationZ(rad/s),magnetometerX(µT),magnetometerY(µT),magnetometerZ(µT)
178816,0.44744873046875,0.5701904296875,-0.673492431640625,0.2392762303352356,-0.5354064106941223,0.5406363606452942,71.03746032714844,96.18064880371094,-25.31649780273438
178817,0.44744873046875,0.5701904296875,-0.673492431640625,0.2392762303352356,-0.5354064106941223,0.5406363606452942,71.03746032714844,96.18064880371094,-25.31649780273438
178818,0.340576171875,1.25103759765625,-0.6961517333984375,-0.1611161828041077,-0.8477011919021606,0.0184226837009191,71.13229370117188,96.2019500732422,-25.76863098144531
178819,0.263702392578125,1.69683837890625,-0.5074615478515625,-0.4568405151367188,-0.7319034934043884,-0.2297061681747437,71.05799865722656,96.16912841796876,-25.93914794921875
178820,0.2429046630859375,2.281036376953125,-0.1269378662109375,-0.7922493815422058,-0.2587796151638031,-0.4965319931507111,70.84635925292969,96.28326416015624,-26.03903198242188
178821,0.2416229248046875,2.812103271484375,0.2901153564453125,-0.9906706213951112,0.3832041025161743,-0.7503048777580261,70.63972473144531,96.52880859375,-26.01507568359375
178822,0.2011871337890625,3.269271850585938,0.489471435546875,-0.9593569040298462,0.927107870578766,-0.9449068307876588,70.36770629882812,96.7855224609375,-25.62040710449219
178823,0.086334228515625,3.675674438476562,0.4812469482421875,-0.8506780862808228,1.099296450614929,-1.050443410873413,70.15191650390625,97.13735961914062,-25.21842956542969
178824,-0.13494873046875,3.709686279296875,0.505340576171875,-0.7601487040519714,0.9333950877189636,-1.0712970495224,69.98727416992188,97.40240478515624,-24.68589782714844
178825,-0.13494873046875,3.709686279296875,0.505340576171875,-0.7601487040519714,0.9333950877189636,-1.0712970495224,69.98727416992188,97.40240478515624,-24.68589782714844
178826,-0.7159576416015625,2.291473388671875,0.545928955078125,-0.1625042259693146,0.4268288314342499,-1.116812348365784,69.79258728027344,97.8486328125,-23.54986572265625
178827,-0.85015869140625,1.660980224609375,0.5656585693359375,0.2051776498556137,0.3897368311882019,-0.9527533054351808,69.64208984375,98.01394653320312,-23.38363647460938
178828,-0.9030609130859376,1.294235229492188,0.5377197265625,0.3045654892921448,0.5179731249809265,-0.4158920049667358,69.44845581054688,98.16032409667967,-23.6483154296875
178829,-0.7513427734375,1.26116943359375,0.3478546142578125,0.131222739815712,0.4868463575839996,0.1538529396057129,69.27085876464844,98.3638916015625,-23.85757446289062
178830,-0.417633056640625,1.562118530273438,0.162689208984375,-0.1452011317014694,-0.0282028764486312,0.3007577061653137,69.26161193847656,98.25843811035156,-23.95082092285156
178831,-0.22528076171875,1.672637939453125,0.1649627685546875,-0.345976859331131,-0.4485319852828979,0.2876168787479401,69.34439086914062,98.19944763183594,-23.91806030273438
178832,-0.106842041015625,1.599563598632812,0.1641082763671875,-0.3921278417110443,-0.6296998858451843,0.3299086689949036,69.32621765136719,98.08737182617188,-23.75732421875
178833,-0.0344085693359375,1.486236572265625,0.1392974853515625,-0.293043315410614,-0.626425564289093,0.3860997557640076,69.44570922851562,98.08502197265624,-23.70445251464844
178834,0.0152587890625,1.37542724609375,0.1118621826171875,-0.1401376724243164,-0.5690581202507019,0.4326787292957306,69.5126953125,97.89291381835938,-23.67012023925781
178835,0.0552978515625,1.273162841796875,0.0905914306640625,-0.0092504899948835,-0.513313353061676,0.4681512117385864,69.60362243652344,97.71731567382812,-23.67855834960938
178836,0.098846435546875,1.15289306640625,0.0376434326171875,0.0839830487966537,-0.5529835820198059,0.5121234655380249,69.73153686523438,97.48030090332033,-23.67498779296875
178837,0.098846435546875,1.15289306640625,0.0376434326171875,0.0839830487966537,-0.5529835820198059,0.5121234655380249,69.73153686523438,97.48030090332033,-23.67498779296875
178838,0.194091796875,0.890899658203125,-0.0531463623046875,0.3455004096031189,-0.880546510219574,0.701745331287384,70.01063537597656,97.1338348388672,-23.80325317382812
178839,0.230621337890625,0.782073974609375,-0.0606842041015625,0.5381300449371338,-0.9938621520996094,0.8191995024681091,70.24012756347656,96.82473754882812,-23.89083862304688
178840,0.243072509765625,0.687591552734375,-0.0650177001953125,0.721688449382782,-1.003546953201294,0.903039813041687,70.4176025390625,96.65872192382812,-24.19682312011719
178841,0.243072509765625,0.687591552734375,-0.0650177001953125,0.721688449382782,-1.003546953201294,0.903039813041687,70.4176025390625,96.65872192382812,-24.19682312011719
178842,0.2584991455078125,0.4561004638671875,-0.1171722412109375,0.9828715324401855,-0.6811103820800781,1.071726322174072,70.82199096679688,96.28379821777344,-25.10371398925781
178843,0.24664306640625,0.3278350830078125,-0.188262939453125,1.072882175445557,-0.2551846206188202,1.174376487731934,71.06758117675781,95.96780395507812,-25.48265075683594
178844,0.2472381591796875,0.181854248046875,-0.320587158203125,0.7907641530036926,1.078107833862305,1.16734254360199,71.41828918457031,95.68994140625,-25.95878601074219
178845,0.2472381591796875,0.181854248046875,-0.320587158203125,0.7907641530036926,1.078107833862305,1.16734254360199,71.41828918457031,95.68994140625,-25.95878601074219
178846,0.2725677490234375,-0.051849365234375,-1.052627563476562,0.5671609044075012,0.451402336359024,1.061140775680542,72.39796447753906,94.93907165527344,-26.48423767089844
178847,0.194061279296875,-0.08184814453125,-0.7125701904296875,0.3230409026145935,-0.0573961809277534,0.923287034034729,73.0399169921875,94.56333923339844,-26.51974487304688
178848,0.1273651123046875,-0.103485107421875,-0.4800262451171875,0.0548813566565513,0.0396307669579982,0.6055466532707214,73.51409912109375,94.15252685546876,-26.58552551269531
178849,0.1273651123046875,-0.103485107421875,-0.4800262451171875,0.0548813566565513,0.0396307669579982,0.6055466532707214,73.51409912109375,94.15252685546876,-26.58552551269531
178850,0.05950927734375,-0.21466064453125,-0.466949462890625,0.0002386192354606,0.2827211916446686,0.4869443476200104,74.35530090332031,93.57179260253906,-26.66836547851562
178851,0.0542144775390625,-0.2595672607421875,-0.5114898681640625,-0.0802317187190055,0.5090875029563904,0.3816903829574585,74.71995544433594,93.45710754394533,-26.69622802734375
178852,0.055389404296875,-0.26116943359375,-0.526092529296875,-0.1333223730325699,0.4382772147655487,0.3158756792545319,75.08070373535156,93.29075622558594,-26.47909545898438
178853,0.055389404296875,-0.26116943359375,-0.526092529296875,-0.1333223730325699,0.4382772147655487,0.3158756792545319,75.08070373535156,93.29075622558594,-26.47909545898438
178854,0.0453948974609375,-0.2302093505859375,-0.4126434326171875,-0.2047779113054276,0.3702134788036346,0.221635714173317,75.57073974609375,93.044677734375,-26.05052185058594
178855,0.0346221923828125,-0.203826904296875,-0.32672119140625,-0.2836655378341675,0.368774026632309,0.0944692492485046,75.77548217773438,92.97482299804688,-25.88642883300781
178856,0.0221710205078125,-0.158782958984375,-0.2149200439453125,-0.3317731320858002,0.4458121061325073,-0.059528574347496,75.97891235351562,93.1785125732422,-25.78329467773438
178857,0.0221710205078125,-0.158782958984375,-0.2149200439453125,-0.3317731320858002,0.4458121061325073,-0.059528574347496,75.97891235351562,93.1785125732422,-25.78329467773438
178858,0.02276611328125,-0.045989990234375,-0.084442138671875,-0.4502768814563751,0.7812542915344238,-0.4198116660118103,76.08587646484375,93.1439208984375,-25.12315368652344
178859,0.0067901611328125,0.02020263671875,-0.0771331787109375,-0.5420049428939819,0.8187036514282227,-0.5250517725944519,75.9879150390625,93.38713073730467,-24.82858276367188
178860,-0.0272216796875,0.0994873046875,-0.0627899169921875,-0.6788184642791748,0.7923282384872437,-0.6220832467079163,75.949951171875,93.50277709960938,-24.52183532714844
178861,-0.0272216796875,0.0994873046875,-0.0627899169921875,-0.6788184642791748,0.7923282384872437,-0.6220832467079163,75.949951171875,93.50277709960938,-24.52183532714844
178862,-0.017608642578125,0.1769256591796875,-0.036529541015625,-0.8713828325271606,0.738122284412384,-0.7247148156166077,75.785400390625,93.80908203125,-24.21792602539062
178863,-0.01318359375,0.41845703125,0.52813720703125,-1.44079065322876,1.460860729217529,-1.04275107383728,75.3050537109375,94.49739074707033,-23.10826110839844
178864,0.02471923828125,1.062652587890625,1.032562255859375,-1.829415321350098,4.814780235290527,-1.787178635597229,74.93397521972656,94.95916748046876,-22.33485412597656
178865,0.114837646484375,2.144271850585938,1.1776123046875,-1.829415321350098,4.814780235290527,-1.787178635597229,74.59422302246094,95.37725830078124,-21.384521484375
178866,-0.0717926025390625,3.222824096679688,1.166915893554688,-1.724113941192627,5.056634426116943,-1.29812216758728,74.07600402832031,95.75057983398438,-20.25909423828125
178867,-0.5867462158203125,4.21612548828125,1.2091064453125,-1.30541205406189,4.170900344848633,-0.7459684610366821,73.69804382324219,96.22615051269533,-19.16261291503906
178868,-1.024627685546875,4.688034057617188,1.192626953125,-0.6619699597358704,2.343471050262451,-0.3675742745399475,73.47189331054688,96.67762756347656,-17.820556640625
178869,-1.024627685546875,4.688034057617188,1.192626953125,-0.6619699597358704,2.343471050262451,-0.3675742745399475,73.47189331054688,96.67762756347656,-17.820556640625
178870,-0.81585693359375,3.09619140625,1.403900146484375,-0.5542464256286621,0.4886261522769928,-0.2398322969675064,73.59710693359375,96.9064483642578,-15.6024169921875
178871,-0.5755157470703125,2.175247192382812,1.152389526367188,-1.217409729957581,0.3120207488536835,-0.666251003742218,73.59127807617188,97.02870178222656,-15.12210083007812
178872,-0.395751953125,1.511871337890625,0.8023529052734375,-1.96016001701355,-0.5535278916358948,-0.8562949895858765,73.45889282226562,97.07901000976562,-14.77362060546875
178873,-0.395751953125,1.511871337890625,0.8023529052734375,-1.96016001701355,-0.5535278916358948,-0.8562949895858765,73.45889282226562,97.07901000976562,-14.77362060546875
178874,-0.221038818359375,1.279525756835938,0.3166351318359375,-2.050508499145508,-1.050889492034912,-0.7666295170783997,72.82713317871094,97.20988464355467,-13.5921630859375
178875,-0.1434326171875,1.62872314453125,-0.025482177734375,-2.141419887542725,-1.737424969673157,-0.6437368988990784,72.39256286621094,97.19538879394533,-12.83634948730469
178876,0.1094512939453125,2.05023193359375,-0.7154998779296875,-1.832614302635193,-2.764367341995239,-0.3222653865814209,71.95591735839844,97.10276794433594,-12.10954284667969
178877,0.1094512939453125,2.05023193359375,-0.7154998779296875,-1.832614302635193,-2.764367341995239,-0.3222653865814209,71.95591735839844,97.10276794433594,-12.10954284667969
178878,0.555938720703125,2.190261840820312,-1.0244140625,1.139550685882568,0.3096286952495575,0.6977860331535339,71.05812072753906,97.40396118164062,-11.34776306152344
178879,0.1449127197265625,1.612777709960938,-0.542266845703125,1.395592570304871,1.464825987815857,0.6150450706481934,70.76100158691406,97.69639587402344,-11.61555480957031
178880,-0.0117645263671875,1.38641357421875,-0.126617431640625,0.9986103177070618,1.621538281440735,0.5039342641830444,70.81324768066406,97.72535705566406,-12.00735473632812
178881,-0.0117645263671875,1.38641357421875,-0.126617431640625,0.9986103177070618,1.621538281440735,0.5039342641830444,70.81324768066406,97.72535705566406,-12.00735473632812
178882,-0.109893798828125,1.185836791992188,-0.24530029296875,-0.0409546233713626,0.561944842338562,0.3527274131774902,71.37774658203125,97.41946411132812,-12.42826843261719
178883,-0.108306884765625,1.076339721679688,-0.1389312744140625,-0.0223484486341476,0.0290673375129699,0.3577400147914886,71.68858337402344,97.09115600585938,-12.33847045898438
178884,-0.0804595947265625,0.92376708984375,-0.0502777099609375,0.7339288592338562,-0.5193808674812317,0.5142630338668823,72.02264404296875,96.93693542480467,-12.212646484375
178885,-0.0643157958984375,0.7660675048828125,-0.033843994140625,0.7339288592338562,-0.5193808674812317,0.5142630338668823,72.3179931640625,96.68218994140624,-12.19596862792969
178886,-0.08526611328125,0.6396026611328125,-0.0079345703125,1.068955540657043,-0.6119912266731262,0.5342884063720703,72.60356140136719,96.5898895263672,-12.28091430664062
178887,-0.103179931640625,0.4989471435546875,-0.02691650390625,1.237670063972473,-0.5728142261505127,0.4873097538948059,72.75894165039062,96.6062469482422,-12.60078430175781
178888,-0.119842529296875,0.357696533203125,-0.0774688720703125,1.251901388168335,-0.5058722496032715,0.3963747620582581,72.94142150878906,96.42103576660156,-13.08976745605469
178889,-0.119842529296875,0.357696533203125,-0.0774688720703125,1.251901388168335,-0.5058722496032715,0.3963747620582581,72.94142150878906,96.42103576660156,-13.08976745605469
178890,-0.1118011474609375,0.11663818359375,-0.065704345703125,1.069901466369629,-0.2042056024074554,0.1893147975206375,73.31961059570312,96.1531982421875,-14.39695739746094
178891,-0.1118011474609375,0.11663818359375,-0.065704345703125,1.069901466369629,-0.2042056024074554,0.1893147975206375,73.31961059570312,96.1531982421875,-14.39695739746094
178892,-0.0539398193359375,-0.0599212646484375,-0.123687744140625,0.8478647470474243,0.1119044274091721,0.0111650368198752,73.47174072265625,96.18479919433594,-15.41171264648438
178893,-0.012664794921875,-0.12554931640625,-0.18389892578125,0.7895095348358154,0.0984802320599556,-0.0388653725385665,73.45811462402344,96.1765594482422,-15.72142028808594
178894,0.0380401611328125,-0.172119140625,-0.22906494140625,0.7552282810211182,-0.0227689612656831,-0.0448902435600757,73.42185974121094,96.24177551269533,-16.10945129394531
178895,0.091552734375,-0.196136474609375,-0.2675628662109375,0.7214229106903076,-0.201399952173233,-0.0217247363179922,73.39775085449219,96.19319152832033,-16.32363891601562
178896,0.152313232421875,-0.2095794677734375,-0.289276123046875,0.6721810698509216,-0.3283557891845703,0.0064496435225009,73.35221862792969,96.2283172607422,-16.65538024902344
178897,0.152313232421875,-0.2095794677734375,-0.289276123046875,0.6721810698509216,-0.3283557891845703,0.0064496435225009,73.35221862792969,96.2283172607422,-16.65538024902344
178898,0.2532958984375,-0.1829376220703125,-0.26214599609375,0.5684325695037842,-0.2349890768527985,-0.0196144469082355,73.24638366699219,96.1638641357422,-17.02699279785156
178899,0.27001953125,-0.121917724609375,-0.1908416748046875,0.5141980648040771,-0.0719604790210723,-0.0867468789219856,73.16819763183594,96.27471923828124,-17.30047607421875
178900,0.26397705078125,-0.0510101318359375,-0.1138458251953125,0.4391722977161407,0.0546118468046188,-0.1764541268348694,73.07685852050781,96.377197265625,-17.49720764160156
178901,0.26397705078125,-0.0510101318359375,-0.1138458251953125,0.4391722977161407,0.0546118468046188,-0.1764541268348694,73.07685852050781,96.377197265625,-17.49720764160156
178902,0.218048095703125,0.059478759765625,0.02679443359375,0.1923934072256088,0.1782171428203583,-0.3518363237380981,73.0504150390625,96.29672241210938,-17.8543701171875
178903,0.1839752197265625,0.0862274169921875,0.0667877197265625,0.0596662610769271,0.2461826056241989,-0.4154440760612488,72.95411682128906,96.34544372558594,-17.86607360839844
178904,0.1485443115234375,0.1002960205078125,0.0872039794921875,-0.2019509673118591,0.4892285466194153,-0.4886695444583893,72.84403991699219,96.35896301269533,-18.06620788574219
178905,0.1485443115234375,0.1002960205078125,0.0872039794921875,-0.2019509673118591,0.4892285466194153,-0.4886695444583893,72.84403991699219,96.35896301269533,-18.06620788574219
178906,0.0840301513671875,0.1256103515625,0.1639404296875,-0.3340477645397186,0.757710337638855,-0.491345226764679,72.56317138671875,96.65774536132812,-17.89427185058594
178907,0.0840301513671875,0.1256103515625,0.1639404296875,-0.3340477645397186,0.757710337638855,-0.491345226764679,72.56317138671875,96.65774536132812,-17.89427185058594
178908,0.065948486328125,0.2262420654296875,0.230377197265625,-0.6765869855880737,1.756220459938049,-0.5837023258209229,72.40855407714844,96.87849426269533,-17.87454223632812
178909,0.023956298828125,0.452667236328125,0.2816162109375,-0.9600740671157836,2.311603546142578,-0.8165352940559387,72.14823913574219,97.05436706542967,-17.50459289550781
178910,-0.1900634765625,1.254180908203125,0.4094085693359375,-1.21685791015625,2.648725032806396,-1.24252712726593,71.89112854003906,97.42178344726562,-16.55374145507812
178911,-0.3896484375,1.7220458984375,0.49285888671875,-1.136327981948853,2.507677316665649,-1.600160002708435,71.70259094238281,97.74667358398438,-15.80580139160156
178912,-0.689422607421875,2.23553466796875,0.6799468994140625,-0.663714587688446,2.020858526229858,-1.796247243881226,71.28938293457031,98.183837890625,-14.99610900878906
178913,-0.689422607421875,2.23553466796875,0.6799468994140625,-0.663714587688446,2.020858526229858,-1.796247243881226,71.28938293457031,98.183837890625,-14.99610900878906
178914,-1.159622192382812,3.38812255859375,1.091903686523438,0.7719870209693909,0.5928910374641418,-1.325562000274658,70.24041748046875,98.80117797851562,-13.62202453613281
178915,-1.17999267578125,3.746475219726562,1.244659423828125,1.088833689689636,0.2155381441116333,-0.5506184101104736,69.57760620117188,99.1823272705078,-13.35433959960938
178916,-0.972686767578125,3.668899536132812,1.174896240234375,0.8099205493927002,0.04389688372612,-0.0198988728225231,68.82083129882812,99.67399597167967,-13.66273498535156
178917,-0.972686767578125,3.668899536132812,1.174896240234375,0.8099205493927002,0.04389688372612,-0.0198988728225231,68.82083129882812,99.67399597167967,-13.66273498535156
178918,-0.4174041748046875,2.125762939453125,0.572784423828125,-0.9916946291923524,-1.33897852897644,-0.5908182859420776,68.24311828613281,100.4506530761719,-14.67308044433594
178919,-0.296661376953125,1.646148681640625,0.38287353515625,-1.632241249084473,-2.221329927444458,-0.8538118600845337,68.15025329589844,100.3533630371094,-14.77737426757812
178920,-0.2284088134765625,1.5372314453125,0.2623443603515625,-1.824136734008789,-3.954185724258423,-0.9217642545700072,68.15058898925781,100.2441864013672,-14.53474426269531
178921,-0.2284088134765625,1.5372314453125,0.2623443603515625,-1.824136734008789,-3.954185724258423,-0.9217642545700072,68.15058898925781,100.2441864013672,-14.53474426269531
178922,-0.1342010498046875,2.286697387695312,0.2212677001953125,-1.723748326301575,-4.484499931335449,-0.4710586071014404,67.68150329589844,99.68450927734376,-13.81532287597656
178923,0.084259033203125,2.61859130859375,0.0013427734375,-1.499055504798889,-3.00100564956665,0.2259883880615234,67.30021667480469,99.36735534667967,-13.60916137695312
178924,0.577301025390625,2.642181396484375,-2.100555419921875,-1.008747577667236,-3.752286911010742,1.120488286018372,66.72256469726562,99.37136840820312,-13.44099426269531
178925,0.577301025390625,2.642181396484375,-2.100555419921875,-1.008747577667236,-3.752286911010742,1.120488286018372,66.72256469726562,99.37136840820312,-13.44099426269531
178926,0.159698486328125,1.561874389648438,-0.1544342041015625,1.388975858688354,0.6528536677360535,0.6478115320205688,66.07969665527344,100.0430145263672,-12.796142578125
178927,0.040252685546875,1.300994873046875,-0.2085113525390625,1.897263407707214,1.410648941993713,0.6078585386276245,66.423583984375,100.0471954345703,-12.65657043457031
178928,-0.02130126953125,1.206634521484375,-0.0583648681640625,1.972139477729797,1.481419324874878,0.7055864334106445,66.88948059082031,99.87188720703124,-13.09559631347656
178929,-0.02130126953125,1.206634521484375,-0.0583648681640625,1.972139477729797,1.481419324874878,0.7055864334106445,66.88948059082031,99.87188720703124,-13.09559631347656
178930,-0.059967041015625,0.965362548828125,0.1935577392578125,1.540912747383118,0.7801530361175537,0.7383086681365967,67.97972106933594,99.21559143066406,-14.74273681640625
178931,-0.0748138427734375,0.7488555908203125,0.1628875732421875,1.540912747383118,0.7801530361175537,0.7383086681365967,68.74931335449219,98.66513061523438,-15.33450317382812
178932,-0.0798492431640625,0.527984619140625,0.1530609130859375,1.510835289955139,0.3146636784076691,0.7100815773010254,69.45220947265625,98.0815887451172,-15.92137145996094
178933,-0.0798492431640625,0.527984619140625,0.1530609130859375,1.510835289955139,0.3146636784076691,0.7100815773010254,69.45220947265625,98.0815887451172,-15.92137145996094
178934,-0.0396881103515625,0.1600799560546875,0.0864410400390625,1.506083369255066,-0.1726953387260437,0.6641367077827454,70.53363037109375,97.56492614746094,-16.86756896972656
178935,-0.0121612548828125,-0.0049896240234375,-0.069549560546875,1.413899660110474,-0.3531636595726013,0.6555125713348389,70.895751953125,97.3288116455078,-17.37753295898438
178936,0.0297698974609375,-0.14447021484375,-0.38568115234375,1.25826632976532,-1.770660161972046,0.7551448941230774,71.14546203613281,97.08091735839844,-17.93511962890625
178937,0.0297698974609375,-0.14447021484375,-0.38568115234375,1.25826632976532,-1.770660161972046,0.7551448941230774,71.14546203613281,97.08091735839844,-17.93511962890625
178938,0.0203857421875,-0.2210540771484375,-0.2799072265625,1.241709470748901,-2.110771417617798,0.8335579633712769,71.36470031738281,97.24085998535156,-19.49420166015625
178939,-0.0173797607421875,-0.2982940673828125,-0.0316162109375,1.072799801826477,-1.480534553527832,0.8583988547325134,71.40841674804688,97.28155517578124,-20.32716369628906
178940,-0.058135986328125,-0.372833251953125,0.095947265625,0.6059354543685913,0.513833224773407,0.7757585644721985,71.51132202148438,97.21157836914062,-21.14027404785156
178941,-0.058135986328125,-0.372833251953125,0.095947265625,0.6059354543685913,0.513833224773407,0.7757585644721985,71.51132202148438,97.21157836914062,-21.14027404785156
178942,-0.0294036865234375,-0.213226318359375,0.026580810546875,0.4169127941131592,1.451527714729309,0.729848325252533,71.91224670410156,96.87899780273438,-22.07276916503906
178943,-0.0294036865234375,-0.213226318359375,0.026580810546875,0.4169127941131592,1.451527714729309,0.729848325252533,71.91224670410156,96.87899780273438,-22.07276916503906
178944,-0.0914764404296875,-0.1551361083984375,-0.042144775390625,0.3861889839172363,1.245596408843994,0.5114489197731018,72.92109680175781,96.37078857421876,-21.61636352539062
178945,-0.1148529052734375,-0.163604736328125,-0.16845703125,0.323671281337738,0.9656875133514404,0.3616389036178589,73.51277160644531,95.99432373046876,-21.28514099121094
178946,-0.10247802734375,-0.185211181640625,-0.270904541015625,0.2204663306474686,0.5744577050209045,0.2369704693555832,74.03984069824219,95.80154418945312,-20.97439575195312
178947,-0.10247802734375,-0.185211181640625,-0.270904541015625,0.2204663306474686,0.5744577050209045,0.2369704693555832,74.03984069824219,95.80154418945312,-20.97439575195312
178948,-0.0603485107421875,-0.19976806640625,-0.2576751708984375,0.0661894083023071,0.2893585860729218,0.1553485840559006,74.62234497070312,95.67025756835938,-20.51908874511719
178949,0.0446929931640625,-0.1581878662109375,-0.0580902099609375,-0.3348504304885864,0.5995888710021973,0.0569706074893474,74.91839599609375,95.70556640625,-20.15399169921875
178950,0.085662841796875,-0.1125946044921875,0.00860595703125,-0.5123210549354553,0.8867713809013367,0.0136875826865434,75.02210998535156,95.60678100585938,-19.85505676269531
178951,0.085662841796875,-0.1125946044921875,0.00860595703125,-0.5123210549354553,0.8867713809013367,0.0136875826865434,75.02210998535156,95.60678100585938,-19.85505676269531
178952,0.109375,-0.051116943359375,0.048858642578125,-0.6605486273765564,1.093937635421753,-0.0398374274373054,75.15585327148438,95.57579040527344,-19.477783203125
178953,0.1099395751953125,0.00799560546875,0.0370635986328125,-0.7918539047241211,1.150953769683838,-0.0888379961252212,75.17532348632812,95.65264892578124,-18.79833984375
178954,0.0948028564453125,0.0800323486328125,-0.073089599609375,-0.98845112323761,0.7127769589424133,-0.2086429595947266,75.17935180664062,95.57020568847656,-17.52059936523438
178955,0.086517333984375,0.1129150390625,-0.0434112548828125,-1.093156814575195,0.3355756103992462,-0.2818314135074615,75.11019897460938,95.4718780517578,-16.81025695800781
178956,0.080047607421875,0.1334991455078125,0.107147216796875,-1.219722747802734,0.1274935156106949,-0.3639827370643616,74.96394348144531,95.50466918945312,-16.435546875
178957,0.076812744140625,0.1542816162109375,0.346099853515625,-1.367926239967346,0.268314003944397,-0.4596991539001465,74.65525817871094,95.67263793945312,-16.04013061523438
178958,0.085845947265625,0.241424560546875,0.5712127685546875,-1.547303557395935,0.7542974948883057,-0.5767946243286133,74.34881591796875,95.89111328125,-15.63844299316406
178959,0.1150054931640625,0.431732177734375,0.77801513671875,-1.879609823226929,1.431191325187683,-0.7426914572715759,73.83444213867188,96.19491577148438,-15.04811096191406
178960,0.1904754638671875,1.311920166015625,0.9771575927734376,-2.245339393615723,2.146182060241699,-0.9070958495140076,73.32630920410156,96.4312744140625,-14.45292663574219
178961,0.1904754638671875,1.311920166015625,0.9771575927734376,-2.245339393615723,2.146182060241699,-0.9070958495140076,73.32630920410156,96.4312744140625,-14.45292663574219
178962,-0.174407958984375,4.859817504882812,1.543701171875,-2.265152215957642,2.562122821807861,0.1591595560312271,72.38479614257812,96.78292846679688,-13.22727966308594
178963,-0.819427490234375,5.814834594726562,1.482696533203125,-1.579328775405884,1.762565970420837,-0.0899956673383712,72.40573120117188,96.70352172851562,-12.01377868652344
178964,-1.141265869140625,5.556564331054688,1.396148681640625,-0.5742377042770386,0.57778400182724,-0.6425477862358093,72.5775146484375,96.45127868652344,-10.83296203613281
178965,-1.141265869140625,5.556564331054688,1.396148681640625,-0.5742377042770386,0.57778400182724,-0.6425477862358093,72.5775146484375,96.45127868652344,-10.83296203613281
178966,-0.55902099609375,2.4212646484375,0.64556884765625,-0.7208164930343628,-0.8243615627288818,-1.32416307926178,72.30439758300781,96.59207153320312,-9.670257568359377
178967,-0.3961944580078125,1.583984375,0.3876953125,-0.95811265707016,-0.953174650669098,-1.493681788444519,71.77470397949219,96.84312438964844,-9.528793334960938
178968,-0.2073211669921875,1.227218627929688,0.145904541015625,-1.162268996238708,-1.045539140701294,-1.382448554039001,71.09254455566406,97.10360717773438,-9.444976806640623
178969,-0.2073211669921875,1.227218627929688,0.145904541015625,-1.162268996238708,-1.045539140701294,-1.382448554039001,71.09254455566406,97.10360717773438,-9.444976806640623
178970,0.2303619384765625,2.105148315429688,-1.073593139648438,-0.977523386478424,-2.645206928253174,-0.0288255233317613,69.54908752441406,97.6028289794922,-8.92578125
178971,0.30572509765625,2.46734619140625,-0.616241455078125,-0.1689392179250717,-3.227056980133057,0.5370277762413025,69.10787963867188,97.88551330566406,-8.942230224609375
178972,0.25091552734375,2.268447875976562,0.3002777099609375,0.6472205519676208,-1.104598760604858,0.753900945186615,68.99641418457031,98.00390625,-9.169784545898438
178973,0.25091552734375,2.268447875976562,0.3002777099609375,0.6472205519676208,-1.104598760604858,0.753900945186615,68.99641418457031,98.00390625,-9.169784545898438
178974,0.2045440673828125,1.490432739257812,-0.167877197265625,0.8639041781425476,1.814943194389343,0.905717670917511,69.38298034667969,97.92619323730467,-9.529373168945312
178975,0.135009765625,1.42694091796875,-0.174774169921875,0.543952226638794,1.537649273872375,0.862312376499176,69.85638427734375,97.6790008544922,-9.7490234375
178976,0.032806396484375,1.38372802734375,-0.0008392333984375,0.1322752088308334,0.719741940498352,0.5586459636688232,70.39695739746094,97.35423278808594,-9.703704833984377
178977,0.032806396484375,1.38372802734375,-0.0008392333984375,0.1322752088308334,0.719741940498352,0.5586459636688232,70.39695739746094,97.35423278808594,-9.703704833984377
178978,-0.1761627197265625,1.195266723632812,0.1459197998046875,0.3508978486061096,0.3848163783550262,0.4330640733242035,71.4627685546875,96.71266174316406,-9.503860473632812
178979,-0.217437744140625,1.065277099609375,0.1050262451171875,0.6974789500236511,0.0807286649942398,0.3443019986152649,71.86196899414062,96.29254150390624,-9.423187255859377
178980,-0.228546142578125,0.95013427734375,-0.00201416015625,1.208980560302734,-0.6502389907836914,0.1771553456783295,72.17005920410156,96.2076416015625,-9.497909545898438
178981,-0.228546142578125,0.95013427734375,-0.00201416015625,1.208980560302734,-0.6502389907836914,0.1771553456783295,72.17005920410156,96.2076416015625,-9.497909545898438
178982,-0.17169189453125,0.6764068603515625,-0.09259033203125,1.372707962989807,-0.9065362811088562,0.1020672470331192,72.52052307128906,96.0955810546875,-10.264404296875
178983,-0.1407470703125,0.51690673828125,-0.0556488037109375,1.503330707550049,-0.931793212890625,0.0548842884600162,72.54345703125,96.1605224609375,-11.04261779785156
178984,-0.1260833740234375,0.3535003662109375,-0.082550048828125,1.565685749053955,-0.8480708599090576,0.0238728430122137,72.63314819335938,96.32749938964844,-11.93891906738281
178985,-0.1260833740234375,0.3535003662109375,-0.082550048828125,1.565685749053955,-0.8480708599090576,0.0238728430122137,72.63314819335938,96.32749938964844,-11.93891906738281
178986,-0.1339874267578125,0.0333709716796875,-0.2169647216796875,1.416471719741821,-0.5244997143745422,0.150798037648201,72.49954223632812,96.67861938476562,-13.71842956542969
178987,-0.0691680908203125,-0.0731964111328125,-0.31256103515625,1.240805149078369,-0.4022600948810577,0.2748784422874451,72.36665344238281,96.71403503417967,-14.65165710449219
178988,0.047119140625,-0.1353912353515625,-0.2953643798828125,0.985226571559906,-0.1394143551588058,0.3544294536113739,72.37393188476562,96.74652099609376,-15.26214599609375
178989,0.047119140625,-0.1353912353515625,-0.2953643798828125,0.985226571559906,-0.1394143551588058,0.3544294536113739,72.37393188476562,96.74652099609376,-15.26214599609375
178990,0.2212066650390625,-0.0767974853515625,0.042633056640625,0.6760708689689636,0.784600555896759,0.3976725339889526,72.61741638183594,96.48507690429688,-15.81529235839844
178991,0.2084197998046875,-0.02191162109375,0.1795196533203125,0.6801950335502625,1.131573677062988,0.4537475109100342,72.74833679199219,96.45184326171876,-15.93576049804688
178992,0.191619873046875,0.0175018310546875,0.1748199462890625,0.5557971596717834,1.175613880157471,0.4692865312099457,72.91433715820312,96.45401000976562,-15.84097290039062
178993,0.1636199951171875,0.0375823974609375,0.0659942626953125,0.5557971596717834,1.175613880157471,0.4692865312099457,73.21365356445312,96.2205810546875,-15.71621704101562
178994,0.106597900390625,0.04376220703125,-0.0186614990234375,0.5114952325820923,0.8352538347244263,0.326696902513504,73.48422241210938,96.07652282714844,-15.61494445800781
178995,0.0547637939453125,0.0048828125,-0.048492431640625,0.5043089389801025,0.4991541504859924,0.118371918797493,73.70555114746094,95.97132873535156,-15.64579772949219
178996,0.0177001953125,-0.0478973388671875,-0.0595245361328125,0.482558399438858,0.2441572695970535,-0.0468705706298351,73.78421020507812,95.93594360351562,-15.7337646484375
178997,-0.0096893310546875,-0.0805816650390625,-0.0851287841796875,0.4142866730690002,0.0706725716590881,-0.1441571712493896,73.77667236328125,95.93400573730467,-15.75955200195312
178998,-0.0233917236328125,-0.0933837890625,-0.09808349609375,0.3041039705276489,-0.03683577850461,-0.2007647901773453,73.74473571777344,95.82852172851562,-15.74125671386719
178999,-0.0284576416015625,-0.1068267822265625,-0.094451904296875,0.1431483626365662,-0.0496913902461528,-0.2358266413211823,73.70903015136719,96.00309753417967,-15.82130432128906
179000,-0.02655029296875,-0.1218109130859375,-0.0941314697265625,-0.2652383148670197,0.2274683117866516,-0.2739431262016296,73.57598876953125,96.08737182617188,-15.94908142089844
179001,-0.0259552001953125,-0.1331634521484375,-0.080718994140625,-0.2652383148670197,0.2274683117866516,-0.2739431262016296,73.48060607910156,96.08602905273438,-15.90982055664062
179002,-0.0205230712890625,-0.128997802734375,-0.0803070068359375,-0.4374087452888489,0.4263965785503387,-0.2932851314544678,73.35868835449219,96.16067504882812,-15.82661437988281
179003,-0.0205230712890625,-0.128997802734375,-0.0803070068359375,-0.4374087452888489,0.4263965785503387,-0.2932851314544678,73.35868835449219,96.16067504882812,-15.82661437988281
179004,-0.004913330078125,-0.1030120849609375,-0.083038330078125,-0.5780580043792725,0.3499177992343903,-0.3585834503173828,73.20124816894531,96.26083374023438,-15.33531188964844
179005,0.0054473876953125,-0.1007843017578125,-0.121002197265625,-0.5780580043792725,0.3499177992343903,-0.3585834503173828,72.99490356445312,96.35124206542967,-14.74899291992188
179006,0.0146942138671875,-0.0669097900390625,-0.167022705078125,-0.5776258111000061,0.0742167085409164,-0.3831226229667664,72.84243774414062,96.53175354003906,-14.46572875976562
179007,0.0146942138671875,-0.0669097900390625,-0.167022705078125,-0.5776258111000061,0.0742167085409164,-0.3831226229667664,72.84243774414062,96.53175354003906,-14.46572875976562
179008,0.0113067626953125,0.2366485595703125,-0.160675048828125,-0.8373234272003174,-0.599614679813385,-0.7469293475151062,72.38909912109375,96.56460571289062,-13.7542724609375
179009,0.01544189453125,0.3180084228515625,0.0167236328125,-1.077765583992004,0.0582654364407062,-0.9660523533821106,72.16864013671875,96.66233825683594,-13.41621398925781
179010,0.004364013671875,0.4036407470703125,0.412933349609375,-1.077765583992004,0.0582654364407062,-0.9660523533821106,71.7257080078125,97.00157165527344,-13.29173278808594
179011,-0.019378662109375,1.264801025390625,0.7741546630859375,-1.36440908908844,1.462515354156494,-1.399319887161255,71.18342590332031,97.26188659667967,-13.36271667480469
179012,-0.0001373291015625,2.720489501953125,0.9447021484375,-1.945533752441406,3.723777770996094,-2.001359224319458,70.60067749023438,97.65594482421876,-13.30892944335938
179013,-0.0001373291015625,2.720489501953125,0.9447021484375,-1.945533752441406,3.723777770996094,-2.001359224319458,70.60067749023438,97.65594482421876,-13.30892944335938
179014,-0.306793212890625,4.580047607421875,0.839813232421875,-1.815682172775269,2.645183324813843,-1.861312866210938,68.99507141113281,98.3878936767578,-11.76786804199219
179015,-0.6098480224609375,5.82684326171875,1.217727661132812,-0.5004737377166748,2.137533664703369,-0.7851174473762512,68.23843383789062,98.58592224121094,-10.52296447753906
179016,-1.017608642578125,4.95916748046875,1.094528198242188,0.9447763562202454,0.7883369326591492,-0.4811604917049408,67.68067932128906,98.74221801757812,-9.60589599609375
179017,-1.017608642578125,4.95916748046875,1.094528198242188,0.9447763562202454,0.7883369326591492,-0.4811604917049408,67.68067932128906,98.74221801757812,-9.60589599609375
179018,-0.7259674072265625,2.555938720703125,1.023757934570312,1.062993049621582,-1.354201674461365,-1.05168342590332,67.228515625,99.35162353515624,-9.435394287109377
179019,-0.496826171875,1.62274169921875,0.6143798828125,0.1784821301698685,-2.20264744758606,-0.951217234134674,66.93475341796875,99.41111755371094,-9.973770141601562
179020,-0.50787353515625,1.14837646484375,0.56781005859375,-1.092115998268127,-3.313322782516479,-0.995012104511261,66.71452331542969,99.43780517578124,-10.55088806152344
179021,-0.50787353515625,1.14837646484375,0.56781005859375,-1.092115998268127,-3.313322782516479,-0.995012104511261,66.71452331542969,99.43780517578124,-10.55088806152344
179022,-0.24395751953125,1.971786499023438,0.06884765625,-2.000545978546143,-2.75416374206543,-0.5683707594871521,66.21182250976562,99.33860778808594,-10.55134582519531
179023,0.184173583984375,2.6168212890625,-1.712677001953125,-1.435834765434265,-2.993466854095459,0.267713725566864,65.82524108886719,99.3956298828125,-10.14105224609375
179024,0.4481353759765625,2.839065551757812,-1.621261596679688,0.1680830121040344,-4.322484493255615,1.170543193817139,65.33609008789062,99.5337371826172,-9.6673583984375
179025,0.4481353759765625,2.839065551757812,-1.621261596679688,0.1680830121040344,-4.322484493255615,1.170543193817139,65.33609008789062,99.5337371826172,-9.6673583984375
179026,0.28546142578125,1.806671142578125,0.3532257080078125,1.871037602424622,0.8639733791351318,1.042819023132324,65.57130432128906,99.52253723144533,-9.643295288085938
179027,0.156585693359375,1.6219482421875,0.125946044921875,1.641475558280945,1.654887437820435,0.8469794988632202,66.15422058105469,99.274658203125,-10.05885314941406
179028,0.0622406005859375,1.529891967773438,0.040252685546875,1.166883230209351,1.471072912216187,0.5715969204902649,66.84283447265625,98.955078125,-10.69601440429688
179029,0.0622406005859375,1.529891967773438,0.040252685546875,1.166883230209351,1.471072912216187,0.5715969204902649,66.84283447265625,98.955078125,-10.69601440429688
179030,-0.1268157958984375,1.191131591796875,0.185943603515625,0.6042320728302002,0.6844808459281921,0.0770929232239723,68.04598999023438,98.32107543945312,-11.71696472167969
179031,-0.1268157958984375,1.191131591796875,0.185943603515625,0.6042320728302002,0.6844808459281921,0.0770929232239723,68.04598999023438,98.32107543945312,-11.71696472167969
179032,-0.159454345703125,0.7294464111328125,0.12371826171875,1.075629234313965,0.1104705855250359,0.1473364531993866,68.88572692871094,98.02165222167967,-12.11323547363281
179033,-0.159454345703125,0.7294464111328125,0.12371826171875,1.075629234313965,0.1104705855250359,0.1473364531993866,68.88572692871094,98.02165222167967,-12.11323547363281
179034,-0.120574951171875,0.398529052734375,0.0216064453125,1.582014560699463,-0.3309542238712311,0.4059064984321594,69.203369140625,97.97434997558594,-12.65878295898438
179035,-0.0956268310546875,0.259765625,0.0074615478515625,1.678440809249878,-0.4545451402664185,0.4856378138065338,69.38987731933594,97.97512817382812,-13.4052734375
179036,-0.0725860595703125,0.12188720703125,-0.0007781982421875,1.680294871330261,-0.4868487417697906,0.5259367823600769,69.62245178222656,97.94810485839844,-14.150390625
179037,-0.0725860595703125,0.12188720703125,-0.0007781982421875,1.680294871330261,-0.4868487417697906,0.5259367823600769,69.62245178222656,97.94810485839844,-14.150390625
179038,-0.0290069580078125,-0.091064453125,-0.0430908203125,1.583815455436707,-0.3751733601093292,0.6222667694091797,69.86309814453125,97.8211669921875,-15.79318237304688
179039,-0.00701904296875,-0.1323089599609375,-0.049896240234375,1.504724621772766,-0.2334676086902618,0.6869232654571533,69.98092651367188,97.80685424804688,-16.58489990234375
179040,0.008270263671875,-0.1591033935546875,-0.1260986328125,1.251342177391052,-0.1246625706553459,0.9147566556930542,70.06828308105469,97.80264282226562,-17.35820007324219
179041,0.008270263671875,-0.1591033935546875,-0.1260986328125,1.251342177391052,-0.1246625706553459,0.9147566556930542,70.06828308105469,97.80264282226562,-17.35820007324219
179042,0.0330047607421875,-0.2478179931640625,-0.4364166259765625,1.064980506896973,-0.4906128644943237,1.040682077407837,70.51278686523438,97.82893371582033,-18.53239440917969
179043,0.02581787109375,-0.2493743896484375,-0.2069091796875,0.6962661743164062,-0.1502832472324371,1.137025475502014,70.7696533203125,97.77252197265624,-18.80218505859375
179044,0.0191802978515625,-0.22113037109375,0.1019287109375,0.6417528390884399,0.5484407544136047,1.095719218254089,71.1944580078125,97.61929321289062,-18.98417663574219
179045,0.0191802978515625,-0.22113037109375,0.1019287109375,0.6417528390884399,0.5484407544136047,1.095719218254089,71.1944580078125,97.61929321289062,-18.98417663574219
179046,0.0087738037109375,-0.1795806884765625,0.2808837890625,0.6238055229187012,1.165544152259827,1.020854353904724,72.33441162109375,97.08578491210938,-18.82615661621094
179047,-0.010589599609375,-0.1743316650390625,0.14898681640625,0.5999646782875061,1.453067541122437,0.9240585565567015,73.11416625976562,96.76162719726562,-18.80734252929688
179048,-0.0381011962890625,-0.1685638427734375,-0.008148193359375,0.4629127979278564,1.051188826560974,0.6781808733940125,73.87359619140625,96.40541076660156,-18.68505859375
179049,-0.0381011962890625,-0.1685638427734375,-0.008148193359375,0.4629127979278564,1.051188826560974,0.6781808733940125,73.87359619140625,96.40541076660156,-18.68505859375
179050,-0.09295654296875,-0.1545562744140625,-0.0703887939453125,0.1248250231146812,0.565754234790802,0.2792215049266815,75.21885681152344,95.51554870605467,-18.00706481933594
179051,-0.092071533203125,-0.1620330810546875,-0.0406494140625,0.1248250231146812,0.565754234790802,0.2792215049266815,75.7904052734375,95.16766357421876,-17.55027770996094
179052,-0.05780029296875,-0.186614990234375,-0.0170440673828125,-0.393159806728363,0.5386658906936646,-0.0745637193322181,76.26676940917969,94.80223083496094,-17.26321411132812
179053,-0.05780029296875,-0.186614990234375,-0.0170440673828125,-0.393159806728363,0.5386658906936646,-0.0745637193322181,76.26676940917969,94.80223083496094,-17.26321411132812
179054,0.024322509765625,-0.2320404052734375,-0.0831298828125,-0.6602309346199036,0.5650761723518372,-0.1705435067415237,76.80064392089844,94.48429870605467,-16.60795593261719
179055,0.0420684814453125,-0.24261474609375,-0.1617279052734375,-0.8884422779083252,0.4792427718639374,-0.2358490079641342,76.95063781738281,94.31721496582033,-16.200927734375
179056,0.0496368408203125,-0.2488250732421875,-0.23785400390625,-1.149699926376343,-0.0261399913579225,-0.3220422267913818,76.95892333984375,94.00521850585938,-15.71308898925781
179057,0.0496368408203125,-0.2488250732421875,-0.23785400390625,-1.149699926376343,-0.0261399913579225,-0.3220422267913818,76.95892333984375,94.00521850585938,-15.71308898925781
179058,0.06121826171875,-0.2512664794921875,-0.312255859375,-1.212427496910095,-0.2558967471122742,-0.3611643314361572,76.80154418945312,93.80227661132812,-14.55619812011719
179059,0.09539794921875,-0.2320098876953125,-0.3031005859375,-1.342423558235168,-0.2294675409793854,-0.4561467468738556,76.73429870605469,93.86653137207033,-13.88130187988281
179060,0.17156982421875,-0.036773681640625,-0.3135833740234375,-1.489287853240967,0.0195529293268919,-0.6297004222869873,76.5313720703125,93.81097412109376,-13.48011779785156
179061,0.17156982421875,-0.036773681640625,-0.3135833740234375,-1.489287853240967,0.0195529293268919,-0.6297004222869873,76.5313720703125,93.81097412109376,-13.48011779785156
179062,0.0753021240234375,0.201416015625,-0.1427001953125,-1.343763709068298,-0.1431220024824142,-0.8568307757377625,76.01820373535156,94.1252899169922,-12.29837036132812
179063,0.0753021240234375,0.201416015625,-0.1427001953125,-1.343763709068298,-0.1431220024824142,-0.8568307757377625,76.01820373535156,94.1252899169922,-12.29837036132812
179064,0.05322265625,0.166259765625,0.1613006591796875,-1.376509070396423,0.1150134056806564,-0.9357208013534546,75.58842468261719,94.32521057128906,-11.51327514648438
179065,0.039581298828125,0.1629486083984375,0.492828369140625,-1.818927526473999,1.117100954055786,-1.077970862388611,74.5919189453125,95.1338348388672,-10.54022216796875
179066,0.05242919921875,0.2636260986328125,0.70892333984375,-2.035620450973511,1.782849431037903,-1.172735452651978,73.77326965332031,95.7494659423828,-10.18324279785156
179067,0.07696533203125,0.7992706298828125,1.10400390625,-2.271333456039429,2.603323936462402,-1.382689476013184,72.87368774414062,96.27677917480467,-9.69146728515625
179068,0.1928253173828125,3.701507568359375,1.367324829101562,-2.347685098648071,2.980709314346313,-1.235267639160156,71.81880187988281,97.0890655517578,-9.36285400390625
179069,0.1928253173828125,3.701507568359375,1.367324829101562,-2.347685098648071,2.980709314346313,-1.235267639160156,71.81880187988281,97.0890655517578,-9.36285400390625
179070,-1.467071533203125,8.098342895507812,2.37091064453125,-2.073617219924927,2.067169666290283,1.926511764526367,69.86538696289062,97.89167785644533,-9.465408325195312
179071,-1.467071533203125,8.098342895507812,2.37091064453125,-2.073617219924927,2.067169666290283,1.926511764526367,69.86538696289062,97.89167785644533,-9.465408325195312
179072,-0.9963836669921876,4.123458862304688,1.176254272460938,-0.8667963147163391,0.9617944955825806,-2.37826943397522,70.82406616210938,97.15570068359376,-7.985092163085938
179073,-0.468170166015625,1.596099853515625,0.5223388671875,-0.8750998377799988,-0.9604578614234924,-2.287132263183594,71.01316833496094,96.82716369628906,-6.611541748046875
179074,-0.48211669921875,0.9493560791015624,0.5553131103515625,-0.8586718440055847,-1.515727162361145,-1.975193381309509,70.353759765625,96.9897003173828,-5.53814697265625
179075,-0.48211669921875,0.9493560791015624,0.5553131103515625,-0.8586718440055847,-1.515727162361145,-1.975193381309509,70.353759765625,96.9897003173828,-5.53814697265625
179076,-0.421661376953125,0.830047607421875,0.3604583740234375,-0.827336311340332,-1.18368136882782,-1.769459843635559,69.30912780761719,97.36903381347656,-4.779830932617188
179077,-0.0599212646484375,1.905593872070312,-0.5775909423828125,-1.723097920417786,-1.158412456512451,-0.4867382347583771,67.66847229003906,97.92645263671876,-4.343505859375
179078,0.196746826171875,2.599960327148438,-1.990631103515625,-3.033623456954956,-2.2545166015625,0.2771000564098358,67.04672241210938,97.92764282226562,-4.311874389648438
179079,0.3287811279296875,2.560699462890625,-1.010543823242188,-2.797245025634766,-2.41100001335144,1.020652174949646,66.66598510742188,97.80300903320312,-4.03436279296875
179080,0.2506866455078125,2.319549560546875,0.3649444580078125,-0.7776440978050232,-0.6047713756561279,1.255201578140259,66.6741943359375,97.51887512207033,-3.428085327148438
179081,0.2506866455078125,2.319549560546875,0.3649444580078125,-0.7776440978050232,-0.6047713756561279,1.255201578140259,66.6741943359375,97.51887512207033,-3.428085327148438
179082,0.134521484375,1.655670166015625,0.288787841796875,1.889702916145325,2.313552379608154,1.16541576385498,67.63795471191406,96.6623992919922,-1.676315307617188
179083,-0.00115966796875,1.37109375,0.0304107666015625,2.076105117797852,2.152222871780396,1.093806862831116,68.32453918457031,96.31773376464844,-1.450759887695312
179084,-0.1434783935546875,1.163848876953125,0.0010528564453125,1.817181348800659,1.123672127723694,0.5833044648170471,68.85044860839844,96.01193237304688,-1.589553833007812
179085,-0.1705780029296875,0.9497222900390624,0.1637420654296875,1.817181348800659,1.123672127723694,0.5833044648170471,69.26191711425781,95.97972106933594,-2.108139038085938
179086,-0.149749755859375,0.7374725341796875,0.2293853759765625,1.654996633529663,0.7325533032417297,0.5069566965103149,69.62141418457031,95.9976806640625,-2.510513305664062
179087,-0.128326416015625,0.5657501220703125,0.231475830078125,1.509428024291992,0.3881107270717621,0.494141012430191,69.99241638183594,95.95913696289062,-2.97540283203125
179088,-0.0962371826171875,0.4232940673828125,0.236724853515625,1.37322735786438,0.1502275913953781,0.4756778478622437,70.2774658203125,96.06927490234376,-3.586593627929688
179089,-0.0962371826171875,0.4232940673828125,0.236724853515625,1.37322735786438,0.1502275913953781,0.4756778478622437,70.2774658203125,96.06927490234376,-3.586593627929688
179090,-0.0579071044921875,0.1787261962890625,0.2379608154296875,1.043909311294556,0.1116474345326424,0.3887799680233002,70.81546020507812,96.1856689453125,-4.6817626953125
179091,-0.067840576171875,0.0784912109375,0.216094970703125,0.8592204451560974,0.2097340524196625,0.2773218750953674,71.02925109863281,96.22331237792967,-5.05419921875
179092,-0.063995361328125,-0.02752685546875,0.165283203125,0.7067685723304749,0.289641946554184,0.1518558412790298,71.04852294921875,96.40016174316406,-5.3978271484375
179093,-0.0574798583984375,-0.1038970947265625,0.1150054931640625,0.6269110441207886,0.3051244914531708,0.0657393336296081,71.20188903808594,96.4490203857422,-5.652236938476562
179094,-0.0645599365234375,-0.123291015625,0.0986480712890625,0.5882115960121155,0.2540240287780762,0.006753243971616,71.26814270019531,96.51242065429688,-5.7435302734375
179095,-0.0830230712890625,-0.132537841796875,0.0920867919921875,0.5882810950279236,0.1759348064661026,-0.0534453801810741,71.3046875,96.71101379394533,-5.816940307617188
179096,-0.10040283203125,-0.151031494140625,0.10882568359375,0.6474030017852783,0.0802671387791633,-0.1083672195672989,71.36077880859375,96.82527160644533,-5.752182006835938
179097,-0.10040283203125,-0.151031494140625,0.10882568359375,0.6474030017852783,0.0802671387791633,-0.1083672195672989,71.36077880859375,96.82527160644533,-5.752182006835938
179098,-0.143157958984375,-0.1767578125,0.2043914794921875,0.7856674194335938,0.0780087783932685,-0.2186511158943176,71.439453125,96.79104614257812,-5.727264404296875
179099,-0.152618408203125,-0.19061279296875,0.239715576171875,0.8598135113716125,0.1990419924259186,-0.2402578741312027,71.39279174804688,96.90870666503906,-5.889022827148438
179100,-0.1394500732421875,-0.1938018798828125,0.2620849609375,0.9577528834342957,0.4628989398479462,-0.1795409917831421,71.35887145996094,97.02017211914062,-6.006118774414062
179101,-0.1394500732421875,-0.1938018798828125,0.2620849609375,0.9577528834342957,0.4628989398479462,-0.1795409917831421,71.35887145996094,97.02017211914062,-6.006118774414062
179102,-0.0823974609375,0.0054473876953125,0.2252044677734375,0.89466392993927,0.4853834807872772,-0.0655659586191177,71.14344787597656,97.33583068847656,-6.46063232421875
179103,-0.0861663818359375,0.0991668701171875,0.21435546875,0.6944946050643921,0.4797018766403198,-0.0551468767225742,70.87478637695312,97.42593383789062,-6.726531982421875
179104,-0.1000213623046875,0.12677001953125,0.2180328369140625,-0.1084931865334511,0.5855764150619507,-0.1767220348119736,70.71853637695312,97.63502502441406,-7.2408447265625
179105,-0.1000213623046875,0.12677001953125,0.2180328369140625,-0.1084931865334511,0.5855764150619507,-0.1767220348119736,70.71853637695312,97.63502502441406,-7.2408447265625
179106,-0.142852783203125,0.1649932861328125,0.2157135009765625,-0.5394216775894165,0.6296740770339966,-0.284826934337616,70.53211975097656,97.69979858398438,-7.773605346679688
179107,-0.156890869140625,0.17156982421875,0.226531982421875,-0.8496165871620178,0.6594772338867188,-0.3923704326152802,70.32177734375,97.80288696289062,-7.6839599609375
179108,-0.1657867431640625,0.1661834716796875,0.24371337890625,-1.039031982421875,0.8024107217788696,-0.5120001435279846,70.12820434570312,97.70211791992188,-7.567977905273438
179109,-0.1657867431640625,0.1661834716796875,0.24371337890625,-1.039031982421875,0.8024107217788696,-0.5120001435279846,70.12820434570312,97.70211791992188,-7.567977905273438
179110,-0.149261474609375,0.14532470703125,0.198516845703125,-0.9903654456138612,0.9128996729850768,-0.5070655941963196,69.73478698730469,97.57278442382812,-6.706832885742188
179111,-0.149261474609375,0.14532470703125,0.198516845703125,-0.9903654456138612,0.9128996729850768,-0.5070655941963196,69.73478698730469,97.57278442382812,-6.706832885742188
179112,-0.0771636962890625,0.1088714599609375,0.0564117431640625,-0.8882981538772583,0.847441554069519,-0.4869315624237061,68.7662353515625,97.62200927734376,-5.20574951171875
179113,-0.0432281494140625,0.0886383056640625,0.0101318359375,-0.8834205865859985,0.6838475465774536,-0.4873728454113007,68.49037170410156,97.55966186523438,-4.866317749023438
179114,-0.02105712890625,0.06732177734375,-0.024200439453125,-0.9258474111557008,0.3683138489723206,-0.4932621717453003,68.13591003417969,97.5208740234375,-4.399978637695312
179115,-0.0021514892578125,0.049407958984375,-0.058380126953125,-0.9258474111557008,0.3683138489723206,-0.4932621717453003,67.76142883300781,97.47344970703124,-3.87164306640625
179116,0.014739990234375,0.041046142578125,-0.089691162109375,-0.9667064547538756,0.2166654616594315,-0.4972563683986664,67.431640625,97.4924774169922,-3.385162353515625
179117,0.0268096923828125,0.0395965576171875,-0.111358642578125,-0.991216003894806,0.0950703248381614,-0.5003293752670288,67.023193359375,97.44221496582033,-2.986862182617188
179118,0.062896728515625,0.0516815185546875,-0.270965576171875,-0.9213277697563172,-0.1375980824232101,-0.4902384281158447,66.62843322753906,97.4177703857422,-2.704879760742188
179119,0.062896728515625,0.0516815185546875,-0.270965576171875,-0.9213277697563172,-0.1375980824232101,-0.4902384281158447,66.62843322753906,97.4177703857422,-2.704879760742188
179120,0.3188629150390625,0.6498565673828125,-0.487335205078125,0.0433818288147449,-2.266413450241089,-0.1061530709266663,65.83592224121094,97.4745635986328,-2.3310546875
179121,0.3188629150390625,0.6498565673828125,-0.487335205078125,0.0433818288147449,-2.266413450241089,-0.1061530709266663,65.83592224121094,97.4745635986328,-2.3310546875
179122,0.0535125732421875,1.612686157226562,0.7689971923828125,-0.2612787485122681,1.339274168014526,-0.4782973229885101,65.27581787109375,97.91952514648438,-2.877456665039062
179123,0.0535125732421875,1.612686157226562,0.7689971923828125,-0.2612787485122681,1.339274168014526,-0.4782973229885101,65.27581787109375,97.91952514648438,-2.877456665039062
179124,-0.18524169921875,2.674346923828125,0.6796112060546875,-0.7261558771133423,2.821494102478027,-1.29342782497406,65.00776672363281,98.13543701171876,-3.312744140625
179125,-0.189422607421875,3.187225341796875,0.461669921875,-1.02863347530365,2.986771583557129,-1.906385540962219,64.41325378417969,98.20382690429688,-2.730682373046875
179126,-0.41943359375,3.733062744140625,0.4040069580078125,-0.8234659433364868,1.913933396339417,-2.056538581848145,63.48796081542969,98.3430633544922,-2.092803955078125
179127,-0.719146728515625,4.0001220703125,0.6113433837890625,-0.2287365049123764,0.8212839961051941,-1.981611847877502,62.24177551269531,98.68829345703124,-1.62957763671875
179128,-0.7798919677734375,3.67840576171875,0.6754302978515625,0.1400748193264008,-0.6262474060058594,-1.22693407535553,61.24040222167969,98.96630859375,-1.783843994140625
179129,-0.7798919677734375,3.67840576171875,0.6754302978515625,0.1400748193264008,-0.6262474060058594,-1.22693407535553,61.24040222167969,98.96630859375,-1.783843994140625
179130,-0.5701446533203125,2.721527099609375,1.037078857421875,-0.6628429293632507,-2.55608606338501,-0.0177025645971298,60.4185791015625,98.70205688476562,-1.815643310546875
179131,-0.5701446533203125,2.721527099609375,1.037078857421875,-0.6628429293632507,-2.55608606338501,-0.0177025645971298,60.4185791015625,98.70205688476562,-1.815643310546875
179132,-0.0339202880859375,2.644882202148438,-0.2519073486328125,0.3442298173904419,-2.491083145141602,0.4751201868057251,60.85197448730469,98.66781616210938,-1.567398071289062
179133,0.08380126953125,2.68072509765625,-0.534637451171875,1.679285526275635,-2.397315263748169,0.7556594610214233,60.83078002929688,98.82691955566406,-1.535400390625
179134,-0.0499267578125,2.419296264648438,-0.298004150390625,2.700443744659424,-0.6198909282684326,1.003721714019775,61.06050109863281,99.12590026855467,-2.156875610351562
179135,0.0041351318359375,1.960662841796875,-0.4685516357421875,2.812090158462524,1.472655057907104,1.054161190986633,61.3492431640625,99.47467041015624,-3.097549438476562
179136,0.200225830078125,1.76544189453125,-0.7993927001953125,2.048591375350952,1.719427347183228,1.028467774391174,61.82765197753906,99.4720458984375,-4.240264892578125
179137,0.172332763671875,1.754638671875,-0.4791717529296875,1.059677362442017,1.111322164535522,0.876359224319458,62.52656555175781,99.41868591308594,-5.396438598632812
179138,0.0341949462890625,1.704483032226562,0.0122222900390625,0.3806245625019073,0.9780781269073486,0.7954121828079224,63.16007995605469,99.20783996582033,-6.077972412109375
179139,-0.00140380859375,1.599380493164062,0.0937042236328125,-0.1526404023170471,0.9084774851799012,0.7915966510772705,63.68211364746094,98.9077606201172,-6.347930908203125
179140,-0.0174102783203125,1.459457397460938,0.143585205078125,-0.4506963491439819,0.6781960725784302,0.7658929228782654,64.30303955078125,98.58876037597656,-6.210189819335938
179141,-0.0174102783203125,1.459457397460938,0.143585205078125,-0.4506963491439819,0.6781960725784302,0.7658929228782654,64.30303955078125,98.58876037597656,-6.210189819335938
179142,-0.084075927734375,1.209945678710938,0.3338165283203125,0.4699800312519073,-0.254452258348465,0.5447527766227722,65.42193603515625,97.9300537109375,-5.391448974609375
179143,-0.146453857421875,0.9858551025390624,0.377777099609375,1.218837261199951,-0.4767492413520813,0.5238176584243774,66.04902648925781,97.57478332519533,-5.327957153320312
179144,-0.1741180419921875,0.8181610107421875,0.371795654296875,1.654164433479309,-0.5674054026603699,0.5495384931564331,66.46321105957031,97.54165649414062,-5.686996459960938
179145,-0.1741180419921875,0.8181610107421875,0.371795654296875,1.654164433479309,-0.5674054026603699,0.5495384931564331,66.46321105957031,97.54165649414062,-5.686996459960938
179146,-0.1460418701171875,0.51708984375,0.253997802734375,1.6158287525177,-0.3801739513874054,0.4246658086776733,67.12300109863281,97.39822387695312,-7.019454956054688
179147,-0.1460418701171875,0.51708984375,0.253997802734375,1.6158287525177,-0.3801739513874054,0.4246658086776733,67.12300109863281,97.39822387695312,-7.019454956054688
179148,-0.1147308349609375,0.228179931640625,0.0610198974609375,0.8214754462242126,-0.4832044839859009,0.1117534264922142,67.68740844726562,97.50520324707033,-8.597366333007812
179149,-0.0938873291015625,0.098358154296875,-0.0282745361328125,0.8214754462242126,-0.4832044839859009,0.1117534264922142,67.85826110839844,97.48226928710938,-9.34747314453125
179150,-0.0836944580078125,-0.0183258056640625,-0.08984375,0.6647045016288757,-0.5786793231964111,0.0891138985753059,67.98941040039062,97.56471252441406,-9.81591796875
179151,-0.05584716796875,-0.1304168701171875,-0.207733154296875,0.5727013349533081,-0.5105564594268799,0.1844049990177155,68.05567932128906,97.68722534179688,-10.20124816894531
179152,0.0305023193359375,-0.209014892578125,-0.5269927978515625,0.5983846187591553,-0.7573859691619873,0.428059458732605,68.04447937011719,97.62864685058594,-10.55055236816406
179153,0.0305023193359375,-0.209014892578125,-0.5269927978515625,0.5983846187591553,-0.7573859691619873,0.428059458732605,68.04447937011719,97.62864685058594,-10.55055236816406
179154,0.05596923828125,-0.142059326171875,-0.190338134765625,1.097876667976379,-1.242379546165466,0.9337807297706604,68.27951049804688,97.69056701660156,-11.22026062011719
179155,0.0070343017578125,-0.1051025390625,0.061859130859375,1.226147890090942,-0.479274719953537,0.9750533103942872,68.54287719726562,97.60221862792967,-11.63441467285156
179156,-0.013275146484375,-0.08172607421875,0.09283447265625,1.1978759765625,0.3106191158294678,0.8917751908302307,68.90716552734375,97.69827270507812,-12.42149353027344
179157,-0.022735595703125,-0.070037841796875,0.0196685791015625,1.081764340400696,0.771385133266449,0.784376859664917,69.20755004882812,97.56857299804688,-12.82481384277344
179158,-0.0418548583984375,-0.06793212890625,-0.0924530029296875,0.9328906536102296,0.9118197560310364,0.6730015873908997,69.60159301757812,97.40396118164062,-13.06967163085938
179159,-0.06463623046875,-0.0741729736328125,-0.1949920654296875,0.7879031300544739,0.7616033554077148,0.5674729943275452,70.01210021972656,97.29270935058594,-13.27388000488281
179160,-0.085693359375,-0.077301025390625,-0.2087249755859375,0.6401557326316833,0.4798406362533569,0.4693770706653595,70.3741455078125,97.2246551513672,-13.50947570800781
179161,-0.085693359375,-0.077301025390625,-0.2087249755859375,0.6401557326316833,0.4798406362533569,0.4693770706653595,70.3741455078125,97.2246551513672,-13.50947570800781
179162,-0.116363525390625,-0.0620880126953125,-0.0390167236328125,0.1766088604927063,0.4315884113311768,0.1376191079616547,70.85836791992188,96.96942138671876,-13.77351379394531
179163,-0.127716064453125,-0.0624237060546875,0.010498046875,0.1766088604927063,0.4315884113311768,0.1376191079616547,71.06208801269531,96.91355895996094,-13.81683349609375
179164,-0.1332550048828125,-0.0663909912109375,0.033966064453125,-0.1435552984476089,0.7664196491241455,-0.1302522718906403,71.21751403808594,97.00462341308594,-13.81681823730469
179165,-0.1332550048828125,-0.0663909912109375,0.033966064453125,-0.1435552984476089,0.7664196491241455,-0.1302522718906403,71.21751403808594,97.00462341308594,-13.81681823730469
179166,-0.1206512451171875,-0.075927734375,0.0351104736328125,-0.295319527387619,0.899818480014801,-0.2598851025104523,71.49942016601562,97.08039855957033,-13.50105285644531
179167,-0.1036224365234375,-0.08538818359375,0.0371551513671875,-0.4380410015583038,1.001513719558716,-0.3733528256416321,71.46900939941406,97.24513244628906,-13.01716613769531
179168,-0.0876922607421875,-0.0950469970703125,0.0418701171875,-0.566218912601471,1.084571003913879,-0.4540415406227112,71.46160888671875,97.3258819580078,-12.45498657226562
179169,-0.074310302734375,-0.1083221435546875,0.038970947265625,-0.6778724789619446,1.154868125915527,-0.4986340403556824,71.3939208984375,97.31195068359376,-11.81680297851562
179170,-0.063140869140625,-0.1195831298828125,0.0251922607421875,-0.7713981866836548,1.192943572998047,-0.5099186301231384,71.36381530761719,97.28694152832033,-11.11158752441406
179171,-0.063140869140625,-0.1195831298828125,0.0251922607421875,-0.7713981866836548,1.192943572998047,-0.5099186301231384,71.36381530761719,97.28694152832033,-11.11158752441406
179172,-0.0471038818359375,-0.117767333984375,-0.003692626953125,-0.8606377840042114,1.181461334228516,-0.4985964894294739,71.18174743652344,97.24880981445312,-10.31793212890625
179173,-0.0189361572265625,-0.1020050048828125,-0.056640625,-0.9211597442626952,1.088369250297546,-0.4804371893405914,70.94232177734375,97.33238220214844,-9.515029907226562
179174,0.1114959716796875,0.0027923583984375,-0.556396484375,-0.7988428473472595,0.0251620784401893,-0.4213943779468536,70.59156799316406,97.50717163085938,-7.967758178710938
179175,0.1114959716796875,0.0027923583984375,-0.556396484375,-0.7988428473472595,0.0251620784401893,-0.4213943779468536,70.59156799316406,97.50717163085938,-7.967758178710938
179176,0.0605316162109375,0.057891845703125,-0.1323089599609375,-0.6846843361854553,-1.91871190071106,-0.3941763341426849,70.13185119628906,97.69627380371094,-7.186141967773438
179177,0.02838134765625,0.067718505859375,0.32916259765625,-0.6846843361854553,-1.91871190071106,-0.3941763341426849,69.72976684570312,97.84408569335938,-7.347457885742188
179178,0.054534912109375,0.3197784423828125,0.76702880859375,-0.9869376420974731,-1.031148314476013,-0.4917497634887695,69.27407836914062,98.14105224609376,-7.696060180664062
179179,0.054534912109375,0.3197784423828125,0.76702880859375,-0.9869376420974731,-1.031148314476013,-0.4917497634887695,69.27407836914062,98.14105224609376,-7.696060180664062
179180,0.159881591796875,1.331390380859375,1.3192138671875,-2.606966495513916,3.2471022605896,-0.1146589368581772,68.57188415527344,98.47743225097656,-8.37115478515625
179181,0.0232086181640625,7.24072265625,1.343978881835938,-3.479023218154907,3.410903692245483,1.396714806556702,66.94821166992188,99.17414855957033,-9.1357421875
179182,-1.197402954101562,8.103118896484375,1.042800903320312,-2.8077073097229,0.8929581642150879,0.7556671500205994,66.71253967285156,99.10848999023438,-8.386367797851562
179183,-1.585220336914062,7.507568359375,1.159576416015625,-0.6006466746330261,-0.7273319363594055,-1.453636884689331,66.92713928222656,98.71452331542967,-7.013748168945312
179184,-0.4899139404296875,4.265960693359375,0.382080078125,0.4047600030899048,-1.838116645812988,-1.704795718193054,67.31898498535156,98.3987274169922,-5.76336669921875
179185,-0.4899139404296875,4.265960693359375,0.382080078125,0.4047600030899048,-1.838116645812988,-1.704795718193054,67.31898498535156,98.3987274169922,-5.76336669921875
179186,-0.187255859375,0.935028076171875,-0.0821533203125,0.3387431800365448,-1.942594885826111,-0.5372442603111267,66.74183654785156,98.33616638183594,-5.147018432617188
179187,-0.187255859375,0.935028076171875,-0.0821533203125,0.3387431800365448,-1.942594885826111,-0.5372442603111267,66.74183654785156,98.33616638183594,-5.147018432617188
179188,0.1088409423828125,0.7086944580078125,-1.960586547851562,1.055707097053528,0.2691124379634857,1.295914649963379,66.04885864257812,98.79103088378906,-5.682418823242188
179189,0.0779876708984375,1.6961669921875,-0.9962921142578124,1.019785404205322,0.2505760192871094,1.291905283927917,66.07785034179688,98.78887939453124,-5.869949340820312
179190,0.0069580078125,2.02154541015625,-0.1454925537109375,0.7817032933235168,0.733567476272583,1.061884641647339,66.55000305175781,98.6337432861328,-6.23095703125
179191,0.0360565185546875,2.020401000976562,-0.011260986328125,0.4176371991634369,1.104041934013367,0.8885232210159302,67.18603515625,98.20855712890624,-6.736373901367188
179192,-0.0061187744140625,1.820693969726562,-0.037994384765625,-0.1310323178768158,0.949133574962616,0.4892671704292297,67.88056945800781,97.85324096679688,-7.131011962890625
179193,-0.0061187744140625,1.820693969726562,-0.037994384765625,-0.1310323178768158,0.949133574962616,0.4892671704292297,67.88056945800781,97.85324096679688,-7.131011962890625
179194,0.02069091796875,1.105010986328125,0.04937744140625,-0.1864915788173676,0.7401619553565979,0.5212453603744507,68.95565795898438,97.05589294433594,-6.988357543945312
179195,0.0694732666015625,0.88726806640625,0.13970947265625,-0.0747360214591026,0.6613348126411438,0.6693445444107056,69.38468933105469,96.77117919921876,-6.702728271484375
179196,0.109710693359375,0.7744903564453125,0.178955078125,0.164023295044899,0.5861386060714722,0.7840186357498169,69.55274963378906,96.56887817382812,-6.439712524414062
179197,0.109710693359375,0.7744903564453125,0.178955078125,0.164023295044899,0.5861386060714722,0.7840186357498169,69.55274963378906,96.56887817382812,-6.439712524414062
179198,0.0821990966796875,0.5970916748046875,0.2425079345703125,0.6940173506736755,0.6457329392433167,0.8024575710296631,70.30790710449219,96.21063232421876,-5.947174072265625
179199,0.0821990966796875,0.5970916748046875,0.2425079345703125,0.6940173506736755,0.6457329392433167,0.8024575710296631,70.30790710449219,96.21063232421876,-5.947174072265625
179200,0.0484161376953125,0.4259490966796875,0.1482391357421875,0.8551125526428223,0.7591188549995422,0.7163211107254028,70.96855163574219,95.93673706054688,-6.015731811523438
179201,0.0335845947265625,0.3464813232421875,0.06988525390625,0.8551125526428223,0.7591188549995422,0.7163211107254028,71.2928466796875,95.7326202392578,-6.254241943359375
179202,0.0176239013671875,0.277587890625,0.00909423828125,0.8531069159507751,0.6110865473747253,0.681203305721283,71.57623291015625,95.66195678710938,-6.466690063476562
179203,-0.002197265625,0.22796630859375,-0.05615234375,0.8513585329055786,0.3728524148464203,0.6157066226005554,71.87449645996094,95.55418395996094,-6.66888427734375
179204,-0.0178375244140625,0.1766357421875,-0.1064453125,0.8852832317352295,0.0421309433877468,0.529597818851471,72.10504150390625,95.47802734375,-6.866943359375
179205,-0.0178375244140625,0.1766357421875,-0.1064453125,0.8852832317352295,0.0421309433877468,0.529597818851471,72.10504150390625,95.47802734375,-6.866943359375
179206,-0.035552978515625,0.0909423828125,-0.09637451171875,0.9623436331748962,-0.5643587112426758,0.3077344000339508,72.44761657714844,95.48101806640624,-7.40753173828125
179207,-0.0320281982421875,0.04925537109375,-0.0788726806640625,0.9446319937705994,-0.738655149936676,0.1032504886388779,72.57620239257812,95.5490264892578,-7.87652587890625
179208,-0.0074615478515625,-0.0046539306640625,-0.0459136962890625,0.9446319937705994,-0.738655149936676,0.1032504886388779,72.6419677734375,95.4610595703125,-8.3885498046875
179209,-0.0074615478515625,-0.0046539306640625,-0.0459136962890625,0.9446319937705994,-0.738655149936676,0.1032504886388779,72.6419677734375,95.4610595703125,-8.3885498046875
179210,0.071502685546875,-0.0728607177734375,0.034698486328125,0.7095718383789062,-0.3662016987800598,0.060219932347536,72.70503234863281,95.61769104003906,-9.501998901367188
179211,0.0992431640625,-0.080322265625,0.0681915283203125,0.5659765601158142,-0.0925352573394775,0.1020805612206459,72.66984558105469,95.73475646972656,-10.04827880859375
179212,0.1114654541015625,-0.078155517578125,0.094512939453125,0.4494172334671021,0.2095058262348175,0.164038211107254,72.6064453125,95.82107543945312,-10.50753784179688
179213,0.1114654541015625,-0.078155517578125,0.094512939453125,0.4494172334671021,0.2095058262348175,0.164038211107254,72.6064453125,95.82107543945312,-10.50753784179688
179214,0.12646484375,-0.069244384765625,0.11376953125,0.2115359455347061,0.6257443428039551,0.2668626010417938,72.59361267089844,95.89447021484376,-10.54327392578125
179215,0.1296844482421875,-0.064300537109375,0.1315765380859375,0.0535974465310573,0.714148223400116,0.2879500389099121,72.74711608886719,95.84107971191406,-10.37918090820312
179216,0.1313629150390625,-0.0586700439453125,0.1544342041015625,-0.2630500197410583,0.722148060798645,0.2519198656082153,72.93890380859375,95.6488800048828,-10.11862182617188
179217,0.1381378173828125,-0.0584564208984375,0.1451873779296875,-0.2630500197410583,0.722148060798645,0.2519198656082153,73.04342651367188,95.4243621826172,-9.866180419921877
179218,0.14703369140625,-0.061309814453125,0.114044189453125,-0.3574694395065308,0.5583154559135437,0.1884878873825073,73.23304748535156,95.0146026611328,-9.295852661132812
179219,0.14703369140625,-0.061309814453125,0.114044189453125,-0.3574694395065308,0.5583154559135437,0.1884878873825073,73.23304748535156,95.0146026611328,-9.295852661132812
179220,0.1378021240234375,-0.0627288818359375,0.1673736572265625,-0.4535664319992065,0.0948735177516937,-0.117370568215847,73.53927612304688,94.70852661132812,-8.424835205078125
179221,0.12744140625,-0.06292724609375,0.213409423828125,-0.4535664319992065,0.0948735177516937,-0.117370568215847,73.52952575683594,94.55584716796876,-7.948898315429688
179222,0.116912841796875,-0.06683349609375,0.2268218994140625,-0.5717633962631226,0.0734846070408821,-0.3520198166370392,73.58164978027344,94.42381286621094,-7.575332641601562
179223,0.116912841796875,-0.06683349609375,0.2268218994140625,-0.5717633962631226,0.0734846070408821,-0.3520198166370392,73.58164978027344,94.42381286621094,-7.575332641601562
179224,0.1020965576171875,-0.0709228515625,0.1913604736328125,-0.6778011322021484,-0.0934529826045036,-0.45686075091362,73.54920959472656,94.42324829101562,-7.207061767578125
179225,0.0929412841796875,-0.0854949951171875,-0.0893402099609375,-0.7734624147415161,-0.5303626656532288,-0.5270592570304871,73.34904479980469,94.48858642578124,-6.484222412109375
179226,0.10565185546875,0.0545654296875,-0.2412261962890625,-0.8236731290817261,-1.249265193939209,-0.6171090006828308,73.09117126464844,94.4974365234375,-6.0634765625
179227,0.10565185546875,0.0545654296875,-0.2412261962890625,-0.8236731290817261,-1.249265193939209,-0.6171090006828308,73.09117126464844,94.4974365234375,-6.0634765625
179228,0.1306304931640625,0.284210205078125,-0.094207763671875,-0.8495877981185913,-2.388619899749756,-0.8883333206176758,72.60968017578125,94.80023193359376,-5.769500732421875
179229,0.1363983154296875,0.381744384765625,0.160400390625,-0.9684574604034424,-2.154472827911377,-1.056070685386658,72.22955322265625,95.12066650390624,-6.048675537109375
179230,0.155303955078125,0.69085693359375,0.2471771240234375,-1.111994385719299,-1.535999774932861,-1.321761250495911,71.81857299804688,95.36395263671876,-6.24212646484375
179231,0.2203216552734375,1.652053833007812,0.3603515625,-1.186742424964905,-0.4852005243301392,-1.990840673446655,71.15774536132812,95.78994750976562,-6.392913818359375
179232,0.351593017578125,2.890411376953125,0.49371337890625,-1.146442651748657,0.9021053314208984,-2.845423221588135,70.39596557617188,96.30662536621094,-6.522567749023438
179233,0.4398345947265625,3.875686645507812,0.14434814453125,-0.9089738726615906,1.302316069602966,-3.165693998336792,69.25384521484375,96.94587707519533,-6.409912109375
179234,0.33660888671875,5.295516967773438,0.0159759521484375,-0.6990403532981873,-0.1013926640152931,-3.411765098571777,67.84059143066406,97.6164093017578,-6.2445068359375
179235,0.33660888671875,5.295516967773438,0.0159759521484375,-0.6990403532981873,-0.1013926640152931,-3.411765098571777,67.84059143066406,97.6164093017578,-6.2445068359375
179236,-0.4400482177734375,6.00567626953125,1.240158081054688,-0.967656135559082,-1.085766196250916,-3.35301399230957,64.57196044921875,98.79861450195312,-5.712799072265625
179237,-0.9871673583984376,4.023086547851562,0.9552764892578124,-0.5956162214279175,-0.3017028570175171,-2.603704929351807,63.1025390625,99.38107299804688,-5.685073852539062
179238,-1.632644653320312,1.908233642578125,0.3827362060546875,0.0042884880676865,1.476505517959595,-1.27272891998291,61.88587951660156,99.90274047851562,-5.785812377929688
179239,-1.401077270507812,1.149124145507812,-0.781036376953125,0.892795205116272,2.465362071990967,0.2337307333946228,60.96221923828125,100.3468322753906,-5.874679565429688
179240,-0.79638671875,1.481033325195312,-1.260467529296875,1.726404070854187,0.1490038633346558,0.870240330696106,60.51406860351562,100.5471496582031,-5.905929565429688
179241,-0.79638671875,1.481033325195312,-1.260467529296875,1.726404070854187,0.1490038633346558,0.870240330696106,60.51406860351562,100.5471496582031,-5.905929565429688
179242,-0.20941162109375,1.953170776367188,-0.3396453857421875,1.253595471382141,-0.0880507603287696,0.7758185267448425,60.79635620117188,100.4053955078125,-6.485702514648438
179243,-0.20941162109375,1.953170776367188,-0.3396453857421875,1.253595471382141,-0.0880507603287696,0.7758185267448425,60.79635620117188,100.4053955078125,-6.485702514648438
179244,0.01849365234375,1.606094360351562,-0.035186767578125,0.3985519111156464,-0.5167526006698608,1.166590571403503,61.75238037109375,99.9704132080078,-7.867340087890625
179245,0.020904541015625,1.507400512695312,0.081085205078125,0.3985519111156464,-0.5167526006698608,1.166590571403503,62.19064331054688,99.87037658691406,-8.233627319335938
179246,0.0546875,1.396041870117188,0.1715545654296875,0.461981475353241,-0.225831001996994,1.168421983718872,62.69287109375,99.63410949707033,-8.4892578125
179247,0.0913238525390625,1.290740966796875,0.2139892578125,0.5443128347396851,0.123773604631424,1.155905961990356,63.33079528808594,99.39012145996094,-8.504913330078125
179248,0.092010498046875,1.173568725585938,0.1979827880859375,0.6111595034599304,0.4132962226867676,1.093496918678284,63.94755554199219,99.07510375976562,-8.607177734375
179249,0.092010498046875,1.173568725585938,0.1979827880859375,0.6111595034599304,0.4132962226867676,1.093496918678284,63.94755554199219,99.07510375976562,-8.607177734375
179250,0.0338897705078125,0.9312591552734376,0.0903472900390625,0.8211782574653625,0.5849183201789856,0.8791779279708862,65.13566589355469,98.57493591308594,-9.086578369140623
179251,0.0046234130859375,0.7854766845703125,0.0677337646484375,0.9135571718215942,0.5481951832771301,0.8103657960891724,65.65853881835938,98.31336975097656,-9.282089233398438
179252,-0.0061492919921875,0.6405487060546875,0.0580291748046875,0.9764378666877748,0.479911208152771,0.816361665725708,66.0491943359375,98.17547607421876,-9.4444580078125
179253,-0.0061492919921875,0.6405487060546875,0.0580291748046875,0.9764378666877748,0.479911208152771,0.816361665725708,66.0491943359375,98.17547607421876,-9.4444580078125
179254,-0.003692626953125,0.363677978515625,0.015716552734375,0.9728002548217772,0.3925826847553253,0.8418387770652771,66.7889404296875,98.11105346679688,-10.04017639160156
179255,-0.00823974609375,0.253143310546875,0.0314178466796875,0.9104828238487244,0.3518152832984924,0.8436052799224854,67.17425537109375,98.04136657714844,-10.42933654785156
179256,-0.0110015869140625,0.144989013671875,0.0037841796875,0.8407671451568604,0.3002953827381134,0.8249444961547852,67.5751953125,97.92373657226562,-10.79783630371094
179257,-0.003997802734375,0.03363037109375,-0.0493621826171875,0.7855318188667297,0.1696311086416245,0.8114652037620544,67.99130249023438,97.73326110839844,-11.19789123535156
179258,0.0006103515625,-0.054595947265625,-0.09844970703125,0.7687368988990784,-0.0314351543784141,0.7987472414970398,68.41264343261719,97.51666259765624,-11.42071533203125
179259,0.01141357421875,-0.10589599609375,-0.1446990966796875,0.775189220905304,-0.2906158566474915,0.8074238300323486,68.71273803710938,97.48786926269533,-11.66957092285156
179260,0.0207366943359375,-0.115570068359375,-0.1804351806640625,0.8231737613677979,-0.5433924794197083,0.8488607406616211,69.02914428710938,97.33168029785156,-11.9892578125
179261,0.0207366943359375,-0.115570068359375,-0.1804351806640625,0.8231737613677979,-0.5433924794197083,0.8488607406616211,69.02914428710938,97.33168029785156,-11.9892578125
179262,0.0240631103515625,-0.14434814453125,-0.224365234375,0.2440368980169296,0.807328462600708,0.9066939353942872,69.63517761230469,97.20051574707033,-12.38571166992188
179263,0.0240631103515625,-0.14434814453125,-0.224365234375,0.2440368980169296,0.807328462600708,0.9066939353942872,69.63517761230469,97.20051574707033,-12.38571166992188
179264,0.1251678466796875,-0.361541748046875,-1.032958984375,-0.0981822237372398,-0.724162220954895,1.086062669754028,70.50196838378906,96.85690307617188,-12.98381042480469
179265,0.117156982421875,-0.2739105224609375,-0.6322479248046875,-0.0981822237372398,-0.724162220954895,1.086062669754028,70.98362731933594,96.9692840576172,-13.13040161132812
179266,0.077301025390625,-0.179931640625,-0.0097198486328125,-0.0347380079329013,-0.7183437347412109,1.079161286354065,71.4512939453125,96.76393127441406,-12.78297424316406
179267,0.068023681640625,-0.1346282958984375,0.2182769775390625,0.1164216846227646,-0.3079809844493866,1.013496041297913,72.15458679199219,96.49365234375,-12.3543701171875
179268,0.07415771484375,-0.1380615234375,0.3259429931640625,0.2204221189022064,0.3407221734523773,0.9137436151504515,72.85578918457031,96.13192749023438,-12.30833435058594
179269,0.07415771484375,-0.1380615234375,0.3259429931640625,0.2204221189022064,0.3407221734523773,0.9137436151504515,72.85578918457031,96.13192749023438,-12.30833435058594
179270,0.0792388916015625,-0.1894683837890625,0.2037506103515625,0.0021132184192538,1.404967188835144,0.6113120913505554,74.20654296875,95.19996643066406,-11.84701538085938
179271,0.0710906982421875,-0.200714111328125,0.1223907470703125,-0.2839432954788208,1.651664853096008,0.4403930902481079,74.72012329101562,94.76889038085938,-11.38360595703125
179272,0.0547637939453125,-0.208038330078125,0.0495147705078125,-0.5697438716888428,1.667556643486023,0.2987733781337738,75.145263671875,94.3832550048828,-10.78057861328125
179273,0.0547637939453125,-0.208038330078125,0.0495147705078125,-0.5697438716888428,1.667556643486023,0.2987733781337738,75.145263671875,94.3832550048828,-10.78057861328125
179274,0.01068115234375,-0.2106475830078125,-0.1067047119140625,-1.095649242401123,1.028910994529724,0.080573670566082,75.56268310546875,93.69004821777344,-9.395111083984377
179275,-0.01593017578125,-0.20599365234375,-0.1383819580078125,-1.31549346446991,0.5296635627746582,-0.016760604456067,75.66087341308594,93.47178649902344,-8.610443115234375
179276,-0.049530029296875,-0.19195556640625,-0.1487274169921875,-1.493443727493286,0.0687641501426696,-0.0939912125468254,75.69769287109375,93.23876953125,-7.859939575195312
179277,-0.1011505126953125,-0.120941162109375,-0.16717529296875,-1.58430278301239,-0.2614185512065887,-0.1478352695703506,75.74395751953125,92.86001586914062,-6.393402099609375
179278,-0.1179962158203125,0.0802001953125,-0.2032928466796875,-1.562115788459778,-0.445683479309082,-0.2254738658666611,75.79624938964844,92.80918884277344,-5.651596069335938
179279,-0.1179962158203125,0.0802001953125,-0.2032928466796875,-1.562115788459778,-0.445683479309082,-0.2254738658666611,75.79624938964844,92.80918884277344,-5.651596069335938
179280,-0.027374267578125,0.2490386962890625,0.19464111328125,-1.522955775260925,0.3342299163341522,-0.4538117051124573,75.82591247558594,92.69039916992188,-4.466964721679688
179281,-0.001251220703125,0.24212646484375,0.4630584716796875,-1.645590424537659,1.308393716812134,-0.5611615777015686,75.64801025390625,92.80819702148438,-3.713211059570312
179282,0.0157928466796875,0.272918701171875,0.61822509765625,-1.866683840751648,2.165176630020142,-0.714665412902832,75.33500671386719,93.17501831054688,-2.7750244140625
179283,0.0186614990234375,0.3601226806640625,0.69140625,-2.096206665039062,2.634589195251465,-0.950839340686798,74.80195617675781,93.56996154785156,-1.872360229492188
179284,0.0084686279296875,0.58380126953125,0.9122772216796876,-2.211478233337402,3.001836061477661,-1.201636433601379,73.93821716308594,94.04679870605467,-1.047210693359375
179285,0.0023956298828125,1.670669555664062,1.190200805664062,-2.386058568954468,3.19070839881897,-1.624173521995544,72.72262573242188,94.61750793457033,-0.4829559326171875
179286,0.1323699951171875,5.842681884765625,1.306747436523438,-2.049256801605225,2.748457670211792,-1.000512838363647,71.4044189453125,95.09544372558594,-0.348724365234375
179287,-0.315582275390625,8.081329345703125,1.516998291015625,-2.18487024307251,0.6259909272193909,1.767942905426025,70.53724670410156,95.3281707763672,-0.639373779296875
179288,-1.314071655273438,7.990066528320312,1.980194091796875,-1.305434942245483,0.1237602904438972,0.905941903591156,70.49253845214844,95.03341674804688,-0.739593505859375
179289,-1.314071655273438,7.990066528320312,1.980194091796875,-1.305434942245483,0.1237602904438972,0.905941903591156,70.49253845214844,95.03341674804688,-0.739593505859375
179290,-0.047821044921875,2.855178833007812,0.3533477783203125,-0.9454253911972046,-1.498463273048401,-1.88340961933136,71.04023742675781,94.27043151855467,0.8760986328125
179291,-0.047821044921875,2.855178833007812,0.3533477783203125,-0.9454253911972046,-1.498463273048401,-1.88340961933136,71.04023742675781,94.27043151855467,0.8760986328125
179292,-0.0377044677734375,1.003707885742188,0.3230133056640625,-1.320961475372314,-1.36308228969574,-1.281361818313599,69.75930786132812,94.52503967285156,2.04302978515625
179293,0.195159912109375,0.7545318603515625,-1.125656127929688,-1.274923920631409,-1.115760922431946,-0.9716508388519288,69.19255065917969,94.51618957519533,2.375762939453125
179294,0.449066162109375,1.270355224609375,-1.2669677734375,-0.8814506530761719,-1.41230845451355,-0.2074844837188721,68.72378540039062,94.71414184570312,2.617813110351562
179295,0.449066162109375,1.270355224609375,-1.2669677734375,-0.8814506530761719,-1.41230845451355,-0.2074844837188721,68.72378540039062,94.71414184570312,2.617813110351562
179296,0.374114990234375,1.829940795898438,-0.0919952392578125,0.5113234519958496,0.4357605278491974,0.6565759778022766,68.42689514160156,94.831787109375,2.68121337890625
179297,0.1875152587890625,1.983688354492188,0.4183197021484375,2.228144645690918,1.615262627601624,1.123774290084839,68.78700256347656,94.491943359375,2.588302612304688
179298,0.159423828125,1.941909790039062,0.32659912109375,2.050247430801392,1.547018527984619,0.973498284816742,69.135498046875,94.42195129394533,2.11474609375
179299,0.131683349609375,1.698989868164062,0.2416839599609375,1.534638047218323,1.075134634971619,0.6919363737106323,69.4254150390625,94.51856994628906,1.577239990234375
179300,0.09161376953125,1.360488891601562,0.252288818359375,0.99000346660614,0.5719758868217468,0.3846989572048187,69.63363647460938,94.44880676269533,1.281097412109375
179301,0.0718841552734375,1.054046630859375,0.29742431640625,0.6302157640457153,0.2655493915081024,0.1371522694826126,69.89851379394531,94.41302490234376,0.846923828125
179302,0.0673675537109375,0.799560546875,0.3206634521484375,0.4868743121623993,0.0814876705408096,0.026012958958745,70.07112121582031,94.38084411621094,0.5997314453125
179303,0.0623779296875,0.60931396484375,0.3433380126953125,0.5116201639175415,0.0188405327498912,0.0276377536356449,70.13560485839844,94.34529113769533,0.477264404296875
179304,0.0659332275390625,0.467254638671875,0.347808837890625,0.6400497555732727,0.0618508495390415,0.0871508792042732,70.23095703125,94.3394775390625,0.423583984375
179305,0.0659332275390625,0.467254638671875,0.347808837890625,0.6400497555732727,0.0618508495390415,0.0871508792042732,70.23095703125,94.3394775390625,0.423583984375
179306,0.0650482177734375,0.2864227294921875,0.2538299560546875,0.9266170859336852,0.2335919886827469,0.1937103420495987,70.44267272949219,94.34938049316406,0.0084686279296875
179307,0.0650482177734375,0.2864227294921875,0.2538299560546875,0.9266170859336852,0.2335919886827469,0.1937103420495987,70.44267272949219,94.34938049316406,0.0084686279296875
179308,0.03253173828125,0.1875762939453125,0.097686767578125,0.8717703223228455,0.2451839298009872,0.1238646879792213,70.59553527832031,94.4852294921875,-0.4549407958984375
179309,0.0191192626953125,0.137542724609375,0.016143798828125,0.7485219240188599,0.1382343024015427,0.0390217006206512,70.55992126464844,94.61392211914062,-0.6396636962890625
179310,0.0253448486328125,0.084686279296875,-0.074493408203125,0.6170341968536377,-0.0458106324076652,-0.0495414547622203,70.58700561523438,94.71784973144533,-0.841094970703125
179311,0.0870208740234375,0.0057525634765625,-0.4070281982421875,0.5696110129356384,-0.5808639526367188,-0.0757458955049514,70.54096984863281,94.91726684570312,-1.1280517578125
179312,0.1805877685546875,-0.060150146484375,-0.765625,0.6954206228256226,-1.909180521965027,0.0021206750534474,70.39189147949219,95.08181762695312,-1.4840087890625
179313,0.1912384033203125,-0.0397796630859375,-0.491546630859375,0.9427763223648072,-2.781268119812012,0.078545406460762,70.39578247070312,95.23332214355467,-1.803665161132812
179314,0.16168212890625,-0.00128173828125,-0.0640106201171875,1.121125340461731,-2.460477352142334,0.0626279637217521,70.45404052734375,95.48361206054688,-2.4609375
179315,0.158447265625,-0.033050537109375,0.1750335693359375,1.056703686714172,-1.173608779907227,-0.0192751605063676,70.61508178710938,95.75047302246094,-3.383987426757812
179316,0.1313629150390625,-0.085052490234375,0.2124176025390625,0.7947322726249695,0.3681505918502808,-0.1158680096268654,70.71408081054688,95.9957275390625,-4.206741333007812
179317,0.0974273681640625,-0.08929443359375,0.1350555419921875,0.5910851359367371,1.205133080482483,-0.1398220807313919,70.74220275878906,96.17311096191406,-4.768646240234375
179318,0.08050537109375,-0.08673095703125,0.0685272216796875,0.3899160623550415,1.490072965621948,-0.1217767670750618,70.64332580566406,96.17173767089844,-4.81549072265625
179319,0.0619964599609375,-0.0803985595703125,0.0209197998046875,0.1679104417562485,1.418436646461487,-0.1014683023095131,70.545166015625,96.02700805664062,-4.748855590820312
179320,0.0398101806640625,-0.074432373046875,0.011993408203125,-0.2737447321414948,0.970505714416504,-0.1696018129587173,70.53791809082031,96.0166473388672,-4.434646606445312
179321,0.0398101806640625,-0.074432373046875,0.011993408203125,-0.2737447321414948,0.970505714416504,-0.1696018129587173,70.53791809082031,96.0166473388672,-4.434646606445312
179322,0.0006256103515625,-0.0644683837890625,0.028106689453125,-0.441734254360199,0.7367209196090698,-0.2454851269721985,70.48570251464844,95.87557983398438,-3.500335693359375
179323,0.0006256103515625,-0.0644683837890625,0.028106689453125,-0.441734254360199,0.7367209196090698,-0.2454851269721985,70.48570251464844,95.87557983398438,-3.500335693359375
179324,-0.020233154296875,-0.0638580322265625,0.052703857421875,-0.5274222493171692,0.4430868923664093,-0.3959710299968719,70.23356628417969,95.82818603515624,-2.542282104492188
179325,-0.0278472900390625,-0.0630645751953125,0.067718505859375,-0.4625034630298615,0.3990011811256409,-0.5236541628837585,70.11366271972656,95.72572326660156,-2.024505615234375
179326,-0.037078857421875,-0.0588836669921875,0.069854736328125,-0.4625034630298615,0.3990011811256409,-0.5236541628837585,69.93783569335938,95.75119018554688,-1.413116455078125
179327,-0.0472412109375,-0.053436279296875,0.057861328125,-0.4535568356513977,0.4163405001163483,-0.5968588590621948,69.77439880371094,95.74050903320312,-1.152297973632812
179328,-0.0472412109375,-0.053436279296875,0.057861328125,-0.4535568356513977,0.4163405001163483,-0.5968588590621948,69.77439880371094,95.74050903320312,-1.152297973632812
179329,-0.0582733154296875,-0.0433502197265625,0.0376129150390625,-0.4645751416683197,0.4220297932624817,-0.6803412437438965,69.52204895019531,95.78868103027344,-0.9326629638671876
179330,-0.1060943603515625,0.0129547119140625,-0.0201263427734375,-0.52325040102005,0.4124810397624969,-0.8965590596199036,68.89047241210938,96.05519104003906,-0.3375244140625
179331,-0.12225341796875,0.067535400390625,-0.0834808349609375,-0.5486825704574585,0.3142032027244568,-1.008239984512329,68.54707336425781,96.20689392089844,-0.06365966796875
179332,-0.12225341796875,0.067535400390625,-0.0834808349609375,-0.5486825704574585,0.3142032027244568,-1.008239984512329,68.54707336425781,96.20689392089844,-0.06365966796875
179333,-0.1284332275390625,0.134918212890625,-0.2114715576171875,-0.5811595320701599,-0.0422878004610538,-1.119829893112183,68.13284301757812,96.42710876464844,0.1207275390625
179334,-0.2314605712890625,0.3409881591796875,-0.08367919921875,-0.611944854259491,-0.8856310248374939,-1.413930296897888,66.88105773925781,97.00405883789062,0.431610107421875
179335,-0.3422088623046875,0.9740447998046876,0.207000732421875,-0.6928703784942627,0.6886287331581116,-1.472304105758667,66.29319763183594,97.46763610839844,0.154510498046875
179336,-0.3422088623046875,0.9740447998046876,0.207000732421875,-0.6928703784942627,0.6886287331581116,-1.472304105758667,66.29319763183594,97.46763610839844,0.154510498046875
179337,-0.1896514892578125,2.671707153320312,0.359283447265625,-0.7085563540458679,0.535645604133606,-0.6891792416572571,65.43409729003906,97.89614868164062,-0.2626953125
179338,-0.2381744384765625,4.54168701171875,0.4372711181640625,-0.565240740776062,-0.2259974479675293,-0.3255064487457275,63.85409545898438,98.4534912109375,-1.032806396484375
179339,-0.3297576904296875,4.902359008789062,0.5984649658203125,-0.3234177529811859,-1.536423683166504,-0.520470917224884,63.41119384765625,98.62335205078124,-0.9454345703125
179340,-0.0638580322265625,4.16656494140625,0.9976654052734376,-0.0534677505493164,-2.678167343139648,-0.6417509913444519,63.14692687988281,98.73773193359376,-0.81353759765625
179341,0.059295654296875,3.1263427734375,1.432891845703125,-0.039403598755598,-2.657783031463623,-0.4437609314918518,63.11058044433594,98.75314331054688,-0.8155517578125
179342,0.0145721435546875,2.427886962890625,1.556900024414062,-0.366151362657547,-1.201669931411743,-0.1595356017351151,63.21244812011719,98.63633728027344,-0.688995361328125
179343,-0.0023345947265625,2.287750244140625,1.122695922851562,-0.6012752056121826,0.6599723100662231,-0.132121279835701,63.33535766601562,98.525390625,-0.684326171875
179344,0.0146026611328125,2.412796020507812,0.20989990234375,-0.4020734131336212,1.778732180595398,-0.1808155924081802,63.393798828125,98.37069702148438,-0.6008758544921875
179345,0.0146026611328125,2.412796020507812,0.20989990234375,-0.4020734131336212,1.778732180595398,-0.1808155924081802,63.393798828125,98.37069702148438,-0.6008758544921875
179346,0.16796875,2.470046997070312,-1.928787231445312,1.315589308738708,-1.664343357086182,0.2971259653568268,63.11805725097656,98.33673095703124,0.13775634765625
179347,0.16796875,2.470046997070312,-1.928787231445312,1.315589308738708,-1.664343357086182,0.2971259653568268,63.11805725097656,98.33673095703124,0.13775634765625
179348,0.2229156494140625,1.798385620117188,0.1026763916015625,1.143028736114502,0.2672143876552582,0.9310339093208312,63.24490356445312,98.33747863769533,-0.558807373046875
179349,0.1927032470703125,1.664825439453125,0.122711181640625,1.143028736114502,0.2672143876552582,0.9310339093208312,63.78176879882812,98.38899230957033,-1.6309814453125
179350,0.1383056640625,1.58599853515625,0.0214080810546875,0.4605247378349304,0.5719940066337585,0.7757282257080078,64.26010131835938,98.27882385253906,-2.324996948242188
179351,0.1383056640625,1.58599853515625,0.0214080810546875,0.4605247378349304,0.5719940066337585,0.7757282257080078,64.26010131835938,98.27882385253906,-2.324996948242188
179352,-0.0186767578125,1.400665283203125,-0.0411529541015625,0.7509570717811584,-0.1656254529953003,0.3595539033412933,65.31147766113281,98.03439331054688,-2.930877685546875
179353,-0.1194305419921875,1.277130126953125,0.0666351318359375,0.7509570717811584,-0.1656254529953003,0.3595539033412933,65.70887756347656,97.83047485351562,-3.140975952148438
179354,-0.181304931640625,1.1656494140625,0.175384521484375,1.076543211936951,-0.3442372679710388,0.3017468154430389,66.08061218261719,97.7655792236328,-3.264968872070312
179355,-0.221527099609375,1.02874755859375,0.23699951171875,1.353200554847717,-0.2923863232135773,0.2611602246761322,66.35189819335938,97.72885131835938,-3.5543212890625
179356,-0.2283782958984375,0.8514251708984375,0.20306396484375,1.525798797607422,-0.115830197930336,0.244140237569809,66.62275695800781,97.77777099609376,-4.210617065429688
179357,-0.23175048828125,0.663848876953125,0.1201324462890625,1.571985960006714,0.0516695864498615,0.258260577917099,66.75421142578125,97.87672424316406,-4.879379272460938
179358,-0.2216033935546875,0.492523193359375,0.0438995361328125,1.504804015159607,0.2161322981119156,0.3113267123699188,66.85542297363281,97.91256713867188,-5.672256469726562
179359,-0.2216033935546875,0.492523193359375,0.0438995361328125,1.504804015159607,0.2161322981119156,0.3113267123699188,66.85542297363281,97.91256713867188,-5.672256469726562
179360,-0.1965789794921875,0.331939697265625,-0.0225830078125,1.182255744934082,0.4232055842876434,0.4611876010894775,66.90083312988281,98.02520751953124,-6.457107543945312
179361,-0.114593505859375,0.0526123046875,-0.2367095947265625,1.023391842842102,0.3606505990028381,0.5596920847892761,67.24876403808594,98.2637176513672,-7.68572998046875
179362,-0.0695037841796875,-0.0562896728515625,-0.369903564453125,0.9038350582122804,0.12334243953228,0.6485516428947449,67.48612976074219,98.12222290039062,-8.047134399414062
179363,-0.031707763671875,-0.123687744140625,-0.43231201171875,0.8390467166900635,-0.1824797987937927,0.7392389178276062,67.69224548339844,98.02653503417967,-8.52325439453125
179364,0.01446533203125,-0.14898681640625,-0.439727783203125,0.8813284039497375,-0.7158353328704834,0.8976501226425171,68.00643920898438,97.93252563476562,-8.834228515625
179365,0.01446533203125,-0.14898681640625,-0.439727783203125,0.8813284039497375,-0.7158353328704834,0.8976501226425171,68.00643920898438,97.93252563476562,-8.834228515625
179366,0.07073974609375,-0.1230621337890625,-0.2817230224609375,0.8883466720581055,-0.7449042797088623,0.9333471655845642,68.52821350097656,97.78483581542967,-9.309951782226562
179367,0.0763092041015625,-0.118438720703125,-0.20123291015625,0.8277013897895813,-0.5403481721878052,0.9258599281311036,68.81584167480469,97.8421630859375,-9.683120727539062
179368,0.0792694091796875,-0.119903564453125,-0.1763458251953125,0.6327931880950928,-0.2090637385845184,0.8770087957382202,69.05262756347656,97.92881774902344,-10.07411193847656
179369,0.0792694091796875,-0.119903564453125,-0.1763458251953125,0.6327931880950928,-0.2090637385845184,0.8770087957382202,69.05262756347656,97.92881774902344,-10.07411193847656
179370,0.0762786865234375,-0.077911376953125,-0.0504150390625,0.1108458265662193,0.0066099655814468,0.7174758315086365,69.81510925292969,97.63034057617188,-10.48207092285156
179371,0.07177734375,-0.0615997314453125,0.0565185546875,-0.0805747359991073,0.1052678301930428,0.6166581511497498,70.27391052246094,97.47453308105467,-10.51821899414062
179372,0.0670166015625,-0.0557861328125,0.1225128173828125,-0.2216335833072662,0.2758930921554565,0.5062234997749329,70.58432006835938,97.26350402832033,-10.40458679199219
179373,0.0670166015625,-0.0557861328125,0.1225128173828125,-0.2216335833072662,0.2758930921554565,0.5062234997749329,70.58432006835938,97.26350402832033,-10.40458679199219
179374,0.0484771728515625,-0.0797576904296875,0.143280029296875,-0.3917299509048462,0.6936584115028381,0.3140050768852234,71.39051818847656,96.96852111816406,-9.974380493164062
179375,0.0484771728515625,-0.0797576904296875,0.143280029296875,-0.3917299509048462,0.6936584115028381,0.3140050768852234,71.39051818847656,96.96852111816406,-9.974380493164062
179376,0.03582763671875,-0.087890625,0.1104888916015625,-0.5361326932907104,0.8104925751686096,0.1503868401050568,71.59274291992188,96.8931121826172,-9.567047119140623
179377,0.0210723876953125,-0.0981903076171875,0.0598297119140625,-0.6577536463737488,0.6581137180328369,0.0749381557106971,71.96514892578125,96.76408386230467,-9.037796020507812
179378,-0.0177001953125,-0.120574951171875,-0.1085968017578125,-0.7877260446548462,0.3420641422271729,0.001939846551977,72.47801208496094,96.47177124023438,-7.705352783203125
179379,-0.0435028076171875,-0.128387451171875,-0.165802001953125,-0.9098186492919922,-0.0855921357870101,-0.0718366429209709,72.61051940917969,96.31442260742188,-7.0726318359375
179380,-0.0744781494140625,-0.12451171875,-0.1606292724609375,-0.9995932579040528,-0.4786877632141113,-0.1631865203380585,72.83015441894531,96.18760681152344,-6.38909912109375
179381,-0.0744781494140625,-0.12451171875,-0.1606292724609375,-0.9995932579040528,-0.4786877632141113,-0.1631865203380585,72.83015441894531,96.18760681152344,-6.38909912109375
179382,-0.2641448974609375,-0.011260986328125,0.0147705078125,-1.076740026473999,-0.2552786469459534,-0.601692795753479,73.23670959472656,95.99026489257812,-5.245086669921875
179383,-0.2971649169921875,0.1704864501953125,0.0303802490234375,-1.100022435188293,0.4669227004051208,-0.8806807398796082,73.34352111816406,96.0442352294922,-4.740325927734375
179384,-0.16888427734375,0.231781005859375,0.0105133056640625,-1.502574920654297,0.9566218256950378,-1.141204714775085,73.20574951171875,96.10684204101562,-4.27618408203125
179385,-0.16888427734375,0.231781005859375,0.0105133056640625,-1.502574920654297,0.9566218256950378,-1.141204714775085,73.20574951171875,96.10684204101562,-4.27618408203125
179386,-0.0557403564453125,0.2325592041015625,0.430511474609375,-1.8359614610672,1.061094999313354,-1.254752039909363,72.10740661621094,96.42776489257812,-3.139312744140625
179387,-0.0557403564453125,0.2325592041015625,0.430511474609375,-1.8359614610672,1.061094999313354,-1.254752039909363,72.10740661621094,96.42776489257812,-3.139312744140625
179388,-0.0528717041015625,0.8936920166015625,1.06427001953125,-2.437275171279907,1.897440791130066,-1.654854416847229,70.1812744140625,96.89710998535156,-2.374191284179688
179389,-0.1317596435546875,3.229507446289062,1.316192626953125,-2.149470090866089,2.54892110824585,-1.596664428710938,69.08775329589844,96.9876708984375,-2.045562744140625
179390,-0.35943603515625,5.269775390625,1.436843872070312,-1.759931087493896,1.741132378578186,0.112939864397049,67.98115539550781,97.11268615722656,-1.838882446289062
179391,-0.9161834716796876,6.465988159179688,1.679962158203125,-1.035041570663452,0.3660573363304138,1.024006724357605,67.08575439453125,97.06956481933594,-1.692047119140625
179392,-0.920989990234375,6.540542602539062,1.645248413085938,-0.1444932669401169,-0.9748969674110411,0.0495824664831161,66.92709350585938,96.94668579101562,-1.3035888671875
179393,-0.3661956787109375,4.348388671875,1.34063720703125,-0.654229998588562,-1.705416679382324,-0.890178918838501,67.24311828613281,96.80744934082033,-1.006607055664062
179394,-0.18121337890625,2.480072021484375,0.912353515625,-1.542376160621643,-1.795485854148865,-1.084497451782227,67.31002807617188,96.70426940917967,-0.6798248291015625
179395,-0.068511962890625,1.683547973632812,0.5740814208984375,-2.025793313980103,-1.401527643203735,-1.142020225524902,67.1658935546875,96.76275634765624,-0.5038604736328125
179396,0.13165283203125,1.4903564453125,0.3567352294921875,-2.355988502502441,-0.7996609807014465,-0.8393418192863464,66.82902526855469,96.5503387451172,-0.046234130859375
179397,0.315216064453125,1.818161010742188,-0.0142669677734375,-2.317582130432129,0.0296806637197732,-0.2014226019382477,66.42630004882812,96.19265747070312,0.63006591796875
179398,0.59912109375,2.308456420898438,-1.505218505859375,-1.174450516700745,-0.0581908673048019,0.5856744050979614,66.17764282226562,95.75106811523438,1.511489868164062
179399,0.59912109375,2.308456420898438,-1.505218505859375,-1.174450516700745,-0.0581908673048019,0.5856744050979614,66.17764282226562,95.75106811523438,1.511489868164062
179400,0.6825408935546875,2.423660278320312,-1.739349365234375,0.6448572874069214,-1.266534686088562,0.9280074834823608,65.87550354003906,95.44891357421876,2.541152954101562
179401,0.143524169921875,1.779022216796875,0.2982940673828125,2.002356767654419,0.7075257301330566,0.7596216797828674,66.11186218261719,95.20979309082033,3.353286743164062
179402,0.0727386474609375,1.571701049804688,0.2569427490234375,1.580589056015015,1.23291015625,0.6474490761756897,66.6793212890625,95.30281066894533,2.82025146484375
179403,0.0727386474609375,1.571701049804688,0.2569427490234375,1.580589056015015,1.23291015625,0.6474490761756897,66.6793212890625,95.30281066894533,2.82025146484375
179404,-0.010528564453125,1.187484741210938,0.166656494140625,0.4277300238609314,0.9363341331481934,0.3001925945281982,67.41954040527344,95.34841918945312,1.513809204101562
179405,-0.033416748046875,0.990936279296875,0.1790924072265625,0.2703390717506409,0.4939316809177399,0.1435965746641159,67.64956665039062,95.15122985839844,1.366104125976562
179406,-0.038482666015625,0.807586669921875,0.2074127197265625,0.367987334728241,0.0885911211371421,0.086372971534729,67.84797668457031,95.18130493164062,1.416793823242188
179407,-0.043182373046875,0.6533355712890625,0.2275848388671875,0.7885715961456299,-0.2559223175048828,0.1346576809883118,68.00215148925781,95.04421997070312,1.48004150390625
179408,-0.043182373046875,0.6533355712890625,0.2275848388671875,0.7885715961456299,-0.2559223175048828,0.1346576809883118,68.00215148925781,95.04421997070312,1.48004150390625
179409,-0.055419921875,0.461395263671875,0.1847381591796875,0.9267430305480956,-0.2137817889451981,0.099470131099224,68.15386962890625,95.12554931640624,1.170364379882812
179410,-0.044891357421875,0.3840179443359375,0.11138916015625,0.974598467350006,-0.1809428930282593,0.0372757315635681,68.32383728027344,95.25863647460938,0.8446502685546875
179411,-0.0411376953125,0.31488037109375,0.0443115234375,0.9671652913093568,-0.1933231204748154,-0.0427338816225528,68.26249694824219,95.42674255371094,0.46051025390625
179412,-0.0366668701171875,0.2420654296875,-0.026763916015625,0.93851500749588,-0.2727955877780914,-0.1238665506243706,68.29402160644531,95.59242248535156,0.024444580078125
179413,-0.03326416015625,0.1641998291015625,-0.1008148193359375,0.9314861297607422,-0.4441079497337341,-0.1851027458906174,68.32449340820312,95.730224609375,-0.473846435546875
179414,-0.02703857421875,0.077545166015625,-0.1695709228515625,0.9412401914596558,-0.6844353079795837,-0.2282211929559708,68.31930541992188,95.9609832763672,-0.9388580322265624
179415,-0.0159149169921875,-0.00946044921875,-0.2056427001953125,0.937558114528656,-0.8945574164390564,-0.2281873673200607,68.29302978515625,96.11024475097656,-1.403976440429688
179416,-0.0038604736328125,-0.0762176513671875,-0.200408935546875,0.9196044206619264,-0.9521618485450744,-0.1932493597269058,68.25299072265625,96.34115600585938,-1.832000732421875
179417,-0.0038604736328125,-0.0762176513671875,-0.200408935546875,0.9196044206619264,-0.9521618485450744,-0.1932493597269058,68.25299072265625,96.34115600585938,-1.832000732421875
179418,0.0629119873046875,-0.1110382080078125,-0.126495361328125,0.8606468439102173,-0.8264071345329285,-0.1213131099939346,68.16578674316406,96.70802307128906,-2.864303588867188
179419,0.0629119873046875,-0.1110382080078125,-0.126495361328125,0.8606468439102173,-0.8264071345329285,-0.1213131099939346,68.16578674316406,96.70802307128906,-2.864303588867188
179420,0.0809783935546875,-0.10302734375,-0.046173095703125,0.8309736251831055,-0.7234042882919312,-0.1048838049173355,68.22416687011719,96.88088989257812,-3.302001953125
179421,0.08819580078125,-0.094512939453125,0.044158935546875,0.7357943654060364,-0.2435695081949234,-0.0766638815402984,68.19355773925781,96.95768737792967,-3.677658081054688
179422,0.0804901123046875,-0.085784912109375,0.13079833984375,0.5469509363174438,0.2654788196086884,-0.0881279930472374,68.27442932128906,97.33909606933594,-4.412155151367188
179423,0.0804901123046875,-0.085784912109375,0.13079833984375,0.5469509363174438,0.2654788196086884,-0.0881279930472374,68.27442932128906,97.33909606933594,-4.412155151367188
179424,0.060302734375,-0.065643310546875,0.1245269775390625,0.4163921475410461,0.395364373922348,-0.1271001547574997,68.21934509277344,97.40606689453124,-4.436843872070312
179425,0.050537109375,-0.0653076171875,0.099853515625,0.0562211945652961,0.2031240910291672,-0.2763461172580719,68.3248291015625,97.4765167236328,-4.43377685546875
179426,0.0355072021484375,-0.0694122314453125,0.0900726318359375,0.0562211945652961,0.2031240910291672,-0.2763461172580719,68.23298645019531,97.3616180419922,-4.206771850585938
179427,0.00469970703125,-0.073333740234375,0.105499267578125,-0.1431912481784821,-0.0506831519305706,-0.3861309289932251,68.21800231933594,97.29409790039062,-4.021728515625
179428,-0.0401458740234375,-0.074005126953125,0.155914306640625,-0.44583660364151,-0.3606101274490356,-0.6253456473350525,68.14376831054688,97.25970458984376,-3.953201293945312
179429,-0.0401458740234375,-0.074005126953125,0.155914306640625,-0.44583660364151,-0.3606101274490356,-0.6253456473350525,68.14376831054688,97.25970458984376,-3.953201293945312
179430,-0.127899169921875,-0.017059326171875,0.2744598388671875,-0.5811001658439636,-0.3378550112247467,-0.7581273913383484,67.96809387207031,97.29450988769533,-3.674407958984375
179431,-0.127899169921875,-0.017059326171875,0.2744598388671875,-0.5811001658439636,-0.3378550112247467,-0.7581273913383484,67.96809387207031,97.29450988769533,-3.674407958984375
179432,-0.198944091796875,0.0828399658203125,0.353271484375,-0.9733129143714904,-0.0830770432949066,-1.126503825187683,67.44232177734375,97.5468292236328,-3.226181030273438
179433,-0.3050537109375,0.164947509765625,0.4122314453125,-1.242449641227722,0.1602402776479721,-1.396842122077942,67.19281005859375,97.75570678710938,-2.938796997070312
179434,-0.6759490966796875,0.3140716552734375,0.59210205078125,-1.480947136878967,0.8374016880989075,-1.748984932899475,66.890625,97.84538269042967,-2.636810302734375
179435,-1.102813720703125,0.5244293212890625,0.750274658203125,-1.503491520881653,2.70495080947876,-1.986123204231262,66.33267211914062,98.02725219726562,-2.248397827148438
179436,-1.0908203125,0.6608123779296875,0.5073699951171875,-1.30445921421051,3.947107553482056,-1.87692666053772,65.61170959472656,98.39651489257812,-1.67767333984375
179437,-1.0908203125,0.6608123779296875,0.5073699951171875,-1.30445921421051,3.947107553482056,-1.87692666053772,65.61170959472656,98.39651489257812,-1.67767333984375
179438,-1.220306396484375,1.245712280273438,-0.315460205078125,-0.4162992238998413,2.208188056945801,-1.012820601463318,63.44134521484375,98.8006591796875,-0.2953033447265625
179439,-1.023727416992188,2.493240356445312,-0.5245208740234375,0.1465660035610199,-0.0625121146440506,-0.7560842037200928,61.25566101074219,99.142333984375,0.49871826171875
179440,-0.54638671875,4.10003662109375,-0.203369140625,0.3775286376476288,-1.183865904808044,0.2125279754400253,60.40144348144531,99.66105651855467,0.1629486083984375
179441,-0.2139434814453125,3.956253051757812,0.091339111328125,-0.1462474912405014,-2.283833503723145,0.3878686428070068,60.08869934082031,100.1153869628906,-0.26031494140625
179442,0.009674072265625,3.070327758789062,0.4507904052734375,-0.8433243036270142,-2.680956602096558,-0.2413843870162964,59.93574523925781,100.3900909423828,-0.5078125
179443,0.009674072265625,3.070327758789062,0.4507904052734375,-0.8433243036270142,-2.680956602096558,-0.2413843870162964,59.93574523925781,100.3900909423828,-0.5078125
179444,0.3887939453125,2.306289672851562,0.3293304443359375,-0.8888976573944092,-3.297624826431274,-0.1990233510732651,60.08595275878906,100.5993804931641,-0.697235107421875
179445,0.50982666015625,2.034103393554688,0.3393402099609375,-0.5876102447509766,-4.803886413574219,0.1233624145388603,60.33523559570312,100.3639068603516,-0.51165771484375
179446,0.6240234375,2.445388793945312,1.404251098632812,-0.3495358824729919,-5.330334663391113,-0.09506206959486,61.79393005371094,99.17048645019533,-0.200653076171875
179447,0.6240234375,2.445388793945312,1.404251098632812,-0.3495358824729919,-5.330334663391113,-0.09506206959486,61.79393005371094,99.17048645019533,-0.200653076171875
179448,0.4531097412109375,3.032150268554688,1.305740356445312,-0.312834620475769,1.970700621604919,0.0658684968948364,62.80810546875,98.59529113769533,-0.6289215087890625
179449,0.2063446044921875,3.09149169921875,-0.3349609375,0.1780549585819244,4.224025726318359,0.0740755572915077,62.79100036621094,98.66502380371094,-0.54254150390625
179450,-0.3076171875,2.879989624023438,-3.252578735351562,1.157464385032654,-0.042484875768423,-0.2070551812648773,62.60040283203125,98.67422485351562,0.0445098876953125
179451,-0.3076171875,2.879989624023438,-3.252578735351562,1.157464385032654,-0.042484875768423,-0.2070551812648773,62.60040283203125,98.67422485351562,0.0445098876953125
179452,-0.36065673828125,2.297119140625,-1.34075927734375,2.129042863845825,-2.656024217605591,-0.1002887859940529,62.42391967773438,98.77737426757812,0.1832275390625
179453,0.121063232421875,1.793624877929688,0.31341552734375,2.149923086166382,-0.9319899678230286,0.5905567407608032,62.88047790527344,98.99745178222656,-1.905303955078125
179454,0.154754638671875,1.703079223632812,0.323699951171875,1.794570326805115,-0.4213224649429321,0.6828539371490479,63.36720275878906,98.95466613769533,-3.200576782226562
179455,0.1943511962890625,1.50665283203125,0.2780914306640625,1.545290946960449,0.0323661938309669,0.7216293215751648,63.90095520019531,98.98634338378906,-4.462783813476562
179456,0.2126007080078125,1.283218383789062,0.1941070556640625,1.434807896614075,0.245151162147522,0.771465539932251,64.35700988769531,98.98057556152344,-5.296554565429688
179457,0.109710693359375,1.027175903320312,0.129638671875,1.457845568656921,0.1087744161486626,0.7364745736122131,64.88978576660156,99.03419494628906,-5.961715698242188
179458,-0.0571441650390625,0.7827606201171875,0.1169891357421875,1.562097668647766,-0.2239460200071335,0.599901556968689,65.3314208984375,98.95919799804688,-6.524169921875
179459,-0.0571441650390625,0.7827606201171875,0.1169891357421875,1.562097668647766,-0.2239460200071335,0.599901556968689,65.3314208984375,98.95919799804688,-6.524169921875
179460,-0.1956787109375,0.5886383056640625,0.1082305908203125,1.684539079666138,-0.6547349691390991,0.3394385278224945,65.58612060546875,98.98687744140624,-7.278778076171875
179461,-0.2966461181640625,0.4226226806640625,0.118865966796875,1.716187357902527,-0.9982097744941713,-0.0334607549011707,65.89308166503906,99.03602600097656,-7.92437744140625
179462,-0.47540283203125,0.0554046630859375,0.19671630859375,1.3754962682724,-0.6846441030502319,-0.5659920573234558,66.15328979492188,99.29444885253906,-9.672271728515623
179463,-0.5387725830078125,-0.1180877685546875,0.1783905029296875,1.059366822242737,0.1766035258769989,-0.4607239365577698,66.00346374511719,99.53355407714844,-10.47210693359375
179464,-0.4967498779296875,-0.239837646484375,-0.0013885498046875,0.8364525437355042,0.9804880023002625,-0.2119929492473602,65.78005981445312,99.66268920898438,-11.28746032714844
179465,-0.31402587890625,-0.3045806884765625,-0.4975128173828125,0.7885382771492004,0.9468544125556946,0.102930374443531,65.58050537109375,99.77922058105467,-11.73545837402344
179466,-0.052032470703125,-0.2273712158203125,-0.8761138916015625,0.9106178879737854,-0.2057057619094849,0.43635094165802,65.49662780761719,99.66134643554688,-12.03181457519531
179467,0.0085601806640625,-0.055816650390625,-0.5577392578125,1.079474568367004,-0.961478352546692,0.6552966237068176,65.55149841308594,99.7349090576172,-12.38522338867188
179468,-0.0015716552734375,0.001007080078125,-0.1438751220703125,1.223157167434692,-0.3313411772251129,0.860889732837677,65.71324157714844,99.6851806640625,-12.82887268066406
179469,-0.0015716552734375,0.001007080078125,-0.1438751220703125,1.223157167434692,-0.3313411772251129,0.860889732837677,65.71324157714844,99.6851806640625,-12.82887268066406
179470,0.053375244140625,0.002960205078125,0.072540283203125,1.093440890312195,0.0307943969964981,0.886143684387207,66.39073181152344,99.32791137695312,-14.04319763183594
179471,0.053375244140625,0.002960205078125,0.072540283203125,1.093440890312195,0.0307943969964981,0.886143684387207,66.39073181152344,99.32791137695312,-14.04319763183594
179472,0.0641326904296875,-0.0031890869140625,0.0575103759765625,0.6310240030288696,0.3844675123691559,0.8289650678634644,66.692138671875,99.1735382080078,-14.56216430664062
179473,0.056732177734375,-0.033355712890625,-7.62939453125e-05,0.4016675353050232,0.4440501630306244,0.7810039520263672,67.45123291015625,99.10211181640624,-15.25552368164062
179474,0.0461883544921875,-0.04193115234375,-0.03619384765625,0.1983373165130615,0.4049767851829529,0.7235177159309387,67.77090454101562,99.04768371582033,-15.43971252441406
179475,0.0461883544921875,-0.04193115234375,-0.03619384765625,0.1983373165130615,0.4049767851829529,0.7235177159309387,67.77090454101562,99.04768371582033,-15.43971252441406
179476,0.0369873046875,-0.0497283935546875,-0.0571441650390625,0.0111972605809569,0.2877825200557709,0.6604444980621338,68.09690856933594,98.95108032226562,-15.37059020996094
179477,0.0299224853515625,-0.0533294677734375,-0.0470428466796875,-0.163179874420166,0.1379014104604721,0.5878624320030212,68.46083068847656,98.85958862304688,-15.3394775390625
179478,0.0135650634765625,-0.054901123046875,-0.0021514892578125,-0.4540252983570099,-0.0845636203885078,0.4009106755256653,69.09754943847656,98.71736145019533,-14.67184448242188
179479,0.0135650634765625,-0.054901123046875,-0.0021514892578125,-0.4540252983570099,-0.0845636203885078,0.4009106755256653,69.09754943847656,98.71736145019533,-14.67184448242188
179480,0.00921630859375,-0.0557708740234375,0.00421142578125,-0.5568832159042358,-0.1433283984661102,0.2908853590488434,69.46220397949219,98.7021942138672,-14.39056396484375
179481,0.0060882568359375,-0.0600128173828125,0.003936767578125,-0.632476270198822,-0.1366318762302399,0.0779728293418884,69.96270751953125,98.63591003417967,-13.4835205078125
179482,0.0046844482421875,-0.06005859375,-0.00836181640625,-0.6672675013542175,-0.1491934806108475,-0.0226320754736661,70.19609069824219,98.56916809082033,-12.97819519042969
179483,0.0046844482421875,-0.06005859375,-0.00836181640625,-0.6672675013542175,-0.1491934806108475,-0.0226320754736661,70.19609069824219,98.56916809082033,-12.97819519042969
179484,0.00531005859375,-0.0601654052734375,-0.0248870849609375,-0.7245427966117859,-0.2085311114788055,-0.1159801334142685,70.34321594238281,98.55581665039062,-12.51565551757812
179485,0.018646240234375,-0.0535888671875,-0.0881500244140625,-0.9117531776428224,-0.4749151170253754,-0.2794398963451385,70.58091735839844,98.26966857910156,-11.49925231933594
179486,0.0465087890625,0.00140380859375,-0.1616973876953125,-1.085045576095581,-0.804697573184967,-0.3354496359825134,70.58343505859375,98.2995147705078,-11.170654296875
179487,0.0465087890625,0.00140380859375,-0.1616973876953125,-1.085045576095581,-0.804697573184967,-0.3354496359825134,70.58343505859375,98.2995147705078,-11.170654296875
179488,0.0485687255859375,0.134185791015625,-0.2606048583984375,-1.374757885932922,-1.644130229949951,-0.4098623394966125,70.19021606445312,98.52923583984376,-10.56285095214844
179489,0.0492706298828125,0.207550048828125,0.000335693359375,-1.479100465774536,-1.758728981018066,-0.4881134927272797,69.75166320800781,98.76383972167967,-10.45071411132812
179490,0.0960693359375,0.58306884765625,0.5627899169921875,-1.771900415420532,-0.942494809627533,-0.5862594842910767,69.3487548828125,98.96780395507812,-10.48968505859375
179491,0.0960693359375,0.58306884765625,0.5627899169921875,-1.771900415420532,-0.942494809627533,-0.5862594842910767,69.3487548828125,98.96780395507812,-10.48968505859375
179492,0.390594482421875,2.39154052734375,0.936981201171875,-2.183369636535645,0.7062678933143616,-0.4625849425792694,68.61077880859375,99.22804260253906,-10.7613525390625
179493,0.4342041015625,4.19415283203125,1.16436767578125,-2.626167297363281,2.614423513412476,1.005332946777344,67.96440124511719,99.48519897460938,-10.85118103027344
179494,-0.4671173095703125,6.231307983398438,0.98297119140625,-1.7468581199646,1.68437933921814,0.1147681251168251,67.80032348632812,99.31680297851562,-9.359466552734377
179495,-0.4671173095703125,6.231307983398438,0.98297119140625,-1.7468581199646,1.68437933921814,0.1147681251168251,67.80032348632812,99.31680297851562,-9.359466552734377
179496,-0.651397705078125,5.017059326171875,0.892242431640625,-0.5922955274581909,0.3323696851730347,-0.853721022605896,68.23963928222656,99.04066467285156,-7.987411499023438
179497,-0.3424224853515625,2.75128173828125,0.607269287109375,-0.2195446044206619,-0.8263988494873047,-1.269510269165039,68.332275390625,98.9058074951172,-6.856964111328125
179498,-0.16009521484375,1.393844604492188,0.41357421875,-0.6406572461128235,-1.015627384185791,-0.998370349407196,67.495361328125,98.8717803955078,-6.09893798828125
179499,-0.16009521484375,1.393844604492188,0.41357421875,-0.6406572461128235,-1.015627384185791,-0.998370349407196,67.495361328125,98.8717803955078,-6.09893798828125
179500,-0.0388641357421875,1.572280883789062,-0.0886383056640625,-0.8152590990066528,-0.1757726222276688,-0.633611798286438,67.03939819335938,98.80580139160156,-6.054916381835938
179501,0.1482696533203125,2.19525146484375,-1.528915405273438,-0.8421621322631836,-1.062098145484924,0.0367026217281818,66.58804321289062,98.81800842285156,-6.070388793945312
179502,0.3916473388671875,2.241378784179688,-0.2351837158203125,0.5592153668403625,0.1756370663642883,0.9313175678253174,66.17738342285156,98.69259643554688,-5.67474365234375
179503,0.2497406005859375,1.925888061523438,-0.055877685546875,1.263966917991638,0.5997965931892395,0.9912794232368468,66.42274475097656,98.52957153320312,-5.684783935546875
179504,0.2497406005859375,1.925888061523438,-0.055877685546875,1.263966917991638,0.5997965931892395,0.9912794232368468,66.42274475097656,98.52957153320312,-5.684783935546875
179505,0.2236785888671875,1.5767822265625,-0.087371826171875,1.016003966331482,0.2030306160449982,0.9898117780685424,67.39495849609375,98.12789916992188,-6.079010009765625
179506,0.2454376220703125,1.5244140625,-0.02191162109375,0.6853644847869873,-0.1868582963943481,0.9651066660881042,67.98518371582031,97.8970184326172,-6.410171508789062
