time_idx,accelerometerAccelerationX(G),accelerometerAccelerationY(G),accelerometerAccelerationZ(G),gyroRotationX(rad/s),gyroRotationY(rad/s),gyroRotationZ(rad/s),magnetometerX(µT),magnetometerY(µT),magnetometerZ(µT)
267591,-0.9872894287109376,1.859512329101562,-0.204345703125,0.3054816126823425,1.564193844795227,-1.524669289588928,35.41639709472656,100.1457366943359,-23.00405883789062
267592,-0.9872894287109376,1.859512329101562,-0.204345703125,0.3054816126823425,1.564193844795227,-1.524669289588928,35.41639709472656,100.1457366943359,-23.00405883789062
267593,-1.787017822265625,1.646697998046875,-0.216766357421875,0.4796358346939087,1.180055975914001,-1.099701762199402,34.49156188964844,100.3794860839844,-24.37260437011719
267594,-2.395401000976562,1.652359008789062,-0.2182159423828125,0.5890747308731079,1.091481685638428,0.0843998342752456,34.03030395507812,100.2435455322266,-24.78732299804688
267595,-2.202468872070312,2.489822387695312,-0.460784912109375,0.4813908636569977,-0.3646978139877319,1.067907333374023,33.76785278320312,100.4946746826172,-26.10066223144531
267596,-2.202468872070312,2.489822387695312,-0.460784912109375,0.4813908636569977,-0.3646978139877319,1.067907333374023,33.76785278320312,100.4946746826172,-26.10066223144531
267597,-1.826171875,2.641281127929688,-0.1093902587890625,-0.0058339205570518,-0.5324098467826843,1.206246852874756,34.08648681640625,100.6045379638672,-26.56167602539062
267598,-1.588973999023438,2.707412719726562,0.228424072265625,-0.2728432416915894,-0.4681104719638824,1.264959454536438,34.47235107421875,100.6938018798828,-26.76412963867188
267599,-1.54541015625,2.735153198242188,0.63287353515625,-0.0296495053917169,-0.1294605135917664,1.323252558708191,34.954345703125,100.77587890625,-26.72526550292969
267600,-1.54541015625,2.735153198242188,0.63287353515625,-0.0296495053917169,-0.1294605135917664,1.323252558708191,34.954345703125,100.77587890625,-26.72526550292969
267601,-1.36865234375,2.590972900390625,0.6683502197265625,1.262069940567017,0.5673577189445496,1.570143580436707,36.2764892578125,100.9602355957031,-27.04624938964844
267602,-1.251434326171875,2.347930908203125,0.53656005859375,1.513546347618103,0.8462181091308594,1.521579265594482,37.13352966308594,100.9626007080078,-27.35838317871094
267603,-1.141433715820312,1.841018676757812,0.1993865966796875,1.621363639831543,0.667665421962738,1.144176244735718,38.1248779296875,100.8614349365234,-28.04104614257812
267604,-0.915740966796875,1.448760986328125,0.18878173828125,1.723809003829956,0.1509684771299362,1.04709255695343,39.23213195800781,100.6445922851562,-28.80201721191406
267605,-0.757781982421875,1.248260498046875,0.3745574951171875,1.834117412567139,0.0965558364987373,0.9155250191688538,40.23538208007812,100.2794799804688,-29.78695678710938
267606,-0.551910400390625,1.0682373046875,0.4243011474609375,1.858396410942078,0.3616724610328674,0.7250179052352905,41.08969116210938,99.88630676269533,-30.67149353027344
267607,-0.0996246337890625,0.800018310546875,0.4019622802734375,1.70184063911438,0.2468396127223969,0.7308262586593628,42.44929504394531,99.09992980957033,-32.35752868652344
267608,-0.0996246337890625,0.800018310546875,0.4019622802734375,1.70184063911438,0.2468396127223969,0.7308262586593628,42.44929504394531,99.09992980957033,-32.35752868652344
267609,0.0027618408203125,0.774749755859375,0.5363006591796875,1.596491575241089,0.0229889396578073,0.9445992708206176,43.06895446777344,98.69915771484376,-33.10868835449219
267610,0.0297698974609375,0.815582275390625,0.6824493408203125,1.463137745857239,-0.2378932535648346,1.154236674308777,43.72860717773438,98.20419311523438,-33.70829772949219
267611,-0.0012054443359375,0.8951416015625,0.8264312744140625,1.135742545127869,-0.3508280515670776,1.193448543548584,44.38853454589844,97.84620666503906,-34.33123779296875
267612,-0.0012054443359375,0.8951416015625,0.8264312744140625,1.135742545127869,-0.3508280515670776,1.193448543548584,44.38853454589844,97.84620666503906,-34.33123779296875
267613,-0.3100433349609375,0.67242431640625,0.990509033203125,0.0719349086284637,0.7812614440917969,0.6207780241966248,45.65228271484375,97.2688446044922,-35.21650695800781
267614,-0.4293975830078125,0.4959564208984375,0.7465667724609375,-0.2330521643161774,1.464893102645874,0.4644579589366913,46.15705871582031,97.059326171875,-35.53239440917969
267615,-0.44818115234375,0.3683013916015625,0.4041595458984375,-0.3151121437549591,1.624239563941956,0.4088780581951141,46.720947265625,97.1802215576172,-35.53129577636719
267616,-0.44818115234375,0.3683013916015625,0.4041595458984375,-0.3151121437549591,1.624239563941956,0.4088780581951141,46.720947265625,97.1802215576172,-35.53129577636719
267617,-0.2711944580078125,0.035919189453125,-0.475860595703125,-0.2700778245925903,-0.1181119903922081,0.4337445199489594,47.78070068359375,97.3599090576172,-35.61903381347656
267618,-0.1527557373046875,0.0943450927734375,-0.086029052734375,-0.2577412724494934,-0.7654396295547485,0.4358913004398346,48.05418395996094,97.53366088867188,-35.50042724609375
267619,-0.080230712890625,0.145782470703125,0.25946044921875,-0.3568936884403229,-0.6198959946632385,0.3556361198425293,48.14369201660156,97.64544677734376,-35.49687194824219
267620,-0.080230712890625,0.145782470703125,0.25946044921875,-0.3568936884403229,-0.6198959946632385,0.3556361198425293,48.14369201660156,97.64544677734376,-35.49687194824219
267621,0.0734710693359375,4.57763671875e-05,0.3023834228515625,-0.5929365754127502,0.2855598330497742,0.2925322651863098,48.06027221679688,97.7496337890625,-35.14459228515625
267622,0.1343231201171875,-0.07818603515625,0.217498779296875,-0.6111219525337219,0.472215473651886,0.3537071943283081,48.14205932617188,97.859375,-34.85188293457031
267623,0.158233642578125,-0.11029052734375,0.18023681640625,-0.6069730520248413,0.4822569191455841,0.4195256233215332,48.3487548828125,97.9180908203125,-34.57896423339844
267624,0.158233642578125,-0.11029052734375,0.18023681640625,-0.6069730520248413,0.4822569191455841,0.4195256233215332,48.3487548828125,97.9180908203125,-34.57896423339844
267625,0.194732666015625,-0.1019439697265625,0.19329833984375,-0.6266338229179382,0.3243871331214905,0.5753037929534912,48.94198608398438,98.1400146484375,-33.43963623046875
267626,0.2140045166015625,-0.0669403076171875,0.2309417724609375,-0.710934042930603,0.1667828559875488,0.6685879230499268,49.26828002929688,98.25238037109376,-32.884033203125
267627,0.2137298583984375,0.0245819091796875,0.29559326171875,-0.8236653804779053,-0.1147430911660194,0.6924538612365723,49.66690063476562,98.30284118652344,-32.26113891601562
267628,0.2137298583984375,0.0245819091796875,0.29559326171875,-0.8236653804779053,-0.1147430911660194,0.6924538612365723,49.66690063476562,98.30284118652344,-32.26113891601562
267629,0.1068878173828125,0.21826171875,0.456146240234375,-1.079854846000671,-0.8013174533843994,0.4707451462745667,50.54508972167969,98.30624389648438,-31.06614685058594
267630,0.0403900146484375,0.2769622802734375,0.5059661865234375,-1.205594062805176,-0.9583488702774048,0.3053817451000214,51.00834655761719,98.4081573486328,-30.48435974121094
267631,-0.03253173828125,0.410369873046875,0.4683074951171875,-1.300693988800049,-1.095328092575073,0.0816759541630744,51.21519470214844,98.3406982421875,-29.81051635742188
267632,-0.180145263671875,0.746734619140625,0.4612579345703125,-1.468883514404297,-1.14609158039093,-0.2824615240097046,51.34881591796875,98.40977478027344,-29.29106140136719
267633,-0.2963409423828125,0.9687957763671876,0.44635009765625,-1.708843111991882,-0.849978506565094,-0.7178481221199036,51.34455871582031,98.50621032714844,-28.77796936035156
267634,-0.3314056396484375,0.910675048828125,0.235565185546875,-1.885483980178833,-0.5947174429893494,-1.131829857826233,51.10223388671875,98.72361755371094,-28.08625793457031
267635,-0.3134765625,0.6448974609375,-0.499176025390625,-0.7532423734664917,-3.758023262023926,-1.568511605262756,50.67604064941406,99.02597045898438,-27.49777221679688
267636,-0.242523193359375,0.27606201171875,-1.674041748046875,-0.7532423734664917,-3.758023262023926,-1.568511605262756,49.91995239257812,99.30706787109376,-26.80955505371094
267637,-0.068206787109375,0.1412811279296875,-0.6785430908203125,0.8380123376846313,-5.336049556732178,-1.454966068267822,49.00303649902344,99.54289245605467,-26.00399780273438
267638,-0.034698486328125,0.1462554931640625,0.363311767578125,1.409372806549072,-4.047257900238037,-1.280146598815918,47.85980224609375,99.70806884765624,-25.59213256835938
267639,-0.11260986328125,-0.0623321533203125,0.3837432861328125,0.0719799175858497,1.632981896400452,-0.5472002625465393,46.20895385742188,99.7729034423828,-25.59677124023438
267640,-0.059051513671875,-0.1419677734375,-0.506256103515625,0.0719799175858497,1.632981896400452,-0.5472002625465393,44.71493530273438,99.66423034667967,-26.08158874511719
267641,0.109344482421875,0.195648193359375,-0.924224853515625,-0.3168951272964478,0.925826370716095,-0.3525026440620422,43.83685302734375,99.44219970703124,-26.59202575683594
267642,0.1615447998046875,0.3702239990234375,-0.6560821533203125,-0.594376802444458,-0.172786682844162,-0.2696788907051086,43.50558471679688,99.3229522705078,-26.92295837402344
267643,0.1724090576171875,0.439117431640625,-0.4323883056640625,-0.6238968968391418,-1.029639840126038,0.0359992794692516,43.5399169921875,99.24021911621094,-26.86692810058594
267644,0.1724090576171875,0.439117431640625,-0.4323883056640625,-0.6238968968391418,-1.029639840126038,0.0359992794692516,43.5399169921875,99.24021911621094,-26.86692810058594
267645,0.16143798828125,0.66290283203125,-0.2516632080078125,-0.4391398131847382,-0.8439509272575378,0.1724633872509003,43.43110656738281,99.316162109375,-26.38650512695312
267646,0.1130523681640625,0.8521728515625,-0.2178802490234375,-0.3205170333385468,-0.5263159871101379,0.2031672298908234,43.36341857910156,99.37977600097656,-25.89619445800781
267647,0.0634918212890625,1.06256103515625,-0.2737274169921875,-0.3106548190116882,-0.2860048711299896,0.1321082413196564,43.261962890625,99.47276306152344,-25.40486145019531
267648,0.0634918212890625,1.06256103515625,-0.2737274169921875,-0.3106548190116882,-0.2860048711299896,0.1321082413196564,43.261962890625,99.47276306152344,-25.40486145019531
267649,-0.053924560546875,1.462600708007812,-0.3969268798828125,-0.3237785995006561,-0.2331728041172028,-0.1143564060330391,43.23466491699219,99.611328125,-24.81838989257812
267650,-0.052764892578125,1.65716552734375,-0.36053466796875,-0.2489517629146576,-0.1058870181441307,-0.1238476410508156,43.29421997070312,99.62538146972656,-24.48020935058594
267651,-0.0242462158203125,1.829483032226562,-0.2971343994140625,-0.1369796842336655,0.158475399017334,0.0334655493497848,43.37167358398438,99.5211944580078,-24.04083251953125
267652,-0.0377044677734375,1.980499267578125,-0.2728729248046875,0.0073063825257122,0.4695509970188141,0.3021404147148132,43.35699462890625,99.50950622558594,-23.77772521972656
267653,-0.1481170654296875,2.129989624023438,-0.32537841796875,0.2963637411594391,0.6682182550430298,0.505621075630188,43.33271789550781,99.50755310058594,-23.45436096191406
267654,-0.367706298828125,2.26873779296875,-0.3404541015625,0.7431905269622803,0.8105714321136475,0.4881707429885864,43.582763671875,99.61610412597656,-23.2586669921875
267655,-0.7173309326171875,2.476638793945312,-0.3347930908203125,1.191929697990417,1.052231431007385,0.0393412820994854,43.81137084960938,99.72517395019533,-23.4417724609375
267656,-1.080734252929688,2.77239990234375,-0.407623291015625,1.41697108745575,1.321667671203613,-0.9319380521774292,43.95606994628906,99.75938415527344,-23.83013916015625
267657,-1.456298828125,3.100631713867188,-0.6921539306640625,1.178404569625854,1.266477465629578,-2.215385913848877,43.93826293945312,99.94564819335938,-24.65200805664062
267658,-1.889205932617188,3.345916748046875,-0.9912109375,0.4857837557792664,1.170234799385071,-3.353746175765991,43.70704650878906,99.8837890625,-25.45423889160156
267659,-2.573898315429688,3.053756713867188,-0.7841949462890625,-0.3763129115104675,2.029967784881592,-3.301170825958252,41.39912414550781,99.55844116210938,-27.29420471191406
267660,-2.573898315429688,3.053756713867188,-0.7841949462890625,-0.3763129115104675,2.029967784881592,-3.301170825958252,41.39912414550781,99.55844116210938,-27.29420471191406
267661,-2.569122314453125,2.325469970703125,-0.3934783935546875,0.5838144421577454,3.680335760116577,0.493994265794754,38.86784362792969,99.896484375,-28.52397155761719
267662,-1.656723022460938,2.005508422851562,0.0657958984375,1.900346994400024,2.84624195098877,0.6360041499137878,39.17280578613281,100.0083312988281,-29.083984375
267663,-1.190048217773438,1.33746337890625,0.048553466796875,2.395235061645508,2.555659294128418,0.6425642967224121,39.96772766113281,99.97135925292967,-30.02804565429688
267664,-0.9544830322265624,0.803009033203125,-0.071197509765625,2.468289613723755,2.306114435195923,0.7994101047515869,40.90878295898438,99.70950317382812,-31.41801452636719
267665,-0.7677001953125,0.5377960205078125,0.0504302978515625,2.511844635009766,2.193433046340942,0.9487642049789428,41.80804443359375,99.23533630371094,-32.83979797363281
267666,-0.619354248046875,0.4807281494140625,0.2154541015625,2.471777439117432,2.208371877670288,0.9035442471504213,42.88037109375,98.64447021484376,-34.21173095703125
267667,-0.44384765625,0.462921142578125,0.126953125,2.227612018585205,1.966371655464172,0.7218431234359741,43.93519592285156,98.0723876953125,-35.52902221679688
267668,-0.2503509521484375,0.389404296875,-0.2130584716796875,1.738409042358398,1.163221120834351,0.5836256146430969,44.82110595703125,97.52937316894533,-36.72927856445312
267669,-0.0554046630859375,0.3958740234375,-0.5256805419921875,0.3440697491168976,-0.5767772793769836,0.2866205871105194,45.63223266601562,96.98277282714844,-37.46275329589844
267670,0.137542724609375,0.6034088134765625,-0.5314178466796875,0.3440697491168976,-0.5767772793769836,0.2866205871105194,45.93991088867188,96.61318969726562,-38.00765991210938
267671,0.193572998046875,1.031707763671875,-0.0820159912109375,-0.1534241735935211,-0.3622503578662872,0.1637393981218338,45.87918090820312,96.30764770507812,-38.36665344238281
267672,0.193572998046875,1.031707763671875,-0.0820159912109375,-0.1534241735935211,-0.3622503578662872,0.1637393981218338,45.87918090820312,96.30764770507812,-38.36665344238281
267673,-0.4303131103515625,1.458953857421875,0.491546630859375,0.0908729135990142,1.775959849357605,0.0457813367247581,45.47822570800781,96.3369140625,-38.38746643066406
267674,-0.6329345703125,1.287506103515625,0.4452362060546875,0.2868852913379669,2.300327301025391,-0.0337047018110752,45.71063232421875,96.37387084960938,-38.46310424804688
267675,-0.68804931640625,1.097137451171875,0.355255126953125,0.3409205675125122,2.309236526489258,-0.0837814509868621,46.01016235351562,96.4617919921875,-38.5615234375
267676,-0.68804931640625,1.097137451171875,0.355255126953125,0.3409205675125122,2.309236526489258,-0.0837814509868621,46.01016235351562,96.4617919921875,-38.5615234375
267677,-0.63470458984375,0.562957763671875,0.2112579345703125,0.3582486808300018,1.31062388420105,-0.0615198202431201,47.15689086914062,96.2667999267578,-39.08161926269531
267678,-0.4891357421875,0.3474578857421875,0.2822723388671875,0.3194240629673004,0.9685264229774476,-0.0733735486865043,47.46653747558594,96.30548095703124,-39.26602172851562
267679,-0.3789825439453125,0.1645050048828125,0.3454437255859375,0.206056222319603,0.9876298308372498,-0.0115333516150713,47.68362426757812,96.506591796875,-39.5133056640625
267680,-0.3789825439453125,0.1645050048828125,0.3454437255859375,0.206056222319603,0.9876298308372498,-0.0115333516150713,47.68362426757812,96.506591796875,-39.5133056640625
267681,-0.2418060302734375,0.031768798828125,0.23358154296875,0.0960684791207313,0.9211288094520568,-0.0248800497502088,47.59552001953125,96.68206787109376,-39.70236206054688
267682,-0.247711181640625,0.06317138671875,0.1497344970703125,-0.0280998107045888,0.601483166217804,-0.1839045882225037,47.60092163085938,96.7819366455078,-39.70555114746094
267683,-0.3048858642578125,0.0524139404296875,0.2067108154296875,-0.2658745646476746,-0.1476512402296066,-0.7593681812286377,47.54507446289062,97.1106414794922,-39.73638916015625
267684,-0.3048858642578125,0.0524139404296875,0.2067108154296875,-0.2658745646476746,-0.1476512402296066,-0.7593681812286377,47.54507446289062,97.1106414794922,-39.73638916015625
267685,-0.34234619140625,0.034515380859375,0.23626708984375,-0.3511593639850616,-0.4484222531318665,-0.9528534412384032,47.40066528320312,97.15827941894533,-39.63059997558594
267686,-0.3948822021484375,0.0695343017578125,0.245513916015625,-0.4189687669277191,-0.8105916380882263,-0.9428724646568298,47.21626281738281,97.0973663330078,-39.50956726074219
267687,-0.4514617919921875,0.169830322265625,0.275970458984375,-0.5270187854766846,-1.119143962860107,-0.8663625121116638,46.72845458984375,97.09249877929688,-39.35557556152344
267688,-0.4514617919921875,0.169830322265625,0.275970458984375,-0.5270187854766846,-1.119143962860107,-0.8663625121116638,46.72845458984375,97.09249877929688,-39.35557556152344
267689,-0.55010986328125,0.49188232421875,0.244964599609375,-0.8964373469352722,-1.672494769096375,-0.8151153326034546,45.73065185546875,97.18234252929688,-38.86410522460938
267690,-0.5708770751953125,0.6150360107421875,0.2238311767578125,-1.090021133422852,-1.871337532997131,-0.8674573302268982,45.29254150390625,97.33876037597656,-38.59320068359375
267691,-0.5883331298828125,0.7016448974609375,0.1895599365234375,-1.248470783233643,-1.984917640686035,-0.9507471919059752,44.73216247558594,97.29074096679688,-38.07379150390625
267692,-0.5883331298828125,0.7016448974609375,0.1895599365234375,-1.248470783233643,-1.984917640686035,-0.9507471919059752,44.73216247558594,97.29074096679688,-38.07379150390625
267693,-0.5767059326171875,0.8296966552734375,-0.0792236328125,-1.28416645526886,-2.427003383636475,-1.026498436927795,43.29278564453125,97.7433624267578,-37.04643249511719
267694,-0.5084991455078125,0.8211822509765625,-0.0554351806640625,-1.282581806182861,-2.614085912704468,-0.9894956350326538,42.46598815917969,97.86903381347656,-36.35488891601562
267695,-0.377227783203125,0.76446533203125,0.069580078125,-1.391331434249878,-2.370598077774048,-0.7777724862098694,41.42997741699219,98.11531066894533,-35.57463073730469
267696,-0.377227783203125,0.76446533203125,0.069580078125,-1.391331434249878,-2.370598077774048,-0.7777724862098694,41.42997741699219,98.11531066894533,-35.57463073730469
267697,-0.1857452392578125,0.5811004638671875,0.1444091796875,-1.402376651763916,-1.332584023475647,-0.3765667080879211,39.59983825683594,98.5567626953125,-33.87477111816406
267698,-0.158935546875,0.431549072265625,0.08062744140625,-1.177435159683228,-0.8520075678825378,-0.3370906710624695,38.93063354492188,98.81794738769533,-33.00849914550781
267699,-0.099578857421875,0.326080322265625,-0.026824951171875,-0.8068970441818237,-0.6276540756225586,-0.2889364659786224,38.58021545410156,99.04656982421876,-32.43925476074219
267700,-0.099578857421875,0.326080322265625,-0.026824951171875,-0.8068970441818237,-0.6276540756225586,-0.2889364659786224,38.58021545410156,99.04656982421876,-32.43925476074219
267701,0.0182952880859375,0.16021728515625,-0.2760467529296875,-0.7323858141899109,-0.9081222414970398,-0.1997147053480148,38.20236206054688,99.15373229980467,-31.14854431152344
267702,0.081085205078125,0.08544921875,-0.393798828125,-0.6819024085998535,-1.334814190864563,-0.070381224155426,37.90904235839844,99.06407165527344,-30.49092102050781
267703,0.1704254150390625,0.0050048828125,-0.493804931640625,-0.6309561133384705,-1.826346874237061,0.154421791434288,37.76412963867188,99.18246459960938,-29.97183227539062
267704,0.1704254150390625,0.0050048828125,-0.493804931640625,-0.6309561133384705,-1.826346874237061,0.154421791434288,37.76412963867188,99.18246459960938,-29.97183227539062
267705,0.3427276611328125,-0.043548583984375,-0.474609375,-0.6627920866012573,-1.659927010536194,0.6713496446609497,37.28767395019531,99.43977355957033,-28.65840148925781
267706,0.388580322265625,0.0293731689453125,-0.48468017578125,-0.7274554967880249,-0.8798146843910217,0.8188706040382385,37.06097412109375,99.48768615722656,-27.95500183105469
267707,0.3507537841796875,0.2043304443359375,-0.574737548828125,-0.609612226486206,-0.2660191655158997,0.8079867959022522,37.24903869628906,99.72601318359376,-27.33558654785156
267708,0.3507537841796875,0.2043304443359375,-0.574737548828125,-0.609612226486206,-0.2660191655158997,0.8079867959022522,37.24903869628906,99.72601318359376,-27.33558654785156
267709,0.1413421630859375,0.5840911865234375,-0.62646484375,-0.4531230032444,-0.3475579619407654,0.7070282697677612,38.07916259765625,99.77766418457033,-26.03469848632812
267710,0.00213623046875,0.77276611328125,-0.5957489013671875,-0.2295232117176056,-0.3663841187953949,0.5923581123352051,38.50811767578125,99.7432861328125,-25.51055908203125
267711,-0.33636474609375,1.059814453125,-0.6155853271484375,0.3786357343196869,-0.0348895415663719,0.3279507160186768,39.06637573242188,99.81111145019533,-25.06474304199219
267712,-0.33636474609375,1.059814453125,-0.6155853271484375,0.3786357343196869,-0.0348895415663719,0.3279507160186768,39.06637573242188,99.81111145019533,-25.06474304199219
267713,-0.4647674560546875,1.208877563476562,-0.705963134765625,0.6672696471214294,0.2714267075061798,0.2720530927181244,39.19674682617188,99.7926788330078,-24.91983032226562
267714,-0.5475006103515625,1.446624755859375,-0.7502899169921875,0.6226004362106323,0.8922969102859497,0.2916685938835144,39.30848693847656,99.69621276855467,-25.11355590820312
267715,-0.514678955078125,1.663101196289062,-0.47857666015625,0.6226004362106323,0.8922969102859497,0.2916685938835144,39.40921020507812,99.53114318847656,-25.49142456054688
267716,-0.514678955078125,1.663101196289062,-0.47857666015625,0.6226004362106323,0.8922969102859497,0.2916685938835144,39.40921020507812,99.53114318847656,-25.49142456054688
267717,-0.5388946533203125,1.965850830078125,0.2486724853515625,-0.640556275844574,1.516733288764954,0.0993335098028183,39.57875061035156,99.4038543701172,-26.42047119140625
267718,-0.7674407958984375,2.432327270507812,0.415924072265625,-1.14076554775238,1.581947803497314,-0.1514891237020493,39.79730224609375,99.2716827392578,-26.60720825195312
267719,-1.159194946289062,3.282028198242188,0.4520263671875,-1.011058211326599,1.447771072387695,-0.4804515540599823,39.95597839355469,99.31045532226562,-26.50294494628906
267720,-1.159194946289062,3.282028198242188,0.4520263671875,-1.011058211326599,1.447771072387695,-0.4804515540599823,39.95597839355469,99.31045532226562,-26.50294494628906
267721,-2.295486450195312,4.643234252929688,0.6407318115234375,0.7324510812759399,0.8682101964950562,-1.553866863250732,39.75804138183594,99.39144897460938,-26.75862121582031
267722,-3.289596557617188,3.775787353515625,0.4461669921875,0.5062136650085449,2.387609481811523,-0.6867988705635071,38.92127990722656,99.2789306640625,-27.26393127441406
267723,-3.180572509765625,2.681747436523438,-0.3671875,0.4418575763702393,2.457805156707764,0.2320955544710159,38.16004943847656,99.28732299804688,-28.31379699707031
267724,-3.180572509765625,2.681747436523438,-0.3671875,0.4418575763702393,2.457805156707764,0.2320955544710159,38.16004943847656,99.28732299804688,-28.31379699707031
267725,-1.768646240234375,1.330520629882812,0.2426605224609375,1.020594120025635,0.9869589805603028,0.0035457327030599,38.20172119140625,99.39675903320312,-29.69378662109375
267726,-1.39324951171875,1.067489624023438,0.0109710693359375,0.8884387612342834,0.5418635010719299,0.1418913602828979,38.56936645507812,99.5152587890625,-30.05711364746094
267727,-1.041397094726562,1.02557373046875,-0.14288330078125,0.644670844078064,-0.0125181889161467,0.2603098750114441,38.82664489746094,99.4907684326172,-30.48005676269531
267728,-0.7720794677734375,1.0360107421875,-0.081573486328125,0.4739193618297577,-0.4015540778636932,0.3500376343727112,39.15974426269531,99.50270080566406,-30.93659973144531
267729,-0.5972137451171875,0.9989013671875,0.0824432373046875,0.5443013906478882,-0.5974394679069519,0.4046319127082825,39.45738220214844,99.41569519042967,-31.07264709472656
267730,-0.47247314453125,0.8767242431640625,0.2578887939453125,0.8226251602172852,-0.5061598420143127,0.4502800703048706,39.78350830078125,99.35679626464844,-31.02670288085938
267731,-0.3748321533203125,0.68475341796875,0.364471435546875,1.095450043678284,-0.1932608038187027,0.5259032249450684,40.09210205078125,99.12583923339844,-31.13070678710938
267732,-0.3748321533203125,0.68475341796875,0.364471435546875,1.095450043678284,-0.1932608038187027,0.5259032249450684,40.09210205078125,99.12583923339844,-31.13070678710938
267733,-0.21942138671875,0.329193115234375,0.2469940185546875,1.201736211776733,0.5428483486175537,0.6613595485687256,40.95710754394531,98.95091247558594,-31.64414978027344
267734,-0.21942138671875,0.329193115234375,0.2469940185546875,1.201736211776733,0.5428483486175537,0.6613595485687256,40.95710754394531,98.95091247558594,-31.64414978027344
267735,-0.1677398681640625,0.202880859375,0.074310302734375,1.130146503448486,0.6750197410583496,0.6294999122619629,41.41651916503906,98.77334594726562,-31.87847900390625
267736,-0.1323394775390625,0.1025848388671875,-0.11041259765625,0.8038133978843689,0.2600267827510834,0.3289350271224976,41.92596435546875,98.51058959960938,-32.44346618652344
267737,-0.1737213134765625,0.073211669921875,-0.2660064697265625,0.4562482237815857,0.0090656662359833,0.0426539853215217,42.73837280273438,98.15985107421876,-33.36810302734375
267738,-0.3202972412109375,0.2376861572265625,-0.212860107421875,0.0530400499701499,-0.0291237961500883,-0.4093811213970184,42.94462585449219,98.06454467773438,-33.58345031738281
267739,-0.4780731201171875,0.378143310546875,-0.1435546875,-0.1106303706765175,0.06254193931818,-0.644063413143158,42.896240234375,98.0155029296875,-33.68778991699219
267740,-0.4786224365234375,0.3575439453125,-0.0147247314453125,0.3140048086643219,0.507473886013031,-0.842966616153717,42.71023559570312,97.90243530273438,-33.53205871582031
267741,-0.347747802734375,0.2081451416015625,0.0562591552734375,0.3729085922241211,0.5829917788505554,-0.8301653861999512,42.45138549804688,97.92707824707033,-33.40538024902344
267742,-0.2270050048828125,0.080596923828125,-0.028594970703125,0.250117689371109,0.4523240625858307,-0.7313855290412903,42.31501770019531,97.82502746582033,-33.23574829101562
267743,-0.185211181640625,0.023590087890625,-0.0789947509765625,0.250117689371109,0.4523240625858307,-0.7313855290412903,42.05564880371094,97.72715759277344,-33.270751953125
267744,-0.1975860595703125,0.019775390625,-0.0983734130859375,0.0889482498168945,0.2818937301635742,-0.636957049369812,41.80645751953125,97.60017395019533,-33.50523376464844
267745,-0.23944091796875,0.03759765625,-0.1103057861328125,0.0138873197138309,0.360506534576416,-0.5445043444633484,41.55703735351562,97.61534118652344,-33.80014038085938
267746,-0.2970428466796875,0.0648956298828125,-0.1031341552734375,0.0138873197138309,0.360506534576416,-0.5445043444633484,41.35223388671875,97.48573303222656,-33.93330383300781
267747,-0.371063232421875,0.0960845947265625,-0.0910797119140625,0.0369513593614101,0.5298311114311218,-0.5578678250312805,40.99038696289062,97.53118896484376,-34.11070251464844
267748,-0.371063232421875,0.0960845947265625,-0.0910797119140625,0.0369513593614101,0.5298311114311218,-0.5578678250312805,40.99038696289062,97.53118896484376,-34.11070251464844
267749,-0.5107421875,0.2646942138671875,-0.07403564453125,-0.0836613401770591,0.7139385938644409,-0.6023697257041931,40.66757202148438,97.45950317382812,-34.45857238769531
267750,-0.57244873046875,0.3826141357421875,0.00115966796875,-0.2558043301105499,0.690978467464447,-0.6337106227874756,40.52513122558594,97.37155151367188,-34.46563720703125
267751,-0.657989501953125,0.5525054931640625,0.128936767578125,-0.5779919624328613,0.7516471147537231,-0.8031297326087952,40.38874816894531,97.34617614746094,-34.38262939453125
267752,-0.657989501953125,0.5525054931640625,0.128936767578125,-0.5779919624328613,0.7516471147537231,-0.8031297326087952,40.38874816894531,97.34617614746094,-34.38262939453125
267753,-0.9388427734375,0.9822998046875,0.3319244384765625,-0.6510030627250671,0.7718402743339539,-0.9672446250915528,39.9888916015625,97.4560546875,-33.99472045898438
267754,-1.088485717773438,1.0699462890625,0.417572021484375,-0.63113933801651,0.8631185293197632,-1.103344678878784,39.66709899902344,97.51095581054688,-33.85203552246094
267755,-1.168624877929688,0.9539642333984376,0.3322296142578125,-0.4906155169010162,0.7941333055496216,-1.124401211738586,39.22799682617188,97.62969970703124,-33.92707824707031
267756,-1.026702880859375,0.6500244140625,0.1238250732421875,-0.2722512185573578,0.3196949064731598,-1.032449722290039,38.74821472167969,97.69973754882812,-34.03831481933594
267757,-0.7340087890625,0.4186859130859375,0.0491943359375,-0.1492547243833542,-0.2706855535507202,-0.9245645403862,38.22508239746094,97.83026123046876,-34.08645629882812
267758,-0.5183258056640625,0.317352294921875,0.0858612060546875,-0.2245050072669983,-0.5706847906112671,-0.7688306570053101,37.77543640136719,97.89657592773438,-34.03929138183594
267759,-0.3706207275390625,0.3111724853515625,0.104949951171875,-0.4250849783420563,-0.8571264147758484,-0.5289453268051147,37.17434692382812,97.93016052246094,-34.05076599121094
267760,-0.3055267333984375,0.4403839111328125,0.1294097900390625,-0.4250849783420563,-0.8571264147758484,-0.5289453268051147,36.76747131347656,97.94514465332033,-33.83988952636719
267761,-0.2474822998046875,0.4004974365234375,0.135650634765625,-0.4918091595172882,-1.021045327186584,-0.5584685802459717,36.40200805664062,98.00006103515624,-33.576416015625
267762,-0.189056396484375,0.297637939453125,0.156494140625,-0.6242087483406067,-1.117659449577332,-0.5790167450904846,36.18623352050781,97.95632934570312,-33.24256896972656
267763,-0.123443603515625,0.1947174072265625,0.1820526123046875,-0.8587589263916016,-1.059121370315552,-0.5084336400032043,35.82963562011719,97.75990295410156,-32.86311340332031
267764,-0.123443603515625,0.1947174072265625,0.1820526123046875,-0.8587589263916016,-1.059121370315552,-0.5084336400032043,35.82963562011719,97.75990295410156,-32.86311340332031
267765,-0.0179290771484375,0.0728302001953125,-0.02239990234375,-1.321964144706726,-0.8861021399497986,-0.2661696374416351,35.15054321289062,97.79673767089844,-31.77061462402344
267766,0.0725250244140625,-0.0281982421875,-0.408538818359375,-1.152562618255615,-1.345376253128052,-0.0198259018361568,34.79449462890625,97.88938903808594,-31.094482421875
267767,0.137847900390625,-0.063629150390625,-0.5174713134765625,-0.6033449769020081,-1.93720817565918,0.3511628210544586,34.41073608398438,97.9998016357422,-30.19644165039062
267768,0.1381072998046875,0.0142059326171875,-0.2434234619140625,-0.1833131015300751,-1.829754948616028,0.6937379837036133,34.16658020019531,98.04635620117188,-29.40544128417969
267769,0.133575439453125,0.0997314453125,-0.0762481689453125,-0.0616167597472667,-1.148958802223206,1.003518462181091,33.94607543945312,98.16197204589844,-28.71755981445312
267770,0.1479339599609375,0.1858978271484375,-0.101654052734375,-0.0610092915594577,-0.4418674111366272,1.276230692863464,34.0177001953125,98.17071533203124,-28.08622741699219
267771,0.1616668701171875,0.2877044677734375,-0.2222747802734375,-0.0231583155691623,-0.1395232677459717,1.675589323043823,34.31118774414062,98.13648986816406,-27.6151123046875
267772,0.1616668701171875,0.2877044677734375,-0.2222747802734375,-0.0231583155691623,-0.1395232677459717,1.675589323043823,34.31118774414062,98.13648986816406,-27.6151123046875
267773,0.104644775390625,0.5670623779296875,-0.474456787109375,0.0051534827798604,-0.2798132598400116,1.722317337989807,35.48750305175781,98.236572265625,-26.98443603515625
267774,0.0557861328125,0.8436279296875,-0.7841339111328125,0.1653831005096436,-0.4177367985248566,1.624840617179871,36.35118103027344,98.27247619628906,-26.67881774902344
267775,-0.025238037109375,1.230499267578125,-1.229263305664062,1.014112830162048,-0.2075468003749847,1.327436923980713,37.13374328613281,98.34024047851562,-26.62544250488281
267776,-0.025238037109375,1.230499267578125,-1.229263305664062,1.014112830162048,-0.2075468003749847,1.327436923980713,37.13374328613281,98.34024047851562,-26.62544250488281
267777,-0.30926513671875,1.806182861328125,-1.384429931640625,-0.2570773363113403,1.303395986557007,1.410316944122314,38.64889526367188,98.21987915039062,-26.34213256835938
267778,-0.379913330078125,1.98785400390625,-1.104827880859375,-0.2570773363113403,1.303395986557007,1.410316944122314,39.30201721191406,98.24986267089844,-26.61491394042969
267779,-0.376861572265625,2.256057739257812,-0.8838958740234375,-0.8430132269859314,1.069375872612,0.8179896473884583,39.99989318847656,98.15289306640624,-26.86280822753906
267780,-0.376861572265625,2.256057739257812,-0.8838958740234375,-0.8430132269859314,1.069375872612,0.8179896473884583,39.99989318847656,98.15289306640624,-26.86280822753906
267781,-0.3074798583984375,2.46392822265625,-0.5491180419921875,0.3557999134063721,0.2484585493803024,0.1857405751943588,41.39712524414062,98.4085693359375,-26.75723266601562
267782,-0.3863677978515625,2.581527709960938,-0.6070098876953125,0.7840908169746399,0.4624041318893433,0.4097941815853119,41.76336669921875,98.370849609375,-26.61801147460938
267783,-0.5220489501953125,2.7366943359375,-0.902740478515625,0.6117659211158752,0.7137128114700317,0.5413455367088318,41.87741088867188,98.4074249267578,-26.72523498535156
267784,-0.5220489501953125,2.7366943359375,-0.902740478515625,0.6117659211158752,0.7137128114700317,0.5413455367088318,41.87741088867188,98.4074249267578,-26.72523498535156
267785,-0.8046417236328125,2.73846435546875,-0.6797943115234375,0.314629852771759,0.5246488451957703,-0.0297520365566015,41.89120483398438,98.3809814453125,-27.3145751953125
267786,-1.042236328125,2.88873291015625,-0.420501708984375,0.645487904548645,0.6112412810325623,-0.7078937888145447,41.97962951660156,98.4538116455078,-27.83331298828125
267787,-1.365249633789062,3.174179077148438,-0.123870849609375,1.006030678749084,1.170817255973816,-1.702974915504456,41.84001159667969,98.53460693359376,-28.00396728515625
267788,-1.365249633789062,3.174179077148438,-0.123870849609375,1.006030678749084,1.170817255973816,-1.702974915504456,41.84001159667969,98.53460693359376,-28.00396728515625
267789,-2.425308227539062,2.9990234375,0.1410064697265625,0.6336256861686707,3.089062929153442,-2.75098705291748,40.73757934570312,98.61367797851562,-29.14616394042969
267790,-2.623184204101562,2.609146118164062,-0.1882781982421875,0.3809255063533783,3.490923404693604,-2.337390422821045,39.82011413574219,98.49594116210938,-30.1134033203125
267791,-2.55841064453125,1.762420654296875,0.0487060546875,0.8894217610359192,2.624464511871338,-1.338155031204224,38.96983337402344,98.38723754882812,-31.22747802734375
267792,-2.345794677734375,1.047775268554688,0.64227294921875,1.185449123382568,2.404383659362793,-0.1595350652933121,38.55067443847656,98.26913452148438,-32.38888549804688
267793,-1.87225341796875,0.7293701171875,0.62847900390625,1.065029263496399,2.303718566894531,0.1267219930887222,38.68598937988281,98.27024841308594,-33.24578857421875
267794,-1.504150390625,0.4490966796875,0.6432342529296875,0.7117114067077637,1.491970419883728,0.2601112127304077,39.0855712890625,98.04666137695312,-34.16682434082031
267795,-1.227386474609375,0.1739349365234375,0.672088623046875,0.4744985997676849,1.023363828659058,0.4080106616020203,39.71002197265625,97.9388427734375,-35.00350952148438
267796,-0.98004150390625,0.0878753662109375,0.5027313232421875,0.4744985997676849,1.023363828659058,0.4080106616020203,40.18206787109375,97.8363800048828,-35.69868469238281
267797,-0.7665252685546875,0.28045654296875,0.3221588134765625,0.3049375414848328,0.4484387636184692,0.3682049214839935,40.50384521484375,97.90760803222656,-36.25079345703125
267798,-0.5675506591796875,0.42633056640625,0.288177490234375,0.1387560218572617,0.149025171995163,0.1449044644832611,40.67866516113281,97.81512451171876,-36.47059631347656
267799,-0.3748931884765625,0.350189208984375,0.2093658447265625,-0.0240067988634109,0.0406187996268272,0.0274286940693855,40.82023620605469,97.8760223388672,-36.60087585449219
267800,-0.23388671875,0.23443603515625,0.0858154296875,-0.126513198018074,-0.0615405924618244,-0.0061252703890204,40.76797485351562,97.873779296875,-36.59329223632812
267801,-0.089813232421875,0.1024169921875,-0.1465606689453125,-0.0936311483383178,-0.4374364614486694,0.0076581859029829,40.83268737792969,97.86676025390624,-36.53079223632812
267802,0.0428924560546875,-0.005645751953125,-0.324127197265625,0.0927722826600074,-1.146678566932678,0.0923222079873085,40.92642211914062,97.76516723632812,-36.28019714355469
267803,0.115509033203125,-0.0611419677734375,-0.2339324951171875,0.4733598232269287,-1.61146867275238,0.3031585514545441,40.99348449707031,97.6693878173828,-35.84481811523438
267804,0.1401519775390625,-0.097991943359375,-0.0100860595703125,0.4733598232269287,-1.61146867275238,0.3031585514545441,41.02885437011719,97.6176300048828,-35.51536560058594
267805,0.1548919677734375,-0.1436767578125,0.0646514892578125,0.5261117219924927,-1.104899406433105,0.3853229284286499,40.9351806640625,97.51121520996094,-35.19380187988281
267806,0.1623077392578125,-0.1903076171875,-0.0013885498046875,0.5233457684516907,-0.587274432182312,0.5119442343711853,40.86659240722656,97.28236389160156,-35.10609436035156
267807,0.146331787109375,-0.215087890625,-0.0299224853515625,0.4027940630912781,-0.1838507950305939,0.6668187975883484,40.92041015625,97.1170654296875,-35.02311706542969
267808,0.146331787109375,-0.215087890625,-0.0299224853515625,0.4027940630912781,-0.1838507950305939,0.6668187975883484,40.92041015625,97.1170654296875,-35.02311706542969
267809,0.05877685546875,-0.2323150634765625,-0.0464019775390625,-0.2928822040557861,0.2865659892559052,0.9058998227119446,41.53022766113281,96.73382568359376,-34.88156127929688
267810,-0.029327392578125,-0.1917266845703125,-0.15093994140625,-0.7085563540458679,0.3406462669372559,0.90790992975235,42.05690002441406,96.65975952148438,-34.80094909667969
267811,-0.124237060546875,-0.148834228515625,-0.2070465087890625,-1.114237070083618,0.1738793849945068,0.7766613960266113,42.55522155761719,96.817138671875,-34.68753051757812
267812,-0.124237060546875,-0.148834228515625,-0.2070465087890625,-1.114237070083618,0.1738793849945068,0.7766613960266113,42.55522155761719,96.817138671875,-34.68753051757812
267813,-0.300140380859375,0.0097198486328125,-0.0989837646484375,-2.123854637145996,0.2288121432065964,0.3573693037033081,43.41343688964844,97.25277709960938,-33.81130981445312
267814,-0.3227386474609375,0.1025848388671875,0.053009033203125,-2.305465698242188,0.1151119396090508,0.1745070964097977,43.72860717773438,97.67518615722656,-33.08396911621094
267815,-0.3659210205078125,0.1687774658203125,0.142822265625,-2.414509534835815,0.1929353624582291,-0.0261852648109197,44.00645446777344,98.07087707519533,-32.29776000976562
267816,-0.3659210205078125,0.1687774658203125,0.142822265625,-2.414509534835815,0.1929353624582291,-0.0261852648109197,44.00645446777344,98.07087707519533,-32.29776000976562
267817,-0.87261962890625,0.6910858154296875,0.239990234375,-2.13711142539978,0.5712975859642029,-0.7416006326675415,44.18293762207031,99.04452514648438,-30.6256103515625
267818,-1.4534912109375,1.025405883789062,0.4460906982421875,-1.671398043632507,1.238906025886536,-1.192588806152344,44.02259826660156,99.55099487304688,-29.64765930175781
267819,-1.778854370117188,1.226776123046875,0.473724365234375,-1.155092597007751,2.002950668334961,-1.259533762931824,43.78530883789062,99.93980407714844,-29.1119384765625
267820,-1.778854370117188,1.226776123046875,0.473724365234375,-1.155092597007751,2.002950668334961,-1.259533762931824,43.78530883789062,99.93980407714844,-29.1119384765625
267821,-1.005279541015625,1.189712524414062,-0.11810302734375,-0.8305869698524475,0.7626286745071411,-0.7900184988975525,43.00216674804688,100.2910003662109,-28.35737609863281
267822,-0.6575469970703125,0.9034576416015624,-0.0700225830078125,-1.161665320396423,-0.1068428233265877,-0.5866669416427612,42.68939208984375,100.3245391845703,-27.98536682128906
267823,-0.426116943359375,0.677642822265625,-0.061920166015625,-1.417555928230286,-0.6767651438713074,-0.252506285905838,42.39057922363281,100.4447174072266,-27.76199340820312
267824,-0.426116943359375,0.677642822265625,-0.061920166015625,-1.417555928230286,-0.6767651438713074,-0.252506285905838,42.39057922363281,100.4447174072266,-27.76199340820312
267825,-0.1892547607421875,0.3365325927734375,-0.0411834716796875,-1.389992237091064,-1.456738471984863,0.2869502902030945,41.47538757324219,100.9276275634766,-25.84559631347656
267826,-0.1892547607421875,0.3365325927734375,-0.0411834716796875,-1.389992237091064,-1.456738471984863,0.2869502902030945,41.47538757324219,100.9276275634766,-25.84559631347656
267827,-0.0314483642578125,0.0643157958984375,-0.019622802734375,-0.8671420216560364,-1.49697482585907,0.4702577888965607,41.47314453125,101.3867340087891,-23.22126770019531
267828,-0.0314483642578125,0.0643157958984375,-0.019622802734375,-0.8671420216560364,-1.49697482585907,0.4702577888965607,41.47314453125,101.3867340087891,-23.22126770019531
267829,0.0233612060546875,0.0096282958984375,-0.04638671875,-0.7297716736793518,-1.31987988948822,0.5844751596450806,41.66758728027344,101.2518920898438,-22.36186218261719
267830,0.0648040771484375,-0.0474853515625,-0.09747314453125,-0.5393950343132019,-1.099239468574524,0.7583670616149902,41.99728393554688,101.2590942382812,-21.73716735839844
267831,0.0899810791015625,-0.09027099609375,-0.1616058349609375,-0.2843265235424042,-0.8452780246734619,0.966472327709198,42.3575439453125,101.2568664550781,-21.20352172851562
267832,0.0899810791015625,-0.09027099609375,-0.1616058349609375,-0.2843265235424042,-0.8452780246734619,0.966472327709198,42.3575439453125,101.2568664550781,-21.20352172851562
267833,0.1909637451171875,-0.027313232421875,-0.180389404296875,0.0363428257405757,0.4658031165599823,1.264875292778015,43.19174194335938,101.2834930419922,-20.19441223144531
267834,0.1909637451171875,-0.027313232421875,-0.180389404296875,0.0363428257405757,0.4658031165599823,1.264875292778015,43.19174194335938,101.2834930419922,-20.19441223144531
267835,0.172454833984375,0.3444366455078125,-1.362823486328125,-0.476996123790741,0.6926043033599854,0.6741243600845337,44.31925964355469,101.3708343505859,-19.91893005371094
267836,0.0389251708984375,0.4052581787109375,-0.860626220703125,-0.5200823545455933,-0.7395928502082825,0.3361537754535675,44.96041870117188,101.3423461914062,-19.73562622070312
267837,-0.0568084716796875,0.46832275390625,-0.2644500732421875,-0.6266971826553345,-1.014012217521667,0.1199256032705307,45.38471984863281,101.3472747802734,-19.6065673828125
267838,-0.0568084716796875,0.46832275390625,-0.2644500732421875,-0.6266971826553345,-1.014012217521667,0.1199256032705307,45.38471984863281,101.3472747802734,-19.6065673828125
267839,-0.1144866943359375,0.9075927734375,-0.2340087890625,-0.623737096786499,-0.4960960447788239,-0.0927847996354103,45.20718383789062,101.2908172607422,-19.00753784179688
267840,-0.1221466064453125,1.0673828125,-0.213958740234375,-0.5084584355354309,-0.3177843689918518,0.0281400252133607,45.04092407226562,101.4224700927734,-18.87728881835938
267841,-0.158233642578125,1.190933227539062,-0.11053466796875,-0.419161856174469,-0.0627118498086929,0.2548733055591583,44.80116271972656,101.2948760986328,-18.57215881347656
267842,-0.211883544921875,1.288681030273438,-0.0683441162109375,-0.3467036187648773,0.156457781791687,0.4298978447914124,44.7618408203125,101.2896270751953,-18.55270385742188
267843,-0.24542236328125,1.330734252929688,-0.08245849609375,-0.2159173786640167,0.2117274254560471,0.5306883454322815,44.7923583984375,101.2877960205078,-18.30780029296875
267844,-0.24542236328125,1.330734252929688,-0.08245849609375,-0.2159173786640167,0.2117274254560471,0.5306883454322815,44.7923583984375,101.2877960205078,-18.30780029296875
267845,-0.26251220703125,1.428680419921875,-0.1168365478515625,0.2494119554758072,0.161484494805336,0.5766124725341797,45.28948974609375,101.1703796386719,-18.07398986816406
267846,-0.2639312744140625,1.676010131835938,-0.291473388671875,0.6653854846954346,0.0280393585562706,0.5365574359893799,45.49967956542969,101.1192321777344,-18.17369079589844
267847,-0.215423583984375,2.111251831054688,-0.5948028564453125,1.379113435745239,-0.2395819574594498,0.5275711417198181,45.80293273925781,101.0126190185547,-18.33033752441406
267848,-0.141204833984375,2.640594482421875,-0.722259521484375,2.065232038497925,-0.1741121411323547,0.7235512733459473,45.82670593261719,100.9256286621094,-18.64849853515625
267849,-0.1669158935546875,3.146286010742188,-0.6406402587890625,1.994069814682007,0.9091249108314514,0.8877415657043457,45.88568115234375,100.8705749511719,-19.39265441894531
267850,-0.1591033935546875,3.477218627929688,-0.7751312255859375,1.502192258834839,1.595143437385559,0.7743124961853027,45.99948120117188,100.7703704833984,-20.35896301269531
267851,-0.267822265625,3.788543701171875,-0.69134521484375,1.285529375076294,1.2385333776474,0.450997531414032,46.32418823242188,100.7884216308594,-21.18328857421875
267852,-0.4495697021484375,4.064666748046875,-0.2940521240234375,1.341075778007507,1.167910933494568,-0.1385727971792221,46.62100219726562,100.8281707763672,-22.01060485839844
267853,-0.7612152099609375,4.008331298828125,-0.2528533935546875,1.262344717979431,1.327104568481445,-0.9001353979110718,46.74057006835938,100.7660827636719,-22.73809814453125
267854,-1.175567626953125,3.42327880859375,-0.3271636962890625,0.6349050402641296,1.330135226249695,-1.551033020019531,46.53623962402344,100.8779754638672,-23.67137145996094
267855,-1.801223754882812,2.396636962890625,-0.1708984375,-0.1436548978090286,1.403268575668335,-1.280318379402161,46.12051391601562,100.9667816162109,-24.94534301757812
267856,-1.801223754882812,2.396636962890625,-0.1708984375,-0.1436548978090286,1.403268575668335,-1.280318379402161,46.12051391601562,100.9667816162109,-24.94534301757812
267857,-2.206771850585938,1.38800048828125,0.023712158203125,0.2774009704589844,0.808372437953949,0.9128983020782472,45.85653686523438,101.3943023681641,-26.005859375
267858,-1.67486572265625,1.34893798828125,0.3000640869140625,0.8974932432174683,0.5368815660476685,0.9893947243690492,46.33784484863281,101.3853607177734,-26.19119262695312
267859,-1.304824829101562,1.2005615234375,0.427459716796875,1.131431460380554,0.7724051475524902,0.8368855714797974,47.16876220703125,101.3765869140625,-26.40878295898438
267860,-1.304824829101562,1.2005615234375,0.427459716796875,1.131431460380554,0.7724051475524902,0.8368855714797974,47.16876220703125,101.3765869140625,-26.40878295898438
267861,-1.104995727539062,0.7297210693359375,0.2466888427734375,1.007570743560791,0.7949466705322266,0.8683164715766907,48.47064208984375,101.2420501708984,-27.23703002929688
267862,-0.9667816162109376,0.551513671875,0.2281494140625,0.9189239740371704,0.7974926233291626,0.904592216014862,49.07670593261719,101.0690612792969,-27.7501220703125
267863,-0.782989501953125,0.385711669921875,0.1204833984375,0.8679505586624146,0.7092157602310181,0.9166682958602904,49.74909973144531,100.8435516357422,-28.02119445800781
267864,-0.782989501953125,0.385711669921875,0.1204833984375,0.8679505586624146,0.7092157602310181,0.9166682958602904,49.74909973144531,100.8435516357422,-28.02119445800781
267865,-0.3733367919921875,0.2440338134765625,-0.01507568359375,0.8433206081390381,0.414050966501236,0.8009182810783386,51.01628112792969,100.41943359375,-28.65391540527344
267866,-0.1963043212890625,0.2670440673828125,0.0734405517578125,0.889652669429779,0.5600295066833496,0.6497220993041992,51.48184204101562,100.1447143554688,-29.0050048828125
267867,-0.0616302490234375,0.3002777099609375,0.1947479248046875,1.00077223777771,0.9636885523796082,0.5030815005302429,51.88253784179688,99.97840881347656,-29.33872985839844
267868,-0.0616302490234375,0.3002777099609375,0.1947479248046875,1.00077223777771,0.9636885523796082,0.5030815005302429,51.88253784179688,99.97840881347656,-29.33872985839844
267869,0.0684814453125,0.3332366943359375,0.376739501953125,1.183378577232361,1.979267954826355,0.4105454683303833,52.60209655761719,99.60794067382812,-30.10995483398438
267870,0.1154632568359375,0.30010986328125,0.314483642578125,1.174402356147766,2.236407995223999,0.5404784083366394,52.97525024414062,99.40200805664062,-30.52262878417969
267871,0.1160736083984375,0.281982421875,0.2540740966796875,0.9905446767807008,2.200953722000122,0.7194481492042542,53.55934143066406,99.18960571289062,-30.96929931640625
267872,0.1160736083984375,0.281982421875,0.2540740966796875,0.9905446767807008,2.200953722000122,0.7194481492042542,53.55934143066406,99.18960571289062,-30.96929931640625
267873,0.0483551025390625,0.3461151123046875,0.0965423583984375,0.0928375273942947,1.2615966796875,0.6098777055740356,54.85284423828125,98.9307861328125,-31.45475769042969
267874,0.0129547119140625,0.3481597900390625,0.010833740234375,-0.1595489084720612,0.1956166326999664,0.3134154379367828,55.60801696777344,98.7971649169922,-31.43540954589844
267875,-0.0398101806640625,0.3346405029296875,0.063201904296875,-0.2174665480852127,-0.9382793307304382,-0.1688100546598434,56.18821716308594,98.574951171875,-31.16511535644531
267876,-0.0398101806640625,0.3346405029296875,0.063201904296875,-0.2174665480852127,-0.9382793307304382,-0.1688100546598434,56.18821716308594,98.574951171875,-31.16511535644531
267877,-0.2200469970703125,0.2579498291015625,0.4245452880859375,-0.5098422169685364,-1.605947375297546,-0.6816520690917969,56.42056274414062,98.56114196777344,-30.67239379882812
267878,-0.25579833984375,0.298095703125,0.5178375244140625,-0.5098422169685364,-1.605947375297546,-0.6816520690917969,56.01217651367188,98.76187133789062,-30.71577453613281
267879,-0.297607421875,0.3502044677734375,0.5620880126953125,-0.7498468160629272,-1.163526296615601,-0.7899169921875,55.32890319824219,98.83468627929688,-30.5955810546875
267880,-0.297607421875,0.3502044677734375,0.5620880126953125,-0.7498468160629272,-1.163526296615601,-0.7899169921875,55.32890319824219,98.83468627929688,-30.5955810546875
267881,-0.408966064453125,0.52874755859375,0.4792022705078125,-1.165061831474304,-0.5841034054756165,-0.990233302116394,54.284912109375,99.38035583496094,-30.25822448730469
267882,-0.50567626953125,0.6298370361328125,0.421478271484375,-1.2596755027771,-0.5885724425315857,-1.132094025611877,53.69866943359375,99.65431213378906,-29.87826538085938
267883,-0.603363037109375,0.7029266357421875,0.3769073486328125,-1.214778780937195,-0.9969354271888732,-1.590561509132385,53.19448852539062,99.8723602294922,-29.30662536621094
267884,-0.603363037109375,0.7029266357421875,0.3769073486328125,-1.214778780937195,-0.9969354271888732,-1.590561509132385,53.19448852539062,99.8723602294922,-29.30662536621094
267885,-0.8429107666015625,0.656463623046875,0.33154296875,-1.203888893127441,-1.196750521659851,-1.689653992652893,51.86630249023438,100.7158508300781,-28.58512878417969
267886,-0.9987640380859376,0.526397705078125,0.34906005859375,-1.249675035476685,-1.145803689956665,-1.421077132225037,50.93984985351562,101.0783843994141,-28.12651062011719
267887,-0.9812469482421876,0.5014190673828125,0.2381744384765625,-1.271156311035156,-1.049893975257874,-1.00653350353241,49.98905944824219,101.2736206054688,-27.76924133300781
267888,-0.9812469482421876,0.5014190673828125,0.2381744384765625,-1.271156311035156,-1.049893975257874,-1.00653350353241,49.98905944824219,101.2736206054688,-27.76924133300781
267889,-0.57281494140625,0.4996185302734375,-0.0177001953125,-0.8005803227424622,-1.916059970855713,-0.9142174124717712,48.47332763671875,101.6655426025391,-26.58851623535156
267890,-0.4373016357421875,0.3890533447265625,0.044708251953125,-0.5390203595161438,-2.00498104095459,-0.8352178931236267,47.91412353515625,101.8689727783203,-26.105224609375
267891,-0.313385009765625,0.2974700927734375,0.0286102294921875,-0.3605219721794128,-1.898084998130798,-0.7376828193664551,47.29313659667969,101.8253784179688,-25.69625854492188
267892,-0.2051544189453125,0.2046051025390625,-0.0448150634765625,-0.2374908477067947,-1.712031722068787,-0.5690714716911316,46.78146362304688,101.8348846435547,-25.43058776855469
267893,-0.07440185546875,0.13134765625,-0.1811676025390625,-0.1845552027225494,-1.656736016273499,-0.1806576550006866,46.47515869140625,101.5742950439453,-25.10870361328125
267894,-0.0152435302734375,0.08935546875,-0.2752532958984375,-0.0667406842112541,-1.58995509147644,0.4143998324871063,46.09637451171875,101.3329467773438,-24.92344665527344
267895,-0.0924835205078125,0.0768890380859375,-0.35308837890625,0.2135801911354065,-1.397741675376892,0.7247835397720337,45.78291320800781,101.2777862548828,-24.86549377441406
267896,-0.0924835205078125,0.0768890380859375,-0.35308837890625,0.2135801911354065,-1.397741675376892,0.7247835397720337,45.78291320800781,101.2777862548828,-24.86549377441406
267897,-0.0876312255859375,-0.0450897216796875,-0.4795074462890625,0.6330296397209167,-0.7571529150009155,0.8388030529022217,45.28663635253906,101.4766998291016,-24.65896606445312
267898,0.0644378662109375,0.0044097900390625,-0.6507415771484375,0.2569207549095154,0.2418325990438461,0.7901380658149719,45.12013244628906,101.5131530761719,-24.78839111328125
267899,0.2315521240234375,0.175323486328125,-1.347091674804688,-0.9785351157188416,0.7759721875190735,0.33462193608284,45.28111267089844,101.5079803466797,-24.85305786132812
267900,0.1170501708984375,0.3964080810546875,-1.021942138671875,-1.271062850952148,-0.4047706425189972,0.0573178827762603,45.55596923828125,101.4905548095703,-24.67755126953125
267901,-0.031646728515625,0.59149169921875,-0.3597412109375,-1.24649703502655,-0.5528227090835571,-0.1128993853926659,45.82951354980469,101.5372314453125,-24.13717651367188
267902,-0.1287384033203125,0.8181610107421875,-0.24462890625,-1.137712478637695,-0.1916708946228027,-0.2768845856189728,45.91682434082031,101.6165924072266,-23.31753540039062
267903,-0.2073974609375,1.053680419921875,-0.3269805908203125,-0.554035484790802,0.2175640165805817,-0.5592688918113708,45.83444213867188,101.6919403076172,-22.6927490234375
267904,-0.2073974609375,1.053680419921875,-0.3269805908203125,-0.554035484790802,0.2175640165805817,-0.5592688918113708,45.83444213867188,101.6919403076172,-22.6927490234375
267905,-0.3093414306640625,1.21044921875,-0.633270263671875,-0.2438566088676453,0.0494399890303611,-0.5134867429733276,45.24870300292969,101.7558898925781,-21.50794982910156
267906,-0.319305419921875,1.139724731445312,-0.6554412841796875,-0.0378829352557659,-0.1127241477370262,-0.3105317652225494,44.81523132324219,101.7703704833984,-21.22918701171875
267907,-0.2289276123046875,1.030029296875,-0.598480224609375,0.1114761903882027,-0.1156613528728485,-0.1049855351448059,44.38092041015625,101.6872863769531,-20.97911071777344
267908,-0.2289276123046875,1.030029296875,-0.598480224609375,0.1114761903882027,-0.1156613528728485,-0.1049855351448059,44.38092041015625,101.6872863769531,-20.97911071777344
267909,-0.0570068359375,0.8541717529296875,-0.5237579345703125,0.2844522297382355,-0.1798672378063202,0.4424474537372589,44.21839904785156,101.6364135742188,-20.76795959472656
267910,-0.0663299560546875,0.905029296875,-0.59967041015625,0.4035711586475372,-0.4233597815036774,0.7285569906234741,44.39158630371094,101.48095703125,-20.70672607421875
267911,-0.1634674072265625,1.01971435546875,-0.732940673828125,0.7063342332839966,-0.6477451920509338,0.912008821964264,44.63510131835938,101.4813842773438,-20.91259765625
267912,-0.1634674072265625,1.01971435546875,-0.732940673828125,0.7063342332839966,-0.6477451920509338,0.912008821964264,44.63510131835938,101.4813842773438,-20.91259765625
267913,-0.542572021484375,1.422073364257812,-0.95367431640625,1.679274797439575,-0.4415739476680756,0.7910895943641663,45.44053649902344,101.4968719482422,-21.48655700683594
267914,-0.730316162109375,1.68157958984375,-0.9098052978515624,1.896852135658264,0.0953435599803924,0.5091367363929749,45.68595886230469,101.3420257568359,-21.87971496582031
267915,-0.784759521484375,1.923187255859375,-0.9151611328125,1.827378869056702,0.5332838892936707,0.211619034409523,45.95169067382812,101.3155059814453,-22.73820495605469
267916,-0.784759521484375,1.923187255859375,-0.9151611328125,1.827378869056702,0.5332838892936707,0.211619034409523,45.95169067382812,101.3155059814453,-22.73820495605469
267917,-0.4889984130859375,2.4061279296875,-0.7353973388671875,1.365983724594116,0.770707905292511,-0.0174969676882028,46.14500427246094,101.1740264892578,-24.43943786621094
267918,-0.1839599609375,2.64410400390625,-0.6653900146484375,0.9306698441505432,0.827645480632782,-0.0115005951374769,46.2056884765625,100.9241638183594,-25.24356079101562
267919,-0.052734375,2.868133544921875,-0.5693511962890625,0.617021381855011,0.4506529271602631,0.1440967172384262,46.27145385742188,100.8082275390625,-25.93505859375
267920,-0.0977020263671875,3.273834228515625,-0.2428741455078125,0.5851966142654419,0.1860558837652206,0.3737546801567078,46.32698059082031,100.6052398681641,-26.46684265136719
267921,-0.19744873046875,3.967498779296875,-0.0168609619140625,0.9478869438171388,0.1024872288107872,0.6881325840950012,46.50358581542969,100.6445617675781,-26.80694580078125
267922,-0.4618988037109375,4.586029052734375,0.1204681396484375,1.420199036598206,0.0451269969344139,0.8840781450271606,46.684326171875,100.5986938476562,-27.19509887695312
267923,-0.8586578369140625,4.494659423828125,0.3478240966796875,1.523642420768738,0.2763596773147583,0.7986031770706177,46.88558959960938,100.5794830322266,-27.87493896484375
267924,-0.8586578369140625,4.494659423828125,0.3478240966796875,1.523642420768738,0.2763596773147583,0.7986031770706177,46.88558959960938,100.5794830322266,-27.87493896484375
267925,-1.220062255859375,2.51123046875,0.1411590576171875,1.473008751869202,-0.20536008477211,0.3509031534194946,47.94085693359375,100.4941864013672,-29.92193603515625
267926,-1.230575561523438,1.748321533203125,0.344696044921875,1.594366312026978,-0.391670286655426,0.1233467012643814,48.57600402832031,100.384765625,-30.88217163085938
267927,-1.281478881835938,1.021087646484375,0.473846435546875,1.735496282577515,-0.2753287851810455,0.0320098660886287,49.12835693359375,100.2313079833984,-31.76278686523438
267928,-1.281478881835938,1.021087646484375,0.473846435546875,1.735496282577515,-0.2753287851810455,0.0320098660886287,49.12835693359375,100.2313079833984,-31.76278686523438
267929,-1.345611572265625,0.0430145263671875,0.3915863037109375,1.9095778465271,-0.0003848267660941,0.8329632878303528,50.028564453125,99.73805236816406,-33.66169738769531
267930,-1.055282592773438,0.000152587890625,0.3188934326171875,1.766421437263489,-0.1495005339384079,0.9307337999343872,50.5733642578125,99.37423706054688,-34.58065795898438
267931,-0.8193206787109375,0.0599212646484375,0.3887786865234375,1.428690075874329,-0.1151401698589325,0.8356554508209229,51.18548583984375,99.00398254394533,-35.41213989257812
267932,-0.8193206787109375,0.0599212646484375,0.3887786865234375,1.428690075874329,-0.1151401698589325,0.8356554508209229,51.18548583984375,99.00398254394533,-35.41213989257812
267933,-0.4983367919921875,0.04290771484375,0.419952392578125,0.5091162323951721,1.103415489196777,0.4410724639892578,52.02018737792969,98.29649353027344,-36.85516357421875
267934,-0.4983367919921875,0.04290771484375,0.419952392578125,0.5091162323951721,1.103415489196777,0.4410724639892578,52.02018737792969,98.29649353027344,-36.85516357421875
267935,-0.2834320068359375,0.147613525390625,0.4133148193359375,0.2630316317081451,1.103564143180847,0.5158372521400452,52.28753662109375,98.0244140625,-37.20762634277344
267936,-0.3243560791015625,0.424163818359375,0.3112640380859375,-0.0097671430557966,1.005211234092712,0.4641149342060089,52.80238342285156,97.73768615722656,-37.79635620117188
267937,-0.3044281005859375,0.3352203369140625,0.1422271728515625,-0.1547706723213196,0.5590784549713135,0.3558052480220795,53.15483093261719,97.51751708984376,-37.86393737792969
267938,-0.2119903564453125,0.2530975341796875,0.1413116455078125,-0.2214423716068268,0.0497116297483444,0.3317273259162903,53.60906982421875,97.48533630371094,-37.98403930664062
