time_idx,accelerometerAccelerationX(G),accelerometerAccelerationY(G),accelerometerAccelerationZ(G),gyroRotationX(rad/s),gyroRotationY(rad/s),gyroRotationZ(rad/s),magnetometerX(µT),magnetometerY(µT),magnetometerZ(µT)
122222,-0.2754974365234375,0.00469970703125,0.1151123046875,-0.9074966311454772,-2.118706226348877,-0.3898074328899384,5.237274169921875,72.14599609375,-24.20712280273438
122223,-0.202911376953125,-0.00469970703125,0.0989227294921875,-1.023536443710327,-2.269301652908325,-0.4274285733699799,4.892990112304688,72.18910217285156,-23.22857666015625
122224,-0.15460205078125,-0.01904296875,0.0688629150390625,-1.151409983634949,-2.263266563415527,-0.4422248303890228,4.610427856445312,72.19351196289062,-22.12696838378906
122225,-0.116363525390625,-0.01519775390625,0.0115509033203125,-1.241795301437378,-2.160932302474976,-0.4470025300979614,4.305450439453125,72.08259582519531,-20.80458068847656
122226,-0.062408447265625,-0.0010528564453125,-0.21014404296875,-1.194927334785461,-2.085487365722656,-0.4500073790550232,4.068328857421875,72.02043151855469,-19.41854858398438
122227,0.05657958984375,0.0147552490234375,-0.750518798828125,-0.6295185685157776,-2.689607620239258,-0.3790905773639679,3.8328857421875,71.95692443847656,-18.27485656738281
122228,0.1191253662109375,0.0437164306640625,-0.5825347900390625,0.3212997317314148,-3.077451705932617,-0.1312336474657059,3.70733642578125,71.76876831054688,-17.12287902832031
122229,0.0237274169921875,0.12945556640625,0.12957763671875,0.6815114617347717,-1.123846292495728,0.1692920923233032,3.97662353515625,70.91021728515625,-13.5198974609375
122230,0.0237274169921875,0.12945556640625,0.12957763671875,0.6815114617347717,-1.123846292495728,0.1692920923233032,3.97662353515625,70.91021728515625,-13.5198974609375
122231,0.0887451171875,0.146453857421875,-0.0017242431640625,0.4573678076267242,-0.4813056290149689,0.3853764533996582,4.165115356445312,70.70199584960938,-12.57759094238281
122232,0.0791168212890625,0.2325897216796875,-0.154876708984375,0.2862738370895386,-0.279140830039978,0.6834827065467834,4.396804809570312,70.68229675292969,-11.89863586425781
122233,-0.0156402587890625,0.3392181396484375,-0.284637451171875,0.2574211359024048,-0.3497952818870544,0.7180503010749817,4.476760864257812,70.81695556640625,-11.48623657226562
122234,-0.095550537109375,0.4461669921875,-0.28741455078125,0.4030049741268158,-0.6924900412559509,0.2341105043888092,4.3963623046875,71.28497314453125,-10.99237060546875
122235,-0.095550537109375,0.4461669921875,-0.28741455078125,0.4030049741268158,-0.6924900412559509,0.2341105043888092,4.3963623046875,71.28497314453125,-10.99237060546875
122236,-0.1137542724609375,0.4874114990234375,-0.287933349609375,0.4772776067256927,-0.735366702079773,-0.023216638714075,4.2899169921875,71.47502136230469,-10.73622131347656
122237,-0.161651611328125,0.5380096435546875,-0.3415679931640625,0.6205668449401855,-0.7657434940338135,-0.2291373163461685,4.2166748046875,71.48469543457031,-10.54881286621094
122238,-0.2415924072265625,0.617828369140625,-0.386016845703125,0.8766868114471436,-0.6866047382354736,-0.3681170344352722,4.14178466796875,71.41764831542969,-10.34356689453125
122239,-0.349395751953125,0.7266845703125,-0.4192047119140625,1.184335708618164,-0.3854318559169769,-0.4730453193187714,3.932083129882812,71.29295349121094,-9.990951538085938
122240,-0.46832275390625,0.857513427734375,-0.55401611328125,1.477408051490784,0.0316031984984874,-0.55237877368927,3.80682373046875,70.8663330078125,-9.608779907226562
122241,-0.5768280029296875,1.0504150390625,-0.862152099609375,1.667244553565979,0.2226162999868393,-0.5736488699913025,3.552154541015625,70.689208984375,-9.730178833007812
122242,-0.6372833251953125,1.323211669921875,-1.050827026367188,1.489045023918152,0.1373123228549957,-0.5021211504936218,3.454681396484375,70.50508117675781,-10.12875366210938
122243,-0.637359619140625,1.658432006835938,-0.920379638671875,0.8102827072143555,0.0477624610066413,-0.426038920879364,3.411636352539062,70.23651123046875,-10.5047607421875
122244,-0.5984039306640625,1.951217651367188,-0.64764404296875,0.1677352041006088,0.081761710345745,-0.4421009719371796,3.4610595703125,69.94239807128906,-10.78274536132812
122245,-0.63116455078125,2.173431396484375,-0.3620452880859375,-0.0082129221409559,0.4910014271736145,-0.4308725595474243,3.448806762695312,69.72453308105469,-10.85758972167969
122246,-0.7258453369140625,2.333221435546875,-0.19769287109375,0.249068409204483,1.146791458129883,-0.3134173154830933,3.474212646484375,69.576171875,-11.00759887695312
122247,-0.80859375,2.474502563476562,-0.1511993408203125,0.4271183013916016,1.572962045669556,0.0026650251820683,3.414306640625,69.27360534667969,-11.33815002441406
122248,-1.031402587890625,2.802841186523438,-0.2197723388671875,0.3658783733844757,1.472440242767334,0.2708586752414703,3.334197998046875,69.18545532226562,-12.25517272949219
122249,-1.349807739257812,3.196121215820312,-0.3068389892578125,0.4794102609157562,1.110527276992798,0.213283509016037,3.23760986328125,69.18473815917969,-13.14859008789062
122250,-1.707656860351562,3.407272338867188,-0.193145751953125,0.9310951828956604,1.110511541366577,0.0704613849520683,3.039764404296875,69.35659790039062,-14.20903015136719
122251,-2.123458862304688,3.423141479492188,0.0468597412109375,1.123745322227478,1.556756615638733,-0.213055819272995,2.681396484375,69.43089294433594,-15.17745971679688
122252,-2.6510009765625,3.2266845703125,0.321258544921875,0.7146627306938171,2.173147439956665,-0.7862226963043213,2.386856079101562,69.47616577148438,-16.28370666503906
122253,-3.102386474609375,1.78564453125,-0.1132049560546875,-0.1753419935703278,2.213680028915405,-1.061428427696228,1.75103759765625,69.28823852539062,-18.88264465332031
122254,-3.102386474609375,1.78564453125,-0.1132049560546875,-0.1753419935703278,2.213680028915405,-1.061428427696228,1.75103759765625,69.28823852539062,-18.88264465332031
122255,-2.873001098632812,1.04901123046875,-0.461273193359375,-0.0020972392521798,0.552156388759613,-0.4127154052257538,1.751724243164062,69.13703918457031,-20.22398376464844
122256,-2.04571533203125,0.6782684326171875,-0.3043365478515625,0.2992879152297974,-0.8355830311775208,0.293483555316925,1.7890625,68.89768981933594,-21.12368774414062
122257,-1.085845947265625,0.6046905517578125,0.0262603759765625,0.3475885987281799,-1.17504870891571,0.8730118870735168,1.937393188476562,69.08811950683594,-21.04866027832031
122258,-1.085845947265625,0.6046905517578125,0.0262603759765625,0.3475885987281799,-1.17504870891571,0.8730118870735168,1.937393188476562,69.08811950683594,-21.04866027832031
122259,-0.929229736328125,0.5989990234375,-0.18377685546875,0.176262378692627,-0.935769021511078,0.8631976246833801,2.054275512695312,69.5283203125,-20.4906005859375
122260,-0.82696533203125,0.693389892578125,-0.31890869140625,0.3281350135803223,-1.029702663421631,0.7802806496620178,2.24212646484375,70.02204895019531,-19.994873046875
122261,-0.64251708984375,1.00762939453125,0.059661865234375,0.6058992147445679,-0.587799608707428,0.1791796088218689,2.832244873046875,70.70707702636719,-18.99195861816406
122262,-0.64251708984375,1.00762939453125,0.059661865234375,0.6058992147445679,-0.587799608707428,0.1791796088218689,2.832244873046875,70.70707702636719,-18.99195861816406
122263,-0.5010223388671875,1.061752319335938,0.222442626953125,0.5311728119850159,0.250712126493454,-0.2095987647771835,3.178085327148438,70.85830688476562,-18.59376525878906
122264,-0.3408660888671875,0.9518280029296876,0.1375732421875,0.5314077138900757,0.932099461555481,-0.4190063178539276,3.661911010742188,70.83468627929688,-18.44230651855469
122265,-0.1630096435546875,0.76165771484375,-0.1529693603515625,0.5852339267730713,0.9466472268104552,-0.3442961275577545,4.0853271484375,70.59349060058594,-18.424560546875
122266,-0.026123046875,0.61181640625,-0.3455963134765625,0.5659715533256531,0.341720312833786,0.0441884994506835,4.25286865234375,70.28900146484375,-18.72509765625
122267,-0.0516204833984375,0.5550537109375,-0.249786376953125,0.5201606154441833,-0.2458459883928299,0.4030097723007202,4.269607543945312,70.09982299804688,-19.11541748046875
122268,-0.1597747802734375,0.5550994873046875,-0.02532958984375,0.4334638118743896,-0.3982669413089752,0.4024814069271088,4.203781127929688,70.094970703125,-19.29515075683594
122269,-0.230499267578125,0.4655914306640625,0.0616302490234375,0.376763254404068,-0.3037566840648651,0.2037882804870605,4.148269653320312,70.20794677734375,-19.29313659667969
122270,-0.2867584228515625,0.3177947998046875,0.0589599609375,0.3985071778297424,-0.3216019868850708,0.0053819823078811,4.131500244140625,70.61000061035156,-19.29121398925781
122271,-0.330047607421875,0.1746368408203125,0.10369873046875,0.429293304681778,-0.4418674111366272,-0.1195125505328178,4.0819091796875,70.81912231445312,-19.00341796875
122272,-0.3710174560546875,0.03668212890625,0.16436767578125,0.4207962155342102,-0.522493839263916,-0.2230197638273239,4.24578857421875,70.85899353027344,-18.93650817871094
122273,-0.4779815673828125,-0.2640533447265625,0.25054931640625,0.1083531081676483,-0.3327294886112213,-0.39581099152565,4.315383911132812,70.81271362304688,-18.60757446289062
122274,-0.4779815673828125,-0.2640533447265625,0.25054931640625,0.1083531081676483,-0.3327294886112213,-0.39581099152565,4.315383911132812,70.81271362304688,-18.60757446289062
122275,-0.5551300048828125,-0.3658599853515625,0.237548828125,-0.0400161258876323,-0.2720405757427216,-0.4150925278663635,4.330596923828125,70.68656921386719,-18.38151550292969
122276,-0.6362762451171875,-0.3805999755859375,0.302490234375,-0.1620925068855286,-0.2506593763828278,-0.4001420736312866,4.376724243164062,70.56910705566406,-18.33615112304688
122277,-0.7207489013671875,-0.2374420166015625,0.4553680419921875,-0.2932521104812622,-0.1860516220331192,-0.3642450571060181,4.340347290039062,70.31004333496094,-18.09162902832031
122278,-0.776458740234375,-0.0322265625,0.5818328857421875,-0.4656678140163422,-0.0557372979819774,-0.3589996993541718,4.283737182617188,70.18170166015625,-18.12382507324219
122279,-0.810333251953125,0.1299285888671875,0.61102294921875,-0.6698737144470215,0.0576814040541648,-0.3925507366657257,4.212982177734375,70.08523559570312,-18.09538269042969
122280,-0.84075927734375,0.2313690185546875,0.59698486328125,-0.8417738080024719,0.140128880739212,-0.4450792074203491,3.97576904296875,70.04115295410156,-18.19100952148438
122281,-0.8510284423828125,0.275634765625,0.564208984375,-0.9475814700126648,0.2247976958751678,-0.533632755279541,3.611099243164062,70.00529479980469,-18.03627014160156
122282,-0.837554931640625,0.27593994140625,0.502166748046875,-0.9646547436714172,0.2568448483943939,-0.6354070901870728,3.291397094726562,69.96128845214844,-18.10810852050781
122283,-0.78094482421875,0.230072021484375,0.4097137451171875,-0.913581132888794,0.2074895352125168,-0.760837972164154,2.820220947265625,69.84039306640625,-18.26759338378906
122284,-0.6761932373046875,0.15716552734375,0.2939605712890625,-0.8053702712059021,0.0117559917271137,-0.8806061744689941,2.429595947265625,69.663330078125,-18.25540161132812
122285,-0.5533599853515625,0.118927001953125,0.1855010986328125,-0.6560121774673462,-0.3354581594467163,-1.011774778366089,2.01641845703125,69.36309814453125,-18.32258605957031
122286,-0.4327545166015625,0.082855224609375,0.1337127685546875,-0.5148180723190308,-0.7254059314727783,-1.140464901924133,1.7398681640625,68.974609375,-18.46986389160156
122287,-0.3290863037109375,0.059722900390625,0.1224212646484375,-0.4297556281089783,-1.029055595397949,-1.234092116355896,1.62310791015625,68.53352355957031,-18.42204284667969
122288,-0.21929931640625,0.0209808349609375,0.0893096923828125,-0.4121217727661133,-1.313595652580261,-1.270496129989624,1.554733276367188,68.08940124511719,-17.99520874023438
122289,-0.1136474609375,-0.015869140625,0.053558349609375,-0.4261398613452911,-1.625818252563477,-1.234778642654419,1.5003662109375,67.48825073242188,-17.5670166015625
122290,-0.027923583984375,-0.0314483642578125,0.027923583984375,-0.440121203660965,-1.972273945808411,-1.142380475997925,1.523513793945312,66.77760314941406,-16.81019592285156
122291,0.0375213623046875,-0.0295257568359375,0.0159912109375,-0.4622816145420074,-2.336648464202881,-1.013668060302734,1.757888793945312,66.15614318847656,-15.89228820800781
122292,0.09515380859375,-0.0033111572265625,-0.0024871826171875,-0.4751212596893311,-2.754006862640381,-0.866041898727417,2.076187133789062,65.49761962890625,-14.79212951660156
122293,0.14471435546875,0.0276947021484375,0.00634765625,-0.5331313014030457,-3.175479173660278,-0.6608671545982361,2.553375244140625,64.78533935546875,-13.37785339355469
122294,0.2001800537109375,0.0628509521484375,0.0101776123046875,-0.8625645637512207,-3.568907022476196,-0.2760896384716034,3.034896850585938,64.2457275390625,-11.75650024414062
122295,0.280059814453125,0.1086883544921875,-0.07623291015625,-1.299490213394165,-3.952017068862915,0.4293372631072998,3.343460083007812,63.70742797851562,-9.900558471679688
122296,0.3753662109375,0.2225494384765625,-0.44232177734375,-0.9232494831085204,-4.318386554718018,1.35414445400238,3.297653198242188,63.27227783203125,-7.844390869140625
122297,0.2962646484375,0.45458984375,-0.267791748046875,0.5658040046691895,-3.634592533111572,2.149462223052979,3.20849609375,63.24774169921875,-5.514541625976562
122298,0.1233673095703125,0.52777099609375,0.3672943115234375,0.8403761982917786,-0.9657503366470336,2.136128425598145,3.386749267578125,63.77342224121094,-3.419357299804688
122299,0.08538818359375,0.498565673828125,0.1122894287109375,0.5471658706665039,1.304726004600525,1.913265466690063,3.73699951171875,64.53163146972656,-1.567657470703125
122300,0.063690185546875,0.504180908203125,-0.2586517333984375,0.6094199419021606,1.707085728645325,1.802912950515747,4.127883911132812,65.70436096191406,-0.842193603515625
122301,-0.02099609375,0.5334014892578125,-0.4594879150390625,0.6052760481834412,0.5067936778068542,1.21470582485199,4.844619750976562,67.43112182617188,-1.543716430664062
122302,-0.02099609375,0.5334014892578125,-0.4594879150390625,0.6052760481834412,0.5067936778068542,1.21470582485199,4.844619750976562,67.43112182617188,-1.543716430664062
122303,-0.047515869140625,0.5404052734375,-0.34619140625,0.425960898399353,-0.1211282908916473,0.8347587585449219,4.946548461914062,68.22299194335938,-2.1270751953125
122304,-0.0959014892578125,0.52099609375,-0.2004241943359375,0.1974108070135117,-0.390291839838028,0.5124111175537109,5.160659790039062,68.77275085449219,-2.287139892578125
122305,-0.1724700927734375,0.5200958251953125,-0.1047210693359375,0.0007355650886893,-0.2737154364585876,0.3705320060253143,5.20050048828125,69.06941223144531,-2.1318359375
122306,-0.2566680908203125,0.63446044921875,-0.1195068359375,-0.0693889260292053,0.0470021292567253,0.2057307958602905,5.288864135742188,69.41397094726562,-2.06103515625
122307,-0.3258209228515625,0.7652435302734375,-0.1845855712890625,-0.0398230478167533,0.3996142446994781,0.0074336812831461,5.244552612304688,69.61053466796875,-1.874618530273438
122308,-0.4160919189453125,0.9599151611328124,-0.310638427734375,0.0874669998884201,0.6282743215560913,-0.2424304783344269,5.34259033203125,69.7784423828125,-1.885665893554688
122309,-0.5132293701171875,1.204238891601562,-0.443328857421875,0.2514085173606873,0.6305832862854004,-0.5060490965843201,5.293563842773438,69.73558044433594,-1.942169189453125
122310,-0.64111328125,1.641372680664062,0.0933990478515625,0.0664610490202903,0.7809687852859497,-0.8570244312286377,4.962753295898438,69.32450866699219,-2.595947265625
122311,-0.64111328125,1.641372680664062,0.0933990478515625,0.0664610490202903,0.7809687852859497,-0.8570244312286377,4.962753295898438,69.32450866699219,-2.595947265625
122312,-0.8152923583984375,2.034088134765625,0.5899658203125,-0.3352043628692627,1.63496732711792,-0.9815428853034972,4.568267822265625,68.94233703613281,-2.96722412109375
122313,-1.612762451171875,3.174179077148438,0.476409912109375,-0.1868804097175598,2.688795566558838,-1.60910964012146,3.698974609375,67.80123901367188,-4.590133666992188
122314,-1.612762451171875,3.174179077148438,0.476409912109375,-0.1868804097175598,2.688795566558838,-1.60910964012146,3.698974609375,67.80123901367188,-4.590133666992188
122315,-2.348007202148438,3.675155639648438,0.2459869384765625,0.4576117694377899,1.068750500679016,-1.656748533248901,3.133224487304688,67.07090759277344,-6.145309448242188
122316,-3.417526245117188,4.162277221679688,0.5102386474609375,1.076356530189514,-0.1605827510356903,-1.12592887878418,2.503280639648438,66.23846435546875,-7.798629760742188
122317,-4.106353759765625,3.561874389648438,0.789093017578125,0.888319730758667,1.343258261680603,0.5499816536903381,1.810348510742188,65.3502197265625,-9.429718017578123
122318,-3.02593994140625,2.847793579101562,-0.0661468505859375,0.8985966444015503,2.4769606590271,0.5893607139587402,1.359527587890625,64.734619140625,-10.58663940429688
122319,-2.230178833007812,2.019821166992188,-0.3292694091796875,0.7690982818603516,1.424288630485535,0.4302299320697784,1.030670166015625,64.78419494628906,-11.53045654296875
122320,-2.112152099609375,1.411529541015625,0.148223876953125,0.3369468748569489,1.15743088722229,0.1240891888737679,1.078643798828125,65.22084045410156,-12.49418640136719
122321,-2.047958374023438,1.004409790039062,0.020599365234375,0.0589741021394729,0.959818720817566,-0.0496296025812625,1.060821533203125,65.72927856445312,-13.30343627929688
122322,-1.984390258789062,0.7405548095703125,-0.2062225341796875,-0.0109892673790454,0.0809720829129219,0.1001321896910667,1.235885620117188,66.18617248535156,-13.88079833984375
122323,-1.734390258789062,0.6005859375,-0.131988525390625,-0.0074187680147588,-0.6690100431442261,0.3675402104854584,1.340576171875,66.50201416015625,-14.21348571777344
122324,-1.41680908203125,0.476593017578125,-0.0384368896484375,0.0563740581274032,-0.7021629214286804,0.5237151384353638,1.49456787109375,66.84663391113281,-14.35086059570312
122325,-1.05731201171875,0.2801666259765625,-0.10198974609375,0.4103787541389465,-0.067959077656269,0.6681436896324158,1.747024536132812,67.50984191894531,-13.59086608886719
122326,-1.05731201171875,0.2801666259765625,-0.10198974609375,0.4103787541389465,-0.067959077656269,0.6681436896324158,1.747024536132812,67.50984191894531,-13.59086608886719
122327,-0.93194580078125,0.2576751708984375,0.0029754638671875,0.5216032862663269,0.3327225744724274,0.7187190055847168,2.20355224609375,67.87332153320312,-13.32528686523438
122328,-0.8303680419921875,0.3476409912109375,0.0676727294921875,0.4937785565853119,0.9003106355667114,0.7249518632888794,2.857376098632812,68.14010620117188,-13.07237243652344
122329,-0.6013031005859375,0.6712188720703125,-0.151092529296875,0.4255209267139435,1.433183073997498,0.5640234351158142,3.93377685546875,68.50663757324219,-13.27537536621094
122330,-0.6013031005859375,0.6712188720703125,-0.151092529296875,0.4255209267139435,1.433183073997498,0.5640234351158142,3.93377685546875,68.50663757324219,-13.27537536621094
122331,-0.4634857177734375,0.881866455078125,-0.28424072265625,0.2958516180515289,0.5070648193359375,0.7873638272285461,4.170654296875,68.79931640625,-13.92185974121094
122332,-0.5121002197265625,0.886871337890625,-0.0690765380859375,0.1845993995666504,0.0216957088559866,0.6998076438903809,4.031326293945312,69.15519714355469,-14.48643493652344
122333,-0.4728240966796875,0.711944580078125,0.005401611328125,0.4863320887088776,0.3747999668121338,0.3875764906406403,3.810501098632812,69.57904052734375,-14.82044982910156
122334,-0.376068115234375,0.60235595703125,0.0677947998046875,0.8466598987579346,0.6580708026885986,0.1836965978145599,3.56915283203125,69.79731750488281,-14.89706420898438
122335,-0.357452392578125,0.482696533203125,0.1378173828125,0.9976153373718262,0.9215317368507384,-0.0197750367224216,3.427047729492188,70.1717529296875,-15.21253967285156
122336,-0.3566436767578125,0.3454437255859375,0.1085052490234375,0.9507737755775452,0.9841525554656982,-0.1933401674032211,3.372421264648438,70.34304809570312,-15.53466796875
122337,-0.3499755859375,0.241668701171875,0.083892822265625,0.7721185684204102,0.8476572632789612,-0.3098401427268982,3.46649169921875,70.25091552734375,-15.96395874023438
122338,-0.2315826416015625,0.1328277587890625,0.0592193603515625,0.6220116019248962,-0.2597748637199402,-0.284634917974472,3.842437744140625,70.20442199707031,-17.57252502441406
122339,-0.2315826416015625,0.1328277587890625,0.0592193603515625,0.6220116019248962,-0.2597748637199402,-0.284634917974472,3.842437744140625,70.20442199707031,-17.57252502441406
122340,-0.1932373046875,0.0506591796875,0.186126708984375,0.5626825094223022,-0.8160226345062256,-0.1948381960391998,4.147048950195312,70.02204895019531,-17.98606872558594
122341,-0.1461639404296875,-0.1032867431640625,0.35540771484375,0.2985707223415375,-1.013509035110474,-0.1098468750715256,4.384933471679688,69.8193359375,-17.69027709960938
122342,-0.1461639404296875,-0.1032867431640625,0.35540771484375,0.2985707223415375,-1.013509035110474,-0.1098468750715256,4.384933471679688,69.8193359375,-17.69027709960938
122343,-0.1431121826171875,-0.1341552734375,0.42181396484375,0.2611466348171234,-0.8379426002502441,-0.1191293224692345,4.424514770507812,69.70429992675781,-17.41127014160156
122344,-0.1948089599609375,-0.0824737548828125,0.5470428466796875,0.2171317785978317,-0.4799815118312836,-0.1848265677690506,4.261428833007812,69.71110534667969,-16.98515319824219
122345,-0.3111724853515625,0.01129150390625,0.628692626953125,0.0981169790029525,-0.0425999239087104,-0.2430432736873627,4.075637817382812,69.72586059570312,-16.56730651855469
122346,-0.4381866455078125,0.0866546630859375,0.61322021484375,-0.0403452925384044,0.1905646175146103,-0.2227957993745804,3.754226684570312,69.67744445800781,-16.55311584472656
122347,-0.5545654296875,0.1483306884765625,0.5781097412109375,-0.2106243520975113,0.2111609727144241,-0.2946287095546722,3.4306640625,69.74803161621094,-16.69210815429688
122348,-0.67413330078125,0.163177490234375,0.5053253173828125,-0.4005610048770905,0.0276281647384166,-0.4325508773326874,3.095245361328125,69.78567504882812,-16.83869934082031
122349,-0.7562408447265625,0.1241912841796875,0.4193267822265625,-0.5769397616386414,-0.3304820358753204,-0.6148767471313477,2.792648315429688,69.88044738769531,-16.97689819335938
122350,-0.7602081298828125,0.046356201171875,0.339599609375,-0.6768876314163208,-0.7860351800918579,-0.7808753252029419,2.453048706054688,69.89134216308594,-17.09275817871094
122351,-0.673187255859375,-0.0250396728515625,0.259002685546875,-0.6674448847770691,-1.275328397750854,-0.8781707286834717,2.1943359375,69.78695678710938,-17.099365234375
122352,-0.5407257080078125,-0.025604248046875,0.206329345703125,-0.5499339699745178,-1.741515278816223,-0.8952453136444092,1.899429321289062,69.55726623535156,-16.759521484375
122353,-0.390716552734375,0.0543975830078125,0.2362060546875,-0.3461851179599762,-2.068319320678711,-0.8960404992103577,1.605712890625,68.79853820800781,-15.51649475097656
122354,-0.390716552734375,0.0543975830078125,0.2362060546875,-0.3461851179599762,-2.068319320678711,-0.8960404992103577,1.605712890625,68.79853820800781,-15.51649475097656
122355,-0.3304290771484375,0.071258544921875,0.210845947265625,-0.3305358290672302,-2.043191194534302,-0.8942458033561707,1.593597412109375,68.42088317871094,-14.68971252441406
122356,-0.271575927734375,0.070098876953125,0.17095947265625,-0.367466151714325,-2.032890558242798,-0.850882351398468,1.577972412109375,67.9703369140625,-13.76396179199219
122357,-0.1506805419921875,0.07366943359375,0.0714111328125,-0.5380251407623291,-2.090344905853271,-0.6330666542053223,2.067398071289062,66.69548034667969,-11.74024963378906
122358,-0.1506805419921875,0.07366943359375,0.0714111328125,-0.5380251407623291,-2.090344905853271,-0.6330666542053223,2.067398071289062,66.69548034667969,-11.74024963378906
122359,-0.0699005126953125,0.1291961669921875,0.017974853515625,-0.6354163885116577,-2.175883769989014,-0.4477426111698151,2.60577392578125,66.13667297363281,-10.60299682617188
122360,0.068115234375,0.2316131591796875,-0.243682861328125,-0.7395422458648682,-2.308170557022095,-0.107894241809845,3.052413940429688,65.61248779296875,-9.387420654296877
122361,0.279449462890625,0.27044677734375,-0.5926513671875,-0.6801263093948364,-2.930831670761108,0.7463314533233643,3.501785278320312,65.25019836425781,-8.094711303710938
122362,0.3043365478515625,0.3023223876953125,-0.3707275390625,0.0170873738825321,-2.612720727920532,1.858574271202087,3.601287841796875,64.85185241699219,-6.669265747070312
122363,0.075408935546875,0.3708953857421875,0.156158447265625,0.4881267845630646,-1.020319819450378,2.323770999908447,3.618057250976562,64.80743408203125,-5.265396118164062
122364,-0.0022125244140625,0.338104248046875,0.2855987548828125,0.4433830380439758,0.4674425721168518,2.254634141921997,3.68255615234375,65.237060546875,-4.019332885742188
122365,0.036712646484375,0.2792510986328125,0.1897125244140625,0.1440320014953613,1.393436431884766,2.082627534866333,3.906097412109375,66.14756774902344,-2.868667602539062
122366,0.0279998779296875,0.2832794189453125,-0.0669097900390625,-0.1669812649488449,1.550154685974121,1.896999478340149,4.297607421875,67.30307006835938,-2.30224609375
122367,-0.020751953125,0.357696533203125,-0.324249267578125,-0.257582813501358,0.9939340353012084,1.606638789176941,4.620681762695312,68.33682250976562,-2.548431396484375
122368,-0.071624755859375,0.474853515625,-0.371612548828125,-0.1446416079998016,0.1743446439504623,1.201006531715393,5.046722412109375,69.16377258300781,-2.769119262695312
122369,-0.0947265625,0.602142333984375,-0.235809326171875,0.0274683758616447,-0.3925408720970154,0.7583452463150024,5.456649780273438,69.77659606933594,-3.0074462890625
122370,-0.1554718017578125,0.8066864013671875,0.0089874267578125,0.4939183592796326,-0.003566239029169,0.0595589354634285,5.810073852539062,70.83866882324219,-3.093460083007812
122371,-0.1554718017578125,0.8066864013671875,0.0089874267578125,0.4939183592796326,-0.003566239029169,0.0595589354634285,5.810073852539062,70.83866882324219,-3.093460083007812
122372,-0.2464447021484375,0.8941650390625,0.0066375732421875,0.9094511270523072,0.7413744926452637,-0.1297569274902344,5.96795654296875,71.08670043945312,-2.773956298828125
122373,-0.54815673828125,1.58563232421875,-0.8267974853515625,2.662784337997437,1.379261493682861,-0.5024237036705017,5.981002807617188,70.95327758789062,-3.298568725585938
122374,-0.6650238037109375,1.6998291015625,-0.8786163330078125,2.281093597412109,0.5611892938613892,-0.2759000360965729,5.806976318359375,70.7615966796875,-4.160888671875
122375,-0.6650238037109375,1.6998291015625,-0.8786163330078125,2.281093597412109,0.5611892938613892,-0.2759000360965729,5.806976318359375,70.7615966796875,-4.160888671875
122376,-0.6650238037109375,1.6998291015625,-0.8786163330078125,2.281093597412109,0.5611892938613892,-0.2759000360965729,5.806976318359375,70.7615966796875,-4.160888671875
122377,-1.225723266601562,2.39794921875,-0.528961181640625,-0.6009135246276855,0.3062510192394257,-0.3649026155471802,5.236312866210938,70.48373413085938,-6.185302734375
122378,-1.225723266601562,2.39794921875,-0.528961181640625,-0.6009135246276855,0.3062510192394257,-0.3649026155471802,5.236312866210938,70.48373413085938,-6.185302734375
122379,-1.5439453125,3.242919921875,-0.1287689208984375,-1.26422381401062,1.154849410057068,-0.4631213247776031,4.930450439453125,70.468505859375,-7.018417358398438
122380,-1.931365966796875,4.436737060546875,0.12762451171875,-1.146105170249939,2.297716617584229,-0.460747629404068,4.696853637695312,70.26849365234375,-7.750259399414062
122381,-2.248153686523438,4.197555541992188,-0.0957183837890625,-0.7094171047210693,1.578832626342773,-0.6449055075645447,4.291168212890625,69.42529296875,-8.90875244140625
122382,-2.248153686523438,4.197555541992188,-0.0957183837890625,-0.7094171047210693,1.578832626342773,-0.6449055075645447,4.291168212890625,69.42529296875,-8.90875244140625
122383,-2.582275390625,2.56890869140625,0.5234375,-0.1274455785751343,1.130102276802063,-0.0227034483104944,4.141128540039062,69.12837219238281,-10.03382873535156
122384,-2.298782348632812,1.681976318359375,0.6490020751953125,0.4125465452671051,2.371644496917725,0.3685607314109802,4.088287353515625,68.96702575683594,-11.22624206542969
122385,-1.928054809570312,1.376922607421875,-0.072479248046875,0.9743233323097228,2.872316598892212,0.4279963374137878,3.912734985351562,69.0386962890625,-12.10968017578125
122386,-1.76446533203125,1.321258544921875,-0.855255126953125,1.397687435150146,1.420806765556335,0.2429029196500778,3.774169921875,69.40611267089844,-13.2247314453125
122387,-1.612625122070312,1.12078857421875,-0.629425048828125,1.295759677886963,-0.0780583173036575,-0.0410917773842811,3.805953979492188,69.69105529785156,-14.62344360351562
122388,-1.378128051757812,0.845855712890625,-0.2856292724609375,0.8988450765609741,-0.6585398316383362,-0.1034694015979767,3.975341796875,70.22929382324219,-16.45745849609375
122389,-1.13214111328125,0.6334228515625,-0.1750640869140625,0.7118093967437744,-0.725357174873352,0.0223439205437898,4.053482055664062,70.3348388671875,-16.71339416503906
122390,-1.004928588867188,0.4557037353515625,-0.122802734375,0.7280113101005554,-0.5559386014938354,0.1836664974689484,4.182662963867188,70.46784973144531,-16.47299194335938
122391,-0.9370269775390624,0.3089447021484375,-0.1376190185546875,0.5993747711181641,-0.437138170003891,0.2867071330547333,4.37689208984375,70.53375244140625,-16.17982482910156
122392,-0.884918212890625,0.175140380859375,-0.166595458984375,0.3843639194965363,-0.4633330404758453,0.4812297523021698,4.781173706054688,70.55474853515625,-15.9803466796875
122393,-0.86773681640625,0.121978759765625,-0.1447296142578125,0.3000311851501465,-0.5164870619773865,0.724006175994873,5.115310668945312,70.70085144042969,-15.687255859375
122394,-0.8379058837890625,0.19866943359375,-0.0240936279296875,0.2605146765708923,-0.3537572622299194,0.906542956829071,5.456985473632812,70.91081237792969,-15.47993469238281
122395,-0.7744140625,0.386566162109375,0.0648956298828125,0.2590837478637695,0.1788070350885391,0.9323327541351318,5.7398681640625,71.21163940429688,-15.34901428222656
122396,-0.687744140625,0.63323974609375,0.028350830078125,0.4311205148696899,0.7924976348876953,0.7927058935165405,5.855743408203125,71.59483337402344,-15.21337890625
122397,-0.6885833740234375,0.9587554931640624,-0.0035552978515625,0.9844383001327516,1.52495801448822,0.2787581384181976,6.142837524414062,72.33009338378906,-15.90982055664062
122398,-0.6885833740234375,0.9587554931640624,-0.0035552978515625,0.9844383001327516,1.52495801448822,0.2787581384181976,6.142837524414062,72.33009338378906,-15.90982055664062
122399,-0.66485595703125,0.818450927734375,-0.00274658203125,0.9789175391197203,1.398203730583191,0.0835225880146026,6.268203735351562,72.55690002441406,-16.60757446289062
122400,-0.59637451171875,0.583465576171875,-0.00384521484375,0.7934566140174866,0.9742908477783204,0.0322953537106514,6.43701171875,72.48628234863281,-17.33451843261719
122401,-0.5129852294921875,0.4065093994140625,0.0277862548828125,0.5895660519599915,0.4269039332866669,0.0728960484266281,6.550643920898438,72.34320068359375,-17.85887145996094
122402,-0.431121826171875,0.30389404296875,0.1031951904296875,0.5001800060272217,-0.0486359782516956,0.1384398937225342,6.720230102539062,72.35258483886719,-18.3797607421875
122403,-0.3585357666015625,0.2245635986328125,0.1648406982421875,0.4795551598072052,-0.3026152551174164,0.1811554133892059,6.733245849609375,72.34284973144531,-18.43798828125
122404,-0.27459716796875,0.1601104736328125,0.18035888671875,0.4807170927524567,-0.462655782699585,0.246100589632988,6.838150024414062,72.28828430175781,-18.18223571777344
122405,-0.2234649658203125,0.1363067626953125,0.2283477783203125,0.3885608017444611,-0.5196058750152588,0.27369225025177,6.919754028320312,72.30734252929688,-17.94595336914062
122406,-0.1869354248046875,0.1363983154296875,0.2664794921875,0.1926655918359756,-0.5125799179077148,0.2496825307607651,6.867446899414062,72.34410095214844,-17.77909851074219
122407,-0.166656494140625,0.1385498046875,0.297698974609375,-0.0222070347517728,-0.5190996527671814,0.1836276203393936,6.771102905273438,72.49580383300781,-17.70570373535156
122408,-0.191314697265625,0.1600494384765625,0.367340087890625,-0.1984446495771408,-0.5031145215034485,0.0719583481550216,6.712020874023438,72.69805908203125,-17.59150695800781
122409,-0.4591522216796875,0.1875762939453125,0.5753021240234375,-0.4814435839653015,-0.2002976685762405,-0.064833328127861,6.470352172851562,73.08442687988281,-17.80339050292969
122410,-0.4591522216796875,0.1875762939453125,0.5753021240234375,-0.4814435839653015,-0.2002976685762405,-0.064833328127861,6.470352172851562,73.08442687988281,-17.80339050292969
122411,-0.6205291748046875,0.2005462646484375,0.6257476806640625,-0.582123875617981,-0.0182011071592569,-0.108801580965519,6.171417236328125,73.29940795898438,-17.82554626464844
122412,-0.7628326416015625,0.199951171875,0.621734619140625,-0.6513303518295288,0.0533886551856994,-0.1917244344949722,5.969985961914062,73.40837097167969,-17.78994750976562
122413,-0.8536376953125,0.1882781982421875,0.565093994140625,-0.6923835277557373,-0.0344724878668785,-0.3112532198429108,5.788986206054688,73.55894470214844,-17.75262451171875
122414,-0.7769775390625,0.1505584716796875,0.3448638916015625,-0.8256582021713257,-0.6491207480430603,-0.6390952467918396,5.29107666015625,73.54570007324219,-17.62800598144531
122415,-0.7769775390625,0.1505584716796875,0.3448638916015625,-0.8256582021713257,-0.6491207480430603,-0.6390952467918396,5.29107666015625,73.54570007324219,-17.62800598144531
122416,-0.6435394287109375,0.11395263671875,0.23126220703125,-0.8648993968963623,-1.119877099990845,-0.757935106754303,4.872421264648438,73.63252258300781,-17.35752868652344
122417,-0.4977264404296875,0.0869598388671875,0.1678466796875,-0.8233492970466614,-1.508670568466187,-0.8108901977539062,4.542816162109375,73.41001892089844,-16.906494140625
122418,-0.3839111328125,0.0719146728515625,0.1287384033203125,-0.7187120914459229,-1.75402843952179,-0.8610034584999084,4.245010375976562,73.10032653808594,-16.11256408691406
122419,-0.2979888916015625,0.0567474365234375,0.09661865234375,-0.5675300359725952,-1.886574745178223,-0.9114573001861572,4.083633422851562,72.70854187011719,-15.31965637207031
122420,-0.22894287109375,0.0325775146484375,0.06005859375,-0.4102266728878021,-1.950445055961609,-0.9349519610404968,3.936309814453125,72.33340454101562,-14.35282897949219
122421,-0.1654052734375,0.0063018798828125,-0.015350341796875,-0.2503967881202698,-2.007788896560669,-0.9170699119567872,3.866241455078125,71.90780639648438,-13.31376647949219
122422,-0.0897674560546875,-0.023406982421875,-0.1739044189453125,-0.0306167658418417,-2.196439981460571,-0.8249450325965881,3.936416625976562,71.34136962890625,-12.20783996582031
122423,-0.011749267578125,-0.0367279052734375,-0.3341217041015625,0.3178583979606628,-2.568638324737549,-0.6404465436935425,4.000946044921875,70.85639953613281,-11.11953735351562
122424,0.033843994140625,-0.0136566162109375,-0.2457275390625,0.6647212505340576,-2.6872239112854,-0.3891282975673676,4.125717163085938,70.35581970214844,-10.01701354980469
122425,0.076568603515625,0.09625244140625,-0.064605712890625,0.526762068271637,-0.6635305881500244,0.2263881266117096,4.70599365234375,69.79090881347656,-7.953582763671875
122426,0.076568603515625,0.09625244140625,-0.064605712890625,0.526762068271637,-0.6635305881500244,0.2263881266117096,4.70599365234375,69.79090881347656,-7.953582763671875
122427,0.1565704345703125,0.1207275390625,-0.3472442626953125,0.4751745164394379,-0.105232410132885,0.8158948421478271,5.057723999023438,69.57553100585938,-7.16961669921875
122428,0.11907958984375,0.1965179443359375,-0.3987884521484375,0.5332213044166565,-0.1437180191278458,1.227311968803406,5.312026977539062,69.68803405761719,-6.751266479492188
122429,0.0677947998046875,0.2347412109375,-0.263519287109375,0.2491299360990524,-0.5463144779205322,1.216739177703857,5.449798583984375,70.49188232421875,-6.32354736328125
122430,0.0677947998046875,0.2347412109375,-0.263519287109375,0.2491299360990524,-0.5463144779205322,1.216739177703857,5.449798583984375,70.49188232421875,-6.32354736328125
122431,0.095123291015625,0.243011474609375,-0.265899658203125,0.126742497086525,-0.7516465783119202,1.121783852577209,5.65380859375,71.11851501464844,-6.223724365234375
122432,0.1066131591796875,0.3055877685546875,-0.3018951416015625,0.1014541834592819,-0.9807277321815492,1.051228761672974,5.84796142578125,71.72251892089844,-5.788711547851562
122433,0.04461669921875,0.564697265625,-0.375152587890625,0.3377575278282166,-1.119208931922913,0.740077793598175,6.464828491210938,72.57051086425781,-4.6292724609375
122434,0.04461669921875,0.564697265625,-0.375152587890625,0.3377575278282166,-1.119208931922913,0.740077793598175,6.464828491210938,72.57051086425781,-4.6292724609375
122435,-0.0283355712890625,0.71942138671875,-0.492889404296875,0.5927829146385193,-0.9759877920150756,0.4643527567386627,6.641128540039062,73.06692504882812,-4.014358520507812
122436,-0.1807861328125,0.852935791015625,-0.6566009521484375,0.945313274860382,-0.6404377818107605,0.134265124797821,6.834335327148438,73.46348571777344,-3.503662109375
122437,-0.5138092041015625,1.157440185546875,-0.9368438720703124,1.243813633918762,0.7898094058036804,0.0041702440939843,7.065948486328125,73.65623474121094,-2.96881103515625
122438,-0.5138092041015625,1.157440185546875,-0.9368438720703124,1.243813633918762,0.7898094058036804,0.0041702440939843,7.065948486328125,73.65623474121094,-2.96881103515625
122439,-0.5849761962890625,1.419235229492188,-0.9612274169921876,0.6060023307800293,1.35773754119873,0.2114603221416473,7.09332275390625,73.56280517578125,-3.065017700195312
122440,-0.657073974609375,1.73785400390625,-0.8216552734375,-0.4389033317565918,1.308392405509949,0.1706745326519012,7.020339965820312,73.5950927734375,-3.445571899414062
122441,-0.7294769287109375,2.006683349609375,-0.453643798828125,-1.201435804367065,0.9901300072669984,-0.3522240817546844,7.029296875,73.65611267089844,-3.995849609375
122442,-0.77105712890625,2.246337890625,-0.1046142578125,-1.078859329223633,1.32120943069458,-0.8492668867111206,6.983062744140625,73.59140014648438,-4.453598022460938
122443,-0.84808349609375,2.530563354492188,0.0367584228515625,-0.5551561713218689,2.013635635375977,-1.05652928352356,6.885299682617188,73.40007019042969,-4.88031005859375
122444,-1.048583984375,2.81036376953125,-0.1235198974609375,-0.3387184143066406,2.122748851776123,-1.216727495193481,6.529449462890625,73.0726318359375,-5.499130249023438
122445,-1.917343139648438,3.124038696289062,-0.2950286865234375,-0.1825682073831558,0.8671784996986389,-0.4792147874832153,5.546295166015625,71.91304016113281,-7.520278930664062
122446,-1.917343139648438,3.124038696289062,-0.2950286865234375,-0.1825682073831558,0.8671784996986389,-0.4792147874832153,5.546295166015625,71.91304016113281,-7.520278930664062
122447,-2.498214721679688,3.235702514648438,-0.0593109130859375,0.1772623956203461,1.287718534469604,0.425630658864975,4.942459106445312,71.38475036621094,-8.565841674804688
122448,-2.7271728515625,3.258026123046875,0.10504150390625,0.4947532713413239,1.533328890800476,0.6981274485588074,4.484832763671875,71.08718872070312,-9.294601440429688
122449,-2.60968017578125,2.695846557617188,0.2068328857421875,0.4899801015853882,1.273433566093445,0.227742612361908,4.069305419921875,71.59037780761719,-11.1807861328125
122450,-2.60968017578125,2.695846557617188,0.2068328857421875,0.4899801015853882,1.273433566093445,0.227742612361908,4.069305419921875,71.59037780761719,-11.1807861328125
122451,-2.364273071289062,2.050857543945312,-0.0952911376953125,0.5087841153144836,0.8096238970756531,0.0378094315528869,3.941070556640625,72.02610778808594,-12.02197265625
122452,-1.945083618164062,1.383697509765625,-0.0773162841796875,0.6685178875923157,0.3200325965881348,0.1380303055047989,3.934417724609375,72.40379333496094,-12.69354248046875
122453,-1.41668701171875,0.683807373046875,0.094329833984375,0.6577286124229431,0.1782911717891693,0.3714270889759064,4.044784545898438,72.79243469238281,-13.48564147949219
122454,-1.213638305664062,0.4882965087890625,0.0393829345703125,0.3820903897285461,-0.2017246037721634,0.4262224137783051,4.396652221679688,72.99400329589844,-13.56887817382812
122455,-1.213638305664062,0.4882965087890625,0.0393829345703125,0.3820903897285461,-0.2017246037721634,0.4262224137783051,4.396652221679688,72.99400329589844,-13.56887817382812
122456,-1.064376831054688,0.356719970703125,0.0448760986328125,0.1789961159229279,-0.6636847853660583,0.4855144917964935,4.751144409179688,73.20518493652344,-13.77801513671875
122457,-0.8143310546875,0.290863037109375,0.2562103271484375,0.2287852466106415,-0.511883020401001,0.3539290428161621,5.663070678710938,73.64472961425781,-13.9208984375
122458,-0.8143310546875,0.290863037109375,0.2562103271484375,0.2287852466106415,-0.511883020401001,0.3539290428161621,5.663070678710938,73.64472961425781,-13.9208984375
122459,-0.63446044921875,0.2422637939453125,0.23699951171875,0.4288927614688873,0.3230946958065033,0.3080116212368011,5.9755859375,73.82920837402344,-13.659423828125
122460,-0.4451751708984375,0.1902313232421875,0.08355712890625,0.6034755110740662,1.165274620056152,0.4032691717147827,6.314468383789062,73.94670104980469,-13.35235595703125
122461,-0.2568511962890625,0.3354339599609375,-0.2526092529296875,0.9022997617721558,1.661850571632385,0.5649619102478027,6.885604858398438,74.14787292480469,-13.7999267578125
122462,-0.2568511962890625,0.3354339599609375,-0.2526092529296875,0.9022997617721558,1.661850571632385,0.5649619102478027,6.885604858398438,74.14787292480469,-13.7999267578125
122463,-0.2225189208984375,0.461456298828125,-0.2896728515625,0.8855045437812805,1.233646273612976,0.4892359972000122,7.237533569335938,74.38703918457031,-14.71052551269531
122464,-0.179931640625,0.4764556884765625,-0.2526092529296875,0.7561846375465393,0.6577935814857483,0.4083342254161835,7.423049926757812,74.54669189453125,-15.55445861816406
122465,-0.1116790771484375,0.364593505859375,-0.0721435546875,0.4750719964504242,-0.1443260163068771,0.2783312201499939,7.547119140625,74.91413879394531,-16.72349548339844
122466,-0.0944061279296875,0.3197021484375,0.025726318359375,0.3988813459873199,-0.2733337879180908,0.1825588941574097,7.619735717773438,75.08891296386719,-17.05795288085938
122467,-0.0944061279296875,0.3197021484375,0.025726318359375,0.3988813459873199,-0.2733337879180908,0.1825588941574097,7.619735717773438,75.08891296386719,-17.05795288085938
122468,-0.0952606201171875,0.2891845703125,0.0936431884765625,0.3205625712871552,-0.3332546651363373,0.0412078909575939,7.633392333984375,75.22848510742188,-17.10472106933594
122469,-0.140625,0.16229248046875,0.11431884765625,0.1977682113647461,-0.561280369758606,-0.3622879087924957,7.624099731445312,75.3734130859375,-16.76988220214844
122470,-0.140625,0.16229248046875,0.11431884765625,0.1977682113647461,-0.561280369758606,-0.3622879087924957,7.624099731445312,75.3734130859375,-16.76988220214844
122471,-0.247406005859375,0.09088134765625,0.1467437744140625,0.1948192864656448,-0.7075571417808533,-0.518696665763855,7.5621337890625,75.45896911621094,-16.69004821777344
122472,-0.4037628173828125,0.0899658203125,0.21246337890625,0.237035721540451,-0.7770028114318848,-0.5354453325271606,7.392288208007812,75.43971252441406,-16.68318176269531
122473,-0.72161865234375,0.503997802734375,0.48779296875,0.0868576690554618,-0.501654326915741,-0.5637989044189453,6.81884765625,74.94766235351562,-16.2110595703125
122474,-0.72161865234375,0.503997802734375,0.48779296875,0.0868576690554618,-0.501654326915741,-0.5637989044189453,6.81884765625,74.94766235351562,-16.2110595703125
122475,-0.72161865234375,0.503997802734375,0.48779296875,0.0868576690554618,-0.501654326915741,-0.5637989044189453,6.81884765625,74.94766235351562,-16.2110595703125
122476,-0.8068389892578125,0.5906982421875,0.4977569580078125,-0.0311933401972055,-0.5110520720481873,-0.5731931924819946,6.631546020507812,74.73490905761719,-16.07028198242188
122477,-0.8557891845703125,0.481201171875,0.398406982421875,-0.1915862113237381,-0.8823292255401611,-0.5937957167625427,6.237213134765625,74.32987976074219,-15.55462646484375
122478,-0.8557891845703125,0.481201171875,0.398406982421875,-0.1915862113237381,-0.8823292255401611,-0.5937957167625427,6.237213134765625,74.32987976074219,-15.55462646484375
122479,-0.772308349609375,0.3427734375,0.3141326904296875,-0.2852306663990021,-1.233924865722656,-0.6952581405639648,5.949295043945312,74.320556640625,-15.68670654296875
122480,-0.670501708984375,0.2042999267578125,0.249481201171875,-0.3839479386806488,-1.597981810569763,-0.7641029953956604,5.688446044921875,74.07418823242188,-15.5206298828125
122481,-0.45989990234375,0.1558074951171875,0.1976318359375,-0.5122177600860596,-1.933888792991638,-0.8315076231956482,5.31884765625,73.67208862304688,-14.36807250976562
122482,-0.45989990234375,0.1558074951171875,0.1976318359375,-0.5122177600860596,-1.933888792991638,-0.8315076231956482,5.31884765625,73.67208862304688,-14.36807250976562
122483,-0.3821258544921875,0.1693267822265625,0.195556640625,-0.5794141292572021,-1.882141947746277,-0.885781466960907,5.205078125,73.3621826171875,-13.46963500976562
122484,-0.309051513671875,0.1640167236328125,0.168487548828125,-0.6616301536560059,-1.799430251121521,-0.9073157906532288,5.192535400390625,73.053466796875,-12.67146301269531
122485,-0.233245849609375,0.1367034912109375,0.10906982421875,-0.7161996364593506,-1.747940182685852,-0.8611025214195251,5.212478637695312,72.54025268554688,-11.70332336425781
122486,-0.1555328369140625,0.1041412353515625,0.0218658447265625,-0.7609540820121765,-1.656925320625305,-0.7499772906303406,5.263656616210938,71.97412109375,-10.72799682617188
122487,-0.0576171875,0.0738983154296875,-0.1143035888671875,-0.7080450654029846,-1.644704103469849,-0.5665372014045715,5.266693115234375,71.48580932617188,-9.8033447265625
122488,0.0371551513671875,0.056976318359375,-0.1742706298828125,-0.5862027406692505,-1.618261575698853,-0.2936606407165527,5.37274169921875,70.96183776855469,-8.741546630859375
122489,0.1767730712890625,0.0664215087890625,-0.147857666015625,-0.404221773147583,-1.33673083782196,0.4917457699775696,5.573699951171875,70.23719787597656,-7.063125610351562
122490,0.1767730712890625,0.0664215087890625,-0.147857666015625,-0.404221773147583,-1.33673083782196,0.4917457699775696,5.573699951171875,70.23719787597656,-7.063125610351562
122491,0.18023681640625,0.0829010009765625,-0.1056976318359375,-0.3044871985912323,-1.094606280326843,0.9191831350326538,5.698623657226562,70.21257019042969,-6.221435546875
122492,0.15771484375,0.1038970947265625,-0.0783233642578125,-0.1965655237436295,-0.8337553143501282,1.239023447036743,5.842376708984375,70.22140502929688,-5.308441162109375
122493,0.124908447265625,0.1150360107421875,-0.021728515625,-0.0662943348288536,-0.4930198192596436,1.55212676525116,6.376693725585938,70.92904663085938,-4.203384399414062
122494,0.1136016845703125,0.1275634765625,0.0106658935546875,-0.1542308479547501,-0.4029796719551086,1.596578359603882,6.70648193359375,71.57562255859375,-3.618850708007812
122495,0.1136016845703125,0.1275634765625,0.0106658935546875,-0.1542308479547501,-0.4029796719551086,1.596578359603882,6.70648193359375,71.57562255859375,-3.618850708007812
122496,0.0943603515625,0.1602630615234375,0.0082550048828125,-0.2990055978298187,-0.3970730602741241,1.575787901878357,7.155288696289062,72.12355041503906,-3.079269409179688
122497,0.0141143798828125,0.3226470947265625,-0.1593170166015625,-0.3462218642234802,-0.7032023668289185,1.258774280548096,7.89105224609375,73.41860961914062,-2.112167358398438
122498,0.0141143798828125,0.3226470947265625,-0.1593170166015625,-0.3462218642234802,-0.7032023668289185,1.258774280548096,7.89105224609375,73.41860961914062,-2.112167358398438
122499,-0.0448150634765625,0.427886962890625,-0.260528564453125,-0.0414030998945236,-0.9525160193443298,0.8904438614845276,8.293075561523438,73.91131591796875,-1.484298706054688
122500,-0.1173858642578125,0.523406982421875,-0.276336669921875,0.4118930101394653,-1.037071943283081,0.3841889500617981,8.5994873046875,74.37660217285156,-0.9057159423828124
122501,-0.3083953857421875,0.6252593994140625,-0.384490966796875,1.378538966178894,-0.4419558346271515,-0.3589339256286621,9.04840087890625,74.9124755859375,0.14990234375
122502,-0.3083953857421875,0.6252593994140625,-0.384490966796875,1.378538966178894,-0.4419558346271515,-0.3589339256286621,9.04840087890625,74.9124755859375,0.14990234375
122503,-0.4778289794921875,0.84710693359375,-0.6314849853515625,1.828587651252747,0.1959740370512009,-0.504569947719574,9.016067504882812,74.92304992675781,0.3542327880859375
122504,-0.6445770263671875,1.157623291015625,-0.9724273681640624,1.936012625694275,1.044566631317139,-0.4519674479961395,8.878128051757812,74.9366455078125,0.277862548828125
122505,-0.54168701171875,1.78399658203125,-0.8592376708984375,0.4642172157764435,1.359361529350281,-0.0103466473519802,8.647354125976562,74.8739013671875,-0.8683319091796875
122506,-0.54168701171875,1.78399658203125,-0.8592376708984375,0.4642172157764435,1.359361529350281,-0.0103466473519802,8.647354125976562,74.8739013671875,-0.8683319091796875
122507,-0.50738525390625,2.0146484375,-0.5016021728515625,-0.6363801956176758,0.7651951313018799,-0.0869697853922843,8.5338134765625,74.85710144042969,-1.80877685546875
122508,-0.6347503662109375,2.362823486328125,-0.1317901611328125,-1.158900856971741,0.7096506953239441,-0.2588091790676117,8.347915649414062,74.76138305664062,-2.593826293945312
122509,-1.13714599609375,3.639892578125,0.2605743408203125,-0.8535715937614441,1.875040888786316,-0.9480482935905457,7.954849243164062,74.35113525390625,-3.6038818359375
122510,-1.13714599609375,3.639892578125,0.2605743408203125,-0.8535715937614441,1.875040888786316,-0.9480482935905457,7.954849243164062,74.35113525390625,-3.6038818359375
122511,-1.6287841796875,4.450363159179688,0.2370758056640625,-0.2941237688064575,1.864671587944031,-1.134233593940735,7.75,74.00016784667969,-4.014511108398438
122512,-2.250030517578125,4.562454223632812,0.2545013427734375,0.3931286334991455,0.9999421238899232,-1.270546197891235,7.357940673828125,73.40531921386719,-4.863174438476562
122513,-3.150161743164062,2.19189453125,0.23870849609375,0.582416296005249,2.683347463607788,0.2961605489253998,6.302093505859375,72.27009582519531,-7.173171997070312
122514,-3.150161743164062,2.19189453125,0.23870849609375,0.582416296005249,2.683347463607788,0.2961605489253998,6.302093505859375,72.27009582519531,-7.173171997070312
122515,-2.479171752929688,1.842376708984375,-0.6426239013671875,0.6358078718185425,2.284232378005981,0.4082130491733551,5.776565551757812,71.92852783203125,-8.387786865234375
122516,-2.077804565429688,1.69110107421875,-0.2970123291015625,0.6179556250572205,1.146587014198303,0.117763914167881,5.396011352539062,72.00471496582031,-9.675704956054688
122517,-1.4810791015625,1.05120849609375,-0.111175537109375,0.4543086588382721,0.3184701204299927,-0.2467900812625885,5.316604614257812,72.73587036132812,-11.58798217773438
122518,-1.4810791015625,1.05120849609375,-0.111175537109375,0.4543086588382721,0.3184701204299927,-0.2467900812625885,5.316604614257812,72.73587036132812,-11.58798217773438
122519,-1.222427368164062,0.8178253173828125,-0.10284423828125,0.5243532657623291,0.1768386960029602,-0.0438066013157367,5.383560180664062,72.96037292480469,-12.05363464355469
122520,-1.037033081054688,0.684112548828125,-0.0480804443359375,0.6077149510383606,0.2506971955299377,0.1968574076890945,5.398178100585938,73.03129577636719,-12.51539611816406
122521,-0.8670196533203125,0.439971923828125,-0.0774993896484375,0.6302149891853333,0.163317546248436,0.4712801873683929,5.957015991210938,73.236572265625,-12.74850463867188
122522,-0.8670196533203125,0.439971923828125,-0.0774993896484375,0.6302149891853333,0.163317546248436,0.4712801873683929,5.957015991210938,73.236572265625,-12.74850463867188
122523,-0.8321990966796875,0.3386077880859375,0.00079345703125,0.6481947898864746,0.0368333831429481,0.4952241182327271,6.319503784179688,73.36268615722656,-12.86955261230469
122524,-0.7906951904296875,0.3047027587890625,0.1013031005859375,0.6433310508728027,0.0169331766664981,0.5650719404220581,6.673019409179688,73.53228759765625,-13.10653686523438
122525,-0.63726806640625,0.4856109619140625,-0.0253448486328125,0.9327988028526306,0.4382684230804443,0.5982775092124939,7.335800170898438,73.87629699707031,-13.107177734375
122526,-0.63726806640625,0.4856109619140625,-0.0253448486328125,0.9327988028526306,0.4382684230804443,0.5982775092124939,7.335800170898438,73.87629699707031,-13.107177734375
122527,-0.5864105224609375,0.6769561767578125,-0.179534912109375,1.227760672569275,0.8943009376525879,0.5018673539161682,7.639999389648438,74.22816467285156,-13.44415283203125
122528,-0.5498504638671875,0.8041534423828125,-0.287384033203125,1.345947980880737,1.315824151039124,0.3327989876270294,7.785400390625,74.49351501464844,-13.55191040039062
122529,-0.4729766845703125,0.66766357421875,-0.2130889892578125,1.007206201553345,0.7044809460639954,0.0018357168883085,7.951126098632812,75.07893371582031,-14.68751525878906
122530,-0.4729766845703125,0.66766357421875,-0.2130889892578125,1.007206201553345,0.7044809460639954,0.0018357168883085,7.951126098632812,75.07893371582031,-14.68751525878906
122531,-0.438873291015625,0.4857025146484375,-0.067779541015625,0.7022452354431152,0.2423532456159592,-0.008044078014791,7.992263793945312,75.12025451660156,-15.46736145019531
122532,-0.4081573486328125,0.3639068603515625,0.0165252685546875,0.517332911491394,-0.1160325929522514,0.0349920727312564,8.136932373046875,75.01109313964844,-16.18865966796875
122533,-0.3979949951171875,0.2443389892578125,0.1854248046875,0.5588297247886658,-0.355658233165741,0.088636390864849,8.244659423828125,75.02581787109375,-16.73591613769531
122534,-0.3979949951171875,0.2443389892578125,0.1854248046875,0.5588297247886658,-0.355658233165741,0.088636390864849,8.244659423828125,75.02581787109375,-16.73591613769531
122535,-0.4203643798828125,0.1921844482421875,0.2555999755859375,0.5566968321800232,-0.2560426890850067,0.0548677742481231,8.327560424804688,74.99957275390625,-16.92329406738281
122536,-0.451751708984375,0.148590087890625,0.2953338623046875,0.4505890011787415,-0.0992802456021308,0.0098646152764558,8.30670166015625,75.04580688476562,-17.00685119628906
122537,-0.48236083984375,0.1153106689453125,0.3074798583984375,-0.0242454186081886,-0.0037353497464209,-0.0067918598651885,8.217742919921875,75.18150329589844,-16.98698425292969
122538,-0.48236083984375,0.1153106689453125,0.3074798583984375,-0.0242454186081886,-0.0037353497464209,-0.0067918598651885,8.217742919921875,75.18150329589844,-16.98698425292969
122539,-0.530242919921875,0.1682586669921875,0.35516357421875,-0.3590854704380035,-0.0748145878314971,0.0077114491723477,8.193618774414062,75.28581237792969,-17.18682861328125
122540,-0.5996551513671875,0.245697021484375,0.3861541748046875,-0.6532933712005615,-0.1686246991157532,0.0063194148242473,8.058822631835938,75.32363891601562,-17.28590393066406
122541,-0.721466064453125,0.3373565673828125,0.408599853515625,-0.9354465007781982,-0.4320885539054871,-0.154479593038559,7.819061279296875,75.44406127929688,-16.95942687988281
122542,-0.721466064453125,0.3373565673828125,0.408599853515625,-0.9354465007781982,-0.4320885539054871,-0.154479593038559,7.819061279296875,75.44406127929688,-16.95942687988281
122543,-0.7330474853515625,0.2958831787109375,0.3797149658203125,-0.8777299523353577,-0.6222891211509705,-0.2968255579471588,7.550399780273438,75.62405395507812,-16.96279907226562
122544,-0.7016448974609375,0.20208740234375,0.34130859375,-0.7527363300323486,-0.8189145922660828,-0.4501900672912598,7.27777099609375,75.58685302734375,-16.73347473144531
122545,-0.543487548828125,0.0312652587890625,0.223907470703125,-0.4830353558063507,-1.134336948394775,-0.6464653015136719,6.467742919921875,75.6722412109375,-15.54243469238281
122546,-0.543487548828125,0.0312652587890625,0.223907470703125,-0.4830353558063507,-1.134336948394775,-0.6464653015136719,6.467742919921875,75.6722412109375,-15.54243469238281
122547,-0.4268035888671875,0.0301361083984375,0.1581268310546875,-0.3405506610870361,-1.283751249313354,-0.6346120834350586,6.309585571289062,75.50474548339844,-14.93829345703125
122548,-0.332275390625,0.0624542236328125,0.1180419921875,-0.2399417608976364,-1.396396040916443,-0.6035543084144592,6.210113525390625,75.17332458496094,-14.18406677246094
122549,-0.1909027099609375,0.083587646484375,0.0213775634765625,-0.1977674067020416,-1.543549299240112,-0.5097727179527283,6.211883544921875,74.51849365234375,-12.94338989257812
122550,-0.1215972900390625,0.0506744384765625,-0.0535125732421875,-0.1978244036436081,-1.614221334457397,-0.4269220232963562,6.341262817382812,74.217529296875,-12.03878784179688
122551,-0.1215972900390625,0.0506744384765625,-0.0535125732421875,-0.1978244036436081,-1.614221334457397,-0.4269220232963562,6.341262817382812,74.217529296875,-12.03878784179688
122552,-0.046356201171875,0.0063934326171875,-0.118804931640625,-0.1213458701968193,-1.628373265266418,-0.2775005698204041,6.450576782226562,73.89794921875,-11.2073974609375
122553,0.100555419921875,0.019378662109375,-0.1027984619140625,0.0174016263335943,-1.154924750328064,0.1790280789136887,6.94140625,73.484375,-9.629638671875
122554,0.100555419921875,0.019378662109375,-0.1027984619140625,0.0174016263335943,-1.154924750328064,0.1790280789136887,6.94140625,73.484375,-9.629638671875
122555,0.1811370849609375,-0.0044403076171875,-0.1395416259765625,-0.0452580265700817,-0.8828088641166687,0.5838083028793335,7.083816528320312,73.33366394042969,-8.866714477539062
122556,0.214630126953125,-0.045684814453125,-0.1568450927734375,-0.0134734641760587,-0.7616075873374939,1.043880820274353,7.26300048828125,73.430908203125,-8.232101440429688
122557,0.19696044921875,-0.0293426513671875,-0.1113433837890625,0.0994578823447227,-0.4699744284152985,1.640366911888123,7.698104858398438,74.26190185546875,-7.133529663085938
122558,0.19696044921875,-0.0293426513671875,-0.1113433837890625,0.0994578823447227,-0.4699744284152985,1.640366911888123,7.698104858398438,74.26190185546875,-7.133529663085938
122559,0.19964599609375,0.001434326171875,-0.1551361083984375,0.0748851597309112,-0.4796816408634186,1.789584040641785,8.079147338867188,74.84178161621094,-6.689727783203125
122560,0.2049407958984375,0.047515869140625,-0.256378173828125,0.0542248897254467,-0.7105675935745239,1.869638442993164,8.519012451171875,75.58535766601562,-6.188217163085938
122561,0.2211456298828125,0.25177001953125,-0.4945526123046875,-0.0030282805673778,-1.418376922607422,1.55641758441925,9.348800659179688,77.24143981933594,-5.192276000976562
122562,0.2211456298828125,0.25177001953125,-0.4945526123046875,-0.0030282805673778,-1.418376922607422,1.55641758441925,9.348800659179688,77.24143981933594,-5.192276000976562
122563,0.2178802490234375,0.372802734375,-0.512969970703125,-0.0983771681785583,-1.458451151847839,1.168751358985901,9.857818603515623,78.01679992675781,-4.634780883789062
122564,0.170928955078125,0.47332763671875,-0.41259765625,0.0892071053385734,-1.184821724891663,0.820773720741272,10.36241149902344,78.58631896972656,-3.936630249023438
122565,0.034088134765625,0.629730224609375,-0.414703369140625,0.4135915637016296,-0.4692671000957489,0.2821483314037323,11.14234924316406,79.4449462890625,-2.780075073242188
122566,0.034088134765625,0.629730224609375,-0.414703369140625,0.4135915637016296,-0.4692671000957489,0.2821483314037323,11.14234924316406,79.4449462890625,-2.780075073242188
122567,-0.073516845703125,0.80413818359375,-0.5881195068359375,0.5711236596107483,-0.5081934332847595,0.0479100011289119,11.31626892089844,79.47770690917969,-2.450241088867188
122568,-0.2203369140625,1.099533081054688,-0.7584381103515625,0.7118594646453857,-0.6408774852752686,-0.1670023053884506,11.38594055175781,79.51187133789062,-2.07318115234375
122569,-0.5925140380859375,1.704788208007812,-0.9567413330078124,-0.004847751930356,-0.0080832261592149,-0.4457484483718872,11.30116271972656,79.50947570800781,-2.379669189453125
122570,-0.5925140380859375,1.704788208007812,-0.9567413330078124,-0.004847751930356,-0.0080832261592149,-0.4457484483718872,11.30116271972656,79.50947570800781,-2.379669189453125
122571,-0.7132568359375,1.960418701171875,-0.912353515625,-0.891684889793396,0.3633909821510315,-0.618514895439148,11.15345764160156,79.40013122558594,-2.459793090820312
122572,-0.7308197021484375,2.119461059570312,-0.529541015625,-1.525613903999329,0.5974738001823425,-0.8816602230072021,10.99620056152344,79.11181640625,-2.363555908203125
122573,-0.860321044921875,2.630203247070312,0.3082122802734375,-1.441360831260681,2.663931846618652,-1.335192322731018,10.4896240234375,78.02700805664062,-1.941802978515625
122574,-0.860321044921875,2.630203247070312,0.3082122802734375,-1.441360831260681,2.663931846618652,-1.335192322731018,10.4896240234375,78.02700805664062,-1.941802978515625
122575,-1.086685180664062,2.99273681640625,0.0981292724609375,-1.26282012462616,3.03696870803833,-1.545543432235718,10.04214477539062,77.26516723632812,-2.064178466796875
122576,-1.400588989257812,3.201034545898438,-0.1824951171875,-0.7152236104011536,1.994169473648071,-1.61863899230957,9.352630615234377,76.45700073242188,-2.827728271484375
122577,-2.008209228515625,3.413803100585938,0.3408203125,0.9836140275001526,-0.3670219480991364,-0.6232500076293945,7.950973510742188,75.08718872070312,-5.270584106445312
122578,-2.412109375,3.458053588867188,0.2724151611328125,1.448181986808777,-0.0511931478977203,-0.2309605181217194,7.225570678710938,74.71183776855469,-6.522232055664062
122579,-2.412109375,3.458053588867188,0.2724151611328125,1.448181986808777,-0.0511931478977203,-0.2309605181217194,7.225570678710938,74.71183776855469,-6.522232055664062
122580,-2.901092529296875,3.068984985351562,-0.1171722412109375,0.9872777462005616,1.154545545578003,0.1371117830276489,6.648727416992188,74.54779052734375,-7.415313720703125
122581,-2.246795654296875,1.770858764648438,-0.1223907470703125,0.4174238741397858,1.038460254669189,-0.3279917240142822,5.98834228515625,74.76652526855469,-8.69940185546875
122582,-2.151153564453125,1.05596923828125,0.12969970703125,0.3842999935150146,0.8466391563415527,-0.2867497503757477,5.991943359375,74.9925537109375,-9.329055786132812
122583,-2.151153564453125,1.05596923828125,0.12969970703125,0.3842999935150146,0.8466391563415527,-0.2867497503757477,5.991943359375,74.9925537109375,-9.329055786132812
122584,-1.998336791992188,0.5581207275390625,0.1031646728515625,0.3308253288269043,0.6677314639091492,-0.1094828173518181,6.039749145507812,75.11883544921875,-9.874649047851562
122585,-1.363372802734375,0.1971435546875,-0.078704833984375,-0.1636123657226562,-0.3549194633960724,0.1640805453062057,6.204010009765625,75.43527221679688,-10.68229675292969
122586,-1.363372802734375,0.1971435546875,-0.078704833984375,-0.1636123657226562,-0.3549194633960724,0.1640805453062057,6.204010009765625,75.43527221679688,-10.68229675292969
122587,-1.045272827148438,0.2308807373046875,-0.0485076904296875,-0.322406530380249,-0.7596954703330994,0.2886810600757599,6.559112548828125,75.44126892089844,-10.60838317871094
122588,-0.8573760986328125,0.3099365234375,0.006988525390625,-0.3540571331977844,-0.8349012732505798,0.3439589738845825,6.8038330078125,75.49079895019531,-10.24540710449219
122589,-0.599761962890625,0.3864593505859375,0.15289306640625,0.0946410223841667,0.4536891877651215,0.3672906458377838,7.50390625,75.54325866699219,-9.368896484375
122590,-0.599761962890625,0.3864593505859375,0.15289306640625,0.0946410223841667,0.4536891877651215,0.3672906458377838,7.50390625,75.54325866699219,-9.368896484375
122591,-0.479095458984375,0.426544189453125,0.0530548095703125,0.4084522128105164,1.169244408607483,0.4169988334178925,7.96063232421875,75.4964599609375,-9.072463989257812
122592,-0.3951416015625,0.51995849609375,-0.130645751953125,0.5666162967681885,1.429919123649597,0.454809844493866,8.24359130859375,75.57781982421875,-9.054229736328123
122593,-0.313751220703125,0.5908050537109375,-0.2869873046875,0.5273410677909851,0.8581187129020691,0.1528590470552444,8.5626220703125,75.94001770019531,-10.18673706054688
122594,-0.313751220703125,0.5908050537109375,-0.2869873046875,0.5273410677909851,0.8581187129020691,0.1528590470552444,8.5626220703125,75.94001770019531,-10.18673706054688
122595,-0.2898406982421875,0.504486083984375,-0.178253173828125,0.4929497838020325,0.4909055531024933,-0.021442973986268,8.530929565429688,76.150146484375,-10.89567565917969
122596,-0.262298583984375,0.4342498779296875,-0.0614166259765625,0.4545741677284241,0.2281652539968491,-0.1778456270694733,8.470687866210938,76.15963745117188,-11.26887512207031
122597,-0.20550537109375,0.2880859375,0.135223388671875,0.3114444315433502,-0.1428258568048477,-0.4293164908885956,8.46234130859375,76.08018493652344,-11.77651977539062
122598,-0.20550537109375,0.2880859375,0.135223388671875,0.3114444315433502,-0.1428258568048477,-0.4293164908885956,8.46234130859375,76.08018493652344,-11.77651977539062
122599,-0.1813507080078125,0.1665802001953125,0.2026214599609375,0.2332801222801208,-0.2103135585784912,-0.4700345993041992,8.367630004882812,76.15557861328125,-11.99836730957031
122600,-0.1830902099609375,0.089111328125,0.22900390625,0.125299334526062,-0.2483421713113785,-0.5049273371696472,8.279190063476562,75.97235107421875,-11.98641967773438
122601,-0.27325439453125,-0.1126708984375,0.20086669921875,-0.0425985939800739,-0.3232457041740417,-0.4990175366401672,8.050094604492188,75.72889709472656,-11.9444580078125
122602,-0.27325439453125,-0.1126708984375,0.20086669921875,-0.0425985939800739,-0.3232457041740417,-0.4990175366401672,8.050094604492188,75.72889709472656,-11.9444580078125
122603,-0.375213623046875,-0.1719970703125,0.1974639892578125,-0.0748801007866859,-0.4253885746002197,-0.4476105272769928,7.856796264648438,75.55975341796875,-12.04270935058594
122604,-0.510894775390625,-0.0986175537109375,0.3069915771484375,-0.1338440775871277,-0.4511528015136719,-0.3248806297779083,7.605819702148438,75.38346862792969,-11.9107666015625
122605,-0.73394775390625,0.3323974609375,0.48492431640625,-0.4165468811988831,-0.324455589056015,-0.2205009460449219,7.108673095703125,75.28184509277344,-11.73014831542969
122606,-0.73394775390625,0.3323974609375,0.48492431640625,-0.4165468811988831,-0.324455589056015,-0.2205009460449219,7.108673095703125,75.28184509277344,-11.73014831542969
122607,-0.8452911376953125,0.475311279296875,0.4814300537109375,-0.5695343017578125,-0.3486285507678986,-0.3186794519424438,6.908981323242188,75.08456420898438,-11.60527038574219
122608,-0.919464111328125,0.514801025390625,0.446929931640625,-0.6845983266830444,-0.4389262199401855,-0.4896847605705261,6.690689086914062,75.06779479980469,-11.38395690917969
122609,-0.8001861572265625,0.2924957275390625,0.3279266357421875,-0.7486156225204468,-0.8797672986984253,-0.8235570192337036,5.93975830078125,75.24449157714844,-12.12535095214844
122610,-0.8001861572265625,0.2924957275390625,0.3279266357421875,-0.7486156225204468,-0.8797672986984253,-0.8235570192337036,5.93975830078125,75.24449157714844,-12.12535095214844
122611,-0.6727142333984375,0.1829833984375,0.304229736328125,-0.7353829145431519,-1.11854100227356,-0.8858099579811096,5.6151123046875,74.99365234375,-11.94863891601562
122612,-0.5615692138671875,0.1553192138671875,0.278289794921875,-0.6947300434112549,-1.297335505485535,-0.9443596005439758,5.3427734375,74.59214782714844,-11.54840087890625
122613,-0.4158935546875,0.144744873046875,0.2494049072265625,-0.5585777759552002,-1.536395192146301,-1.104367852210999,5.017471313476562,73.98979187011719,-10.55668640136719
122614,-0.4158935546875,0.144744873046875,0.2494049072265625,-0.5585777759552002,-1.536395192146301,-1.104367852210999,5.017471313476562,73.98979187011719,-10.55668640136719
122615,-0.3471832275390625,0.1146087646484375,0.226837158203125,-0.5301357507705688,-1.627343773841858,-1.150058627128601,4.976089477539062,73.38102722167969,-9.7784423828125
122616,-0.2796173095703125,0.0834503173828125,0.1825103759765625,-0.543785810470581,-1.742982745170593,-1.143330454826355,5.015533447265625,72.69432067871094,-8.916412353515625
122617,-0.0993499755859375,0.1009368896484375,0.0525360107421875,-0.6236015558242798,-2.228444576263428,-0.9735465049743652,5.609390258789062,71.28001403808594,-7.29888916015625
122618,-0.0993499755859375,0.1009368896484375,0.0525360107421875,-0.6236015558242798,-2.228444576263428,-0.9735465049743652,5.609390258789062,71.28001403808594,-7.29888916015625
122619,0.047119140625,0.155303955078125,-0.0228118896484375,-0.8376696109771729,-2.509341239929199,-0.6875072717666626,5.991302490234375,70.549560546875,-6.017593383789062
122620,0.28173828125,0.1570587158203125,-0.3821258544921875,-1.147357940673828,-3.056059122085571,0.0707330256700515,6.369430541992188,69.89204406738281,-4.824554443359375
122621,0.3534088134765625,0.185638427734375,-0.2468414306640625,0.0850895941257476,-2.110894441604614,2.221554279327393,6.60272216796875,69.14726257324219,-1.701019287109375
122622,0.3534088134765625,0.185638427734375,-0.2468414306640625,0.0850895941257476,-2.110894441604614,2.221554279327393,6.60272216796875,69.14726257324219,-1.701019287109375
122623,0.185943603515625,0.24932861328125,0.050018310546875,0.2614598274230957,-0.6251049041748047,2.438640832901001,6.918258666992188,69.31704711914062,-0.07672119140625
122624,0.16485595703125,0.243804931640625,0.0843353271484375,0.0309877432882785,0.5389518737792969,2.322406768798828,7.611236572265625,70.0198974609375,1.273712158203125
122625,0.1719207763671875,0.2166595458984375,-0.20965576171875,-0.4938190281391144,1.027065634727478,2.081793785095215,8.89794921875,71.88766479492188,1.89617919921875
122626,0.1719207763671875,0.2166595458984375,-0.20965576171875,-0.4938190281391144,1.027065634727478,2.081793785095215,8.89794921875,71.88766479492188,1.89617919921875
122627,0.1506195068359375,0.27178955078125,-0.322174072265625,-0.4719438254833221,0.5277663469314575,1.947004795074463,9.418258666992188,72.81831359863281,1.721633911132812
122628,0.12384033203125,0.369873046875,-0.2978973388671875,-0.3329579830169678,-0.1348337084054947,1.757423400878906,9.853256225585938,73.66819763183594,1.750167846679688
122629,0.090667724609375,0.6204071044921875,-0.148895263671875,-0.165350079536438,-0.845277726650238,1.284594893455505,10.76399230957031,75.01947021484375,1.937271118164062
122630,0.090667724609375,0.6204071044921875,-0.148895263671875,-0.165350079536438,-0.845277726650238,1.284594893455505,10.76399230957031,75.01947021484375,1.937271118164062
122631,0.0473785400390625,0.750946044921875,-0.1234588623046875,-0.0557159930467605,-0.8158966898918152,1.000876069068909,11.29188537597656,75.49679565429688,2.413650512695312
122632,-0.0474853515625,0.861785888671875,-0.13134765625,0.0516354963183403,-0.6239858269691467,0.6481585502624512,11.74317932128906,75.7685546875,3.08856201171875
122633,-0.332366943359375,0.97454833984375,-0.24755859375,0.4302648305892944,-0.1117752641439438,-0.1165034398436546,12.36065673828125,76.46318054199219,3.729156494140625
122634,-0.332366943359375,0.97454833984375,-0.24755859375,0.4302648305892944,-0.1117752641439438,-0.1165034398436546,12.36065673828125,76.46318054199219,3.729156494140625
122635,-0.46429443359375,1.109298706054688,-0.3507843017578125,0.7004420161247253,0.1373229771852493,-0.5325376987457275,12.39778137207031,76.54963684082031,3.897872924804688
122636,-0.563232421875,1.30853271484375,-0.4344940185546875,0.943818986415863,0.2870493531227112,-0.9463798403739928,12.39932250976562,76.50851440429688,3.860763549804688
122637,-0.6321868896484375,1.772430419921875,-0.0527496337890625,0.5881889462471008,0.8466883897781372,-1.427243947982788,11.83763122558594,76.28134155273438,3.177627563476562
122638,-0.6321868896484375,1.772430419921875,-0.0527496337890625,0.5881889462471008,0.8466883897781372,-1.427243947982788,11.83763122558594,76.28134155273438,3.177627563476562
122639,-0.7043304443359375,2.0867919921875,0.233489990234375,-0.0486650057137012,1.411037802696228,-1.456039905548096,11.4215087890625,75.87400817871094,2.678329467773438
122640,-0.8759918212890625,2.56689453125,0.371795654296875,-0.5202828645706177,1.863211393356323,-1.404546856880188,10.84721374511719,75.2236328125,2.188385009765625
122641,-1.80633544921875,3.752761840820312,0.352996826171875,0.3263594806194305,0.4756456315517426,-1.239391446113586,9.550994873046877,73.98104858398438,0.3085479736328125
122642,-1.80633544921875,3.752761840820312,0.352996826171875,0.3263594806194305,0.4756456315517426,-1.239391446113586,9.550994873046877,73.98104858398438,0.3085479736328125
122643,-2.373733520507812,4.25567626953125,0.484130859375,0.9984566569328308,-1.019657492637634,-1.212842702865601,8.90155029296875,73.39799499511719,-0.927978515625
122644,-2.975341796875,4.25262451171875,0.8052520751953125,1.706799745559692,-1.408726692199707,-1.472751259803772,8.256362915039062,72.84164428710938,-2.010757446289062
122645,-3.727523803710938,2.6182861328125,1.237945556640625,1.431561470031738,1.614319324493408,-0.6124117374420166,7.59326171875,72.28378295898438,-2.797348022460938
122646,-3.211456298828125,1.814727783203125,0.163421630859375,0.5455527901649475,3.972201585769653,0.0241053365170955,6.922454833984375,71.94960021972656,-3.504898071289062
122647,-2.470108032226562,1.600936889648438,-0.706451416015625,0.376912385225296,1.98056435585022,-0.1697424352169037,6.368972778320312,71.93260192871094,-4.451141357421875
122648,-2.331390380859375,1.106552124023438,-0.03643798828125,0.2211669981479645,0.3005720674991608,-0.1694606691598892,6.073287963867188,72.04721069335938,-5.588577270507812
122649,-1.553497314453125,0.4981536865234375,0.0109710693359375,0.1046110987663269,0.1276857852935791,0.3538811206817627,6.0643310546875,72.46809387207031,-7.265396118164062
122650,-1.194961547851562,0.3579559326171875,-0.08843994140625,0.3470767438411713,0.3582098186016083,0.5920827388763428,5.967727661132812,72.81929016113281,-7.343215942382812
122651,-1.194961547851562,0.3579559326171875,-0.08843994140625,0.3470767438411713,0.3582098186016083,0.5920827388763428,5.967727661132812,72.81929016113281,-7.343215942382812
122652,-0.9574432373046876,0.3287353515625,-0.068359375,0.5649827122688293,0.5527273416519165,0.8065103888511658,6.1488037109375,73.11373901367188,-7.193161010742188
122653,-0.7453765869140625,0.4384307861328125,0.14752197265625,0.6826584339141846,0.5753676891326904,0.9678377509117126,6.824844360351562,73.94390869140625,-7.289962768554688
122654,-0.7453765869140625,0.4384307861328125,0.14752197265625,0.6826584339141846,0.5753676891326904,0.9678377509117126,6.824844360351562,73.94390869140625,-7.289962768554688
122655,-0.646026611328125,0.493927001953125,0.20294189453125,0.5862869024276733,0.6729791760444641,0.9155332446098328,7.3043212890625,74.32516479492188,-7.502227783203125
122656,-0.5063934326171875,0.52215576171875,0.1242828369140625,0.5045766234397888,0.7341522574424744,0.8736545443534851,7.864990234375,74.73968505859375,-7.567825317382812
122657,-0.2834930419921875,0.6651763916015625,-0.0796966552734375,0.6858310699462891,1.384042978286743,0.9519527554512024,8.641067504882812,75.40632629394531,-8.007415771484375
122658,-0.2834930419921875,0.6651763916015625,-0.0796966552734375,0.6858310699462891,1.384042978286743,0.9519527554512024,8.641067504882812,75.40632629394531,-8.007415771484375
122659,-0.2889251708984375,0.678802490234375,-0.15032958984375,0.8735620975494385,1.939092874526978,0.740447998046875,8.861404418945312,75.94911193847656,-8.544219970703125
122660,-0.2744140625,0.5702056884765625,-0.196441650390625,0.9137665033340454,2.012829065322876,0.4538825452327728,9.02008056640625,76.36676025390625,-9.065689086914062
122661,-0.2224884033203125,0.33233642578125,-0.1042022705078125,0.469708651304245,1.124412178993225,0.0567964389920234,9.14080810546875,76.91978454589844,-10.6939697265625
122662,-0.2224884033203125,0.33233642578125,-0.1042022705078125,0.469708651304245,1.124412178993225,0.0567964389920234,9.14080810546875,76.91978454589844,-10.6939697265625
122663,-0.1814117431640625,0.2422943115234375,-0.0496368408203125,0.2423830777406693,0.621646523475647,-0.0207755863666534,9.233200073242188,77.00608825683594,-11.42684936523438
122664,-0.1335906982421875,0.1660003662109375,0.013031005859375,0.1412841528654099,0.254791796207428,-0.0378541722893714,9.282379150390623,77.12637329101562,-12.04243469238281
122665,-0.063079833984375,0.078582763671875,0.149200439453125,0.2262962460517883,-0.0973555818200111,0.0121962120756506,9.243362426757812,77.12307739257812,-12.76962280273438
122666,-0.063079833984375,0.078582763671875,0.149200439453125,0.2262962460517883,-0.0973555818200111,0.0121962120756506,9.243362426757812,77.12307739257812,-12.76962280273438
122667,-0.05609130859375,0.07073974609375,0.2393646240234375,0.2306872755289078,-0.1196044310927391,0.0063196811825037,9.189071655273438,77.17115783691406,-12.84120178222656
122668,-0.0644989013671875,0.074371337890625,0.3266754150390625,0.1749987155199051,-0.1129566431045532,-0.0439666584134101,9.118850708007812,77.30252075195312,-12.829833984375
122669,-0.2431488037109375,0.1646575927734375,0.5751190185546875,0.0238920170813798,0.0848339274525642,-0.2005171179771423,8.98773193359375,77.51312255859375,-13.09115600585938
122670,-0.2431488037109375,0.1646575927734375,0.5751190185546875,0.0238920170813798,0.0848339274525642,-0.2005171179771423,8.98773193359375,77.51312255859375,-13.09115600585938
122671,-0.4366455078125,0.2780609130859375,0.6769866943359375,-0.0915309786796569,0.2832202613353729,-0.2144457250833511,8.834320068359375,77.43040466308594,-13.048583984375
122672,-0.646514892578125,0.3967437744140625,0.694549560546875,-0.2497009187936783,0.3414944708347321,-0.3189452290534973,8.56793212890625,77.44638061523438,-13.06971740722656
122673,-1.072830200195312,0.40533447265625,0.57452392578125,-0.6127867102622986,-0.2430155724287033,-0.8008535504341125,8.096572875976562,77.56240844726562,-13.56948852539062
122674,-1.072830200195312,0.40533447265625,0.57452392578125,-0.6127867102622986,-0.2430155724287033,-0.8008535504341125,8.096572875976562,77.56240844726562,-13.56948852539062
122675,-1.208541870117188,0.2498779296875,0.46173095703125,-0.7278650999069214,-0.7783506512641907,-1.018321633338928,7.80181884765625,77.64790344238281,-13.64695739746094
122676,-1.180267333984375,0.0431060791015625,0.3027191162109375,-0.7555510401725769,-1.346222281455994,-1.106310129165649,7.492446899414062,77.43101501464844,-13.52217102050781
122677,-0.5687408447265625,0.0100555419921875,-0.189239501953125,-0.3179230988025665,-2.985699653625488,-1.074665665626526,6.890335083007812,76.73345947265625,-12.68955993652344
122678,-0.5687408447265625,0.0100555419921875,-0.189239501953125,-0.3179230988025665,-2.985699653625488,-1.074665665626526,6.890335083007812,76.73345947265625,-12.68955993652344
122679,-0.37957763671875,0.0569305419921875,0.0067596435546875,-0.1782624125480652,-3.347374200820923,-1.023138046264648,6.581924438476562,76.42778015136719,-12.08909606933594
122680,-0.2393798828125,0.089263916015625,0.113189697265625,-0.2166364341974258,-3.188169956207275,-0.9641982913017272,6.354232788085938,75.94126892089844,-11.01856994628906
122681,-0.1355438232421875,0.1103668212890625,0.075836181640625,-0.252282589673996,-2.936003446578979,-0.8973295092582703,6.253829956054688,75.42863464355469,-9.64556884765625
122682,-0.0548095703125,0.118194580078125,-0.0013580322265625,-0.1086761429905891,-2.713709115982056,-0.7698304057121277,6.393936157226562,74.80220031738281,-7.963104248046875
122683,0.0084381103515625,0.1338653564453125,-0.0413818359375,0.2266424596309662,-2.372100353240967,-0.5592355728149414,6.59381103515625,74.38705444335938,-6.6300048828125
122684,0.054595947265625,0.184112548828125,-0.005523681640625,0.543561577796936,-1.711599469184875,-0.2687140107154846,6.941268920898438,73.86912536621094,-5.260833740234375
122685,0.215362548828125,0.1731109619140625,-0.1867523193359375,0.5087007880210876,-0.2651472389698029,1.022640585899353,8.001220703125,73.25270080566406,-3.064361572265625
122686,0.215362548828125,0.1731109619140625,-0.1867523193359375,0.5087007880210876,-0.2651472389698029,1.022640585899353,8.001220703125,73.25270080566406,-3.064361572265625
122687,0.137237548828125,0.1773529052734375,-0.2625885009765625,0.5380858182907104,0.0474319644272327,1.52035391330719,8.372604370117188,73.28346252441406,-2.451522827148438
122688,0.0718536376953125,0.1684722900390625,-0.2369842529296875,0.5133336186408997,0.0962474420666694,1.602605104446411,8.621978759765625,73.424560546875,-1.852493286132812
122689,0.11810302734375,0.0786895751953125,-0.1338958740234375,0.2400671988725662,-0.0569367855787277,1.54490077495575,9.156295776367188,74.55821228027344,-1.551116943359375
122690,0.11810302734375,0.0786895751953125,-0.1338958740234375,0.2400671988725662,-0.0569367855787277,1.54490077495575,9.156295776367188,74.55821228027344,-1.551116943359375
122691,0.11669921875,0.0862579345703125,-0.1349029541015625,0.1388425678014755,-0.2092224657535553,1.508232831954956,9.441482543945312,75.24472045898438,-1.533157348632812
122692,0.0954437255859375,0.1110687255859375,-0.083465576171875,0.0862347558140754,-0.3535458147525787,1.403012156486511,9.855087280273438,76.00616455078125,-1.470184326171875
122693,0.02154541015625,0.2320098876953125,-0.1680450439453125,0.0640839114785194,-0.6547035574913025,0.8942623138427734,10.67417907714844,77.28950500488281,-1.047409057617188
122694,0.02154541015625,0.2320098876953125,-0.1680450439453125,0.0640839114785194,-0.6547035574913025,0.8942623138427734,10.67417907714844,77.28950500488281,-1.047409057617188
122695,-0.02374267578125,0.334991455078125,-0.314697265625,0.3417352437973022,-0.9671799540519714,0.4522183239459991,11.10568237304688,77.80314636230469,-0.71734619140625
122696,-0.0546722412109375,0.4468231201171875,-0.4362335205078125,0.9029463529586792,-1.17558741569519,0.0322820395231246,11.4403076171875,78.25875854492188,-0.3182525634765625
122697,-0.2664947509765625,0.7808380126953125,-0.674072265625,2.237539768218994,-0.413975328207016,-0.4210047423839569,11.82586669921875,78.7061767578125,0.75225830078125
122698,-0.2664947509765625,0.7808380126953125,-0.674072265625,2.237539768218994,-0.413975328207016,-0.4210047423839569,11.82586669921875,78.7061767578125,0.75225830078125
122699,-0.4855499267578125,1.073974609375,-1.002120971679688,2.11154580116272,0.4356939494609833,-0.3355295360088348,11.93118286132812,78.7874755859375,0.8043365478515625
122700,-0.728363037109375,1.401229858398438,-1.239532470703125,0.7909426093101501,1.341416954994202,0.0317323617637157,11.71792602539062,78.96823120117188,0.6877593994140625
122701,-0.8311614990234375,2.25048828125,-0.7272491455078125,-1.387489557266235,1.004979252815247,-0.6289877891540527,11.33267211914062,79.09611511230469,-0.5068817138671875
122702,-0.8311614990234375,2.25048828125,-0.7272491455078125,-1.387489557266235,1.004979252815247,-0.6289877891540527,11.33267211914062,79.09611511230469,-0.5068817138671875
122703,-0.8777618408203125,2.450668334960938,-0.2704010009765625,-1.186287045478821,1.23399293422699,-1.07453465461731,10.92259216308594,78.82820129394531,-1.198211669921875
122704,-1.036346435546875,2.693572998046875,0.012542724609375,-0.5455003380775452,2.12607479095459,-1.355194807052612,10.54953002929688,78.27688598632812,-1.266250610351562
122705,-1.979232788085938,3.59478759765625,-0.607025146484375,-0.1702873110771179,3.327218532562256,-1.123542070388794,9.25665283203125,76.97894287109375,-2.565536499023438
122706,-2.424545288085938,3.905593872070312,-0.7237396240234375,-0.3978661298751831,2.629537582397461,-0.8511350750923157,8.36517333984375,76.40142822265625,-4.333572387695312
122707,-2.424545288085938,3.905593872070312,-0.7237396240234375,-0.3978661298751831,2.629537582397461,-0.8511350750923157,8.36517333984375,76.40142822265625,-4.333572387695312
122708,-2.908966064453125,3.58966064453125,-0.076873779296875,-0.3214406073093414,1.891616463661194,-0.3677889406681061,7.616958618164062,75.98075866699219,-5.979049682617188
122709,-2.905426025390625,2.572463989257812,0.1926422119140625,0.1814960241317749,1.671379923820496,-0.2218136191368103,6.8748779296875,75.55961608886719,-7.825897216796875
122710,-2.905426025390625,2.572463989257812,0.1926422119140625,0.1814960241317749,1.671379923820496,-0.2218136191368103,6.8748779296875,75.55961608886719,-7.825897216796875
122711,-2.661407470703125,1.85888671875,-0.2233428955078125,0.4357419013977051,1.219016671180725,-0.1494283676147461,6.709228515625,75.70207214355469,-8.697052001953125
122712,-2.221694946289062,1.212646484375,-0.4977264404296875,0.4985488057136536,0.4823514521121979,-0.0105762118473649,6.609588623046875,75.73878479003906,-9.4710693359375
122713,-1.371475219726562,0.5035858154296875,-0.393707275390625,0.0963635519146919,-0.390022873878479,0.1215946078300476,6.5057373046875,76.20536804199219,-10.55155944824219
122714,-1.371475219726562,0.5035858154296875,-0.393707275390625,0.0963635519146919,-0.390022873878479,0.1215946078300476,6.5057373046875,76.20536804199219,-10.55155944824219
122715,-1.168380737304688,0.37408447265625,-0.227783203125,-0.1356182843446732,-0.3740971684455872,0.1222145929932594,6.618637084960938,76.44070434570312,-10.33573913574219
122716,-1.07080078125,0.2078094482421875,-0.200836181640625,-0.3965723812580109,-0.4605825245380402,0.2219523638486862,6.82025146484375,76.60185241699219,-10.11701965332031
122717,-1.029281616210938,0.2433624267578125,-0.1816864013671875,-0.0329944342374801,-0.8259977698326111,0.522045910358429,7.730667114257812,76.83099365234375,-9.286865234375
122718,-1.029281616210938,0.2433624267578125,-0.1816864013671875,-0.0329944342374801,-0.8259977698326111,0.522045910358429,7.730667114257812,76.83099365234375,-9.286865234375
122719,-0.934906005859375,0.34698486328125,-0.0962677001953125,0.3794037699699402,-0.6277720332145691,0.4756655991077423,8.370376586914062,76.87849426269531,-8.842987060546875
122720,-0.722412109375,0.4944610595703125,0.0458221435546875,0.685677707195282,0.1167878657579422,0.3799995183944702,8.905609130859375,76.962890625,-8.325698852539062
122721,-0.2611083984375,0.7663116455078125,-0.1295166015625,0.7645362615585327,1.576930403709412,0.3503763973712921,9.412979125976562,77.4854736328125,-8.586807250976562
122722,-0.2611083984375,0.7663116455078125,-0.1295166015625,0.7645362615585327,1.576930403709412,0.3503763973712921,9.412979125976562,77.4854736328125,-8.586807250976562
122723,-0.140472412109375,0.735931396484375,-0.2672119140625,0.7603814601898193,1.50925624370575,0.4208928942680359,9.561187744140623,77.60868835449219,-9.286575317382812
122724,-0.080078125,0.6067657470703125,-0.3646240234375,0.8773483037948608,1.039147019386292,0.4895049929618835,9.647216796875,77.71829223632812,-10.15582275390625
122725,-0.0453338623046875,0.3526153564453125,-0.2770538330078125,0.8412593007087708,0.0727431774139404,0.4264639616012573,9.526290893554688,77.91007995605469,-11.53727722167969
122726,-0.0453338623046875,0.3526153564453125,-0.2770538330078125,0.8412593007087708,0.0727431774139404,0.4264639616012573,9.526290893554688,77.91007995605469,-11.53727722167969
122727,0.0042877197265625,0.2324066162109375,-0.195709228515625,0.7184047698974609,-0.2723303139209747,0.4457878768444061,9.568496704101562,77.99620056152344,-11.89797973632812
122728,0.0153350830078125,0.2078094482421875,-0.0137481689453125,0.5132648944854736,-0.3685431480407715,0.423909455537796,9.746002197265623,78.07044982910156,-11.99383544921875
122729,0.04669189453125,0.1087493896484375,0.195556640625,0.1130477264523506,-0.3297757804393768,0.3140215873718262,10.00924682617188,78.73475646972656,-12.1419677734375
122730,0.04669189453125,0.1087493896484375,0.195556640625,0.1130477264523506,-0.3297757804393768,0.3140215873718262,10.00924682617188,78.73475646972656,-12.1419677734375
122731,0.0404052734375,0.0623321533203125,0.263671875,0.0285267159342765,-0.2888690829277039,0.2082741111516953,10.22598266601562,78.97056579589844,-11.96260070800781
122732,0.0048370361328125,0.0096282958984375,0.2972869873046875,0.05075478926301,-0.2706509232521057,0.0524043515324592,10.34327697753906,79.06819152832031,-11.67800903320312
122733,-0.216461181640625,0.016693115234375,0.417877197265625,0.0427432022988796,-0.1725890785455704,-0.2166287153959274,10.298583984375,79.2794189453125,-11.52325439453125
122734,-0.216461181640625,0.016693115234375,0.417877197265625,0.0427432022988796,-0.1725890785455704,-0.2166287153959274,10.298583984375,79.2794189453125,-11.52325439453125
122735,-0.364105224609375,0.137237548828125,0.4643402099609375,-0.1676838099956512,-0.1850092709064484,-0.4215320646762848,10.21342468261719,79.21772766113281,-11.32124328613281
122736,-0.57635498046875,0.2630615234375,0.5146942138671875,-0.4923689365386963,-0.2504743039608002,-0.7219664454460144,10.14825439453125,79.15104675292969,-11.32820129394531
122737,-1.195632934570312,0.2950439453125,0.6107177734375,-1.207009077072144,-0.1269100159406662,-0.9899712800979614,9.527557373046877,79.11878967285156,-11.8287353515625
122738,-1.195632934570312,0.2950439453125,0.6107177734375,-1.207009077072144,-0.1269100159406662,-0.9899712800979614,9.527557373046877,79.11878967285156,-11.8287353515625
122739,-1.393829345703125,0.263153076171875,0.57391357421875,-1.412796020507812,-0.056405484676361,-0.747688889503479,8.992950439453125,78.87344360351562,-11.81881713867188
122740,-1.367889404296875,0.27520751953125,0.4441986083984375,-1.416634202003479,-0.3180895447731018,-0.5805891156196594,8.564208984375,78.68367004394531,-11.69717407226562
122741,-0.8270721435546875,0.1834564208984375,0.267791748046875,-1.126276135444641,-1.421007633209229,-0.795447587966919,7.857559204101562,78.09620666503906,-11.07876586914062
122742,-0.8270721435546875,0.1834564208984375,0.267791748046875,-1.126276135444641,-1.421007633209229,-0.795447587966919,7.857559204101562,78.09620666503906,-11.07876586914062
122743,-0.586395263671875,0.173614501953125,0.2769012451171875,-1.093661665916443,-1.619016885757446,-0.8336844444274902,7.4755859375,77.7191162109375,-10.31797790527344
122744,-0.4035491943359375,0.205963134765625,0.2532501220703125,-1.058160185813904,-1.599254846572876,-0.8668544292449951,7.182830810546875,77.39024353027344,-9.403961181640623
122745,-0.226776123046875,0.21173095703125,0.2044525146484375,-0.8849313855171204,-1.538761138916016,-0.9668017625808716,7.009109497070312,76.48088073730469,-7.960784912109375
122746,-0.226776123046875,0.21173095703125,0.2044525146484375,-0.8849313855171204,-1.538761138916016,-0.9668017625808716,7.009109497070312,76.48088073730469,-7.960784912109375
122747,-0.178558349609375,0.170074462890625,0.164093017578125,-0.8459728360176086,-1.469671607017517,-1.011772751808167,6.999191284179688,76.04524230957031,-7.120498657226562
122748,-0.1212158203125,0.1302337646484375,0.09796142578125,-0.8605019450187683,-1.420449137687683,-1.003787159919739,7.12139892578125,75.49842834472656,-6.249374389648438
122749,0.080963134765625,0.0811767578125,-0.321685791015625,-0.716990053653717,-1.772480726242065,-0.7514591217041016,7.619171142578125,74.151123046875,-4.403778076171875
122750,0.080963134765625,0.0811767578125,-0.321685791015625,-0.716990053653717,-1.772480726242065,-0.7514591217041016,7.619171142578125,74.151123046875,-4.403778076171875
122751,0.2066802978515625,0.0294036865234375,-0.46075439453125,-0.3843449950218201,-2.27722692489624,-0.3254792988300323,7.828231811523438,73.46690368652344,-3.303268432617188
122752,0.286224365234375,0.0227813720703125,-0.2920074462890625,-0.2009256482124329,-2.401659488677979,0.2882949113845825,7.964279174804688,72.88519287109375,-2.023422241210938
122753,0.2668609619140625,0.1467132568359375,0.09100341796875,-0.0214560236781835,-0.7212716341018677,1.48105788230896,8.16571044921875,72.64291381835938,0.0551605224609375
122754,0.2668609619140625,0.1467132568359375,0.09100341796875,-0.0214560236781835,-0.7212716341018677,1.48105788230896,8.16571044921875,72.64291381835938,0.0551605224609375
122755,0.1755828857421875,0.2352142333984375,0.074554443359375,-0.1234662756323814,0.2005754411220551,1.709152579307556,8.541427612304688,72.90689086914062,1.082229614257812
122756,0.1155242919921875,0.29931640625,-0.1211090087890625,-0.2280353009700775,0.6056014895439148,1.659357309341431,8.93768310546875,73.42295837402344,1.741180419921875
122757,0.0645751953125,0.4733123779296875,-0.406982421875,-0.1951657682657242,-0.2785370945930481,1.279280304908752,9.683395385742188,74.49960327148438,2.015457153320312
122758,0.0645751953125,0.4733123779296875,-0.406982421875,-0.1951657682657242,-0.2785370945930481,1.279280304908752,9.683395385742188,74.49960327148438,2.015457153320312
122759,0.039154052734375,0.601898193359375,-0.3718414306640625,-0.1635431200265884,-0.8914809226989746,1.035176515579224,10.15487670898438,74.87309265136719,2.10162353515625
122760,-0.006988525390625,0.7399749755859375,-0.38336181640625,-0.0816376060247421,-1.267123460769653,0.7348055243492126,10.47871398925781,75.17860412597656,2.607864379882812
122761,-0.167449951171875,0.819366455078125,-0.4982452392578125,0.4830881059169769,-1.144731283187866,0.1206499859690666,10.94319152832031,75.81828308105469,3.6451416015625
122762,-0.167449951171875,0.819366455078125,-0.4982452392578125,0.4830881059169769,-1.144731283187866,0.1206499859690666,10.94319152832031,75.81828308105469,3.6451416015625
122763,-0.2491912841796875,0.820037841796875,-0.5232086181640625,0.7419870495796204,-0.6028850674629211,0.0552020035684108,11.14480590820312,75.90835571289062,4.093704223632812
122764,-0.31878662109375,1.034378051757812,-0.63311767578125,0.8578039407730103,0.1570415496826172,0.0960956364870071,11.28962707519531,76.03248596191406,4.414535522460938
122765,-0.417999267578125,1.763458251953125,-0.7772064208984375,0.3521426022052765,0.9489300847053528,0.3320873975753784,11.56228637695312,76.18572998046875,4.326431274414062
122766,-0.417999267578125,1.763458251953125,-0.7772064208984375,0.3521426022052765,0.9489300847053528,0.3320873975753784,11.56228637695312,76.18572998046875,4.326431274414062
122767,-0.560302734375,2.06414794921875,-0.427581787109375,-0.3544526100158691,0.8132787942886353,0.227648600935936,11.598388671875,76.2994384765625,3.956756591796875
122768,-0.7696533203125,2.30316162109375,-0.130889892578125,-0.7856429219245911,0.9171721935272216,-0.2953288555145264,11.67018127441406,76.32371520996094,3.674606323242188
122769,-0.993194580078125,2.438735961914062,0.098297119140625,-0.0984450802206993,2.08795952796936,-1.334784030914307,11.31169128417969,76.23945617675781,2.971572875976562
122770,-0.993194580078125,2.438735961914062,0.098297119140625,-0.0984450802206993,2.08795952796936,-1.334784030914307,11.31169128417969,76.23945617675781,2.971572875976562
122771,-1.123855590820312,2.420333862304688,-0.0355682373046875,0.2288712561130524,2.105067491531372,-1.444597959518433,10.6923828125,75.60586547851562,2.449188232421875
122772,-1.345596313476562,2.44317626953125,-0.2144775390625,0.5183259844779968,1.308928966522217,-1.380598187446594,9.99261474609375,75.06793212890625,1.371810913085938
122773,-2.658447265625,2.305587768554688,0.378662109375,0.444828063249588,1.273079395294189,-0.2147740870714188,8.1365966796875,74.12034606933594,-1.2607421875
122774,-2.658447265625,2.305587768554688,0.378662109375,0.444828063249588,1.273079395294189,-0.2147740870714188,8.1365966796875,74.12034606933594,-1.2607421875
122775,-3.208465576171875,2.664886474609375,0.4423675537109375,-0.2018497586250305,3.012585878372192,1.039888739585876,7.263824462890625,73.77995300292969,-2.445220947265625
122776,-3.289260864257812,3.456207275390625,0.11639404296875,-0.2011613398790359,2.972742319107056,0.9450344443321228,6.569610595703125,73.69107055664062,-3.467926025390625
122777,-2.701171875,2.420654296875,-0.133697509765625,0.2818996012210846,1.667090892791748,-0.0282715857028961,5.924224853515625,74.46086120605469,-6.009002685546875
122778,-2.701171875,2.420654296875,-0.133697509765625,0.2818996012210846,1.667090892791748,-0.0282715857028961,5.924224853515625,74.46086120605469,-6.009002685546875
122779,-1.796051025390625,1.412673950195312,-0.110748291015625,0.3099330961704254,1.096669793128967,0.063565656542778,5.768478393554688,74.91378784179688,-7.580963134765625
122780,-1.35406494140625,0.8325958251953125,0.1142730712890625,0.1900644749403,0.8250622153282166,0.4216090142726898,5.772415161132812,75.10713195800781,-8.473831176757812
122781,-0.964324951171875,0.5055694580078125,0.15386962890625,0.1283390671014786,0.6795196533203125,0.9114250540733336,6.124160766601562,75.65237426757812,-9.3170166015625
122782,-0.964324951171875,0.5055694580078125,0.15386962890625,0.1283390671014786,0.6795196533203125,0.9114250540733336,6.124160766601562,75.65237426757812,-9.3170166015625
122783,-0.84661865234375,0.4518280029296875,-0.004669189453125,0.3581267297267914,0.1776032894849777,0.9664222598075868,6.596084594726562,75.89216613769531,-9.426925659179688
122784,-0.7592315673828125,0.43939208984375,0.0243988037109375,0.6702046990394592,-0.2244405597448349,0.9094333052635192,7.032699584960938,76.17201232910156,-9.620315551757812
122785,-0.66021728515625,0.46881103515625,0.164886474609375,0.8926143646240234,-0.1690103262662888,0.7610890865325928,7.46307373046875,76.63320922851562,-9.592605590820312
122786,-0.5435943603515625,0.4846954345703125,0.1781005859375,1.004255414009094,0.1516169607639313,0.6125441193580627,7.834121704101562,77.08511352539062,-9.737548828125
122787,-0.4310760498046875,0.447235107421875,0.05218505859375,1.090931415557861,0.4898152351379395,0.5128345489501953,8.275161743164062,77.61369323730469,-9.822280883789062
122788,-0.3668212890625,0.3837738037109375,-0.084503173828125,1.203565001487732,0.7233172059059143,0.4195613265037537,8.649932861328125,77.91505432128906,-9.986953735351562
122789,-0.4026947021484375,0.2213897705078125,-0.0264129638671875,0.9699850678443908,0.9721297025680542,0.0989129990339279,9.35308837890625,78.305908203125,-10.82554626464844
122790,-0.4026947021484375,0.2213897705078125,-0.0264129638671875,0.9699850678443908,0.9721297025680542,0.0989129990339279,9.35308837890625,78.305908203125,-10.82554626464844
122791,-0.4284820556640625,0.100433349609375,0.0316925048828125,0.6641108989715576,0.9097741842269896,-0.0014887070283293,9.746688842773438,78.44741821289062,-11.31800842285156
122792,-0.4618072509765625,-0.0047149658203125,0.125457763671875,0.4234386086463928,0.8504970073699951,-0.0049023469910025,9.937271118164062,78.49365234375,-11.86199951171875
122793,-0.4547119140625,-0.0504913330078125,0.1853179931640625,0.2166212499141693,0.6981463432312012,0.047995489090681,10.04132080078125,78.68940734863281,-12.79731750488281
122794,-0.4547119140625,-0.0504913330078125,0.1853179931640625,0.2166212499141693,0.6981463432312012,0.047995489090681,10.04132080078125,78.68940734863281,-12.79731750488281
122795,-0.4714813232421875,-0.0142364501953125,0.208160400390625,0.1933998167514801,0.5904832482337952,0.0134777259081602,10.05397033691406,78.60162353515625,-13.16876220703125
122796,-0.5058441162109375,0.0184173583984375,0.1914825439453125,0.1530736982822418,0.5399503111839294,-0.0560121349990367,9.952926635742188,78.77792358398438,-13.54042053222656
122797,-0.5801239013671875,0.2015380859375,0.12579345703125,0.0971318781375885,0.158996045589447,-0.2780465185642242,9.425079345703123,78.90492248535156,-14.26573181152344
122798,-0.5801239013671875,0.2015380859375,0.12579345703125,0.0971318781375885,0.158996045589447,-0.2780465185642242,9.425079345703123,78.90492248535156,-14.26573181152344
122799,-0.5687408447265625,0.369659423828125,0.26812744140625,0.023767115548253,0.0493073612451553,-0.4050569534301758,9.1446533203125,78.89373779296875,-14.60916137695312
122800,-0.5674896240234375,0.5159912109375,0.4008331298828125,-0.1013657674193382,0.1084425896406174,-0.5311062335968018,8.839141845703125,78.94174194335938,-14.78013610839844
122801,-0.5873870849609375,0.5295562744140625,0.40582275390625,-0.1942147463560104,-0.0270374771207571,-0.7580930590629578,8.296844482421875,78.63978576660156,-14.965576171875
122802,-0.5873870849609375,0.5295562744140625,0.40582275390625,-0.1942147463560104,-0.0270374771207571,-0.7580930590629578,8.296844482421875,78.63978576660156,-14.965576171875
122803,-0.6068572998046875,0.4136505126953125,0.3876190185546875,-0.1545493602752686,-0.3319052457809448,-0.8735514283180237,7.910049438476562,78.50184631347656,-15.01133728027344
122804,-0.612091064453125,0.28411865234375,0.36907958984375,-0.101663775742054,-0.6968656182289124,-0.98476904630661,7.526092529296875,78.30197143554688,-15.04420471191406
122805,-0.5155487060546875,0.0887451171875,0.283477783203125,0.0524839796125888,-1.613012194633484,-1.053342819213867,7.046630859375,77.8560791015625,-14.93356323242188
122806,-0.5155487060546875,0.0887451171875,0.283477783203125,0.0524839796125888,-1.613012194633484,-1.053342819213867,7.046630859375,77.8560791015625,-14.93356323242188
122807,-0.4548492431640625,0.0864410400390625,0.2641448974609375,0.0699226260185241,-1.989343285560608,-1.033117413520813,6.953109741210938,77.50718688964844,-14.65187072753906
122808,-0.3878326416015625,0.1183624267578125,0.2357330322265625,-0.0110798152163624,-2.244554996490479,-1.023521542549133,6.888946533203125,76.96192932128906,-14.03724670410156
122809,-0.2208251953125,0.142364501953125,0.1494293212890625,-0.4147796034812927,-2.825601100921631,-0.8932870626449585,7.104522705078125,75.85592651367188,-12.07333374023438
122810,-0.2208251953125,0.142364501953125,0.1494293212890625,-0.4147796034812927,-2.825601100921631,-0.8932870626449585,7.104522705078125,75.85592651367188,-12.07333374023438
122811,-0.15399169921875,0.157928466796875,0.123992919921875,-0.7214686870574951,-3.03513240814209,-0.7428829073905945,7.335281372070312,75.26600646972656,-10.96144104003906
122812,-0.08868408203125,0.211669921875,0.04339599609375,-1.083296656608582,-3.006774187088013,-0.5298859477043152,7.428604125976562,74.66650390625,-9.49658203125
122813,0.2875213623046875,0.2129669189453125,-0.765228271484375,0.4273222982883453,-3.003375053405762,0.9758275151252748,7.724197387695312,74.02449035644531,-6.321426391601562
122814,0.2875213623046875,0.2129669189453125,-0.765228271484375,0.4273222982883453,-3.003375053405762,0.9758275151252748,7.724197387695312,74.02449035644531,-6.321426391601562
122815,0.0836029052734375,0.1928253173828125,0.05926513671875,0.989409327507019,-1.130746245384216,1.599629878997803,7.844573974609375,73.86622619628906,-4.710220336914062
122816,0.0389404296875,0.164276123046875,0.077545166015625,0.796559751033783,0.5467227101325989,1.705108046531677,7.94189453125,74.19973754882812,-3.108367919921875
122817,0.1231842041015625,0.0283203125,-0.4177398681640625,0.2192058563232422,0.5371034145355225,1.663944363594055,8.711929321289062,75.54586791992188,-2.264404296875
122818,0.1231842041015625,0.0283203125,-0.4177398681640625,0.2192058563232422,0.5371034145355225,1.663944363594055,8.711929321289062,75.54586791992188,-2.264404296875
122819,0.1443939208984375,-0.017303466796875,-0.4152374267578125,-0.0543500557541847,-0.3215862810611725,1.653996109962463,9.189865112304688,76.32742309570312,-2.466842651367188
122820,0.137237548828125,-0.0258941650390625,-0.28778076171875,-0.3479814231395721,-1.011432409286499,1.626156568527222,9.681304931640623,76.97590637207031,-2.405792236328125
122821,0.106658935546875,0.0252685546875,-0.19354248046875,-0.5025385022163391,-1.489930272102356,1.414817690849304,10.939697265625,78.39309692382812,-1.821212768554688
122822,0.106658935546875,0.0252685546875,-0.19354248046875,-0.5025385022163391,-1.489930272102356,1.414817690849304,10.939697265625,78.39309692382812,-1.821212768554688
122823,0.0733489990234375,0.09832763671875,-0.1663055419921875,-0.3463419675827026,-1.322715878486633,1.180320143699646,11.46794128417969,79.05976867675781,-1.12677001953125
122824,0.0181884765625,0.206512451171875,-0.1777496337890625,-0.2284899055957794,-0.9602149724960328,0.8128814697265625,12.0562744140625,79.65615844726562,-0.2623748779296875
122825,-0.0846405029296875,0.36358642578125,-0.383331298828125,0.0071521853096783,-0.4706982672214508,0.0349952690303325,12.95637512207031,80.30372619628906,1.18695068359375
122826,-0.0846405029296875,0.36358642578125,-0.383331298828125,0.0071521853096783,-0.4706982672214508,0.0349952690303325,12.95637512207031,80.30372619628906,1.18695068359375
122827,-0.1385345458984375,0.42047119140625,-0.4179534912109375,0.1944448500871658,-0.3590854704380035,-0.1966611295938492,13.16221618652344,80.58050537109375,1.4989013671875
122828,-0.227264404296875,0.5491943359375,-0.4495697021484375,0.3842768371105194,-0.1543560177087784,-0.4357019364833832,13.26918029785156,80.64097595214844,1.834030151367188
122829,-0.614654541015625,1.245361328125,-0.8159942626953125,0.7366687059402466,0.3662421703338623,-1.007745504379272,13.11083984375,80.4395751953125,2.180099487304688
122830,-0.614654541015625,1.245361328125,-0.8159942626953125,0.7366687059402466,0.3662421703338623,-1.007745504379272,13.11083984375,80.4395751953125,2.180099487304688
122831,-0.7553253173828125,1.611251831054688,-0.990081787109375,0.8545764088630676,0.6316232681274414,-1.098089218139648,12.85581970214844,80.11463928222656,1.994674682617188
122832,-0.757110595703125,1.819183349609375,-0.8917083740234375,0.5159816145896912,0.8765707015991211,-0.7661464214324951,12.50396728515625,79.88056945800781,1.540756225585938
122833,-0.7598876953125,2.096710205078125,-0.147918701171875,-0.7645096778869629,1.436904311180115,-0.1766083240509033,11.69583129882812,79.21826171875,0.5863037109375
122834,-0.7598876953125,2.096710205078125,-0.147918701171875,-0.7645096778869629,1.436904311180115,-0.1766083240509033,11.69583129882812,79.21826171875,0.5863037109375
122835,-0.8216094970703125,2.265487670898438,0.1400909423828125,-0.9412985444068908,2.143928050994873,-0.1299113929271698,11.33412170410156,78.92572021484375,0.0903167724609375
122836,-1.006576538085938,2.709808349609375,0.163848876953125,-0.9821785688400269,2.589281558990479,-0.2981392741203308,11.04977416992188,78.75921630859375,-0.465728759765625
122837,-1.9677734375,3.683456420898438,0.305999755859375,-0.2826202511787415,1.106886982917786,-0.8960117697715759,10.26715087890625,78.43544006347656,-2.270217895507812
122838,-1.9677734375,3.683456420898438,0.305999755859375,-0.2826202511787415,1.106886982917786,-0.8960117697715759,10.26715087890625,78.43544006347656,-2.270217895507812
122839,-2.76495361328125,4.117874145507812,0.6712493896484375,0.4177786111831665,0.5768553614616394,-0.8967432975769043,9.662994384765623,78.10498046875,-3.415206909179688
122840,-3.64447021484375,3.753311157226562,0.7233428955078125,0.6618354916572571,1.415221929550171,-0.4127364456653595,8.933502197265625,77.64169311523438,-4.440155029296875
122841,-2.53204345703125,1.953338623046875,-0.7592620849609375,0.5957371592521667,0.763688325881958,0.2881723940372467,7.5751953125,77.12910461425781,-6.318603515625
122842,-2.53204345703125,1.953338623046875,-0.7592620849609375,0.5957371592521667,0.763688325881958,0.2881723940372467,7.5751953125,77.12910461425781,-6.318603515625
122843,-1.916152954101562,1.421981811523438,-0.27435302734375,0.4999581575393677,-0.0869586020708084,0.2741378247737885,7.28240966796875,77.28627014160156,-7.444412231445312
122844,-1.532882690429688,1.182449340820312,-0.048919677734375,0.5853286981582642,-0.0570281334221363,0.3345777094364166,7.351837158203125,77.60289001464844,-8.164749145507812
122845,-1.185317993164062,0.931243896484375,-0.0949859619140625,0.7638134956359863,0.3610143959522247,0.4002358317375183,7.795120239257812,78.1549072265625,-8.369354248046875
122846,-1.185317993164062,0.931243896484375,-0.0949859619140625,0.7638134956359863,0.3610143959522247,0.4002358317375183,7.795120239257812,78.1549072265625,-8.369354248046875
122847,-1.047698974609375,0.787872314453125,-0.1716461181640625,0.7153687477111816,-0.0585229657590389,0.4544780254364014,8.1986083984375,78.35163879394531,-8.283004760742188
122848,-0.9481658935546876,0.72076416015625,-0.09295654296875,0.7194841504096985,-0.3945643603801727,0.5149520039558411,8.838333129882812,78.62625122070312,-8.199295043945312
122849,-0.6558990478515625,0.6082611083984375,0.2107086181640625,0.6781489253044128,0.297639399766922,0.5355795621871948,9.837020874023438,79.05960083007812,-8.407150268554688
122850,-0.6558990478515625,0.6082611083984375,0.2107086181640625,0.6781489253044128,0.297639399766922,0.5355795621871948,9.837020874023438,79.05960083007812,-8.407150268554688
122851,-0.504913330078125,0.5502166748046875,0.1160888671875,0.8132244348526001,1.135175824165344,0.6212949752807617,10.26573181152344,79.18333435058594,-8.472427368164062
122852,-0.4158935546875,0.48883056640625,-0.088531494140625,1.059002041816711,1.713800311088562,0.6614863276481628,10.57292175292969,79.40655517578125,-8.523269653320312
122853,-0.332611083984375,0.334747314453125,-0.3212127685546875,1.076570868492126,1.448654651641846,0.6762918829917908,10.91958618164062,79.91438293457031,-9.548004150390623
122854,-0.332611083984375,0.334747314453125,-0.3212127685546875,1.076570868492126,1.448654651641846,0.6762918829917908,10.91958618164062,79.91438293457031,-9.548004150390623
122855,-0.3289947509765625,0.262451171875,-0.2315826416015625,0.8517052531242371,0.9205519556999208,0.5468177795410156,11.08042907714844,80.18325805664062,-10.54426574707031
122856,-0.3070526123046875,0.1721038818359375,-0.0644989013671875,0.5637707114219666,0.5350120067596436,0.380237340927124,11.16786193847656,80.39506530761719,-11.45527648925781
122857,-0.2711944580078125,0.0879364013671875,0.06744384765625,0.2889851927757263,0.312243640422821,0.2401364296674728,11.33251953125,80.68186950683594,-12.14414978027344
122858,-0.2440643310546875,0.0297088623046875,0.143646240234375,0.0858714953064918,0.141493484377861,0.1309944987297058,11.45289611816406,80.99237060546875,-12.73002624511719
122859,-0.237884521484375,-0.0076904296875,0.195465087890625,-0.0643523558974266,0.009694704785943,0.0281959511339664,11.58065795898438,81.14404296875,-12.95405578613281
122860,-0.2466583251953125,-0.060089111328125,0.1830902099609375,-0.1598831415176392,-0.1217165812849998,-0.0644477009773254,11.68344116210938,81.325927734375,-13.05265808105469
122861,-0.2801055908203125,-0.1165771484375,0.1747589111328125,-0.1792248785495758,-0.2448371797800064,-0.120306171476841,11.63531494140625,81.29475402832031,-12.99838256835938
122862,-0.35675048828125,-0.1142578125,0.2495880126953125,-0.1671698093414307,-0.2818039953708649,-0.1717387288808823,11.51887512207031,81.45272827148438,-13.068115234375
122863,-0.4721221923828125,0.03070068359375,0.399871826171875,-0.1989208161830902,-0.1395310014486313,-0.1821575611829758,11.18472290039062,81.37162780761719,-12.99650573730469
122864,-0.5782623291015625,0.28509521484375,0.5251312255859375,-0.2923687398433685,0.0688917189836502,-0.1995788812637329,10.99769592285156,81.30740356445312,-12.92623901367188
122865,-0.8032379150390625,0.587921142578125,0.578155517578125,-0.6181977391242981,0.2051243931055069,-0.4056228697299957,10.62173461914062,81.30282592773438,-12.82147216796875
122866,-0.8032379150390625,0.587921142578125,0.578155517578125,-0.6181977391242981,0.2051243931055069,-0.4056228697299957,10.62173461914062,81.30282592773438,-12.82147216796875
122867,-0.9020843505859376,0.6251373291015625,0.5316162109375,-0.7470635771751404,0.0636093392968177,-0.5777450799942017,10.32232666015625,81.21910095214844,-12.80496215820312
122868,-0.9390716552734376,0.5691680908203125,0.43597412109375,-0.8001568913459778,-0.2857531905174255,-0.7603969573974609,10.06747436523438,81.1368408203125,-12.80116271972656
122869,-0.771087646484375,0.3083648681640625,0.224090576171875,-0.66243577003479,-1.381585121154785,-0.9511978030204772,9.53106689453125,80.60281372070312,-12.56814575195312
122870,-0.771087646484375,0.3083648681640625,0.224090576171875,-0.66243577003479,-1.381585121154785,-0.9511978030204772,9.53106689453125,80.60281372070312,-12.56814575195312
122871,-0.6181182861328125,0.2888031005859375,0.163177490234375,-0.5595013499259949,-1.900798678398132,-0.950187921524048,9.382247924804688,80.10365295410156,-11.9857177734375
122872,-0.50146484375,0.30303955078125,0.16943359375,-0.5542903542518616,-2.229867458343506,-0.9733150601387024,9.2637939453125,79.69923400878906,-11.26513671875
122873,-0.2945556640625,0.2710418701171875,0.1334686279296875,-0.8258824944496155,-2.46092414855957,-0.9673653244972228,9.3316650390625,78.74555969238281,-8.986495971679688
122874,-0.2945556640625,0.2710418701171875,0.1334686279296875,-0.8258824944496155,-2.46092414855957,-0.9673653244972228,9.3316650390625,78.74555969238281,-8.986495971679688
122875,-0.1788330078125,0.2541351318359375,0.0699920654296875,-0.9882447719573976,-2.573426008224487,-0.876805305480957,9.538330078125,78.16532897949219,-7.678375244140625
122876,-0.0153045654296875,0.2589263916015625,-0.0559539794921875,-1.112013339996338,-2.579069137573242,-0.6614884734153748,9.88275146484375,77.5693359375,-6.22100830078125
122877,0.28436279296875,0.118194580078125,-0.1720733642578125,-0.4073051810264587,-1.98570454120636,0.8464966416358948,10.25796508789062,76.74620056152344,-3.423355102539062
122878,0.28436279296875,0.118194580078125,-0.1720733642578125,-0.4073051810264587,-1.98570454120636,0.8464966416358948,10.25796508789062,76.74620056152344,-3.423355102539062
122879,0.19708251953125,0.0732879638671875,0.008697509765625,0.0793419629335403,-0.8523569703102112,1.501089930534363,10.39949035644531,76.76544189453125,-2.178573608398438
122880,0.1358184814453125,0.0457763671875,-0.05584716796875,0.2671933472156525,0.0232989303767681,1.775244474411011,10.70732116699219,77.04991149902344,-1.064208984375
122881,0.209197998046875,-0.0088653564453125,-0.476043701171875,0.1893073469400406,-0.1991533190011978,1.95293653011322,11.73448181152344,78.20379638671875,-0.251312255859375
122882,0.209197998046875,-0.0088653564453125,-0.476043701171875,0.1893073469400406,-0.1991533190011978,1.95293653011322,11.73448181152344,78.20379638671875,-0.251312255859375
122883,0.29241943359375,0.01904296875,-0.6670684814453125,-0.3812418878078461,-0.9143326878547668,1.849486589431763,12.26220703125,78.85739135742188,0.01483154296875
122884,0.260284423828125,0.036102294921875,-0.39141845703125,-0.8875436782836914,-1.223567485809326,1.648864507675171,12.89108276367188,79.5540771484375,0.432891845703125
122885,0.17236328125,0.0663299560546875,-0.0396881103515625,-0.9249491095542908,-0.91282320022583,1.468063235282898,13.51876831054688,80.18655395507812,1.042755126953125
122886,0.1313018798828125,0.1059112548828125,0.0619659423828125,-0.8306980133056641,-0.3597730994224548,1.263192415237427,14.177001953125,80.6092529296875,1.80755615234375
122887,0.1041259765625,0.151275634765625,0.002410888671875,-0.6955923438072205,0.0588539950549602,1.023849844932556,14.69862365722656,81.14292907714844,2.515823364257812
122888,0.071380615234375,0.2169952392578125,-0.131927490234375,-0.560000479221344,0.1324523091316223,0.7263468503952026,15.1141357421875,81.40867614746094,2.987869262695312
122889,-0.025543212890625,0.36029052734375,-0.3270416259765625,-0.3176791667938232,-0.4235363602638245,0.0374006368219852,15.71502685546875,81.96737670898438,3.510360717773438
122890,-0.025543212890625,0.36029052734375,-0.3270416259765625,-0.3176791667938232,-0.4235363602638245,0.0374006368219852,15.71502685546875,81.96737670898438,3.510360717773438
122891,-0.0833740234375,0.41046142578125,-0.3721466064453125,-0.1911872625350952,-0.6614996194839478,-0.2633437514305115,15.7412109375,82.03355407714844,3.719940185546875
122892,-0.1456451416015625,0.5021514892578125,-0.4105987548828125,-0.0484279878437519,-0.7073688507080078,-0.5614076852798462,15.69601440429688,81.83294677734375,3.992050170898438
122893,-0.2171630859375,0.6457061767578125,-0.39447021484375,0.0479917600750923,-0.4941615164279938,-0.8797318339347839,15.47116088867188,81.82577514648438,4.222702026367188
122894,-0.334808349609375,0.9158172607421876,-0.3706512451171875,0.0311797577887773,-0.0277267023921012,-1.191693782806396,15.30760192871094,81.42123413085938,4.314971923828125
122895,-0.4953155517578125,1.284133911132812,-0.444183349609375,-0.0699998587369918,0.3721365332603455,-1.420390009880066,14.96824645996094,81.05740356445312,4.359832763671875
122896,-0.58795166015625,1.55877685546875,-0.4568328857421875,-0.2009658664464951,0.5824085474014282,-1.455025792121887,14.52479553222656,80.45082092285156,4.48712158203125
122897,-0.625518798828125,1.803604125976562,-0.204437255859375,-0.4474334418773651,0.9185511469841005,-0.9155449867248536,13.58992004394531,79.30824279785156,4.001922607421875
122898,-0.625518798828125,1.803604125976562,-0.204437255859375,-0.4474334418773651,0.9185511469841005,-0.9155449867248536,13.58992004394531,79.30824279785156,4.001922607421875
122899,-0.655059814453125,1.88958740234375,0.033935546875,-0.4858247637748718,1.218616127967834,-0.5286356210708618,13.04658508300781,78.81137084960938,3.68463134765625
122900,-0.7834930419921875,2.157150268554688,0.202362060546875,-0.5340607166290283,1.591237664222717,-0.3313084244728088,12.61778259277344,78.36984252929688,3.28619384765625
122901,-1.018692016601562,2.505142211914062,0.3004608154296875,-0.5176708698272705,1.694204807281494,-0.4342712759971619,12.20585632324219,78.07594299316406,2.752105712890625
122902,-1.390579223632812,2.9000244140625,0.36907958984375,-0.2165000885725021,1.365633845329285,-0.7581364512443542,11.65937805175781,77.73785400390625,1.979385375976562
122903,-2.046661376953125,3.598953247070312,0.4462738037109375,0.4148887991905212,0.8525742888450623,-1.223039984703064,11.075439453125,77.44364929199219,1.223312377929688
122904,-3.12286376953125,4.009506225585938,0.722930908203125,0.820404052734375,1.048375964164734,-1.593890428543091,10.27085876464844,77.1297607421875,0.348052978515625
122905,-3.675521850585938,2.907211303710938,-0.0735931396484375,-0.2349733710289001,3.672329664230347,-0.2683201432228088,8.38482666015625,76.39192199707031,-2.063278198242188
122906,-3.675521850585938,2.907211303710938,-0.0735931396484375,-0.2349733710289001,3.672329664230347,-0.2683201432228088,8.38482666015625,76.39192199707031,-2.063278198242188
122907,-2.799667358398438,2.079574584960938,-0.4044952392578125,-0.3666166067123413,1.528530597686768,-0.1363943219184875,7.761337280273438,76.21266174316406,-3.486724853515625
122908,-2.2314453125,1.487319946289062,0.0655975341796875,-0.4549089372158051,0.8567333221435547,0.2868908941745758,7.416305541992188,76.13743591308594,-4.712615966796875
122909,-1.4725341796875,1.124679565429688,-0.127197265625,0.0578348040580749,0.5052117705345154,0.7365166544914246,7.426498413085938,76.37347412109375,-5.679763793945312
122910,-1.4725341796875,1.124679565429688,-0.127197265625,0.0578348040580749,0.5052117705345154,0.7365166544914246,7.426498413085938,76.37347412109375,-5.679763793945312
122911,-1.191207885742188,0.87738037109375,-0.0827178955078125,0.3135272860527039,0.6979852318763733,0.8183239102363586,7.597412109375,76.84257507324219,-5.858291625976562
122912,-0.9621124267578124,0.6845550537109375,-0.1323699951171875,0.433361291885376,0.8537652492523193,0.8971052765846252,7.861404418945312,77.17344665527344,-5.992416381835938
