time_idx,accelerometerAccelerationX(G),accelerometerAccelerationY(G),accelerometerAccelerationZ(G),gyroRotationX(rad/s),gyroRotationY(rad/s),gyroRotationZ(rad/s),magnetometerX(µT),magnetometerY(µT),magnetometerZ(µT)
214742,0.1256103515625,-0.1309967041015625,0.1580657958984375,0.8145533800125122,0.6442636847496033,-0.345491349697113,43.2646484375,99.85784912109376,-10.90077209472656
214743,0.1086883544921875,-0.109344482421875,0.1534576416015625,0.8052765130996704,0.8445112705230713,-0.3802725076675415,43.06088256835938,99.80947875976562,-11.00410461425781
214744,0.0952301025390625,-0.09857177734375,0.1446685791015625,0.7442736029624939,0.9821146726608276,-0.4215602874755859,42.88117980957031,99.92552185058594,-11.1884765625
214745,0.0952301025390625,-0.09857177734375,0.1446685791015625,0.7442736029624939,0.9821146726608276,-0.4215602874755859,42.88117980957031,99.92552185058594,-11.1884765625
214746,0.0798797607421875,-0.092041015625,0.1153106689453125,0.6227620840072632,0.998535454273224,-0.4671474695205688,42.72923278808594,99.91119384765624,-11.34429931640625
214747,0.0597991943359375,-0.1115264892578125,0.0896148681640625,0.1749374568462372,0.5849058032035828,-0.5773704051971436,42.35215759277344,99.62501525878906,-11.28532409667969
214748,0.0532684326171875,-0.120330810546875,0.10150146484375,-0.1313404440879822,0.2642883658409119,-0.6387075185775757,42.1253662109375,99.51123046875,-11.24209594726562
214749,0.0452423095703125,-0.129119873046875,0.1142730712890625,-0.4543467164039612,-0.0575860626995563,-0.7025879621505737,42.00920104980469,99.42984008789062,-11.064208984375
214750,0.0452423095703125,-0.129119873046875,0.1142730712890625,-0.4543467164039612,-0.0575860626995563,-0.7025879621505737,42.00920104980469,99.42984008789062,-11.064208984375
214751,0.00238037109375,-0.134765625,0.162933349609375,-1.072222709655762,-0.6116809844970703,-0.8360490798950195,41.4453125,99.07615661621094,-10.34468078613281
214752,-0.0639801025390625,-0.0711212158203125,0.215972900390625,-1.372191905975342,-0.8156409859657288,-0.920144498348236,41.22596740722656,98.88113403320312,-9.798233032226562
214753,-0.0639801025390625,-0.0711212158203125,0.215972900390625,-1.372191905975342,-0.8156409859657288,-0.920144498348236,41.22596740722656,98.88113403320312,-9.798233032226562
214754,-0.084991455078125,0.1607513427734375,0.3061370849609375,-1.865193843841553,-0.9458945989608764,-1.146197080612183,40.44062805175781,98.46940612792967,-8.341079711914062
214755,-0.1026458740234375,0.246673583984375,0.4140472412109375,-2.142114877700806,-1.042007327079773,-1.293987035751343,39.89356994628906,98.46568298339844,-7.52154541015625
214756,-0.133056640625,0.5449371337890625,0.734954833984375,-2.41068696975708,-0.8811651468276978,-1.564728856086731,39.38113403320312,98.4687957763672,-6.669723510742188
214757,-0.229339599609375,0.90533447265625,1.046707153320312,-2.649903297424316,-0.3017204403877258,-1.902302026748657,38.59848022460938,98.40129089355467,-5.732589721679688
214758,-0.229339599609375,0.90533447265625,1.046707153320312,-2.649903297424316,-0.3017204403877258,-1.902302026748657,38.59848022460938,98.40129089355467,-5.732589721679688
214759,-0.86016845703125,6.904571533203125,1.368423461914062,-0.6060388088226318,2.48167872428894,-2.333725690841675,36.9039306640625,98.03892517089844,-4.776657104492188
214760,-1.238998413085938,8.111114501953125,0.893585205078125,1.357873678207397,2.776617765426636,1.550848960876465,35.9202880859375,98.1351318359375,-5.574249267578125
214761,-1.238998413085938,8.111114501953125,0.893585205078125,1.357873678207397,2.776617765426636,1.550848960876465,35.9202880859375,98.1351318359375,-5.574249267578125
214762,-0.880401611328125,6.43377685546875,-0.164520263671875,3.002498149871826,2.577919721603394,1.110914707183838,35.45600891113281,98.36051940917967,-6.797836303710938
214763,0.35693359375,1.025711059570312,-0.9134368896484376,0.8440662622451782,-5.081449508666992,0.551411509513855,35.93353271484375,98.94728088378906,-8.781112670898438
214764,0.3475189208984375,0.6413116455078125,0.3017730712890625,-0.4537517726421356,-6.379470348358154,0.3704632818698883,35.98219299316406,98.91140747070312,-8.630889892578125
214765,0.3475189208984375,0.6413116455078125,0.3017730712890625,-0.4537517726421356,-6.379470348358154,0.3704632818698883,35.98219299316406,98.91140747070312,-8.630889892578125
214766,0.4867706298828125,1.035964965820312,0.89044189453125,-2.103718757629395,-0.1746287941932678,-0.1413448750972748,36.14875793457031,98.7873077392578,-7.696014404296875
214767,1.202682495117188,2.869979858398438,-2.436752319335938,-1.854071974754333,0.2799533605575562,0.0029664952307939,36.35923767089844,98.40519714355467,-4.901535034179688
214768,0.6384735107421875,2.465057373046875,-1.643966674804688,0.8561474084854126,-1.859652638435364,-0.0417176187038421,36.40565490722656,97.96640014648438,-3.576171875
214769,0.1680450439453125,1.531723022460938,-0.07232666015625,2.845149040222168,-1.534395456314087,0.085904523730278,36.52915954589844,97.7594757080078,-2.869781494140625
214770,0.1680450439453125,1.531723022460938,-0.07232666015625,2.845149040222168,-1.534395456314087,0.085904523730278,36.52915954589844,97.7594757080078,-2.869781494140625
214771,-0.029541015625,0.995330810546875,-0.0313568115234375,2.726558685302734,-0.7517858743667603,0.1356489062309265,37.02813720703125,98.062744140625,-4.294677734375
214772,-0.056793212890625,0.8304901123046875,0.1794891357421875,2.024150371551514,-0.4446988999843597,0.0459336712956428,37.32514953613281,98.2189483642578,-5.60052490234375
214773,-0.056793212890625,0.8304901123046875,0.1794891357421875,2.024150371551514,-0.4446988999843597,0.0459336712956428,37.32514953613281,98.2189483642578,-5.60052490234375
214774,-0.080810546875,0.6672821044921875,0.2214508056640625,1.390987992286682,-0.0403173305094242,-0.0654040426015853,37.62947082519531,98.36256408691406,-6.921646118164062
214775,-0.075958251953125,0.295684814453125,0.0641937255859375,0.6602634191513062,0.4327170550823212,-0.2395811676979065,37.69761657714844,98.47023010253906,-8.649398803710938
214776,-0.07281494140625,0.100494384765625,-0.104705810546875,0.6629862189292908,0.2483296543359756,-0.2246517539024353,37.63731384277344,98.39372253417967,-9.076171875
214777,-0.07281494140625,0.100494384765625,-0.104705810546875,0.6629862189292908,0.2483296543359756,-0.2246517539024353,37.63731384277344,98.39372253417967,-9.076171875
214778,-0.1061248779296875,-0.0938568115234375,0.03997802734375,1.011497616767883,0.1015524566173553,-0.1606258898973465,37.42645263671875,98.66075134277344,-9.816940307617188
214779,-0.1204376220703125,-0.136932373046875,0.157867431640625,0.890629231929779,0.9058313369750975,-0.1424175947904587,37.3287353515625,98.6220703125,-10.15625
214780,-0.1286773681640625,-0.1428680419921875,0.173797607421875,0.890629231929779,0.9058313369750975,-0.1424175947904587,37.27357482910156,98.7543487548828,-10.52969360351562
214781,-0.1286773681640625,-0.1428680419921875,0.173797607421875,0.890629231929779,0.9058313369750975,-0.1424175947904587,37.27357482910156,98.7543487548828,-10.52969360351562
214782,-0.16094970703125,-0.1249542236328125,0.1282196044921875,0.3823487162590027,1.258960604667664,-0.2032607048749924,37.21113586425781,98.72471618652344,-11.68821716308594
214783,-0.1959686279296875,-0.134490966796875,0.11248779296875,0.1155247315764427,1.325747132301331,-0.2566461563110352,37.14219665527344,98.76956176757812,-12.2315673828125
214784,-0.230926513671875,-0.155731201171875,0.0865936279296875,-0.1110338419675827,1.368359565734863,-0.3008200228214264,37.14692687988281,98.78028869628906,-12.47805786132812
214785,-0.230926513671875,-0.155731201171875,0.0865936279296875,-0.1110338419675827,1.368359565734863,-0.3008200228214264,37.14692687988281,98.78028869628906,-12.47805786132812
214786,-0.2500152587890625,-0.18756103515625,0.0601043701171875,-0.3161214888095856,1.427319526672363,-0.3306500911712646,37.08868408203125,98.94456481933594,-12.614013671875
214787,-0.22796630859375,-0.28424072265625,-0.0103912353515625,-0.7726930379867554,1.494240283966064,-0.2573575079441071,37.0279541015625,98.98336791992188,-12.31015014648438
214788,-0.183258056640625,-0.29986572265625,-0.09698486328125,-0.9248710870742798,1.394630551338196,-0.1721983999013901,36.97450256347656,98.98609924316406,-11.94940185546875
214789,-0.183258056640625,-0.29986572265625,-0.09698486328125,-0.9248710870742798,1.394630551338196,-0.1721983999013901,36.97450256347656,98.98609924316406,-11.94940185546875
214790,-0.105987548828125,-0.307373046875,-0.2600860595703125,-0.7920291423797607,0.2329008877277374,0.0202924888581037,37.00445556640625,98.93409729003906,-11.30337524414062
214791,0.008514404296875,-0.2686614990234375,-0.3148040771484375,-0.5393146276473999,-0.9263648390769958,0.160904198884964,37.33982849121094,98.68089294433594,-9.79693603515625
214792,0.0379791259765625,-0.224700927734375,-0.2360992431640625,-0.5393146276473999,-0.9263648390769958,0.160904198884964,37.59065246582031,98.49282836914062,-8.877273559570312
214793,0.0653839111328125,-0.19903564453125,-0.18463134765625,-0.338359147310257,-1.651742815971375,0.1579552739858627,37.92622375488281,98.25381469726562,-8.011077880859375
214794,0.0653839111328125,-0.19903564453125,-0.18463134765625,-0.338359147310257,-1.651742815971375,0.1579552739858627,37.92622375488281,98.25381469726562,-8.011077880859375
214795,0.1104736328125,-0.186859130859375,-0.16595458984375,-0.3886502683162689,-2.419695615768433,0.0975720956921577,38.65953063964844,97.53067016601562,-6.64581298828125
214796,0.1367645263671875,-0.1653289794921875,-0.1272430419921875,-0.3886502683162689,-2.419695615768433,0.0975720956921577,38.89788818359375,97.2655029296875,-6.097335815429688
214797,0.1367645263671875,-0.1653289794921875,-0.1272430419921875,-0.3886502683162689,-2.419695615768433,0.0975720956921577,38.89788818359375,97.2655029296875,-6.097335815429688
214798,0.1352996826171875,0.042205810546875,0.133148193359375,-0.8521428108215332,-2.378381967544556,0.0169406346976757,39.18235778808594,96.9010009765625,-5.333297729492188
214799,0.0800323486328125,0.1338653564453125,0.2672576904296875,-1.254618167877197,-0.6332706809043884,-0.0182490441948175,39.318359375,96.92123413085938,-4.83612060546875
214800,0.050201416015625,0.19873046875,0.41754150390625,-1.254618167877197,-0.6332706809043884,-0.0182490441948175,39.3260498046875,97.0494384765625,-4.022354125976562
214801,0.050201416015625,0.19873046875,0.41754150390625,-1.254618167877197,-0.6332706809043884,-0.0182490441948175,39.3260498046875,97.0494384765625,-4.022354125976562
214802,0.0363006591796875,0.2772064208984375,0.821319580078125,-2.547115087509155,2.716712951660156,-0.4819812774658203,38.75633239746094,97.30172729492188,-3.26751708984375
214803,-0.00238037109375,0.642333984375,1.082992553710938,-2.547115087509155,2.716712951660156,-0.4819812774658203,38.12710571289062,97.37052917480467,-3.007888793945312
214804,-0.1021270751953125,1.888900756835938,1.468429565429688,-2.957836866378784,3.091289281845093,-0.9252812266349792,37.39544677734375,97.40130615234376,-3.04547119140625
214805,-0.49871826171875,6.029891967773438,1.85516357421875,-2.581308841705322,2.801264524459839,-0.5781096816062927,36.65057373046875,97.23648071289062,-3.382568359375
214806,-0.49871826171875,6.029891967773438,1.85516357421875,-2.581308841705322,2.801264524459839,-0.5781096816062927,36.65057373046875,97.23648071289062,-3.382568359375
214807,-2.12664794921875,7.979232788085938,2.654891967773438,-0.9691277742385864,4.409028053283691,2.237140893936157,36.30458068847656,97.07424926757812,-5.067794799804688
214808,-1.654647827148438,5.9610595703125,0.5904541015625,0.2180583029985428,4.910538196563721,-0.6443667411804199,37.00064086914062,96.88294982910156,-5.381927490234375
214809,-1.654647827148438,5.9610595703125,0.5904541015625,0.2180583029985428,4.910538196563721,-0.6443667411804199,37.00064086914062,96.88294982910156,-5.381927490234375
214810,0.1001739501953125,0.0030670166015625,-3.128067016601562,-3.31461501121521,-3.904965400695801,-1.172757029533386,36.85968017578125,96.81838989257812,-5.1689453125
214811,0.3116912841796875,0.109619140625,-1.176162719726562,-3.31461501121521,-3.904965400695801,-1.172757029533386,35.3653564453125,96.7876434326172,-4.67041015625
214812,0.7299041748046875,0.936065673828125,-0.703582763671875,-1.973839163780212,-2.997178077697754,0.2902624607086182,34.18600463867188,96.61734008789062,-3.60540771484375
214813,0.7299041748046875,0.936065673828125,-0.703582763671875,-1.973839163780212,-2.997178077697754,0.2902624607086182,34.18600463867188,96.61734008789062,-3.60540771484375
214814,1.082351684570312,1.456405639648438,-0.1906280517578125,1.1939777135849,-1.852607011795044,1.557347059249878,33.76834106445312,95.891357421875,-1.8033447265625
214815,0.6819915771484375,2.052017211914062,-0.3348236083984375,3.471339464187622,-0.8835417628288269,1.966251492500305,34.76322937011719,95.25894165039062,0.0248260498046875
214816,0.4702301025390625,1.859954833984375,-0.3500518798828125,2.995341062545776,-1.054756641387939,1.138779163360596,35.65364074707031,95.85997009277344,-0.7100830078125
214817,0.2158203125,1.386611938476562,-0.2029266357421875,1.596841216087341,-0.8232035636901855,0.1457060724496841,36.44398498535156,96.57969665527344,-2.104171752929688
214818,0.2158203125,1.386611938476562,-0.2029266357421875,1.596841216087341,-0.8232035636901855,0.1457060724496841,36.44398498535156,96.57969665527344,-2.104171752929688
214819,-0.1252899169921875,0.834381103515625,0.1420440673828125,1.286767244338989,-0.375306248664856,0.0777296796441078,37.5206298828125,97.5146484375,-4.132003784179688
214820,-0.12841796875,0.5539093017578125,0.0161590576171875,1.165899395942688,-0.2112842798233032,0.055639561265707,37.75669860839844,97.76666259765624,-4.865081787109375
214821,-0.12841796875,0.5539093017578125,0.0161590576171875,1.165899395942688,-0.2112842798233032,0.055639561265707,37.75669860839844,97.76666259765624,-4.865081787109375
214822,-0.1285400390625,0.118408203125,-0.2492218017578125,1.362380027770996,-0.8526269793510437,0.08918047696352,38.1282958984375,97.87149047851562,-5.867401123046875
214823,-0.1063995361328125,0.0046844482421875,-0.1329498291015625,1.514224171638489,-0.9736029505729676,0.1140003353357315,38.27934265136719,97.9540557861328,-6.275482177734375
214824,-0.068084716796875,-0.0590362548828125,0.004669189453125,1.498456835746765,-0.6249576210975647,0.1118690073490143,38.41775512695312,98.1879425048828,-6.874603271484375
214825,-0.068084716796875,-0.0590362548828125,0.004669189453125,1.498456835746765,-0.6249576210975647,0.1118690073490143,38.41775512695312,98.1879425048828,-6.874603271484375
214826,-0.0088043212890625,-0.1082000732421875,0.0017547607421875,1.16982114315033,0.0222291387617588,0.101948469877243,38.39932250976562,98.4578857421875,-7.432510375976562
214827,0.0844268798828125,-0.12945556640625,-0.0287017822265625,1.065378665924072,0.0811734125018119,0.0793012157082557,38.50141906738281,98.82395935058594,-8.484527587890625
214828,0.10772705078125,-0.1405181884765625,0.04534912109375,0.991135597229004,0.1964281052350998,0.044306743890047,38.53955078125,98.87028503417967,-9.021713256835938
214829,0.10772705078125,-0.1405181884765625,0.04534912109375,0.991135597229004,0.1964281052350998,0.044306743890047,38.53955078125,98.87028503417967,-9.021713256835938
214830,0.1114959716796875,-0.1365203857421875,0.0739593505859375,0.9219456315040588,0.3304937481880188,-0.0015592807903885,38.68858337402344,98.79913330078124,-9.151275634765623
214831,0.0961151123046875,-0.136993408203125,0.0880584716796875,0.8123088479042053,0.4026840627193451,-0.0754108652472496,38.84661865234375,98.97171020507812,-9.961456298828123
214832,0.081939697265625,-0.12158203125,0.108154296875,0.7637929916381836,0.4113811552524567,-0.099587045609951,38.83570861816406,98.8954620361328,-9.935302734375
214833,0.081939697265625,-0.12158203125,0.108154296875,0.7637929916381836,0.4113811552524567,-0.099587045609951,38.83570861816406,98.8954620361328,-9.935302734375
214834,0.0565948486328125,-0.1209716796875,0.1209716796875,0.5896899104118347,0.3769014775753021,-0.1762125790119171,38.98556518554688,98.6542510986328,-10.39036560058594
214835,0.04095458984375,-0.1262359619140625,0.116485595703125,0.4054311215877533,0.2901553809642792,-0.2203187942504883,39.06837463378906,98.68701171875,-10.45269775390625
214836,0.0224761962890625,-0.1233978271484375,0.110626220703125,0.1567699015140533,0.1766884922981262,-0.2696067094802856,39.01524353027344,98.6925811767578,-10.49502563476562
214837,0.0224761962890625,-0.1233978271484375,0.110626220703125,0.1567699015140533,0.1766884922981262,-0.2696067094802856,39.01524353027344,98.6925811767578,-10.49502563476562
214838,0.0062255859375,-0.122161865234375,0.0996856689453125,-0.4264759421348572,-0.0343356020748615,-0.3970072865486145,38.99942016601562,98.60739135742188,-10.33805847167969
214839,-0.0216827392578125,-0.1238250732421875,0.0685577392578125,-0.9057559967041016,-0.1909742206335068,-0.5255982875823975,39.09437561035156,98.44183349609376,-9.812942504882812
214840,-0.035247802734375,-0.12811279296875,0.03851318359375,-0.9057559967041016,-0.1909742206335068,-0.5255982875823975,39.06181335449219,98.33404541015624,-9.292572021484377
214841,-0.05853271484375,-0.13995361328125,-0.085662841796875,-1.071560621261597,-0.376127302646637,-0.5788514018058777,39.06330871582031,98.4044189453125,-8.863906860351562
214842,-0.05853271484375,-0.13995361328125,-0.085662841796875,-1.071560621261597,-0.376127302646637,-0.5788514018058777,39.06330871582031,98.4044189453125,-8.863906860351562
214843,-0.148712158203125,0.025909423828125,-0.39031982421875,-1.278440117835999,-2.252733945846558,-0.7363590002059937,38.88542175292969,98.36166381835938,-7.48370361328125
214844,-0.13543701171875,0.211883544921875,0.04034423828125,-1.383496761322021,-2.595271348953247,-0.8781190514564514,38.78755187988281,98.2494659423828,-6.581069946289062
214845,-0.13543701171875,0.211883544921875,0.04034423828125,-1.383496761322021,-2.595271348953247,-0.8781190514564514,38.78755187988281,98.2494659423828,-6.581069946289062
214846,-0.1815948486328125,0.432861328125,0.7074432373046875,-1.990675926208496,0.505689263343811,-1.050993919372559,38.21096801757812,98.18809509277344,-4.961166381835938
214847,-0.2438812255859375,0.8214569091796875,0.7216949462890625,-2.657072305679321,0.5877974629402161,-1.292693614959717,37.60408020019531,98.1785125732422,-4.551544189453125
214848,-0.5250091552734375,2.298202514648438,0.9272308349609376,-3.453926086425781,-0.0835558772087097,-1.578617453575134,36.87574768066406,97.96156311035156,-4.18701171875
214849,-0.6815185546875,6.738433837890625,1.160842895507812,-3.036633729934692,-0.315151035785675,-0.4567664861679077,36.0504150390625,97.6610870361328,-3.9010009765625
214850,-0.6815185546875,6.738433837890625,1.160842895507812,-3.036633729934692,-0.315151035785675,-0.4567664861679077,36.0504150390625,97.6610870361328,-3.9010009765625
214851,-1.0721435546875,8.165328979492188,0.9353790283203124,-1.706179738044739,-1.202452063560486,1.369400382041931,35.46255493164062,97.4395751953125,-4.046829223632812
214852,0.280059814453125,3.509933471679688,-0.643768310546875,0.7569404244422913,0.1295942068099976,0.1857890337705612,35.63726806640625,97.43492126464844,-3.520553588867188
214853,0.280059814453125,3.509933471679688,-0.643768310546875,0.7569404244422913,0.1295942068099976,0.1857890337705612,35.63726806640625,97.43492126464844,-3.520553588867188
214854,0.56793212890625,1.430694580078125,-1.781890869140625,1.455278515815735,-0.8793888092041016,0.8571479916572571,35.76376342773438,97.32785034179688,-2.764938354492188
214855,0.5154571533203125,1.470260620117188,-0.1779022216796875,1.673833727836609,-0.344115823507309,0.33937007188797,35.76564025878906,97.41807556152344,-2.438034057617188
214856,0.490081787109375,1.71002197265625,-0.2671356201171875,1.51633632183075,-0.5971686244010925,-0.1197857856750488,36.15927124023438,97.65467834472656,-2.471420288085938
214857,0.490081787109375,1.71002197265625,-0.2671356201171875,1.51633632183075,-0.5971686244010925,-0.1197857856750488,36.15927124023438,97.65467834472656,-2.471420288085938
214858,0.260986328125,1.602874755859375,-0.28564453125,1.096550703048706,-1.092455267906189,-0.3236848711967468,36.54255676269531,97.67169189453124,-2.899032592773438
214859,-0.0255889892578125,1.046859741210938,-0.2044219970703125,1.156687021255493,-1.19421660900116,-0.2299786061048508,36.79740905761719,97.5392608642578,-4.175567626953125
214860,0.01953125,0.819183349609375,-0.067901611328125,1.225425124168396,-1.018201589584351,-0.0842959731817245,36.90452575683594,97.51812744140624,-4.634506225585938
214861,0.01953125,0.819183349609375,-0.067901611328125,1.225425124168396,-1.018201589584351,-0.0842959731817245,36.90452575683594,97.51812744140624,-4.634506225585938
214862,0.059844970703125,0.58319091796875,-0.0899505615234375,1.493791818618774,-0.4583121836185455,0.1884191781282425,36.92372131347656,97.48899841308594,-4.960494995117188
214863,0.0152130126953125,0.207061767578125,0.006622314453125,1.625805258750916,-0.0063018379732966,0.2088597416877747,37.06997680664062,97.65118408203124,-5.736785888671875
214864,-0.02972412109375,0.0615997314453125,0.05511474609375,1.596289157867432,0.4810774028301239,0.1610551923513412,37.07632446289062,97.67333984375,-6.083724975585938
214865,-0.02972412109375,0.0615997314453125,0.05511474609375,1.596289157867432,0.4810774028301239,0.1610551923513412,37.07632446289062,97.67333984375,-6.083724975585938
214866,-0.080047607421875,-0.028717041015625,0.0762176513671875,1.408875107765198,0.873148500919342,0.0692712143063545,37.30967712402344,97.66090393066406,-6.562484741210938
214867,-0.1696014404296875,-0.1329498291015625,0.1241302490234375,0.892041802406311,1.430232048034668,-0.1582474261522293,37.33097839355469,98.09332275390624,-8.232330322265625
214868,-0.2070465087890625,-0.1466827392578125,0.1337127685546875,0.6850782036781311,1.667318105697632,-0.2463019192218781,37.23782348632812,98.06565856933594,-8.945480346679688
214869,-0.2070465087890625,-0.1466827392578125,0.1337127685546875,0.6850782036781311,1.667318105697632,-0.2463019192218781,37.23782348632812,98.06565856933594,-8.945480346679688
214870,-0.22650146484375,-0.157989501953125,0.1092987060546875,0.5153374075889587,1.829316020011902,-0.3153262734413147,37.24891662597656,98.09375,-9.670501708984377
214871,-0.2371063232421875,-0.16485595703125,-0.021209716796875,0.2208649963140488,1.667113780975342,-0.4062833189964294,37.07868957519531,98.06475830078124,-10.75711059570312
214872,-0.2401275634765625,-0.186614990234375,-0.096923828125,0.0956599488854408,1.403879761695862,-0.4394913613796234,36.94499206542969,97.968994140625,-11.061279296875
214873,-0.2474822998046875,-0.224853515625,-0.18109130859375,-0.1695690602064133,0.7331394553184509,-0.4318451583385468,36.71705627441406,98.039306640625,-11.2734375
214874,-0.2474822998046875,-0.224853515625,-0.18109130859375,-0.1695690602064133,0.7331394553184509,-0.4318451583385468,36.71705627441406,98.039306640625,-11.2734375
214875,-0.2004547119140625,-0.3151702880859375,-0.2790069580078125,-0.3573291003704071,0.4786360859870911,-0.3573578596115112,36.31585693359375,97.9324951171875,-11.70574951171875
214876,-0.14801025390625,-0.33331298828125,-0.2346343994140625,-0.637930154800415,0.3877924680709839,-0.2330697327852249,36.077880859375,97.91015625,-11.51103210449219
214877,-0.087921142578125,-0.316253662109375,-0.196197509765625,-0.9269893765449524,0.3881804943084717,-0.074646271765232,35.90605163574219,97.94935607910156,-11.38853454589844
214878,-0.087921142578125,-0.316253662109375,-0.196197509765625,-0.9269893765449524,0.3881804943084717,-0.074646271765232,35.90605163574219,97.94935607910156,-11.38853454589844
214879,0.01641845703125,-0.2342071533203125,-0.1217041015625,-0.9793849587440492,0.1474288702011108,0.1480131596326828,35.75413513183594,97.88619995117188,-10.3992919921875
214880,0.05804443359375,-0.2094573974609375,-0.1500244140625,-0.9793849587440492,0.1474288702011108,0.1480131596326828,35.78948974609375,98.0114288330078,-9.603958129882812
214881,0.05804443359375,-0.2094573974609375,-0.1500244140625,-0.9793849587440492,0.1474288702011108,0.1480131596326828,35.78948974609375,98.0114288330078,-9.603958129882812
214882,0.0925140380859375,-0.2064971923828125,-0.2037200927734375,-0.785136878490448,-0.0738305449485778,0.1555017083883286,35.98298645019531,98.01611328125,-8.872329711914062
214883,0.1735076904296875,-0.01678466796875,-0.2211761474609375,-0.5397311449050903,-0.4041032791137695,0.1347586065530777,36.40505981445312,97.78115844726562,-7.4522705078125
214884,0.0906524658203125,0.2180328369140625,-0.2499542236328125,-0.6119211912155151,-0.3867980539798737,0.0814248174428939,36.4395751953125,97.9230499267578,-7.011062622070312
214885,0.0906524658203125,0.2180328369140625,-0.2499542236328125,-0.6119211912155151,-0.3867980539798737,0.0814248174428939,36.4395751953125,97.9230499267578,-7.011062622070312
214886,0.00653076171875,0.2620086669921875,0.14776611328125,-1.006356358528137,-0.2271529883146286,-0.0257596913725137,36.28314208984375,98.09970092773438,-6.021163940429688
214887,0.017913818359375,0.2097320556640625,0.534698486328125,-1.186524033546448,0.3534254431724548,-0.1252532601356506,36.13337707519531,97.9626922607422,-5.74420166015625
214888,0.0232391357421875,0.2992706298828125,0.7021942138671875,-1.309772133827209,1.08077597618103,-0.2347027808427811,35.90733337402344,97.84585571289062,-5.5693359375
214889,0.0542449951171875,0.7901153564453125,0.879058837890625,-1.501796245574951,1.726184010505676,-0.3450356721878052,35.48916625976562,97.80551147460938,-5.852035522460938
214890,0.0542449951171875,0.7901153564453125,0.879058837890625,-1.501796245574951,1.726184010505676,-0.3450356721878052,35.48916625976562,97.80551147460938,-5.852035522460938
214891,-0.1837921142578125,6.083023071289062,1.776565551757812,-2.053516626358032,1.637356996536255,1.98113214969635,35.0601806640625,97.73504638671876,-7.340057373046875
214892,-1.075149536132812,7.570953369140625,2.324676513671875,-1.853096127510071,1.425075650215149,1.842772483825684,35.64584350585938,97.71426391601562,-7.79461669921875
214893,-1.464324951171875,6.99920654296875,2.15655517578125,-1.163930535316467,1.665423274040222,-0.555738627910614,36.57122802734375,97.51626586914062,-7.396453857421875
214894,-1.464324951171875,6.99920654296875,2.15655517578125,-1.163930535316467,1.665423274040222,-0.555738627910614,36.57122802734375,97.51626586914062,-7.396453857421875
214895,-0.5869598388671875,2.051849365234375,0.310516357421875,-1.29546856880188,0.3096372187137604,-1.912441492080688,36.51704406738281,96.80720520019533,-5.585693359375
214896,-0.4674835205078125,1.2225341796875,-0.2530059814453125,-1.396544575691223,0.1374049931764603,-1.675027370452881,35.48417663574219,96.6402587890625,-4.85516357421875
214897,-0.4674835205078125,1.2225341796875,-0.2530059814453125,-1.396544575691223,0.1374049931764603,-1.675027370452881,35.48417663574219,96.6402587890625,-4.85516357421875
214898,0.5069580078125,1.635009765625,-2.522720336914062,-2.430301189422607,-2.408066034317017,0.5909171104431152,33.304931640625,96.30953979492188,-3.923751831054688
214899,0.5503082275390625,1.839508056640625,-0.2672119140625,0.8718140125274658,-1.583773374557495,1.227387547492981,33.01950073242188,95.9736785888672,-2.70001220703125
214900,0.423126220703125,1.769058227539062,0.316162109375,2.964805603027344,-0.6041349172592163,1.324265599250793,33.40411376953125,95.83171081542967,-1.781204223632812
214901,0.423126220703125,1.769058227539062,0.316162109375,2.964805603027344,-0.6041349172592163,1.324265599250793,33.40411376953125,95.83171081542967,-1.781204223632812
214902,0.339324951171875,1.713058471679688,0.16937255859375,3.316896438598633,0.2224775403738022,1.396131277084351,33.90121459960938,96.14048767089844,-2.007339477539062
214903,0.2290191650390625,1.3729248046875,-0.2382354736328125,1.433446168899536,-0.5081058144569397,0.7875670194625854,35.05184936523438,97.17828369140624,-4.323333740234375
214904,0.1065521240234375,1.016189575195312,0.035247802734375,0.6132658123970032,-0.5065537691116333,0.4138389825820923,35.5469970703125,97.4135284423828,-5.229705810546875
214905,0.0399932861328125,0.7419891357421875,-0.0582122802734375,0.3095048666000366,-0.3501737117767334,0.2460380047559738,35.92976379394531,97.52688598632812,-5.6597900390625
214906,0.0399932861328125,0.7419891357421875,-0.0582122802734375,0.3095048666000366,-0.3501737117767334,0.2460380047559738,35.92976379394531,97.52688598632812,-5.6597900390625
214907,-0.0300445556640625,0.3557281494140625,-0.5818328857421875,1.041736960411072,-1.125235080718994,0.233657494187355,36.33709716796875,97.76402282714844,-5.845367431640625
214908,-0.1101226806640625,0.2588958740234375,-0.36932373046875,1.580843329429626,-1.094041228294373,0.1624898463487625,36.4486083984375,97.90411376953124,-5.896575927734375
214909,-0.1101226806640625,0.2588958740234375,-0.36932373046875,1.580843329429626,-1.094041228294373,0.1624898463487625,36.4486083984375,97.90411376953124,-5.896575927734375
214910,-0.18365478515625,0.1550445556640625,-0.145782470703125,1.616050362586975,-0.1285358667373657,0.0464519187808036,36.50477600097656,98.11524963378906,-6.30828857421875
214911,-0.1578826904296875,0.117340087890625,-0.160369873046875,1.331331014633179,0.5708549618721008,0.0186431929469108,36.63493347167969,98.3605499267578,-6.866348266601562
214912,-0.0639495849609375,0.171234130859375,-0.03717041015625,0.9023604393005372,0.4529488384723663,-0.0773142278194427,36.74903869628906,98.43904113769533,-8.096633911132812
214913,-0.0639495849609375,0.171234130859375,-0.03717041015625,0.9023604393005372,0.4529488384723663,-0.0773142278194427,36.74903869628906,98.43904113769533,-8.096633911132812
214914,0.0375518798828125,0.0367431640625,0.0386199951171875,0.6728678941726685,0.1446072459220886,-0.1857296526432037,36.93328857421875,98.392822265625,-9.09515380859375
214915,0.0848846435546875,-0.0512847900390625,0.027618408203125,0.6187921166419983,-0.0023092268966138,-0.1651759147644043,36.86630249023438,98.40199279785156,-9.350906372070312
214916,0.097320556640625,-0.116943359375,-0.0069580078125,0.622923731803894,-0.2033938616514206,-0.1294903457164764,36.95748901367188,98.16156005859376,-9.623306274414062
214917,0.093109130859375,-0.1360321044921875,-0.0291900634765625,0.6754165291786194,-0.3863452970981598,-0.1000259295105934,36.89993286132812,98.21163940429688,-9.804336547851562
214918,0.093109130859375,-0.1360321044921875,-0.0291900634765625,0.6754165291786194,-0.3863452970981598,-0.1000259295105934,36.89993286132812,98.21163940429688,-9.804336547851562
214919,0.0724334716796875,-0.1289215087890625,0.0047760009765625,0.6786503791809082,-0.493017703294754,-0.0250307843089103,36.92164611816406,98.22767639160156,-9.804794311523438
214920,0.056884765625,-0.111083984375,-0.0040283203125,0.6786503791809082,-0.493017703294754,-0.0250307843089103,36.91099548339844,98.42512512207033,-9.82684326171875
214921,0.056884765625,-0.111083984375,-0.0040283203125,0.6786503791809082,-0.493017703294754,-0.0250307843089103,36.91099548339844,98.42512512207033,-9.82684326171875
214922,0.0195770263671875,-0.0961456298828125,0.0244903564453125,0.4207829236984253,-0.4392194449901581,-0.0847977101802825,36.93296813964844,98.4945068359375,-9.88262939453125
214923,0.0013885498046875,-0.0911407470703125,0.0412139892578125,0.2002822309732437,-0.4088735282421112,-0.1491988003253937,36.99397277832031,98.45169067382812,-9.812179565429688
214924,-0.013885498046875,-0.0937042236328125,0.05596923828125,-0.0701977312564849,-0.3740132749080658,-0.2202189266681671,37.06459045410156,98.42091369628906,-9.75689697265625
214925,-0.013885498046875,-0.0937042236328125,0.05596923828125,-0.0701977312564849,-0.3740132749080658,-0.2202189266681671,37.06459045410156,98.42091369628906,-9.75689697265625
214926,-0.0303497314453125,-0.097808837890625,0.071685791015625,-0.3694259822368622,-0.3620865643024445,-0.2881500422954559,37.07426452636719,98.42710876464844,-9.5421142578125
214927,-0.0462799072265625,-0.0986480712890625,0.0947418212890625,-0.6689402461051941,-0.3841862976551056,-0.3490884900093079,37.14749145507812,98.39353942871094,-9.267074584960938
214928,-0.0868988037109375,-0.08056640625,0.1270904541015625,-1.196045637130737,-0.4545680284500122,-0.5235409736633301,37.21534729003906,98.23129272460938,-7.91790771484375
214929,-0.0868988037109375,-0.08056640625,0.1270904541015625,-1.196045637130737,-0.4545680284500122,-0.5235409736633301,37.21534729003906,98.23129272460938,-7.91790771484375
214930,-0.1329803466796875,-0.029083251953125,0.120361328125,-1.409754395484924,-0.5355774164199829,-0.6574042439460754,37.1444091796875,98.09352111816406,-7.041000366210938
214931,-0.1959381103515625,0.341644287109375,-0.1071624755859375,-1.579980731010437,-0.8209007382392883,-1.019733190536499,36.66860961914062,97.96412658691406,-5.839263916015625
214932,-0.2958831787109375,0.5478515625,0.0548248291015625,-1.662598967552185,-0.5850973129272461,-1.158952355384827,36.2252197265625,97.74432373046876,-5.127166748046875
214933,-0.2958831787109375,0.5478515625,0.0548248291015625,-1.662598967552185,-0.5850973129272461,-1.158952355384827,36.2252197265625,97.74432373046876,-5.127166748046875
214934,-0.4632415771484375,0.82086181640625,0.70159912109375,-2.742866516113281,0.4598075449466705,-1.324791312217712,35.68067932128906,97.4641571044922,-4.5611572265625
214935,-0.327178955078125,5.742279052734375,0.7475738525390625,-2.642783641815186,-0.528626561164856,-0.8315305113792419,34.46070861816406,96.96369934082033,-3.89630126953125
214936,-0.5625,8.073516845703125,0.95697021484375,-1.750701069831848,-2.376328229904175,0.5659483671188354,33.86553955078125,97.04458618164062,-3.857833862304688
214937,-0.5625,8.073516845703125,0.95697021484375,-1.750701069831848,-2.376328229904175,0.5659483671188354,33.86553955078125,97.04458618164062,-3.857833862304688
214938,-0.6383819580078125,7.621826171875,1.45135498046875,-0.0446670688688755,-1.917264461517334,-0.0831241831183433,33.74720764160156,97.1132354736328,-3.439239501953125
214939,0.219573974609375,1.816177368164062,-0.423614501953125,1.115127086639404,0.0500924624502658,0.6927118897438049,34.11080932617188,96.84933471679688,-2.300201416015625
214940,0.103790283203125,1.256546020507812,-0.837158203125,1.53909432888031,-0.6384265422821045,0.7452664375305176,34.1336669921875,96.79159545898438,-2.03253173828125
214941,0.2074127197265625,1.261962890625,-0.6434478759765625,1.749150395393372,-0.6147491931915283,0.2913934886455536,34.38279724121094,96.91419982910156,-2.022750854492188
214942,0.38006591796875,1.535964965820312,-0.585296630859375,1.517145037651062,-0.6744929552078247,-0.1184483468532562,34.64482116699219,97.14044189453124,-2.385482788085938
214943,0.34197998046875,1.5430908203125,-0.4529266357421875,1.2229243516922,-1.007140398025513,-0.1356699466705322,34.93026733398438,97.1351318359375,-3.01263427734375
214944,0.2189788818359375,1.262725830078125,-0.3350067138671875,1.078184247016907,-1.099782705307007,0.0293986350297927,35.03167724609375,96.95033264160156,-3.524169921875
214945,0.2189788818359375,1.262725830078125,-0.3350067138671875,1.078184247016907,-1.099782705307007,0.0293986350297927,35.03167724609375,96.95033264160156,-3.524169921875
214946,0.1841278076171875,1.000579833984375,-0.2913665771484375,1.166671514511108,-1.035606384277344,0.3162104189395905,35.26473999023438,96.85871887207033,-4.098037719726562
214947,0.077484130859375,0.861114501953125,-0.0550079345703125,1.492055177688599,-0.71467125415802,0.636599063873291,35.81484985351562,96.97366333007812,-4.836990356445312
214948,0.0481719970703125,0.789642333984375,0.0811004638671875,1.322002768516541,-0.1673871278762817,0.5288891196250916,36.23577880859375,97.05305480957033,-5.155410766601562
214949,0.006256103515625,0.6344451904296875,0.013946533203125,1.03688371181488,0.3105911612510681,0.3868031203746796,36.69673156738281,97.1265869140625,-5.680419921875
214950,0.006256103515625,0.6344451904296875,0.013946533203125,1.03688371181488,0.3105911612510681,0.3868031203746796,36.69673156738281,97.1265869140625,-5.680419921875
214951,-0.1373291015625,0.2983245849609375,-0.087371826171875,0.9000179171562195,0.5337494015693665,0.00739959301427,37.19380187988281,97.25750732421876,-6.637893676757812
214952,-0.20758056640625,0.1437835693359375,-0.01226806640625,0.951454222202301,0.721919596195221,-0.1415254324674606,37.33796691894531,97.36610412597656,-7.193756103515625
214953,-0.20758056640625,0.1437835693359375,-0.01226806640625,0.951454222202301,0.721919596195221,-0.1415254324674606,37.33796691894531,97.36610412597656,-7.193756103515625
214954,-0.2529296875,-0.0014190673828125,0.0276641845703125,0.8740252256393433,1.20674729347229,-0.1291278898715973,37.3360595703125,97.34698486328124,-7.664718627929688
214955,-0.2355804443359375,-0.149688720703125,0.010986328125,0.7259745001792908,1.31541121006012,-0.0488447695970535,37.147216796875,97.42282104492188,-8.753280639648438
214956,-0.22088623046875,-0.1682891845703125,-0.00616455078125,0.5564760565757751,1.346303582191467,-0.0034935346338897,37.01315307617188,97.4190673828125,-9.298355102539062
214957,-0.204315185546875,-0.1693572998046875,-0.0261993408203125,0.3895821273326874,1.350947022438049,-0.0042322957888245,37.01644897460938,97.60881042480467,-9.899124145507812
214958,-0.204315185546875,-0.1693572998046875,-0.0261993408203125,0.3895821273326874,1.350947022438049,-0.0042322957888245,37.01644897460938,97.60881042480467,-9.899124145507812
214959,-0.1509246826171875,-0.15594482421875,-0.079437255859375,0.0841700062155723,1.223058104515076,-0.0587693080306053,36.76850891113281,97.82522583007812,-10.63496398925781
214960,-0.140380859375,-0.1697845458984375,-0.0807342529296875,-0.0875799134373664,1.155372500419617,-0.0954615399241447,36.68893432617188,97.88815307617188,-10.70555114746094
214961,-0.1365966796875,-0.204132080078125,-0.077789306640625,-0.2972375452518463,1.167366504669189,-0.1054033860564232,36.68330383300781,98.07742309570312,-10.86306762695312
214962,-0.1365966796875,-0.204132080078125,-0.077789306640625,-0.2972375452518463,1.167366504669189,-0.1054033860564232,36.68330383300781,98.07742309570312,-10.86306762695312
214963,-0.0836181640625,-0.260955810546875,-0.137603759765625,-0.9141558408737184,1.053783059120178,0.1416010707616806,36.76844787597656,98.42221069335938,-10.60795593261719
214964,-0.012847900390625,-0.275543212890625,-0.3248291015625,-0.9141558408737184,1.053783059120178,0.1416010707616806,37.03720092773438,98.5738525390625,-9.970733642578123
214965,0.026031494140625,-0.309814453125,-0.39697265625,-0.7090983390808105,-0.0674277767539024,0.359985888004303,37.36167907714844,98.594970703125,-9.002487182617188
214966,0.0267333984375,-0.3430328369140625,-0.28338623046875,-0.6187479496002197,-0.0838528200984001,0.456523060798645,37.90574645996094,98.34114074707033,-8.011276245117188
214967,0.0208740234375,-0.370025634765625,-0.1891632080078125,-0.4841397702693939,-0.0847636237740516,0.5166577696800232,38.55525207519531,97.82452392578124,-6.742279052734375
214968,0.0327606201171875,-0.352020263671875,-0.1880340576171875,-0.4841397702693939,-0.0847636237740516,0.5166577696800232,39.14590454101562,97.05671691894533,-5.643280029296875
214969,0.0302886962890625,-0.278839111328125,-0.21795654296875,-0.1716505885124207,-0.3257072567939758,0.4845890402793884,39.76670837402344,95.61848449707033,-4.716140747070312
214970,0.0302886962890625,-0.278839111328125,-0.21795654296875,-0.1716505885124207,-0.3257072567939758,0.4845890402793884,39.76670837402344,95.61848449707033,-4.716140747070312
214971,0.0123748779296875,-0.12860107421875,-0.23309326171875,-0.1730365008115768,-0.3503327071666718,0.3109051585197449,39.9637451171875,95.09010314941406,-4.495834350585938
214972,-0.0343170166015625,0.2365875244140625,-0.203338623046875,-0.3660221993923187,-0.2918680608272552,0.1202814057469368,40.01986694335938,94.8274383544922,-4.275482177734375
214973,-0.050079345703125,0.29913330078125,0.115753173828125,-0.7025077939033508,-0.1548532247543335,0.0763999670743942,40.10939025878906,94.78341674804688,-4.418243408203125
214974,-0.050079345703125,0.29913330078125,0.115753173828125,-0.7025077939033508,-0.1548532247543335,0.0763999670743942,40.10939025878906,94.78341674804688,-4.418243408203125
214975,-0.0239410400390625,0.2598724365234375,0.5861358642578125,-1.845724821090698,1.082800030708313,-0.0740454643964767,40.16508483886719,95.12161254882812,-4.33837890625
214976,-0.0221099853515625,0.5275115966796875,1.007644653320312,-2.357158899307251,1.548167705535889,-0.2445277273654938,39.77655029296875,96.53581237792967,-3.652023315429688
214977,-0.107086181640625,1.090576171875,1.443435668945312,-2.683794736862183,1.601155281066895,-0.4704703092575073,38.90786743164062,97.37905883789062,-3.555145263671875
214978,-0.107086181640625,1.090576171875,1.443435668945312,-2.683794736862183,1.601155281066895,-0.4704703092575073,38.90786743164062,97.37905883789062,-3.555145263671875
214979,-0.5809478759765625,7.889053344726562,2.35589599609375,-1.961997628211975,1.315439701080322,1.378379225730896,37.23316955566406,97.98545837402344,-4.85089111328125
214980,-1.448623657226562,8.06805419921875,3.139572143554688,-1.887266635894775,2.170058727264404,3.179184913635254,37.194091796875,98.06413269042967,-6.156814575195312
214981,-1.448623657226562,8.06805419921875,3.139572143554688,-1.887266635894775,2.170058727264404,3.179184913635254,37.194091796875,98.06413269042967,-6.156814575195312
214982,-0.653961181640625,4.092025756835938,-0.0428466796875,-0.967061161994934,2.087867498397827,-2.320192337036133,38.99775695800781,97.80036926269533,-6.839019775390625
214983,-0.0834808349609375,1.379547119140625,-1.433975219726562,-1.652750253677368,0.1336113214492798,-2.290248155593872,38.82821655273438,97.53350830078124,-6.039749145507812
214984,0.5465545654296875,-0.155181884765625,-4.56195068359375,-4.721519470214844,-3.336743116378784,-1.51093327999115,37.52249145507812,97.3521728515625,-5.340667724609375
214985,0.5465545654296875,-0.155181884765625,-4.56195068359375,-4.721519470214844,-3.336743116378784,-1.51093327999115,37.52249145507812,97.3521728515625,-5.340667724609375
214986,1.105178833007812,0.2812042236328125,-2.551177978515625,-3.19188928604126,-4.082169055938721,0.096726544201374,36.08660888671875,96.72384643554688,-4.002655029296875
214987,0.65252685546875,1.294357299804688,0.5900421142578125,3.708182573318481,-1.242788672447205,1.593175172805786,35.3341064453125,95.3621826171875,-0.135955810546875
214988,0.4723968505859375,1.3092041015625,0.269775390625,4.0420241355896,0.3003438413143158,1.634172916412354,35.96945190429688,95.434814453125,0.427001953125
214989,0.3740692138671875,1.120620727539062,-0.6257171630859375,0.661404013633728,-0.6025692224502563,0.4483596682548523,37.42532348632812,96.62458801269533,-1.88983154296875
214990,0.3740692138671875,1.120620727539062,-0.6257171630859375,0.661404013633728,-0.6025692224502563,0.4483596682548523,37.42532348632812,96.62458801269533,-1.88983154296875
214991,0.1631011962890625,0.8874969482421875,-0.0486907958984375,0.2593881487846375,-0.2619511783123016,0.2042910903692245,38.00712585449219,97.21205139160156,-3.259323120117188
214992,0.0700531005859375,0.6134033203125,0.0403594970703125,0.2593881487846375,-0.2619511783123016,0.2042910903692245,38.53782653808594,97.3222198486328,-3.792694091796875
214993,0.0605010986328125,0.407684326171875,-0.210296630859375,0.2589407563209534,-0.2566554844379425,0.1589220017194748,38.85543823242188,97.29600524902344,-3.4776611328125
214994,0.0440216064453125,0.229949951171875,-0.454010009765625,0.9809229373931884,-1.328226566314697,0.1466488242149353,39.20863342285156,97.23573303222656,-3.098281860351562
214995,0.0300140380859375,0.1124114990234375,-0.41973876953125,0.9809229373931884,-1.328226566314697,0.1466488242149353,39.347412109375,97.3232421875,-3.112197875976562
214996,0.0187835693359375,0.054290771484375,-0.1839447021484375,1.279638290405273,-1.369460582733154,0.0849401876330375,39.49557495117188,97.60694885253906,-3.639175415039062
214997,0.0140533447265625,-0.0042877197265625,-0.070465087890625,1.289504766464233,-1.006597638130188,-0.0204831715673208,39.60354614257812,97.76942443847656,-4.148590087890625
214998,0.0363006591796875,-0.086456298828125,-0.1228485107421875,0.8835180401802063,-0.6620684862136841,-0.1514278650283813,39.812744140625,98.04747009277344,-4.673965454101562
214999,0.0823516845703125,-0.15069580078125,-0.1543731689453125,0.8835180401802063,-0.6620684862136841,-0.1514278650283813,39.80406188964844,98.2860107421875,-5.228057861328125
215000,0.1120452880859375,-0.1715850830078125,-0.0391998291015625,0.7496790289878845,-0.6058396100997925,-0.1700710654258728,39.90132141113281,98.41949462890624,-5.687225341796875
215001,0.1175537109375,-0.1740264892578125,0.079925537109375,0.6939012408256531,-0.3758199512958527,-0.1973724663257599,39.87168884277344,98.49755859375,-5.98309326171875
215002,0.1106414794921875,-0.160003662109375,0.117095947265625,0.6786400079727173,-0.0919885113835334,-0.2218450456857681,39.97319030761719,98.45474243164062,-6.23443603515625
215003,0.0944976806640625,-0.14215087890625,0.13665771484375,0.6739518046379089,0.1528002023696899,-0.2423788160085678,39.91293334960938,98.488037109375,-6.425033569335938
215004,0.074005126953125,-0.120361328125,0.1639862060546875,0.6665292978286743,0.3969252407550812,-0.2810729444026947,40.00221252441406,98.59585571289062,-6.5032958984375
215005,0.0547332763671875,-0.10833740234375,0.152801513671875,0.6486583948135376,0.5711042284965515,-0.3321126997470856,39.96726989746094,98.5046844482422,-6.507949829101562
215006,0.0547332763671875,-0.10833740234375,0.152801513671875,0.6486583948135376,0.5711042284965515,-0.3321126997470856,39.96726989746094,98.5046844482422,-6.507949829101562
215007,0.01226806640625,-0.1222991943359375,0.0694427490234375,0.501499354839325,0.3630258738994598,-0.4602440297603607,39.78213500976562,98.53053283691406,-6.738525390625
215008,-0.0142974853515625,-0.1230316162109375,0.0380096435546875,0.3715546429157257,0.0085705853998661,-0.5341374278068542,39.68778991699219,98.47415161132812,-6.787841796875
215009,-0.0346527099609375,-0.118377685546875,0.0240631103515625,0.1942208707332611,-0.39873406291008,-0.6164746284484863,39.63735961914062,98.43731689453124,-6.804275512695312
215010,-0.0346527099609375,-0.118377685546875,0.0240631103515625,0.1942208707332611,-0.39873406291008,-0.6164746284484863,39.63735961914062,98.43731689453124,-6.804275512695312
215011,-0.060699462890625,-0.1030426025390625,0.0234527587890625,-0.2139341235160828,-0.9855139255523682,-0.7970337867736816,39.36289978027344,98.34799194335938,-6.64892578125
215012,-0.081695556640625,-0.0937957763671875,0.039947509765625,-0.4537754952907562,-1.103264331817627,-0.8771610856056213,39.30574035644531,98.45524597167967,-6.214141845703125
215013,-0.1235809326171875,-0.0357666015625,0.0931396484375,-0.7602257132530212,-1.128704428672791,-0.9673394560813904,39.15525817871094,98.45906066894533,-5.924453735351562
215014,-0.1235809326171875,-0.0357666015625,0.0931396484375,-0.7602257132530212,-1.128704428672791,-0.9673394560813904,39.15525817871094,98.45906066894533,-5.924453735351562
215015,-0.130279541015625,0.1900177001953125,0.2714691162109375,-1.626085638999939,-1.059471487998962,-1.051984310150146,38.60185241699219,98.46102905273438,-5.131027221679688
215016,-0.2378692626953125,0.362548828125,0.5294952392578125,-2.10881781578064,-0.7426064610481262,-1.126805782318115,38.23568725585938,98.4512939453125,-4.720245361328125
215017,-0.50146484375,0.85760498046875,1.018035888671875,-2.652292966842651,-0.1461039483547211,-1.324182271957397,37.73518371582031,98.29879760742188,-3.935836791992188
215018,-0.50146484375,0.85760498046875,1.018035888671875,-2.652292966842651,-0.1461039483547211,-1.324182271957397,37.73518371582031,98.29879760742188,-3.935836791992188
215019,-0.729400634765625,7.294143676757812,1.727706909179688,-1.164512991905212,3.556914567947388,0.9624876976013184,36.56886291503906,97.89991760253906,-3.402587890625
215020,-1.203170776367188,8.039596557617188,0.7250823974609375,1.17409873008728,3.583430528640747,2.795236825942993,36.27153015136719,97.87059020996094,-3.689132690429688
215021,0.0186767578125,2.5096435546875,-0.138031005859375,1.307291746139526,-1.832715272903442,-0.3874166905879974,37.12290954589844,98.3505401611328,-5.308853149414062
215022,0.0186767578125,2.5096435546875,-0.138031005859375,1.307291746139526,-1.832715272903442,-0.3874166905879974,37.12290954589844,98.3505401611328,-5.308853149414062
215023,0.2326202392578125,1.240936279296875,-0.1106719970703125,0.3987620174884796,-3.169196128845215,-0.2772547602653503,37.43943786621094,98.6978759765625,-5.82061767578125
215024,0.262359619140625,0.87310791015625,-0.1753387451171875,-0.7591383457183838,-4.060328006744385,-0.1131712943315506,37.14801025390625,98.85588073730467,-5.715866088867188
215025,0.4087982177734375,1.391021728515625,-0.4393463134765625,-1.810791850090027,-3.932887077331543,-0.3931009471416473,36.88777160644531,98.66744995117188,-5.160614013671875
215026,0.4087982177734375,1.391021728515625,-0.4393463134765625,-1.810791850090027,-3.932887077331543,-0.3931009471416473,36.88777160644531,98.66744995117188,-5.160614013671875
215027,0.8778228759765625,2.339401245117188,-1.2352294921875,-1.86668872833252,-0.225178524851799,-0.2641490995883942,36.76614379882812,98.19219970703124,-3.291778564453125
215028,0.5157623291015625,1.75714111328125,-1.243576049804688,0.6288506388664246,-0.5327507257461548,0.0107051087543368,36.66407775878906,97.62255859375,-1.778717041015625
215029,0.0737152099609375,1.168441772460938,-0.3230438232421875,3.28428316116333,-0.0910894274711608,0.4272770285606384,36.6708984375,97.10008239746094,-0.5962066650390625
215030,0.0737152099609375,1.168441772460938,-0.3230438232421875,3.28428316116333,-0.0910894274711608,0.4272770285606384,36.6708984375,97.10008239746094,-0.5962066650390625
215031,-0.07000732421875,0.8345184326171875,-0.0262908935546875,3.148658275604248,0.1349184066057205,0.4113689064979553,36.93025207519531,97.06179809570312,-0.963409423828125
215032,-0.1142578125,0.654876708984375,0.0196990966796875,2.58073616027832,0.2364711314439774,0.3751848042011261,37.282958984375,97.35902404785156,-2.07733154296875
215033,-0.1535491943359375,0.5024566650390625,0.10369873046875,1.944557666778564,0.4082913398742676,0.2778103053569794,37.51922607421875,97.70303344726562,-3.57708740234375
215034,-0.1535491943359375,0.5024566650390625,0.10369873046875,1.944557666778564,0.4082913398742676,0.2778103053569794,37.51922607421875,97.70303344726562,-3.57708740234375
215035,-0.1539764404296875,0.1624603271484375,0.1620025634765625,0.8889527916908264,1.060894966125488,0.0199369564652442,37.81919860839844,98.2856903076172,-6.218612670898438
215036,-0.1795501708984375,0.010345458984375,0.0753631591796875,0.5486633777618408,1.308464050292969,-0.1051684990525246,37.89556884765625,98.4798583984375,-7.056671142578125
215037,-0.2285308837890625,-0.1330718994140625,-0.0771484375,0.2636564075946808,1.243251204490662,-0.234744593501091,37.81855773925781,98.52761840820312,-7.55694580078125
215038,-0.2285308837890625,-0.1330718994140625,-0.0771484375,0.2636564075946808,1.243251204490662,-0.234744593501091,37.81855773925781,98.52761840820312,-7.55694580078125
215039,-0.256744384765625,-0.26824951171875,-0.2214813232421875,0.3154125511646271,1.127598166465759,-0.202517956495285,37.72648620605469,98.67610168457033,-8.472091674804688
215040,-0.2205352783203125,-0.265228271484375,-0.1978302001953125,0.4476440846920013,1.003544092178345,-0.1557038426399231,37.66696166992188,98.49459838867188,-8.506301879882812
215041,-0.17333984375,-0.2348480224609375,-0.1530609130859375,0.5235183238983154,0.6046909689903259,-0.1582138687372208,37.54472351074219,98.457275390625,-8.609344482421875
215042,-0.17333984375,-0.2348480224609375,-0.1530609130859375,0.5235183238983154,0.6046909689903259,-0.1582138687372208,37.54472351074219,98.457275390625,-8.609344482421875
215043,-0.1042633056640625,-0.2128143310546875,-0.045379638671875,0.3728803694248199,0.4429023265838623,-0.1898820549249649,37.22331237792969,98.62892150878906,-9.174850463867188
215044,-0.0847015380859375,-0.2212677001953125,0.0032958984375,0.1501724570989609,0.426897794008255,-0.2076293528079987,37.26966857910156,98.7931671142578,-9.493942260742188
215045,-0.0600433349609375,-0.237396240234375,0.000213623046875,-0.0967369303107261,0.4915896952152252,-0.1719858795404434,37.21501159667969,98.74607849121094,-9.483551025390623
215046,-0.0600433349609375,-0.237396240234375,0.000213623046875,-0.0967369303107261,0.4915896952152252,-0.1719858795404434,37.21501159667969,98.74607849121094,-9.483551025390623
215047,0.014495849609375,-0.2554779052734375,-0.1924285888671875,-0.4199900925159454,0.3069000244140625,-0.00542858755216,37.24769592285156,98.98280334472656,-9.0194091796875
215048,0.041290283203125,-0.2419281005859375,-0.190338134765625,-0.4467410147190094,-0.0228421986103057,0.0674767792224884,37.3917236328125,98.98741149902344,-8.543792724609375
215049,0.0470428466796875,-0.2171630859375,-0.1190185546875,-0.4397488832473755,-0.2099540382623672,0.1125854030251503,38.01324462890625,98.70054626464844,-7.15447998046875
215050,0.0470428466796875,-0.2171630859375,-0.1190185546875,-0.4397488832473755,-0.2099540382623672,0.1125854030251503,38.01324462890625,98.70054626464844,-7.15447998046875
215051,0.0648956298828125,-0.2206878662109375,-0.13031005859375,-0.4519131481647491,-0.5480703115463257,0.1338400840759277,38.65895080566406,98.04930114746094,-5.787384033203125
215052,0.0810089111328125,-0.236114501953125,-0.15155029296875,-0.4710468947887421,-0.7459450364112854,0.1353756636381149,39.053955078125,97.66250610351562,-5.236358642578125
215053,0.0987091064453125,-0.1717987060546875,-0.1907501220703125,-0.5244304537773132,-0.8330168128013611,0.121839351952076,39.3114013671875,97.3852081298828,-4.76763916015625
215054,0.0987091064453125,-0.1717987060546875,-0.1907501220703125,-0.5244304537773132,-0.8330168128013611,0.121839351952076,39.3114013671875,97.3852081298828,-4.76763916015625
215055,-0.05426025390625,0.2284698486328125,-0.1336669921875,-0.8653172254562378,-0.6235288381576538,0.0995953008532524,39.59266662597656,97.18798828125,-3.855850219726562
215056,-0.0176239013671875,0.2064361572265625,0.1856536865234375,-1.178956389427185,-0.3830485939979553,0.1257728487253189,39.49162292480469,97.21592712402344,-3.282363891601562
215057,0.0166473388671875,0.1744232177734375,0.5196075439453125,-1.496418714523315,0.1798382103443146,0.1016738936305046,39.22024536132812,97.42079162597656,-2.96026611328125
215058,0.0166473388671875,0.1744232177734375,0.5196075439453125,-1.496418714523315,0.1798382103443146,0.1016738936305046,39.22024536132812,97.42079162597656,-2.96026611328125
215059,0.027862548828125,0.545196533203125,1.022857666015625,-1.635190963745117,1.083521723747253,-0.0875740572810173,38.05458068847656,97.75790405273438,-3.031112670898438
215060,0.093780517578125,1.759078979492188,1.343246459960938,-1.580881476402283,1.291201710700989,-0.216833770275116,37.52180480957031,97.81723022460938,-3.362136840820312
215061,0.24493408203125,5.947021484375,1.764556884765625,-1.720140814781189,0.6450844407081604,1.056689023971558,37.09635925292969,97.92071533203124,-4.305831909179688
215062,0.24493408203125,5.947021484375,1.764556884765625,-1.720140814781189,0.6450844407081604,1.056689023971558,37.09635925292969,97.92071533203124,-4.305831909179688
215063,-1.321609497070312,7.957351684570312,3.069915771484375,-2.221805572509766,2.69002628326416,0.724987804889679,38.01884460449219,98.21128845214844,-5.819625854492188
215064,-1.015167236328125,5.887161254882812,1.46917724609375,-1.5782310962677,3.368617534637451,-2.141752004623413,38.92022705078125,97.92984008789062,-5.092529296875
215065,-0.376190185546875,2.673095703125,0.017578125,-1.177986145019531,1.510719180107117,-2.228609561920166,38.75396728515625,97.37588500976562,-4.08367919921875
215066,-0.376190185546875,2.673095703125,0.017578125,-1.177986145019531,1.510719180107117,-2.228609561920166,38.75396728515625,97.37588500976562,-4.08367919921875
215067,0.649993896484375,0.4390716552734375,-4.428970336914062,-1.989209532737732,-6.274631023406982,-0.8798186779022217,36.35720825195312,96.46623229980467,-2.61956787109375
215068,1.137435913085938,0.5669403076171875,-1.746658325195312,-0.8459262251853943,-2.374798536300659,0.9511812925338744,35.44680786132812,96.21209716796876,-1.655303955078125
215069,0.7215423583984375,1.264907836914062,-0.0610504150390625,2.911438941955566,1.631521701812744,1.770977377891541,35.33854675292969,96.201904296875,-0.4293670654296875
215070,0.2916412353515625,1.449493408203125,0.26153564453125,2.911438941955566,1.631521701812744,1.770977377891541,35.92060852050781,96.34226989746094,-0.011993408203125
215071,0.2429962158203125,1.320404052734375,-0.1729736328125,2.786385536193848,1.525652289390564,1.514211297035217,36.67587280273438,96.63458251953124,-0.6482696533203125
215072,0.1752777099609375,1.131378173828125,-0.43084716796875,1.875890493392944,0.2599010765552521,1.117875218391418,37.46890258789062,96.9128875732422,-1.948745727539062
215073,0.0044708251953125,0.8849945068359375,-0.058258056640625,1.013495564460754,-0.3061628639698029,0.610593318939209,38.05403137207031,97.13893127441406,-3.055984497070312
215074,-0.06414794921875,0.641510009765625,0.0611114501953125,0.5159009099006653,-0.166901633143425,0.3256955444812775,38.51861572265625,97.4732666015625,-3.733139038085938
215075,-0.0632476806640625,0.456329345703125,-0.2438201904296875,0.3363266289234161,-0.2254325896501541,0.2674940228462219,38.79859924316406,97.71861267089844,-3.998687744140625
215076,-0.1060943603515625,0.3227386474609375,-0.640716552734375,0.49586221575737,-0.900333821773529,0.2744190394878387,38.91178894042969,97.72314453125,-4.148605346679688
215077,-0.1666717529296875,0.2242279052734375,-0.6033477783203125,0.8974538445472717,-1.282441258430481,0.2301847338676453,38.99002075195312,97.92570495605467,-4.2537841796875
215078,-0.1666717529296875,0.2242279052734375,-0.6033477783203125,0.8974538445472717,-1.282441258430481,0.2301847338676453,38.99002075195312,97.92570495605467,-4.2537841796875
215079,-0.03924560546875,0.1083221435546875,-0.204498291015625,1.579766392707825,0.4381429851055145,0.1421739161014557,39.16719055175781,98.11578369140624,-4.79620361328125
215080,0.065521240234375,0.240570068359375,-0.1127166748046875,1.788528680801392,0.4632347524166107,0.1167604401707649,39.21531677246094,98.32955932617188,-5.464736938476562
215081,0.0702056884765625,0.273956298828125,0.0396881103515625,1.644902229309082,0.2712900936603546,-0.0273296255618333,39.28202819824219,98.4163055419922,-6.2867431640625
215082,0.0702056884765625,0.273956298828125,0.0396881103515625,1.644902229309082,0.2712900936603546,-0.0273296255618333,39.28202819824219,98.4163055419922,-6.2867431640625
215083,0.07611083984375,0.128387451171875,0.2088623046875,1.35685122013092,0.4285745322704315,-0.102147676050663,39.34486389160156,98.68370056152344,-7.986587524414062
215084,0.10211181640625,0.0010986328125,0.1834869384765625,0.9804001450538636,0.6206939220428467,-0.1187298446893692,39.40341186523438,98.79557800292967,-8.621322631835938
215085,0.0914764404296875,-0.1602783203125,-0.2151336669921875,0.5365164279937744,0.1089704260230064,-0.0497236140072345,39.42167663574219,98.94947814941406,-9.512359619140623
215086,0.0914764404296875,-0.1602783203125,-0.2151336669921875,0.5365164279937744,0.1089704260230064,-0.0497236140072345,39.42167663574219,98.94947814941406,-9.512359619140623
215087,0.0930633544921875,-0.1807861328125,-0.2416229248046875,0.5555335283279419,-0.4850950539112091,0.0138090224936604,39.40919494628906,98.96588134765624,-9.393295288085938
215088,0.0887908935546875,-0.1662445068359375,-0.1611785888671875,0.6488003730773926,-0.92709481716156,0.0719956308603286,39.481689453125,98.84442138671876,-9.320114135742188
215089,0.0767974853515625,-0.140869140625,-0.0730438232421875,0.726256251335144,-1.169103264808655,0.0856051817536354,39.50895690917969,98.8181610107422,-9.320632934570312
215090,0.0590362548828125,-0.1246337890625,0.0243377685546875,0.7248213887214661,-1.200551390647888,0.0373598895967006,39.58526611328125,98.87213134765624,-9.388458251953123
215091,0.0447235107421875,-0.11151123046875,0.1002044677734375,0.4692215621471405,-0.8421804904937744,-0.1701134145259857,39.77323913574219,98.88259887695312,-9.348297119140623
215092,0.032806396484375,-0.1096649169921875,0.1427001953125,0.2463895380496979,-0.5853551030158997,-0.2849537134170532,39.82929992675781,98.77670288085938,-9.181228637695312
215093,0.0223388671875,-0.1128997802734375,0.1492462158203125,0.2463895380496979,-0.5853551030158997,-0.2849537134170532,40.02169799804688,98.86134338378906,-9.087158203125
215094,0.0223388671875,-0.1128997802734375,0.1492462158203125,0.2463895380496979,-0.5853551030158997,-0.2849537134170532,40.02169799804688,98.86134338378906,-9.087158203125
215095,-0.006622314453125,-0.127410888671875,0.1020050048828125,-0.3858145475387573,-0.2978828251361847,-0.4892977774143219,40.05464172363281,98.75823974609376,-8.403213500976562
215096,-0.0301666259765625,-0.13104248046875,0.0541534423828125,-0.770636796951294,-0.3109291195869446,-0.5632466077804565,40.11503601074219,98.61611938476562,-8.12677001953125
215097,-0.10064697265625,0.1338958740234375,-0.22344970703125,-1.382335543632507,-1.261473059654236,-0.750680685043335,39.75018310546875,98.40931701660156,-7.4659423828125
215098,-0.10064697265625,0.1338958740234375,-0.22344970703125,-1.382335543632507,-1.261473059654236,-0.750680685043335,39.75018310546875,98.40931701660156,-7.4659423828125
215099,-0.0784149169921875,0.309326171875,-0.0036163330078125,-1.506211757659912,-1.361127018928528,-0.8823952674865723,39.49754333496094,98.45149230957033,-6.759841918945312
215100,-0.0890350341796875,0.46612548828125,0.363677978515625,-1.957013845443726,0.9952027797698976,-1.22322690486908,39.01628112792969,98.35562133789062,-5.898849487304688
215101,-0.0871429443359375,0.7140960693359375,0.6085357666015625,-1.957013845443726,0.9952027797698976,-1.22322690486908,38.49032592773438,98.47775268554688,-5.239959716796875
215102,-0.0483245849609375,1.373001098632812,0.912261962890625,-2.807537317276001,1.547175884246826,-1.821067929267883,37.74720764160156,98.38053894042967,-4.964508056640625
215103,-0.0200042724609375,4.32989501953125,0.5139312744140625,-3.178164958953857,1.034808754920959,-2.519300937652588,36.77409362792969,98.2241668701172,-4.594329833984375
215104,-0.07696533203125,8.038558959960938,-0.02728271484375,-2.379722595214844,-2.0882248878479,-1.915686368942261,35.67460632324219,98.15780639648438,-4.5394287109375
215105,-0.25030517578125,5.299331665039062,1.171905517578125,0.26143878698349,-1.450154066085815,-0.2770342528820038,34.21861267089844,97.78089904785156,-4.141494750976562
215106,-0.25030517578125,5.299331665039062,1.171905517578125,0.26143878698349,-1.450154066085815,-0.2770342528820038,34.21861267089844,97.78089904785156,-4.141494750976562
215107,0.1361083984375,2.202728271484375,-0.1859893798828125,0.993824064731598,-0.0055263256654143,0.9459518790245056,34.09683227539062,97.59136962890624,-3.324798583984375
215108,0.0650634765625,1.141281127929688,-0.7961273193359375,1.723156332969666,-0.330923318862915,1.425153851509094,34.09977722167969,97.45352172851562,-2.599441528320312
215109,0.0832061767578125,0.881591796875,-0.7335205078125,1.971306204795837,-0.4059722721576691,0.5896251797676086,34.534912109375,97.53736877441406,-2.589065551757812
215110,0.0832061767578125,0.881591796875,-0.7335205078125,1.971306204795837,-0.4059722721576691,0.5896251797676086,34.534912109375,97.53736877441406,-2.589065551757812
215111,0.1628875732421875,1.412948608398438,-0.9032440185546876,1.293157815933228,-0.7661368250846863,0.0368999615311622,35.71920776367188,97.7805633544922,-3.767288208007812
215112,-0.010589599609375,1.285934448242188,-0.597198486328125,1.040726542472839,-0.9778421521186828,0.02463024482131,36.09835815429688,97.91934204101562,-4.446044921875
215113,-0.1035919189453125,0.9854278564453124,-0.37347412109375,1.5308997631073,-0.0631544664502143,0.4888570308685303,36.28579711914062,97.8914031982422,-4.96612548828125
215114,-0.1035919189453125,0.9854278564453124,-0.37347412109375,1.5308997631073,-0.0631544664502143,0.4888570308685303,36.28579711914062,97.8914031982422,-4.96612548828125
215115,-0.0131072998046875,0.8261566162109375,-0.2442474365234375,1.573588371276855,0.4224324822425842,0.5793305039405823,36.77058410644531,97.88201904296876,-5.936996459960938
215116,-0.0004425048828125,0.811126708984375,-0.13812255859375,1.158884644508362,0.8396427631378174,0.4857121109962463,37.04014587402344,97.96389770507812,-6.56103515625
215117,-0.011688232421875,0.7243499755859375,-0.0753631591796875,0.9682268500328064,0.855221152305603,0.3858068287372589,37.32072448730469,98.07772827148438,-7.301406860351562
215118,-0.0337677001953125,0.5905914306640625,-0.012359619140625,0.9682268500328064,0.855221152305603,0.3858068287372589,37.63470458984375,98.15219116210938,-8.003982543945312
215119,-0.059478759765625,0.4463958740234375,0.0285186767578125,0.8505470752716064,0.8667864799499512,0.2793171405792236,37.83946228027344,98.23788452148438,-8.606643676757812
215120,-0.0803680419921875,0.3004150390625,0.0852203369140625,0.6827442049980164,1.214476585388184,0.127428263425827,38.08865356445312,98.08096313476562,-9.023757934570312
215121,-0.095855712890625,0.16607666015625,0.1302337646484375,0.6827442049980164,1.214476585388184,0.127428263425827,38.20339965820312,98.06199645996094,-9.447235107421877
215122,-0.1197509765625,0.0627899169921875,0.13995361328125,0.6008347272872925,1.508570432662964,0.0969198867678642,38.25730895996094,98.26992797851562,-10.15864562988281
215123,-0.13916015625,-0.0258941650390625,0.10162353515625,0.5157962441444397,1.719007611274719,0.0789621919393539,38.21141052246094,98.17930603027344,-10.690673828125
215124,-0.1514129638671875,-0.1022186279296875,0.018157958984375,0.4607886373996735,1.757387757301331,0.0778162330389022,38.20851135253906,98.1562957763672,-11.14002990722656
215125,-0.149993896484375,-0.1689605712890625,-0.05596923828125,0.4102732837200165,1.647602677345276,0.0898675695061683,38.11886596679688,98.2451629638672,-11.64973449707031
215126,-0.1434326171875,-0.204803466796875,-0.1097869873046875,0.3329603672027588,1.351609349250793,0.1689895540475845,38.16529846191406,98.36212158203124,-12.12728881835938
215127,-0.138671875,-0.207916259765625,-0.153594970703125,0.3329603672027588,1.351609349250793,0.1689895540475845,38.19685363769531,98.42408752441406,-12.52449035644531
215128,-0.1142730712890625,-0.19598388671875,-0.1937103271484375,0.3106936812400818,1.185304045677185,0.1861805319786072,38.16455078125,98.5341339111328,-12.85655212402344
215129,-0.08056640625,-0.19775390625,-0.2012481689453125,0.2101718783378601,0.949289083480835,0.1874386072158813,38.21844482421875,98.82546997070312,-13.34559631347656
215130,-0.08056640625,-0.19775390625,-0.2012481689453125,0.2101718783378601,0.949289083480835,0.1874386072158813,38.21844482421875,98.82546997070312,-13.34559631347656
215131,-0.0230712890625,-0.24053955078125,-0.3142242431640625,-0.2227920591831207,0.1992145627737045,0.2306486517190933,38.27632141113281,99.17410278320312,-13.53773498535156
215132,-0.000396728515625,-0.24053955078125,-0.2802886962890625,-0.4506915509700775,-0.2296326607465744,0.2643397748470306,38.50613403320312,99.3402099609375,-13.22894287109375
215133,0.0178070068359375,-0.230133056640625,-0.1730804443359375,-0.6042864322662354,-0.4850636422634125,0.2828340828418732,38.85025024414062,99.45588684082033,-12.70498657226562
215134,0.0178070068359375,-0.230133056640625,-0.1730804443359375,-0.6042864322662354,-0.4850636422634125,0.2828340828418732,38.85025024414062,99.45588684082033,-12.70498657226562
215135,0.051788330078125,-0.2512054443359375,-0.02001953125,-0.5720698833465576,-0.2909239828586578,0.2924970984458923,39.78050231933594,99.344970703125,-11.20449829101562
215136,0.090240478515625,-0.3282012939453125,-0.0709228515625,-0.5153414011001587,0.8667164444923401,0.155190646648407,40.36703491210938,99.01316833496094,-10.4287109375
215137,0.166534423828125,-0.364105224609375,-0.6378631591796875,-0.5448702573776245,-0.1668350547552109,-0.065856248140335,41.03623962402344,98.15779113769533,-9.279998779296877
215138,0.166534423828125,-0.364105224609375,-0.6378631591796875,-0.5448702573776245,-0.1668350547552109,-0.065856248140335,41.03623962402344,98.15779113769533,-9.279998779296877
215139,0.1616363525390625,-0.067291259765625,-0.4902496337890625,-0.5448702573776245,-0.1668350547552109,-0.065856248140335,41.03668212890625,97.7378387451172,-8.727371215820312
215140,0.06768798828125,0.279693603515625,-0.2071685791015625,-0.6388989686965942,-0.3978935778141022,-0.2593359649181366,41.10734558105469,97.59426879882812,-8.443145751953125
215141,0.026214599609375,0.288238525390625,0.2134552001953125,-1.266829252243042,0.4488992393016815,-0.4632992148399353,41.01614379882812,97.4398956298828,-8.154281616210938
215142,0.026214599609375,0.288238525390625,0.2134552001953125,-1.266829252243042,0.4488992393016815,-0.4632992148399353,41.01614379882812,97.4398956298828,-8.154281616210938
215143,0.04107666015625,0.3128662109375,0.844696044921875,-1.899165391921997,1.476455926895142,-0.5762244462966919,40.30867004394531,97.82241821289062,-7.556900024414062
215144,0.04913330078125,0.445098876953125,0.904632568359375,-2.577951192855835,2.341139793395996,-0.7283458113670349,39.66583251953125,98.2463836669922,-7.243743896484375
215145,-0.006683349609375,1.157791137695312,1.181900024414062,-3.302940130233765,2.445328950881958,-1.027074933052063,38.75390625,98.3823699951172,-6.9713134765625
215146,-0.006683349609375,1.157791137695312,1.181900024414062,-3.302940130233765,2.445328950881958,-1.027074933052063,38.75390625,98.3823699951172,-6.9713134765625
215147,-0.2047119140625,7.601150512695312,2.2369384765625,-3.368518114089966,1.175471067428589,0.5613317489624023,37.12899780273438,98.10197448730467,-6.948822021484375
215148,-1.41265869140625,8.107452392578125,2.888504028320312,-2.736965179443359,1.67523193359375,2.141321897506714,36.79804992675781,97.8849639892578,-7.385711669921875
215149,-1.7752685546875,7.55517578125,1.578018188476562,-1.239452719688416,3.011327981948853,-0.4718143939971924,37.12849426269531,97.73536682128906,-7.693267822265625
215150,-1.7752685546875,7.55517578125,1.578018188476562,-1.239452719688416,3.011327981948853,-0.4718143939971924,37.12849426269531,97.73536682128906,-7.693267822265625
215151,0.2916107177734375,1.2108154296875,-3.255752563476562,-0.4965921938419342,-3.124039888381958,-0.822190523147583,37.31156921386719,97.33673095703124,-6.531539916992188
215152,0.61669921875,0.0772705078125,-2.184097290039062,-0.9985663294792176,-2.408993244171143,0.5360639691352844,36.32936096191406,96.9823760986328,-5.491455078125
215153,0.669281005859375,0.615325927734375,-0.4662322998046875,0.7007319927215576,0.1260990798473358,1.151132464408875,35.54238891601562,97.1046905517578,-4.225814819335938
215154,0.5196990966796875,0.974945068359375,0.06451416015625,2.012287378311157,0.7822614908218384,1.497381210327148,35.45477294921875,97.13619995117188,-3.462738037109375
215155,0.5034332275390625,1.020278930664062,-0.034332275390625,2.368053913116455,0.807099461555481,1.662657499313354,35.80368041992188,97.181640625,-3.51690673828125
215156,0.51995849609375,1.0762939453125,-0.43817138671875,1.914323091506958,-0.1558567136526108,1.566064357757568,36.51924133300781,97.21467590332033,-4.164077758789062
215157,0.4526214599609375,1.094451904296875,-0.2600860595703125,1.181000113487244,-1.078334927558899,1.126222848892212,37.19451904296875,97.57241821289062,-5.09796142578125
215158,0.4526214599609375,1.094451904296875,-0.2600860595703125,1.181000113487244,-1.078334927558899,1.126222848892212,37.19451904296875,97.57241821289062,-5.09796142578125
215159,0.4121551513671875,0.9222564697265624,0.0337677001953125,0.6316187381744385,-1.097747325897217,0.6344224810600281,37.916748046875,97.74368286132812,-5.755157470703125
215160,0.2370452880859375,0.4400177001953125,-0.4764862060546875,0.4308304786682129,-0.9146499037742616,0.2555944919586182,38.88371276855469,98.0710906982422,-6.280502319335938
215161,0.0692596435546875,0.34716796875,-0.55523681640625,0.8470900058746338,-1.190813541412354,0.20877905189991,39.19056701660156,98.353515625,-6.385162353515625
215162,-0.034942626953125,0.3470306396484375,-0.324462890625,1.299309730529785,-1.131108164787292,0.086248867213726,39.29385375976562,98.3695831298828,-6.328109741210938
215163,-0.0758514404296875,0.3185577392578125,-0.1207122802734375,1.246255993843079,-0.3747006356716156,-0.2197448760271072,39.4012451171875,98.59954833984376,-6.846359252929688
215164,-0.088104248046875,0.2408294677734375,-0.0623931884765625,0.9544169902801514,-0.2147573083639145,-0.3333638608455658,39.43925476074219,98.78652954101562,-7.357650756835938
215165,-0.0833282470703125,0.144195556640625,-0.0794219970703125,0.9544169902801514,-0.2147573083639145,-0.3333638608455658,39.53797912597656,98.82186889648438,-7.875808715820312
215166,-0.060638427734375,0.0457916259765625,-0.112396240234375,0.6503223776817322,-0.2662663161754608,-0.4195205867290497,39.51527404785156,98.84733581542967,-8.36468505859375
215167,-0.01849365234375,-0.0648345947265625,-0.142425537109375,0.3662584125995636,-0.4382516443729401,-0.4736823439598083,39.55955505371094,98.7841796875,-8.647796630859375
215168,0.0388641357421875,-0.1883544921875,-0.1943206787109375,0.1472877264022827,-0.6707898378372192,-0.4699880182743073,39.42634582519531,98.82977294921876,-9.030181884765623
215169,0.0882415771484375,-0.2636566162109375,-0.234954833984375,0.0768002420663833,-0.9359990954399108,-0.4096303880214691,39.40719604492188,98.72756958007812,-9.252197265625
215170,0.0882415771484375,-0.2636566162109375,-0.234954833984375,0.0768002420663833,-0.9359990954399108,-0.4096303880214691,39.40719604492188,98.72756958007812,-9.252197265625
215171,0.12841796875,-0.2774505615234375,-0.1717376708984375,0.3681396842002869,-1.162319660186768,-0.2847869992256165,39.1884765625,98.74600219726562,-8.968704223632812
215172,0.129547119140625,-0.2591705322265625,-0.1449432373046875,0.570468544960022,-1.103805661201477,-0.2432073205709457,39.17924499511719,98.80657958984376,-8.914993286132812
215173,0.11865234375,-0.2299041748046875,-0.0851898193359375,0.7258413434028625,-0.8451799750328064,-0.2441559433937073,39.14743041992188,98.72267150878906,-8.528305053710938
215174,0.09906005859375,-0.201324462890625,-0.004150390625,0.7258413434028625,-0.8451799750328064,-0.2441559433937073,39.11445617675781,98.75440979003906,-8.272796630859375
215175,0.0754852294921875,-0.1797943115234375,0.0555419921875,0.638306200504303,-0.6552239060401917,-0.2752781808376312,39.08331298828125,98.75816345214844,-8.111770629882812
215176,0.0494384765625,-0.15814208984375,0.12811279296875,0.1824158877134323,-0.1716572493314743,-0.3807694613933563,39.13734436035156,98.76834106445312,-8.150344848632812
215177,0.0204620361328125,-0.1326141357421875,0.203369140625,0.1824158877134323,-0.1716572493314743,-0.3807694613933563,39.28121948242188,98.74050903320312,-8.1871337890625
215178,0.0204620361328125,-0.1326141357421875,0.203369140625,0.1824158877134323,-0.1716572493314743,-0.3807694613933563,39.28121948242188,98.74050903320312,-8.1871337890625
215179,-0.04864501953125,-0.0767974853515625,0.2929229736328125,-0.5263373255729675,0.4151157140731812,-0.568976640701294,39.32394409179688,98.7183074951172,-8.170944213867188
215180,-0.09112548828125,0.0374298095703125,0.3507232666015625,-0.9051194787025452,0.729915976524353,-0.6928519606590271,39.28495788574219,98.65545654296876,-7.936050415039062
215181,-0.084320068359375,0.1634063720703125,0.3721466064453125,-1.765269875526428,0.8054720163345337,-0.958779275417328,39.10090637207031,98.7613525390625,-7.749343872070312
215182,-0.084320068359375,0.1634063720703125,0.3721466064453125,-1.765269875526428,0.8054720163345337,-0.958779275417328,39.10090637207031,98.7613525390625,-7.749343872070312
215183,-0.1464996337890625,0.4926605224609375,0.579742431640625,-2.309582471847534,0.5238912105560303,-1.188814282417297,38.55818176269531,98.64068603515624,-7.142471313476562
215184,-0.2084197998046875,0.7432708740234375,0.8248443603515625,-2.854955911636353,0.3905754685401917,-1.549503564834595,38.15139770507812,98.51708984375,-6.667648315429688
215185,-0.5142822265625,2.08367919921875,1.114288330078125,-2.334143161773682,1.315997838973999,-1.917690873146057,37.66404724121094,98.36880493164062,-6.278305053710938
215186,-0.5142822265625,2.08367919921875,1.114288330078125,-2.334143161773682,1.315997838973999,-1.917690873146057,37.66404724121094,98.36880493164062,-6.278305053710938
215187,-1.293472290039062,6.884140014648438,1.42901611328125,-1.207413077354431,1.78747296333313,0.0455994419753551,36.27653503417969,98.02682495117188,-5.679916381835938
215188,-1.468170166015625,7.090728759765625,0.8515777587890625,0.8326596617698669,2.614887237548828,0.9475433826446532,35.77070617675781,97.8921356201172,-5.771636962890625
215189,-0.5972747802734375,3.47705078125,-0.589202880859375,0.8687255382537842,0.6975857615470886,-0.2091526836156845,35.63446044921875,97.73069763183594,-6.02508544921875
215190,-0.5972747802734375,3.47705078125,-0.589202880859375,0.8687255382537842,0.6975857615470886,-0.2091526836156845,35.63446044921875,97.73069763183594,-6.02508544921875
215191,0.213592529296875,1.120437622070312,-0.2576904296875,-1.475248694419861,-2.311010837554932,-0.1793167591094971,35.70004272460938,97.66481018066406,-6.290023803710938
215192,0.455963134765625,1.311370849609375,-0.11114501953125,-0.5211968421936035,-2.314090013504028,0.2593391537666321,35.34832763671875,97.46011352539062,-5.650634765625
215193,0.6670684814453125,1.835494995117188,-0.122528076171875,0.5099937319755554,-1.656450986862183,0.5836125612258911,35.04310607910156,97.01278686523438,-4.58819580078125
215194,0.6670684814453125,1.835494995117188,-0.122528076171875,0.5099937319755554,-1.656450986862183,0.5836125612258911,35.04310607910156,97.01278686523438,-4.58819580078125
215195,0.9241790771484376,2.282455444335938,-0.7957000732421875,1.27608323097229,-0.8759839534759521,0.6546593308448792,34.82185363769531,96.49317932128906,-2.443389892578125
215196,0.65814208984375,1.746200561523438,-0.5498504638671875,1.841378331184387,-0.3064360916614532,0.4802768528461456,34.91152954101562,96.4777374267578,-1.92193603515625
215197,0.3524322509765625,1.269805908203125,-0.256622314453125,2.140988349914551,0.0818908736109733,0.4346545040607452,35.26838684082031,96.66761779785156,-1.878143310546875
215198,0.3524322509765625,1.269805908203125,-0.256622314453125,2.140988349914551,0.0818908736109733,0.4346545040607452,35.26838684082031,96.66761779785156,-1.878143310546875
215199,0.049652099609375,0.86529541015625,0.064239501953125,1.781826019287109,0.6902223825454712,0.5298510789871216,35.84187316894531,97.20066833496094,-3.568511962890625
215200,-0.021728515625,0.7046661376953125,0.13922119140625,1.781826019287109,0.6902223825454712,0.5298510789871216,36.12393188476562,97.24406433105467,-4.684432983398438
215201,-0.056396484375,0.511871337890625,0.1687774658203125,1.31772780418396,0.918206512928009,0.1588916480541229,36.44270324707031,97.46905517578124,-5.820632934570312
215202,-0.056396484375,0.511871337890625,0.1687774658203125,1.31772780418396,0.918206512928009,0.1588916480541229,36.44270324707031,97.46905517578124,-5.820632934570312
215203,-0.09783935546875,0.12548828125,0.0504608154296875,1.194678068161011,0.7987600564956665,-0.0292929075658321,36.94204711914062,97.71031188964844,-7.331253051757812
215204,-0.1136016845703125,-0.0228424072265625,-0.0201416015625,1.133409976959229,0.5223795771598816,-0.1739789843559265,37.06941223144531,97.71539306640624,-7.990158081054688
215205,-0.13580322265625,-0.109039306640625,-0.0303802490234375,1.086973428726196,0.2965168952941895,-0.2934350669384003,37.00953674316406,97.85086059570312,-8.636260986328125
215206,-0.1870880126953125,-0.1484527587890625,-0.004241943359375,1.010603308677673,0.3239929974079132,-0.3878228366374969,36.76498413085938,98.14199829101562,-9.777023315429688
215207,-0.256927490234375,-0.204925537109375,-0.0160980224609375,0.8751887679100037,0.7067062854766846,-0.4266940653324127,36.76498413085938,98.14199829101562,-9.777023315429688
215208,-0.263275146484375,-0.2750396728515625,-0.1956329345703125,0.7148390412330627,1.053075909614563,-0.3900127410888672,36.50889587402344,98.17623901367188,-10.29707336425781
215209,-0.2068328857421875,-0.35333251953125,-0.4166107177734375,0.5414089560508728,0.9313636422157288,-0.2641363143920898,36.20159912109375,98.18049621582033,-10.74383544921875
215210,-0.2068328857421875,-0.35333251953125,-0.4166107177734375,0.5414089560508728,0.9313636422157288,-0.2641363143920898,36.20159912109375,98.18049621582033,-10.74383544921875
215211,-0.1177825927734375,-0.3986358642578125,-0.3162384033203125,0.0630857571959495,0.3669798672199249,0.1270018965005875,35.80105590820312,98.18766784667967,-11.29182434082031
215212,-0.0871429443359375,-0.38299560546875,-0.21221923828125,-0.2512775063514709,0.3717988431453705,0.3400124311447144,35.74510192871094,98.22764587402344,-11.31800842285156
215213,-0.0342559814453125,-0.3447418212890625,-0.15802001953125,-0.4866434037685394,0.457083135843277,0.4801522195339203,36.25711059570312,98.51747131347656,-10.381591796875
215214,-0.0342559814453125,-0.3447418212890625,-0.15802001953125,-0.4866434037685394,0.457083135843277,0.4801522195339203,36.25711059570312,98.51747131347656,-10.381591796875
215215,0.0153350830078125,-0.339508056640625,-0.07464599609375,-0.4675288498401642,0.5725849270820618,0.5626018047332764,37.56278991699219,98.27989196777344,-8.392684936523438
215216,0.0269622802734375,-0.412567138671875,-0.131011962890625,-0.3301246464252472,0.6299113631248474,0.6005614399909973,38.38418579101562,97.79183959960938,-7.402145385742188
215217,0.0405120849609375,-0.5120697021484375,-0.3619384765625,-0.010521350428462,0.2256949096918106,0.7239057421684265,39.73239135742188,96.61329650878906,-6.314346313476562
215218,0.0405120849609375,-0.5120697021484375,-0.3619384765625,-0.010521350428462,0.2256949096918106,0.7239057421684265,39.73239135742188,96.61329650878906,-6.314346313476562
215219,0.0663299560546875,-0.3872222900390625,-0.2628936767578125,0.1023498103022575,-0.0756907686591148,0.7036508321762085,40.06192016601562,95.98046875,-6.039993286132812
215220,0.103607177734375,-0.15472412109375,-0.064239501953125,0.0643907040357589,-0.2298704832792282,0.514350950717926,40.27418518066406,95.67594909667967,-6.141281127929688
215221,0.0979461669921875,0.1158447265625,0.1214447021484375,-0.5916603803634644,0.0008985505555756,0.1780917048454285,40.39013671875,95.59368896484376,-6.362258911132812
215222,0.0551605224609375,0.15863037109375,0.371917724609375,-0.5916603803634644,0.0008985505555756,0.1780917048454285,40.428955078125,95.74885559082033,-6.496749877929688
215223,0.0525360107421875,0.2151336669921875,0.623809814453125,-1.102361679077148,0.4172675311565399,0.0874145328998565,40.20533752441406,96.1619873046875,-6.510406494140625
215224,0.0610198974609375,0.3596649169921875,0.8979949951171875,-1.639369487762451,1.026622772216797,-0.0411298610270023,39.75764465332031,97.00894165039062,-6.597564697265625
215225,0.0564422607421875,0.630401611328125,1.27642822265625,-2.140273571014404,1.480640053749084,-0.2081143260002136,39.09507751464844,97.65554809570312,-6.790542602539062
215226,0.0564422607421875,0.630401611328125,1.27642822265625,-2.140273571014404,1.480640053749084,-0.2081143260002136,39.09507751464844,97.65554809570312,-6.790542602539062
215227,-0.0214385986328125,3.27227783203125,2.119110107421875,-3.007317543029785,-0.3750777542591095,-0.6595065593719482,37.96305847167969,97.97528076171876,-7.00982666015625
215228,-0.215057373046875,7.315994262695312,3.089096069335938,-2.844699621200562,-1.478549718856812,0.2184508442878723,37.77934265136719,97.8434600830078,-7.31524658203125
215229,-1.249191284179688,8.125198364257812,4.360855102539062,-3.104663372039795,1.267155528068542,1.254784345626831,37.92555236816406,97.88150024414062,-7.8321533203125
215230,-1.249191284179688,8.125198364257812,4.360855102539062,-3.104663372039795,1.267155528068542,1.254784345626831,37.92555236816406,97.88150024414062,-7.8321533203125
215231,-0.654296875,4.151336669921875,0.40142822265625,-2.463106870651245,4.490478038787842,-1.960590362548828,38.53182983398438,97.46435546875,-6.871795654296875
215232,-0.150726318359375,2.036972045898438,-0.9452667236328124,-2.024624347686768,2.145205020904541,-1.76290237903595,37.67279052734375,96.75059509277344,-5.544952392578125
215233,1.1810302734375,0.645538330078125,-5.975433349609375,-1.637714147567749,-6.458775997161865,-0.92903733253479,36.27882385253906,96.10867309570312,-4.367935180664062
215234,1.1810302734375,0.645538330078125,-5.975433349609375,-1.637714147567749,-6.458775997161865,-0.92903733253479,36.27882385253906,96.10867309570312,-4.367935180664062
215235,0.6451873779296875,1.413787841796875,0.165313720703125,2.16889762878418,0.7373771071434021,1.704248070716858,34.75762939453125,96.18464660644533,-2.062423706054688
215236,0.4003753662109375,1.535720825195312,0.09674072265625,2.981717586517334,2.196734666824341,1.725076198577881,35.20956420898438,96.6337890625,-1.673629760742188
215237,0.4011688232421875,1.352493286132812,-0.10504150390625,2.67678427696228,1.900313019752502,1.695695638656616,35.92474365234375,96.92050170898438,-2.545364379882812
215238,0.4011688232421875,1.352493286132812,-0.10504150390625,2.67678427696228,1.900313019752502,1.695695638656616,35.92474365234375,96.92050170898438,-2.545364379882812
215239,0.3350067138671875,1.0762939453125,-0.390594482421875,0.6616969704627991,-0.8199952840805054,1.075048327445984,37.29341125488281,97.43832397460938,-4.67755126953125
215240,0.261199951171875,0.863067626953125,-0.046112060546875,0.144148126244545,-1.107015371322632,0.6217884421348572,37.93408203125,97.62130737304688,-5.25482177734375
215241,0.2667999267578125,0.6254730224609375,-0.1110382080078125,0.1234159469604492,-1.058405756950378,0.4736991226673126,38.42422485351562,97.86732482910156,-5.370864868164062
215242,0.1886444091796875,0.47296142578125,-0.330230712890625,0.5072892904281616,-1.187896013259888,0.5223614573478699,38.85443115234375,97.95114135742188,-5.207305908203125
215243,0.054595947265625,0.410308837890625,-0.4022979736328125,1.101994752883911,-1.415694832801819,0.5071297883987427,39.21469116210938,98.11160278320312,-5.13201904296875
215244,-0.0556488037109375,0.3611907958984375,-0.276153564453125,1.751936554908752,-0.977612853050232,0.1704859882593155,39.522216796875,98.27238464355467,-5.273040771484375
215245,-0.121337890625,0.29998779296875,-0.128509521484375,1.641473889350891,-0.3791473209857941,0.0113107115030288,39.8504638671875,98.41340637207033,-5.668258666992188
215246,-0.121337890625,0.29998779296875,-0.128509521484375,1.641473889350891,-0.3791473209857941,0.0113107115030288,39.8504638671875,98.41340637207033,-5.668258666992188
215247,-0.1348114013671875,0.2196197509765625,-0.062042236328125,1.459757924079895,-0.0190328136086463,-0.0961691439151763,39.96585083007812,98.5538330078125,-6.001998901367188
215248,-0.0644683837890625,0.0965118408203125,-0.1080474853515625,1.321692228317261,-0.0123394904658198,-0.177918866276741,40.24397277832031,98.73129272460938,-7.138412475585938
215249,-0.021087646484375,0.049713134765625,-0.0623321533203125,1.0876384973526,-0.1299902200698853,-0.2846218645572662,40.29409790039062,98.77706909179688,-7.496002197265625
215250,-0.021087646484375,0.049713134765625,-0.0623321533203125,1.0876384973526,-0.1299902200698853,-0.2846218645572662,40.29409790039062,98.77706909179688,-7.496002197265625
215251,0.0503997802734375,-0.0578460693359375,0.1145477294921875,0.8832924962043762,0.0245764497667551,-0.2982410192489624,40.24201965332031,98.9030303955078,-8.793228149414062
215252,0.0562744140625,-0.1066741943359375,0.0764923095703125,0.7140049338340759,0.1424705982208252,-0.2975113093852997,40.04997253417969,99.12060546875,-9.514236450195312
215253,0.0547637939453125,-0.127655029296875,0.0240631103515625,0.5986879467964172,0.1873118430376053,-0.2850016355514526,40.00700378417969,99.19943237304688,-9.978408813476562
215254,0.0547637939453125,-0.127655029296875,0.0240631103515625,0.5986879467964172,0.1873118430376053,-0.2850016355514526,40.00700378417969,99.19943237304688,-9.978408813476562
215255,0.0601654052734375,-0.1294708251953125,-0.0257110595703125,0.6065575480461121,-0.0055124768987298,-0.2157115191221237,39.79739379882812,99.27577209472656,-10.26272583007812
215256,0.052947998046875,-0.1232452392578125,0.0157012939453125,0.6065575480461121,-0.0055124768987298,-0.2157115191221237,39.75306701660156,99.16738891601562,-10.20401000976562
215257,0.0436859130859375,-0.1173248291015625,0.0898284912109375,0.633009672164917,-0.0301059707999229,-0.2394517362117767,39.75534057617188,99.17771911621094,-10.16983032226562
215258,0.0436859130859375,-0.1173248291015625,0.0898284912109375,0.633009672164917,-0.0301059707999229,-0.2394517362117767,39.75534057617188,99.17771911621094,-10.16983032226562
215259,0.031646728515625,-0.1314544677734375,0.1665802001953125,0.486898273229599,-0.0603403039276599,-0.3591182231903076,39.73695373535156,98.99224853515624,-10.09294128417969
215260,0.0247650146484375,-0.1466064453125,0.18560791015625,0.2641469538211823,-0.113176092505455,-0.4233387410640717,39.73422241210938,98.81405639648438,-9.907958984375
215261,0.015777587890625,-0.1587677001953125,0.1802520751953125,-0.4028577208518982,-0.2926278710365295,-0.5547676086425781,39.82977294921875,98.6186065673828,-9.88995361328125
215262,0.0048370361328125,-0.168426513671875,0.1570281982421875,-0.4028577208518982,-0.2926278710365295,-0.5547676086425781,39.86355590820312,98.50379943847656,-9.640960693359377
215263,-0.0065155029296875,-0.1693878173828125,0.102020263671875,-0.7657634615898132,-0.4261563718318939,-0.6150999069213867,39.666015625,98.21127319335938,-9.349212646484377
215264,-0.0238189697265625,-0.1483001708984375,0.0462646484375,-1.120264053344727,-0.654744565486908,-0.687394917011261,39.57516479492188,97.985595703125,-8.774810791015625
215265,-0.032562255859375,0.07086181640625,-0.1698150634765625,-1.387625455856323,-1.004554986953735,-0.7981829047203064,39.33963012695312,97.96009826660156,-8.158126831054688
215266,-0.032562255859375,0.07086181640625,-0.1698150634765625,-1.387625455856323,-1.004554986953735,-0.7981829047203064,39.33963012695312,97.96009826660156,-8.158126831054688
215267,0.01531982421875,0.541351318359375,0.123809814453125,-1.273739099502563,-1.25879180431366,-1.149490356445312,38.51968383789062,98.0670166015625,-6.801483154296875
215268,0.0453948974609375,0.59619140625,0.7840118408203125,-1.469805479049683,0.161579042673111,-1.382856488227844,37.90653991699219,98.23234558105467,-6.060104370117188
215269,0.1313323974609375,1.549179077148438,1.192520141601562,-2.1444251537323,1.484827637672424,-2.009305715560913,36.94125366210938,98.40632629394533,-5.68951416015625
215270,0.1313323974609375,1.549179077148438,1.192520141601562,-2.1444251537323,1.484827637672424,-2.009305715560913,36.94125366210938,98.40632629394533,-5.68951416015625
215271,0.83770751953125,8.200454711914062,-0.2145538330078125,-1.519204258918762,-2.570090532302856,-1.26279878616333,34.36866760253906,98.25360107421876,-6.259033203125
215272,-0.1392974853515625,7.930313110351562,0.94866943359375,0.0110736899077892,-4.894850730895996,-0.7871742248535156,33.31588745117188,98.11314392089844,-6.855026245117188
215273,-0.046783447265625,5.478790283203125,1.2977294921875,0.859844446182251,-2.662449836730957,-1.155171990394592,32.97056579589844,98.02764892578124,-6.9581298828125
215274,-0.046783447265625,5.478790283203125,1.2977294921875,0.859844446182251,-2.662449836730957,-1.155171990394592,32.97056579589844,98.02764892578124,-6.9581298828125
215275,0.0428466796875,0.505645751953125,-0.1279296875,1.081844210624695,-0.4575417339801788,-0.1722548604011536,32.75297546386719,97.81935119628906,-5.594146728515625
215276,-0.196990966796875,0.0464324951171875,-0.6778106689453125,0.7536082863807678,0.632419764995575,-0.1075917035341263,32.79566955566406,97.7900848388672,-5.275619506835938
215277,-0.3531036376953125,0.25750732421875,-1.8328857421875,0.823314905166626,-2.169379472732544,-0.0451341867446899,32.92233276367188,97.7099151611328,-5.211502075195312
215278,-0.1779937744140625,0.9380950927734376,-1.001922607421875,0.823314905166626,-2.169379472732544,-0.0451341867446899,33.08113098144531,97.43736267089844,-5.360366821289062
215279,-0.0165557861328125,1.204849243164062,-0.1712493896484375,1.2799471616745,-1.530049920082092,0.264499843120575,33.35890197753906,97.28070068359376,-5.613967895507812
215280,0.0433807373046875,1.31927490234375,-0.1606597900390625,1.745613932609558,-0.5168293118476868,0.5510029792785645,33.69859313964844,97.0108642578125,-5.773422241210938
215281,0.066009521484375,1.162551879882812,-0.26544189453125,1.998566031455994,0.1214143112301826,0.5433000326156616,34.01287841796875,96.97666931152344,-6.185409545898438
215282,0.066009521484375,1.162551879882812,-0.26544189453125,1.998566031455994,0.1214143112301826,0.5433000326156616,34.01287841796875,96.97666931152344,-6.185409545898438
215283,-0.0521087646484375,0.7406158447265625,-0.0808868408203125,1.793828368186951,0.3422233760356903,0.5001224875450134,34.57914733886719,97.38018798828124,-7.787368774414062
215284,-0.09326171875,0.62506103515625,0.1095428466796875,1.489599466323853,0.4656696915626526,0.4294115602970123,34.83570861816406,97.4517059326172,-8.68670654296875
215285,-0.11895751953125,0.4692840576171875,0.1832733154296875,1.167431831359863,0.711159884929657,0.3053777515888214,35.13774108886719,97.639404296875,-9.650131225585938
215286,-0.11895751953125,0.4692840576171875,0.1832733154296875,1.167431831359863,0.711159884929657,0.3053777515888214,35.13774108886719,97.639404296875,-9.650131225585938
215287,-0.162017822265625,0.1816558837890625,0.0936279296875,0.6667199730873108,1.044251322746277,0.0083458144217729,35.46601867675781,97.75115966796876,-10.94004821777344
215288,-0.1851806640625,0.0577392578125,0.05059814453125,0.4391539394855499,1.122767090797424,-0.1036888435482979,35.62741088867188,97.68791198730467,-11.54000854492188
215289,-0.2360992431640625,-0.0786285400390625,0.0076446533203125,-0.0043241744861006,1.287986159324646,-0.0117586553096771,35.56033325195312,97.69839477539062,-11.97854614257812
215290,-0.2360992431640625,-0.0786285400390625,0.0076446533203125,-0.0043241744861006,1.287986159324646,-0.0117586553096771,35.56033325195312,97.69839477539062,-11.97854614257812
215291,-0.2447662353515625,-0.20806884765625,-0.063201904296875,-0.2256355285644531,1.308522939682007,0.2384746223688126,35.50103759765625,97.7875518798828,-12.73458862304688
215292,-0.1744842529296875,-0.185577392578125,-0.081146240234375,-0.2415921241044998,1.153431534767151,0.2792840898036957,35.51821899414062,97.80044555664062,-12.85511779785156
215293,-0.1220550537109375,-0.1594085693359375,-0.0874176025390625,-0.2273764312267303,0.9792783856391908,0.2820154428482056,35.57743835449219,97.75599670410156,-12.82768249511719
215294,-0.1220550537109375,-0.1594085693359375,-0.0874176025390625,-0.2273764312267303,0.9792783856391908,0.2820154428482056,35.57743835449219,97.75599670410156,-12.82768249511719
215295,-0.117462158203125,-0.149444580078125,-0.1099853515625,-0.1935750544071198,0.8161597847938538,0.2625061869621277,35.78082275390625,97.84320068359376,-12.56224060058594
215296,-0.1263885498046875,-0.157440185546875,-0.1062164306640625,-0.1931364387273788,0.7319895029067993,0.2300073653459549,35.92378234863281,97.84429931640624,-12.39842224121094
215297,-0.1244354248046875,-0.168670654296875,-0.09039306640625,-0.2656436562538147,0.7469123005867004,0.1885001361370087,36.0106201171875,97.99069213867188,-12.64073181152344
215298,-0.1244354248046875,-0.168670654296875,-0.09039306640625,-0.2656436562538147,0.7469123005867004,0.1885001361370087,36.0106201171875,97.99069213867188,-12.64073181152344
215299,-0.110595703125,-0.1851806640625,-0.090911865234375,-0.6094558835029602,1.027170896530151,0.1440996527671814,36.075927734375,98.01164245605467,-12.65165710449219
215300,-0.0491943359375,-0.246551513671875,-0.32733154296875,-0.8660450577735901,1.03722083568573,0.1608211100101471,36.44752502441406,98.38658142089844,-12.35374450683594
215301,0.022216796875,-0.2859344482421875,-0.63726806640625,-0.9237549901008606,0.2273993343114853,0.2368242591619492,36.61134338378906,98.49166870117188,-11.83865356445312
215302,0.022216796875,-0.2859344482421875,-0.63726806640625,-0.9237549901008606,0.2273993343114853,0.2368242591619492,36.61134338378906,98.49166870117188,-11.83865356445312
215303,0.053863525390625,-0.242523193359375,-0.320526123046875,-0.6752572655677795,-1.290253043174744,0.3857061564922333,37.2340087890625,98.55136108398438,-10.29005432128906
215304,0.062896728515625,-0.2074737548828125,-0.1295318603515625,-0.4991948902606964,-1.274680256843567,0.3743770718574524,37.73294067382812,98.5823974609375,-9.601272583007812
215305,0.0833282470703125,-0.186004638671875,-0.0289306640625,-0.3282934725284576,-0.9550790786743164,0.314268171787262,38.05436706542969,98.3817138671875,-8.833770751953125
215306,0.0833282470703125,-0.186004638671875,-0.0289306640625,-0.3282934725284576,-0.9550790786743164,0.314268171787262,38.05436706542969,98.3817138671875,-8.833770751953125
215307,0.136749267578125,0.079620361328125,-0.1497802734375,-0.2984894812107086,-0.256499707698822,0.0697481855750083,38.78114318847656,98.14347839355467,-7.587936401367188
215308,0.0626220703125,0.264862060546875,-0.2842864990234375,-0.3773446381092072,-0.395514577627182,-0.0579240210354328,38.82650756835938,98.04963684082033,-7.350845336914062
215309,0.0280303955078125,0.35125732421875,0.0131378173828125,-0.9554846882820128,-0.3138918876647949,-0.5343307852745056,38.59588623046875,98.06602478027344,-7.104721069335938
215310,0.0280303955078125,0.35125732421875,0.0131378173828125,-0.9554846882820128,-0.3138918876647949,-0.5343307852745056,38.59588623046875,98.06602478027344,-7.104721069335938
215311,0.0384063720703125,0.3004608154296875,0.4232330322265625,-0.9554846882820128,-0.3138918876647949,-0.5343307852745056,38.20263671875,98.05543518066406,-6.849151611328125
215312,0.0469970703125,0.273681640625,0.7708892822265625,-1.244409203529358,0.6706779599189758,-0.7145572900772095,37.75578308105469,98.11111450195312,-6.6591796875
215313,0.0496063232421875,0.5537567138671875,0.9623260498046876,-2.356104373931885,2.586475372314453,-1.263605713844299,37.18670654296875,97.9912567138672,-6.411346435546875
215314,0.0496063232421875,0.5537567138671875,0.9623260498046876,-2.356104373931885,2.586475372314453,-1.263605713844299,37.18670654296875,97.9912567138672,-6.411346435546875
215315,0.0818634033203125,4.774383544921875,1.48675537109375,-2.793123006820679,2.915980339050293,-0.7800361514091492,35.81405639648438,97.5343780517578,-6.669876098632812
215316,-0.666168212890625,7.468551635742188,1.913406372070312,-3.173662185668945,1.551146149635315,1.191803455352783,35.19610595703125,97.36843872070312,-7.287704467773438
215317,-1.9930419921875,8.051849365234375,2.283645629882812,-2.242268800735474,1.360021471977234,0.4018912315368652,35.14192199707031,97.12515258789062,-7.704391479492188
215318,-1.9930419921875,8.051849365234375,2.283645629882812,-2.242268800735474,1.360021471977234,0.4018912315368652,35.14192199707031,97.12515258789062,-7.704391479492188
215319,-0.6687164306640625,3.186111450195312,0.1281585693359375,-0.7458398342132568,-0.6794866323471069,-1.970037460327148,36.05172729492188,96.43089294433594,-6.489425659179688
215320,-0.3456268310546875,1.5574951171875,-0.2607879638671875,-1.224654912948608,-0.9457111358642578,-1.607819318771362,35.60733032226562,96.11917114257812,-5.981338500976562
215321,0.1158599853515625,0.5861968994140625,-2.497467041015625,-2.913409471511841,-0.448753297328949,-0.5673603415489197,34.44125366210938,95.91709899902344,-5.41107177734375
215322,0.7639923095703125,1.003005981445312,-2.283065795898438,-1.264836430549622,-2.369568347930908,0.924846887588501,33.28872680664062,95.59921264648438,-4.503524780273438
215323,0.4955291748046875,1.628646850585938,0.131927490234375,1.82307755947113,-1.379018306732178,1.391598105430603,32.76905822753906,95.323974609375,-3.291412353515625
215324,0.3218994140625,1.6668701171875,0.478057861328125,3.076532363891602,-0.2267527133226395,1.259668827056885,32.95132446289062,95.1965789794922,-2.133743286132812
215325,0.257293701171875,1.501022338867188,0.2900238037109375,2.89751935005188,0.4131401777267456,1.137162089347839,33.50033569335938,95.42274475097656,-2.028793334960938
215326,0.1849517822265625,1.370407104492188,-0.0372772216796875,2.075061321258545,0.2932140231132507,0.8617139458656311,34.08580017089844,95.88287353515624,-2.947006225585938
215327,0.1038818359375,1.147186279296875,-0.3090667724609375,1.073460340499878,-0.5185337066650391,0.403287798166275,34.59841918945312,96.271728515625,-3.973190307617188
215328,-0.0006866455078125,0.8759765625,-0.25628662109375,0.4482022821903229,-1.167040348052979,-0.0155765628442168,34.86076354980469,96.57316589355467,-5.001022338867188
215329,-0.0345001220703125,0.64300537109375,-0.3111572265625,0.3532097339630127,-1.657003164291382,-0.2048380970954895,35.23013305664062,96.64851379394533,-5.457794189453125
215330,-0.0345001220703125,0.64300537109375,-0.3111572265625,0.3532097339630127,-1.657003164291382,-0.2048380970954895,35.23013305664062,96.64851379394533,-5.457794189453125
215331,-0.1121368408203125,0.3491668701171875,-0.3176727294921875,1.084739089012146,-2.074000358581543,-0.357856422662735,35.52537536621094,96.69863891601562,-5.369064331054688
215332,-0.2530517578125,0.16033935546875,-0.08941650390625,1.234532237052917,-0.7861561179161072,-0.4537504613399506,35.48834228515625,96.76905822753906,-5.1805419921875
215333,-0.305694580078125,-0.0466461181640625,-0.2039947509765625,1.118006467819214,0.8901141881942749,-0.325960785150528,35.42160034179688,96.87503051757812,-5.35919189453125
215334,-0.1772918701171875,-0.0442047119140625,-0.4376983642578125,1.032193779945374,1.344249725341797,-0.0919120833277702,35.36750793457031,96.8116455078125,-5.74267578125
215335,-0.09222412109375,0.0364990234375,-0.35650634765625,0.991125464439392,1.04663610458374,-0.027418041601777,35.27555847167969,96.81565856933594,-6.439926147460938
215336,-0.0630950927734375,0.0517120361328125,-0.186859130859375,0.9173636436462402,0.7027086019515991,-0.0848110243678093,35.13975524902344,96.7692413330078,-6.999069213867188
215337,-0.0272369384765625,0.001556396484375,-0.081024169921875,0.7863976359367371,0.4449159502983093,-0.1675663590431213,35.10569763183594,96.80426025390624,-7.557571411132812
215338,-0.0272369384765625,0.001556396484375,-0.081024169921875,0.7863976359367371,0.4449159502983093,-0.1675663590431213,35.10569763183594,96.80426025390624,-7.557571411132812
215339,0.06463623046875,-0.1383056640625,-0.100982666015625,0.6087773442268372,-0.3182730376720428,-0.0701079815626144,35.09651184082031,96.83575439453124,-8.403656005859375
215340,0.0919036865234375,-0.161102294921875,-0.12396240234375,0.6087773442268372,-0.3182730376720428,-0.0701079815626144,35.10173034667969,96.79685974121094,-8.763687133789062
215341,0.115814208984375,-0.160186767578125,-0.092041015625,0.865981936454773,-0.540428638458252,0.1699112802743912,34.83029174804688,97.07470703125,-9.047988891601562
215342,0.115814208984375,-0.160186767578125,-0.092041015625,0.865981936454773,-0.540428638458252,0.1699112802743912,34.83029174804688,97.07470703125,-9.047988891601562
215343,0.11065673828125,-0.1373748779296875,-0.055877685546875,0.956093728542328,-0.5288667678833008,0.2496050447225571,34.76121520996094,97.1536865234375,-9.020721435546877
215344,0.104888916015625,-0.12109375,-0.0045318603515625,0.9495612382888794,-0.4352177679538727,0.2893668413162231,34.80445861816406,97.21456909179688,-9.0699462890625
215345,0.0938262939453125,-0.10394287109375,0.0204925537109375,0.8436700105667114,-0.3441390097141266,0.2797679901123047,34.85093688964844,97.33660888671876,-9.103530883789062
215346,0.0938262939453125,-0.10394287109375,0.0204925537109375,0.8436700105667114,-0.3441390097141266,0.2797679901123047,34.85093688964844,97.33660888671876,-9.103530883789062
215347,0.0854644775390625,-0.1056671142578125,-0.0510406494140625,0.4620190262794495,-0.3306767344474792,0.1741528958082199,35.21847534179688,97.44631958007812,-9.123687744140623
215348,0.1183929443359375,-0.163665771484375,-0.3533935546875,0.2743625938892365,-0.921415388584137,0.1504600793123245,35.46839904785156,97.3092803955078,-8.970062255859375
215349,0.15057373046875,-0.2102813720703125,-0.4072113037109375,-0.0603823848068714,-1.631999254226685,0.1175822913646698,35.60389709472656,97.37936401367188,-8.7822265625
215350,0.15057373046875,-0.2102813720703125,-0.4072113037109375,-0.0603823848068714,-1.631999254226685,0.1175822913646698,35.60389709472656,97.37936401367188,-8.7822265625
215351,0.0435943603515625,0.098846435546875,-0.0173187255859375,-0.89803546667099,-1.637242197990417,-0.3316392004489899,35.92832946777344,97.57447814941406,-8.3953857421875
215352,-0.0043792724609375,0.294158935546875,0.48486328125,-0.8838264346122742,-1.016905665397644,-0.6139310598373413,36.04754638671875,97.51374816894533,-7.721633911132812
215353,-0.0226287841796875,0.4840850830078125,0.8961334228515625,-2.183146238327026,2.390724658966064,-1.638782858848572,35.91395568847656,97.53488159179688,-6.747116088867188
215354,-0.0226287841796875,0.4840850830078125,0.8961334228515625,-2.183146238327026,2.390724658966064,-1.638782858848572,35.91395568847656,97.53488159179688,-6.747116088867188
215355,-0.01239013671875,0.8679962158203125,0.968017578125,-2.183146238327026,2.390724658966064,-1.638782858848572,35.47979736328125,97.54196166992188,-6.319671630859375
215356,-0.0437774658203125,1.726242065429688,1.020843505859375,-3.274373769760132,2.763162612915039,-2.078014135360718,34.87388610839844,97.4071044921875,-6.058822631835938
215357,-0.0521392822265625,5.224761962890625,0.9795379638671876,-3.757708311080933,2.816343069076538,-2.482522964477539,33.97807312011719,97.35565185546876,-6.06890869140625
215358,-0.6533966064453125,7.373748779296875,0.80059814453125,-2.903699159622192,1.811078190803528,-1.181526064872742,32.92172241210938,97.11705017089844,-6.212936401367188
215359,-1.940475463867188,6.89422607421875,0.57037353515625,-0.8933989405632019,0.1833650320768356,-1.591593980789185,32.03176879882812,96.81777954101562,-6.237518310546875
215360,-1.645751953125,4.199676513671875,0.179534912109375,0.9494142532348632,-2.020460367202759,-2.642903089523315,31.47459411621094,96.64480590820312,-6.284805297851562
215361,-0.7747344970703125,1.799301147460938,0.217010498046875,-0.6023865342140198,-0.7201858758926392,-0.6084758639335632,31.197998046875,96.15518188476562,-5.973373413085938
215362,-0.7747344970703125,1.799301147460938,0.217010498046875,-0.6023865342140198,-0.7201858758926392,-0.6084758639335632,31.197998046875,96.15518188476562,-5.973373413085938
215363,0.209991455078125,1.319595336914062,-1.681365966796875,-2.182163715362549,-0.1192555502057076,0.4463625848293304,29.9737548828125,94.8389129638672,-5.276657104492188
215364,0.3285980224609375,1.998443603515625,-1.508026123046875,-0.6703807711601257,-1.935593962669373,0.8080491423606873,29.42015075683594,94.19207763671876,-4.694488525390625
215365,0.2519073486328125,2.106048583984375,-0.100738525390625,2.356365442276001,0.3716635704040527,1.432905316352844,29.3138427734375,93.68014526367188,-3.86456298828125
215366,0.2519073486328125,2.106048583984375,-0.100738525390625,2.356365442276001,0.3716635704040527,1.432905316352844,29.3138427734375,93.68014526367188,-3.86456298828125
215367,0.1846771240234375,1.529006958007812,-0.40185546875,2.575724124908447,0.6378257274627686,1.496101021766663,29.9078369140625,93.76968383789062,-2.803314208984375
215368,0.1510772705078125,1.208480834960938,-0.53948974609375,2.49555230140686,-0.0119695775210857,1.321198463439941,30.4517822265625,94.2052001953125,-3.385025024414062
215369,0.1017303466796875,0.9976348876953124,-0.2856903076171875,1.649355530738831,-0.2223917990922928,0.8356232643127441,31.00566101074219,94.67588806152344,-4.300033569335938
215370,0.1017303466796875,0.9976348876953124,-0.2856903076171875,1.649355530738831,-0.2223917990922928,0.8356232643127441,31.00566101074219,94.67588806152344,-4.300033569335938
215371,0.0817108154296875,0.5552215576171875,-0.2390594482421875,1.102036237716675,-0.1349756568670273,0.7683416604995728,32.08689880371094,95.542724609375,-6.459335327148438
215372,0.0580291748046875,0.341156005859375,-0.371124267578125,0.7298738956451416,-0.3328376114368439,0.7828226089477539,32.39346313476562,95.7976531982422,-7.142791748046875
215373,0.006561279296875,0.199493408203125,-0.265594482421875,0.6808176636695862,-0.0754255130887031,0.7173849940299988,32.65672302246094,96.03399658203124,-7.790695190429688
215374,0.006561279296875,0.199493408203125,-0.265594482421875,0.6808176636695862,-0.0754255130887031,0.7173849940299988,32.65672302246094,96.03399658203124,-7.790695190429688
215375,-0.0341033935546875,-0.0095672607421875,0.0232391357421875,0.8270941972732544,0.406944066286087,0.6384859681129456,33.21676635742188,96.51541137695312,-8.495574951171875
215376,-0.0396270751953125,-0.1119232177734375,0.05108642578125,1.02163302898407,1.146870017051697,0.507557213306427,33.53738403320312,96.7427215576172,-8.667221069335938
215377,-0.045166015625,-0.1841888427734375,0.0175323486328125,1.02163302898407,1.146870017051697,0.507557213306427,33.76460266113281,96.84123229980467,-8.851760864257812
215378,-0.045166015625,-0.1841888427734375,0.0175323486328125,1.02163302898407,1.146870017051697,0.507557213306427,33.76460266113281,96.84123229980467,-8.851760864257812
215379,-0.0546722412109375,-0.18646240234375,-0.1407318115234375,0.8828538656234741,1.025175809860229,0.4382215440273285,34.10743713378906,97.11509704589844,-9.842575073242188
215380,-0.0650177001953125,-0.2318115234375,-0.303192138671875,0.8828538656234741,1.025175809860229,0.4382215440273285,34.54270935058594,97.47286987304688,-11.05946350097656
215381,-0.084991455078125,-0.3296051025390625,-0.4460601806640625,0.6799838542938232,0.7484550476074219,0.4467910826206207,34.56538391113281,97.70661926269533,-11.52885437011719
215382,-0.084991455078125,-0.3296051025390625,-0.4460601806640625,0.6799838542938232,0.7484550476074219,0.4467910826206207,34.56538391113281,97.70661926269533,-11.52885437011719
215383,-0.049041748046875,-0.4929046630859375,-0.7480316162109375,-0.4482747316360474,0.8965129852294922,1.126834273338318,35.07734680175781,98.3459014892578,-11.90705871582031
215384,0.062286376953125,-0.2815399169921875,-0.4404144287109375,-0.3067916333675385,-0.0400004126131534,1.195409417152405,35.63017272949219,98.68028259277344,-11.60200500488281
215385,0.03631591796875,-0.2527923583984375,-0.0578155517578125,-0.1635151654481888,-0.0765435099601745,1.140563130378723,36.47119140625,98.91873168945312,-10.92379760742188
215386,0.03631591796875,-0.2527923583984375,-0.0578155517578125,-0.1635151654481888,-0.0765435099601745,1.140563130378723,36.47119140625,98.91873168945312,-10.92379760742188
215387,0.077606201171875,-0.2463226318359375,-0.0596160888671875,0.0367417708039283,0.5284398794174194,0.9397712349891664,38.56391906738281,98.6494140625,-9.395355224609377
215388,0.0992431640625,-0.241424560546875,-0.03814697265625,0.0687335208058357,0.7328230738639832,0.8147097229957581,39.56832885742188,98.17349243164062,-8.923965454101562
215389,0.1600189208984375,-0.1652374267578125,0.0340423583984375,-0.1182235777378082,0.9916892647743224,0.4687459170818329,40.39773559570312,97.1902313232422,-8.696762084960938
215390,0.1600189208984375,-0.1652374267578125,0.0340423583984375,-0.1182235777378082,0.9916892647743224,0.4687459170818329,40.39773559570312,97.1902313232422,-8.696762084960938
215391,0.1744537353515625,-0.0608673095703125,0.1650238037109375,-0.5783983469009399,1.17070460319519,0.1495146602392197,40.41006469726562,96.89906311035156,-8.68817138671875
215392,0.1489105224609375,0.0631561279296875,0.325103759765625,-0.9896705746650696,1.45341157913208,0.0794024169445037,40.26179504394531,96.89630126953124,-8.742782592773438
215393,0.1187744140625,0.1666412353515625,0.4671783447265625,-0.9896705746650696,1.45341157913208,0.0794024169445037,40.16426086425781,96.92149353027344,-8.832077026367188
215394,0.1187744140625,0.1666412353515625,0.4671783447265625,-0.9896705746650696,1.45341157913208,0.0794024169445037,40.16426086425781,96.92149353027344,-8.832077026367188
215395,0.1159820556640625,0.5091400146484375,0.927734375,-2.227463006973267,1.725915551185608,-0.1161420494318008,39.64482116699219,97.4854736328125,-8.464981079101562
215396,0.0806121826171875,1.041763305664062,1.300888061523438,-3.097361326217651,1.442713141441345,-0.3251408040523529,39.26844787597656,97.66738891601562,-8.008132934570312
215397,0.0908355712890625,2.11346435546875,1.782699584960938,-3.993869781494141,0.1202105656266212,-0.706971287727356,38.96670532226562,97.86257934570312,-7.822540283203125
215398,0.0682220458984375,5.091690063476562,2.530044555664062,-4.113919258117676,-1.030085444450378,-0.9016667008399964,38.62016296386719,97.8428192138672,-7.449371337890625
215399,-0.38726806640625,7.720504760742188,3.76080322265625,-3.621032238006592,-0.2272944003343582,-0.3176309466362,38.48222351074219,97.67625427246094,-6.871017456054688
215400,-1.278976440429688,7.638900756835938,3.699783325195312,-3.172455787658691,3.450872659683228,-0.9121167063713074,38.49446105957031,97.49836730957033,-6.259689331054688
215401,-0.9169769287109376,5.301025390625,1.462539672851562,-2.301915168762207,4.846380233764648,-1.827881336212158,38.48789978027344,96.95364379882812,-5.281112670898438
215402,-0.9169769287109376,5.301025390625,1.462539672851562,-2.301915168762207,4.846380233764648,-1.827881336212158,38.48789978027344,96.95364379882812,-5.281112670898438
215403,-0.02886962890625,1.721099853515625,-0.95806884765625,-0.9325172901153564,0.622394859790802,-1.472772002220154,36.70550537109375,95.81723022460938,-3.73004150390625
215404,1.311737060546875,0.9750213623046876,-5.35150146484375,-0.6602618098258972,-7.357758522033691,-0.6980523467063904,35.32440185546875,95.6039581298828,-3.324661254882812
215405,1.898788452148438,1.0426025390625,-2.772842407226562,-0.0040778322145342,-14.82175827026367,0.4671679735183716,34.31690979003906,95.64532470703124,-2.79974365234375
215406,1.898788452148438,1.0426025390625,-2.772842407226562,-0.0040778322145342,-14.82175827026367,0.4671679735183716,34.31690979003906,95.64532470703124,-2.79974365234375
215407,0.5593109130859375,1.155532836914062,-0.342987060546875,0.8614625930786133,3.344568014144897,1.119239568710327,34.73960876464844,96.62411499023438,0.358551025390625
215408,0.3726654052734375,1.36151123046875,-0.640716552734375,1.580783128738403,3.056004285812378,1.245771408081055,35.26687622070312,96.63804626464844,0.8497161865234375
215409,0.0537872314453125,1.116989135742188,-0.440399169921875,1.114644169807434,0.1029823049902916,0.6310368180274963,36.29330444335938,96.40708923339844,-0.7077178955078125
215410,0.0537872314453125,1.116989135742188,-0.440399169921875,1.114644169807434,0.1029823049902916,0.6310368180274963,36.29330444335938,96.40708923339844,-0.7077178955078125
215411,-0.0170745849609375,0.85894775390625,-0.2010040283203125,0.6204720735549927,-0.7968665361404419,0.3967888951301575,36.81031799316406,96.46099853515624,-1.459854125976562
215412,-0.0299224853515625,0.6139373779296875,-0.159149169921875,0.3496024608612061,-1.099106073379517,0.3757962584495544,37.17414855957031,96.53810119628906,-1.909530639648438
215413,-0.1344451904296875,0.2900390625,-0.396942138671875,0.6215535402297974,-1.213035464286804,0.5471983551979065,37.94699096679688,96.83187866210938,-2.118362426757812
215414,-0.1344451904296875,0.2900390625,-0.396942138671875,0.6215535402297974,-1.213035464286804,0.5471983551979065,37.94699096679688,96.83187866210938,-2.118362426757812
215415,-0.1762542724609375,0.175018310546875,-0.410797119140625,0.9351516962051392,-1.111623167991638,0.5503712892532349,38.22055053710938,97.18954467773438,-2.267929077148438
215416,-0.18206787109375,0.09649658203125,-0.288299560546875,1.178954482078552,-0.7032825350761414,0.5086964964866638,38.52986145019531,97.41343688964844,-2.39984130859375
215417,-0.151519775390625,0.0684661865234375,-0.199493408203125,1.278035283088684,-0.1868409961462021,0.4421688914299011,38.7764892578125,97.61434936523438,-2.65496826171875
215418,-0.0775909423828125,0.0781097412109375,-0.1223602294921875,1.265564441680908,0.1012765541672707,0.3588873147964478,38.96812438964844,97.80670166015624,-3.175125122070312
215419,-9.1552734375e-05,0.090545654296875,0.018463134765625,1.225380897521973,0.2448776662349701,0.2582113146781921,39.23898315429688,97.90838623046876,-3.659210205078125
215420,0.0611572265625,0.0662841796875,0.1446075439453125,1.201356768608093,0.3779720664024353,0.1856875717639923,39.44157409667969,98.04759216308594,-4.307968139648438
215421,0.099609375,0.0220184326171875,0.21112060546875,1.145240187644958,0.522495687007904,0.1452048569917679,39.56155395507812,98.0998077392578,-4.770965576171875
215422,0.099609375,0.0220184326171875,0.21112060546875,1.145240187644958,0.522495687007904,0.1452048569917679,39.56155395507812,98.0998077392578,-4.770965576171875
215423,0.1104278564453125,-0.05914306640625,0.2022247314453125,0.8703013062477112,0.8973957896232605,0.0735642313957214,39.73184204101562,98.2178955078125,-5.676681518554688
215424,0.093719482421875,-0.0911407470703125,0.1132049560546875,0.7067816257476807,0.926489233970642,0.0354266986250877,39.70854187011719,98.22340393066406,-6.045333862304688
215425,0.075897216796875,-0.1104888916015625,0.048583984375,0.6112514138221741,0.832568883895874,-0.0026639599818736,39.72805786132812,98.4725341796875,-6.446990966796875
215426,0.075897216796875,-0.1104888916015625,0.048583984375,0.6112514138221741,0.832568883895874,-0.0026639599818736,39.72805786132812,98.4725341796875,-6.446990966796875
215427,0.0588531494140625,-0.1059112548828125,0.0638885498046875,0.5396480560302734,0.5872480273246765,-0.0863649845123291,39.59651184082031,98.66928100585938,-7.090286254882812
215428,0.048828125,-0.0866241455078125,0.1129608154296875,0.4623860120773315,0.5808250308036804,-0.1404415369033813,39.54336547851562,98.56047058105467,-7.162078857421875
215429,0.0392608642578125,-0.0747833251953125,0.12896728515625,0.3277017176151276,0.5841143131256104,-0.2167048752307892,39.47337341308594,98.54965209960938,-7.215011596679688
215430,0.0392608642578125,-0.0747833251953125,0.12896728515625,0.3277017176151276,0.5841143131256104,-0.2167048752307892,39.47337341308594,98.54965209960938,-7.215011596679688
215431,0.026031494140625,-0.0600738525390625,0.1197357177734375,-0.0865988060832023,0.4272432029247284,-0.4291979670524597,39.38385009765625,98.54722595214844,-7.3377685546875
215432,0.0352325439453125,-0.0478363037109375,0.122100830078125,-0.580778956413269,0.0897975265979766,-0.6874880790710449,39.28353881835938,98.30363464355467,-7.272109985351562
