time_idx,accelerometerAccelerationX(G),accelerometerAccelerationY(G),accelerometerAccelerationZ(G),gyroRotationX(rad/s),gyroRotationY(rad/s),gyroRotationZ(rad/s),magnetometerX(µT),magnetometerY(µT),magnetometerZ(µT)
117222,-0.7669677734375,0.3405914306640625,0.2568359375,1.37237274646759,0.6564822793006897,0.6616842150688171,10.15484619140625,77.9053955078125,-1.21063232421875
117223,-0.7669677734375,0.3405914306640625,0.2568359375,1.37237274646759,0.6564822793006897,0.6616842150688171,10.15484619140625,77.9053955078125,-1.21063232421875
117224,-0.76507568359375,0.53076171875,0.1479339599609375,1.369816064834595,1.006436586380005,0.4442440271377563,10.70916748046875,78.20631408691406,-1.437728881835938
117225,-0.728668212890625,0.7200927734375,-0.0716400146484375,1.279839038848877,1.095283031463623,0.2011062055826187,11.15969848632812,78.60035705566406,-2.014495849609375
117226,-0.705780029296875,0.791046142578125,-0.2148895263671875,1.289683103561401,1.076610803604126,0.0608194097876548,11.63491821289062,78.82591247558594,-2.628952026367188
117227,-0.6476593017578125,0.777587890625,-0.254058837890625,1.37617039680481,1.086293578147888,0.0083013391122221,11.90797424316406,78.97674560546875,-3.2193603515625
117228,-0.506622314453125,0.7026824951171875,-0.2267303466796875,1.461264491081238,0.9597790241241456,0.050211239606142,12.23298645019531,79.07875061035156,-4.075576782226562
117229,-0.356109619140625,0.6053619384765625,-0.137237548828125,1.420429944992065,0.6889110207557678,0.2142284065485001,12.33363342285156,79.1678466796875,-4.769241333007812
117230,-0.1978759765625,0.4559173583984375,0.0096435546875,1.289986252784729,0.0710038691759109,0.5055217742919922,12.26882934570312,79.49513244628906,-6.265289306640625
117231,-0.1978759765625,0.4559173583984375,0.0096435546875,1.289986252784729,0.0710038691759109,0.5055217742919922,12.26882934570312,79.49513244628906,-6.265289306640625
117232,-0.1297760009765625,0.404632568359375,0.1185150146484375,1.206814050674438,-0.1081014350056648,0.545893132686615,12.260986328125,79.7158203125,-6.72918701171875
117233,-0.0621337890625,0.3477935791015625,0.1674346923828125,1.075623631477356,-0.2229931354522705,0.568672239780426,12.33329772949219,80.08987426757812,-6.9139404296875
117234,-0.0073089599609375,0.290802001953125,0.1882171630859375,0.9665671586990356,-0.3931624591350555,0.6010118126869202,12.55488586425781,80.45468139648438,-7.145950317382812
117235,0.0271759033203125,0.2527008056640625,0.2332000732421875,0.9436282515525818,-0.5891330242156982,0.6272135972976685,12.61238098144531,80.82022094726562,-7.350067138671875
117236,0.0298614501953125,0.25762939453125,0.3386383056640625,0.9435092210769652,-0.7078794240951538,0.5805613994598389,12.80111694335938,81.23802185058594,-7.354827880859375
117237,7.62939453125e-05,0.3067474365234375,0.463287353515625,0.916181206703186,-0.7110379338264465,0.4065952003002167,13.04298400878906,81.63690185546875,-7.263778686523438
117238,-0.080718994140625,0.389190673828125,0.5830230712890625,0.818906307220459,-0.6737107634544373,0.0596928894519805,13.28079223632812,82.07872009277344,-7.214431762695312
117239,-0.289215087890625,0.399993896484375,0.740753173828125,0.6440703272819519,-0.5987289547920227,-0.2002058029174805,13.41853332519531,82.28541564941406,-7.31109619140625
117240,-0.5052032470703125,0.399078369140625,0.86907958984375,0.3433813452720642,-0.4106975197792053,-0.2937381565570831,13.51689147949219,82.36936950683594,-7.300704956054688
117241,-0.675994873046875,0.399383544921875,0.8738861083984375,-0.0184280090034008,-0.3616341054439545,-0.4471287727355957,13.54972839355469,82.479736328125,-7.267044067382812
117242,-0.8209228515625,0.3290252685546875,0.7801055908203125,-0.3236292004585266,-0.6515389084815979,-0.6421099901199341,13.58232116699219,82.5194091796875,-7.4185791015625
117243,-0.9381103515625,0.1798248291015625,0.624603271484375,-0.5596345663070679,-1.180299878120422,-0.7655197978019714,13.54708862304688,82.49247741699219,-7.404953002929688
117244,-1.010009765625,-0.0251922607421875,0.4605560302734375,-0.7627642154693604,-1.646568536758423,-0.6759097576141357,13.44601440429688,82.303466796875,-7.08306884765625
117245,-0.9619598388671876,-0.10882568359375,0.3258514404296875,-0.9581449031829834,-1.856496214866638,-0.4422748982906342,13.23652648925781,82.0460205078125,-6.729537963867188
117246,-0.7610321044921875,0.0118865966796875,0.176849365234375,-1.096903324127197,-1.999894976615906,-0.3845436871051788,13.14947509765625,81.79798889160156,-6.110824584960938
117247,-0.5966796875,0.1319427490234375,0.059173583984375,-1.194851994514465,-2.224761724472046,-0.4498401284217834,12.92849731445312,81.76507568359375,-5.308059692382812
117248,-0.4795684814453125,0.17449951171875,-0.19049072265625,-1.275468826293945,-2.448972940444946,-0.5056732892990112,12.84689331054688,81.4581298828125,-4.252685546875
117249,-0.32586669921875,0.169281005859375,-0.621002197265625,-1.012993216514587,-3.263518333435059,-0.4799341261386871,12.83526611328125,81.18428039550781,-3.01055908203125
117250,-0.077667236328125,0.0973052978515625,-0.083526611328125,-0.3567634522914886,-2.74562406539917,-0.1554559022188187,13.23342895507812,80.25920104980469,-0.0537109375
117251,-0.077667236328125,0.0973052978515625,-0.083526611328125,-0.3567634522914886,-2.74562406539917,-0.1554559022188187,13.23342895507812,80.25920104980469,-0.0537109375
117252,0.020477294921875,0.07086181640625,0.008026123046875,-0.1166160926222801,-1.255927562713623,0.0664589181542396,13.76289367675781,79.90666198730469,1.57122802734375
117253,0.1102294921875,0.0404510498046875,-0.10198974609375,0.2441926896572113,0.1660646051168442,0.4378117024898529,14.94007873535156,79.32598876953125,3.292633056640625
117254,0.1102294921875,0.0404510498046875,-0.10198974609375,0.2441926896572113,0.1660646051168442,0.4378117024898529,14.94007873535156,79.32598876953125,3.292633056640625
117255,0.16729736328125,0.009246826171875,-0.18206787109375,0.1564873456954956,-0.1174608469009399,0.7007189393043518,15.54322814941406,79.33355712890625,3.421371459960938
117256,0.194671630859375,-0.0217437744140625,-0.2171173095703125,0.0391034595668315,-0.6446447968482971,1.005839467048645,15.84880065917969,79.44953918457031,3.62823486328125
117257,0.2108917236328125,-0.025146484375,-0.2174530029296875,-0.0095426384359598,-1.086389899253845,1.291288018226624,16.07206726074219,79.73306274414062,3.916961669921875
117258,0.2328948974609375,-0.002655029296875,-0.223480224609375,0.04145023599267,-1.369316220283508,1.527249336242676,16.31072998046875,80.09823608398438,4.414291381835938
117259,0.2693939208984375,0.0423583984375,-0.2200469970703125,0.1432189494371414,-1.554574251174927,1.74059784412384,16.84422302246094,80.41950988769531,4.972671508789062
117260,0.3058319091796875,0.1345367431640625,-0.2230987548828125,0.2470436096191406,-1.612257242202759,1.962624549865723,17.54669189453125,80.89717102050781,5.643417358398438
117261,0.2332305908203125,0.543853759765625,-0.401336669921875,0.6961050033569336,-1.454743981361389,2.041827201843262,19.20381164550781,82.11923217773438,7.101730346679688
117262,0.2332305908203125,0.543853759765625,-0.401336669921875,0.6961050033569336,-1.454743981361389,2.041827201843262,19.20381164550781,82.11923217773438,7.101730346679688
117263,0.1473388671875,0.7569427490234375,-0.40283203125,0.8812708854675293,-1.203202843666077,1.710377097129822,20.06065368652344,82.99140930175781,7.689956665039062
117264,0.0478057861328125,0.9268951416015624,-0.398101806640625,0.769446611404419,-0.8401759266853333,1.140007853507996,20.95413208007812,83.71812438964844,8.006912231445312
117265,-0.075286865234375,1.013397216796875,-0.45391845703125,0.4199927449226379,-0.5673454403877258,0.4010150730609894,21.63468933105469,84.4613037109375,8.311248779296875
117266,-0.201019287109375,0.9922027587890624,-0.4980316162109375,0.0352956727147102,-0.5832117795944214,-0.3240960538387299,22.15507507324219,84.9979248046875,8.519683837890625
117267,-0.2832489013671875,0.939300537109375,-0.4761962890625,-0.2336353957653046,-0.726994514465332,-0.8711852431297302,22.43782043457031,85.13059997558594,8.568435668945312
117268,-0.3686981201171875,1.027557373046875,-0.4868621826171875,-0.327114999294281,-0.8260790109634399,-1.312171936035156,22.47151184082031,85.13279724121094,8.804351806640625
117269,-0.4670562744140625,1.273468017578125,-0.4657135009765625,-0.2065055072307587,-0.793642520904541,-1.722556829452515,22.424072265625,84.8831787109375,9.111480712890623
117270,-0.55511474609375,1.6068115234375,-0.146881103515625,0.047888696193695,-0.3462109267711639,-2.044916391372681,22.09194946289062,84.44090270996094,9.523681640625
117271,-0.595123291015625,1.889373779296875,0.345367431640625,0.1050198897719383,0.6751824617385864,-2.165045738220215,21.68495178222656,83.92127990722656,9.710784912109377
117272,-0.658050537109375,2.118423461914062,0.5143890380859375,0.0339041724801063,1.834529638290405,-2.15988826751709,20.93556213378906,83.3907470703125,9.81622314453125
117273,-1.102767944335938,2.855224609375,0.353118896484375,0.0501577109098434,2.213991165161133,-2.087417602539062,18.49356079101562,82.12254333496094,8.53729248046875
117274,-1.102767944335938,2.855224609375,0.353118896484375,0.0501577109098434,2.213991165161133,-2.087417602539062,18.49356079101562,82.12254333496094,8.53729248046875
117275,-1.491073608398438,3.276336669921875,0.34686279296875,0.2021254003047943,1.422238826751709,-2.101710557937622,17.14422607421875,81.38047790527344,7.548065185546875
117276,-1.968780517578125,3.663726806640625,0.4481048583984375,0.670728862285614,0.3000764548778534,-2.100100040435791,15.76907348632812,80.74099731445312,6.31707763671875
117277,-2.640548706054688,3.86102294921875,0.703155517578125,1.339446187019348,-0.5365347862243652,-2.188236951828003,14.29695129394531,80.08172607421875,5.169631958007812
117278,-3.930862426757812,3.121551513671875,1.1910400390625,0.7182313799858093,1.665653586387634,-1.180434465408325,13.04403686523438,79.43357849121094,4.12548828125
117279,-3.880447387695312,2.448684692382812,-0.1415252685546875,0.0555559359490871,3.559355497360229,-0.0397799015045166,11.76841735839844,78.87391662597656,3.095138549804688
117280,-2.811752319335938,1.963577270507812,-0.5447235107421875,0.4809005856513977,1.47652280330658,-0.1792171597480774,10.80673217773438,78.64926147460938,1.90899658203125
117281,-2.3319091796875,1.311019897460938,0.4048309326171875,0.3934026956558228,0.932181715965271,-0.1712742745876312,10.34513854980469,78.78199768066406,0.87847900390625
117282,-1.834030151367188,1.055099487304688,0.2575531005859375,0.1889017373323441,0.7862394452095032,0.058782622218132,10.14268493652344,78.97528076171875,-0.034393310546875
117283,-1.433486938476562,0.867401123046875,0.0257720947265625,0.1096442043781281,0.2320066094398499,0.3649382889270782,10.0286865234375,79.37722778320312,-0.6920623779296875
117284,-1.215087890625,0.7088470458984375,0.0125732421875,0.1500952243804932,-0.1437470465898514,0.5852562785148621,9.970413208007812,79.58184814453125,-1.015960693359375
117285,-1.0693359375,0.5634613037109375,0.0419158935546875,0.3014892637729645,-0.1171154379844666,0.6095371246337891,10.10206604003906,79.7496337890625,-1.0126953125
117286,-0.94464111328125,0.4304656982421875,0.0711517333984375,0.4869584739208221,0.0819223001599311,0.5877652168273926,10.35748291015625,80.30461120605469,-0.994842529296875
117287,-0.8398590087890625,0.380828857421875,0.1402130126953125,0.6882031559944153,0.398175060749054,0.5784066319465637,10.67544555664062,80.62983703613281,-0.8841400146484375
117288,-0.7541046142578125,0.3879547119140625,0.224822998046875,0.8579210638999939,0.8236984014511108,0.5557417869567871,11.28016662597656,81.00148010253906,-0.950775146484375
117289,-0.526123046875,0.384033203125,0.094970703125,0.898482084274292,1.529160737991333,0.4518228471279144,12.28742980957031,81.6072998046875,-1.490524291992188
117290,-0.526123046875,0.384033203125,0.094970703125,0.898482084274292,1.529160737991333,0.4518228471279144,12.28742980957031,81.6072998046875,-1.490524291992188
117291,-0.3912353515625,0.4103851318359375,-0.1451263427734375,0.9110945463180542,1.479897022247314,0.4629700481891632,12.61859130859375,81.68312072753906,-2.06463623046875
117292,-0.252777099609375,0.4871673583984375,-0.3705291748046875,0.995395839214325,1.07447874546051,0.5504983067512512,12.85377502441406,81.99220275878906,-2.793487548828125
117293,-0.176513671875,0.5683441162109375,-0.426971435546875,1.081835627555847,0.559030294418335,0.6641843914985657,13.0904541015625,82.13487243652344,-3.42803955078125
117294,-0.1481170654296875,0.653533935546875,-0.1783905029296875,1.116697788238525,-0.0796325132250785,0.6457933783531189,13.38352966308594,82.53645324707031,-4.557571411132812
117295,-0.1481170654296875,0.653533935546875,-0.1783905029296875,1.116697788238525,-0.0796325132250785,0.6457933783531189,13.38352966308594,82.53645324707031,-4.557571411132812
117296,-0.125823974609375,0.6063232421875,-0.053497314453125,1.097591161727905,-0.2804907858371735,0.5192892551422119,13.65040588378906,82.75251770019531,-4.93414306640625
117297,-0.0478515625,0.5005340576171875,0.1969451904296875,1.048324108123779,-0.589977502822876,0.3979441821575165,14.39315795898438,83.17904663085938,-5.471847534179688
117298,-0.0478515625,0.5005340576171875,0.1969451904296875,1.048324108123779,-0.589977502822876,0.3979441821575165,14.39315795898438,83.17904663085938,-5.471847534179688
117299,-0.02288818359375,0.451690673828125,0.268585205078125,1.022313237190247,-0.5488324761390686,0.3907025158405304,14.79899597167969,83.52937316894531,-5.536727905273438
117300,-0.0029754638671875,0.3826904296875,0.281402587890625,0.9984116554260254,-0.5078451037406921,0.4091989696025848,15.09956359863281,83.64768981933594,-5.51904296875
117301,0.014068603515625,0.3108367919921875,0.2949066162109375,1.002024173736572,-0.5164913535118103,0.4467394053936005,15.44609069824219,84.03224182128906,-5.485504150390625
117302,0.021484375,0.2503662109375,0.3308258056640625,1.022214651107788,-0.5944228768348694,0.4718050956726074,15.69607543945312,84.243408203125,-5.649246215820312
117303,0.00067138671875,0.217681884765625,0.4087371826171875,1.029040694236755,-0.7246578335762024,0.4373086392879486,15.90184020996094,84.64945983886719,-5.84991455078125
117304,-0.0796051025390625,0.228240966796875,0.5285186767578125,0.9568079710006714,-0.8081013560295105,0.270995020866394,16.10955810546875,84.82637023925781,-5.7982177734375
117305,-0.2568359375,0.266998291015625,0.6845550537109375,0.78594571352005,-0.7981858849525452,0.0164751131087541,16.32791137695312,85.07968139648438,-5.924514770507812
117306,-0.4509124755859375,0.2945098876953125,0.8159942626953125,0.5081167221069336,-0.6936154961585999,-0.128436803817749,16.42843627929688,85.36785888671875,-6.113204956054688
117307,-0.614349365234375,0.322296142578125,0.871337890625,0.1312821209430695,-0.701009213924408,-0.3480157554149628,16.41984558105469,85.60102844238281,-6.2581787109375
117308,-0.761627197265625,0.3086395263671875,0.8500518798828125,-0.2675765752792358,-0.9331144094467164,-0.6506099700927734,16.48477172851562,85.70695495605469,-6.256011962890625
117309,-0.877410888671875,0.213165283203125,0.748779296875,-0.5841050148010254,-1.42423403263092,-0.9486659169197084,16.46385192871094,85.78868103027344,-6.21856689453125
117310,-1.00927734375,-0.0103759765625,0.634033203125,-0.8091186881065369,-1.954009532928467,-1.040694117546082,16.40040588378906,85.71368408203125,-6.144989013671875
117311,-1.112655639648438,-0.249176025390625,0.56231689453125,-1.037730574607849,-2.126158952713013,-0.746867299079895,16.31681823730469,85.4459228515625,-5.835678100585938
117312,-0.991668701171875,-0.193603515625,0.4325408935546875,-1.257795572280884,-2.027937173843384,-0.4730128347873688,16.19900512695312,85.23313903808594,-5.345840454101562
117313,-0.5866851806640625,0.11224365234375,0.0892181396484375,-1.421335220336914,-2.578206777572632,-0.5631951689720154,15.96762084960938,84.7244873046875,-3.505828857421875
117314,-0.5866851806640625,0.11224365234375,0.0892181396484375,-1.421335220336914,-2.578206777572632,-0.5631951689720154,15.96762084960938,84.7244873046875,-3.505828857421875
117315,-0.4764251708984375,0.1265106201171875,0.1063232421875,-1.584505677223206,-2.611814737319946,-0.6047990918159485,15.88139343261719,84.46546936035156,-2.514175415039062
117316,-0.384613037109375,0.13555908203125,0.0491180419921875,-1.766528487205505,-2.355364084243774,-0.6376246809959412,15.78675842285156,84.03570556640625,-1.214279174804688
117317,-0.2301025390625,0.148101806640625,-0.4712677001953125,-1.681627988815308,-2.404518127441406,-0.5829893946647644,15.93170166015625,83.44482421875,0.274932861328125
117318,-0.027130126953125,0.1290435791015625,-0.8683929443359375,-0.9512662291526794,-3.05875825881958,-0.2661741673946381,16.0615234375,82.94659423828125,1.692611694335938
117319,0.008331298828125,0.1302642822265625,-0.2550201416015625,-0.3724750280380249,-2.205848217010498,0.1797953248023987,16.41960144042969,82.29437255859375,3.057586669921875
117320,-0.0040740966796875,0.158935546875,0.0331878662109375,-0.2231641113758087,-0.4102810025215149,0.4877257347106934,16.93235778808594,81.79994201660156,4.293502807617188
117321,0.0335235595703125,0.1802215576171875,-0.0688934326171875,-0.0846163481473922,0.6175305843353271,0.6725631952285767,17.56149291992188,81.35929870605469,5.42626953125
117322,0.0684356689453125,0.1591796875,-0.1763153076171875,-0.0210211295634508,0.5710490942001343,0.9730876088142396,18.36238098144531,81.31646728515625,6.129867553710938
117323,0.0684356689453125,0.1591796875,-0.1763153076171875,-0.0210211295634508,0.5710490942001343,0.9730876088142396,18.36238098144531,81.31646728515625,6.129867553710938
117324,0.078399658203125,0.1533050537109375,-0.16864013671875,-0.0893983244895935,0.1447079181671143,1.130679130554199,18.57521057128906,81.40988159179688,6.211181640625
117325,0.08941650390625,0.16473388671875,-0.15673828125,-0.1180842965841293,-0.2323376387357712,1.28205668926239,18.77618408203125,81.61868286132812,6.201446533203125
117326,0.12310791015625,0.1911773681640625,-0.165985107421875,-0.0691337957978248,-0.5537769198417664,1.475642681121826,18.87232971191406,81.9210205078125,6.195343017578125
117327,0.1552581787109375,0.267974853515625,-0.1621856689453125,0.0320980139076709,-0.8654937744140625,1.767984509468079,19.21937561035156,82.21940612792969,6.2733154296875
117328,0.1186370849609375,0.4387054443359375,-0.122833251953125,0.159934014081955,-1.048906207084656,2.010743379592896,19.67897033691406,82.58009338378906,6.438339233398438
117329,0.043243408203125,0.6474151611328125,-0.1494598388671875,0.3285981118679047,-1.101573467254639,1.95579195022583,20.35649108886719,83.00082397460938,6.899993896484375
117330,0.0106048583984375,0.8177642822265625,-0.2721710205078125,0.6131118535995483,-1.174441814422607,1.665510892868042,21.11759948730469,83.46943664550781,7.487335205078125
117331,-0.02740478515625,0.9727630615234376,-0.408477783203125,1.008047461509705,-1.285429000854492,1.20220947265625,21.88963317871094,84.12333679199219,8.04058837890625
117332,-0.1403350830078125,1.155517578125,-0.59124755859375,1.519367456436157,-1.332432985305786,0.4970662295818329,22.69967651367188,84.65657043457031,8.605972290039062
117333,-0.30267333984375,1.353958129882812,-0.9220428466796876,2.128865718841553,-1.447646975517273,-0.4050953090190887,23.49298095703125,85.10507202148438,8.91326904296875
117334,-0.3134765625,1.711700439453125,-0.5347900390625,1.814771413803101,-0.0614604316651821,-0.8771799802780151,24.32550048828125,85.90690612792969,8.71832275390625
117335,-0.3134765625,1.711700439453125,-0.5347900390625,1.814771413803101,-0.0614604316651821,-0.8771799802780151,24.32550048828125,85.90690612792969,8.71832275390625
117336,-0.3337860107421875,1.839279174804688,-0.23211669921875,0.6201053261756897,0.900424599647522,-0.6864108443260193,24.36932373046875,86.24775695800781,8.28961181640625
117337,-0.4210662841796875,2.032379150390625,-0.042327880859375,-0.4646313190460205,1.179083347320557,-0.7278738617897034,24.09445190429688,86.40498352050781,7.754257202148438
117338,-0.5789031982421875,2.481430053710938,0.08331298828125,-1.023607015609741,1.339000582695007,-1.015368819236755,23.7200927734375,86.35873413085938,7.265548706054688
117339,-0.867523193359375,3.113800048828125,0.1293792724609375,-0.897204577922821,1.397846698760986,-1.552011132240295,23.31072998046875,86.10362243652344,6.76312255859375
117340,-1.255889892578125,3.809982299804688,0.1075897216796875,-0.3155497014522552,0.8522107601165771,-2.023185968399048,22.70484924316406,85.70541381835938,6.479095458984375
117341,-1.781234741210938,4.332733154296875,0.2693023681640625,0.439486563205719,-0.314789354801178,-2.142158031463623,21.91862487792969,85.18569946289062,6.160873413085938
117342,-2.258056640625,4.029159545898438,0.6910400390625,1.285892963409424,-0.9042140245437622,-2.039010763168335,20.91511535644531,84.60406494140625,5.653091430664062
117343,-2.9471435546875,2.6414794921875,1.27008056640625,1.505705237388611,0.4619559049606323,-1.215905904769897,19.82388305664062,84.03424072265625,4.8033447265625
117344,-3.304153442382812,1.591720581054688,1.12615966796875,0.5822610259056091,3.958949327468872,0.6171404123306274,18.74285888671875,83.57600402832031,3.884170532226562
117345,-2.54156494140625,1.910675048828125,-0.3776092529296875,0.5519204139709473,4.143313407897949,0.4961764812469482,17.65931701660156,83.53631591796875,2.7802734375
117346,-2.202850341796875,1.802993774414062,-0.706512451171875,0.8346045613288879,1.486383438110352,-0.0127980867400765,16.79624938964844,83.99234008789062,1.2938232421875
117347,-1.897903442382812,1.425018310546875,0.138641357421875,0.578980028629303,-0.0124846324324607,-0.1972446292638779,16.41519165039062,84.45619201660156,-0.4554901123046875
117348,-1.520263671875,1.194137573242188,0.40625,0.0273701045662164,-0.4854426085948944,0.0889911279082298,16.25137329101562,84.95233154296875,-1.703933715820312
117349,-1.2108154296875,1.008590698242188,0.427886962890625,-0.2184250205755234,-0.4606445729732513,0.3788687586784363,16.33941650390625,85.08917236328125,-2.098526000976562
117350,-1.018463134765625,0.8039093017578125,0.441864013671875,-0.029560288414359,-0.252622663974762,0.5575553774833679,16.46995544433594,85.29278564453125,-2.311126708984375
117351,-0.89300537109375,0.596343994140625,0.4535675048828125,0.3066933453083038,-0.0096654100343585,0.6264292597770691,16.74958801269531,85.54527282714844,-2.114105224609375
117352,-0.7635955810546875,0.3992462158203125,0.445465087890625,0.5618902444839478,0.1472504436969757,0.7326633334159851,17.04722595214844,85.77519226074219,-1.865615844726562
117353,-0.6839599609375,0.3063812255859375,0.4437713623046875,0.7012414932250977,0.2833068072795868,0.8344839215278625,17.56097412109375,86.01063537597656,-1.564788818359375
117354,-0.554656982421875,0.334014892578125,0.1717681884765625,1.150351643562317,0.5116707682609558,0.6889835000038147,19.0772705078125,86.69383239746094,-2.00030517578125
117355,-0.554656982421875,0.334014892578125,0.1717681884765625,1.150351643562317,0.5116707682609558,0.6889835000038147,19.0772705078125,86.69383239746094,-2.00030517578125
117356,-0.502685546875,0.4607391357421875,-0.10589599609375,1.545762896537781,0.3758732378482819,0.537588357925415,19.55293273925781,86.97732543945312,-2.1904296875
117357,-0.515960693359375,0.6136322021484375,-0.1609039306640625,1.803184509277344,0.2752536833286285,0.3058640360832214,19.89723205566406,87.27188110351562,-2.666213989257812
117358,-0.402496337890625,0.6024322509765625,-0.14837646484375,1.309062957763672,0.9544579982757568,0.0092821819707751,20.32878112792969,87.72602844238281,-3.972000122070312
117359,-0.402496337890625,0.6024322509765625,-0.14837646484375,1.309062957763672,0.9544579982757568,0.0092821819707751,20.32878112792969,87.72602844238281,-3.972000122070312
117360,-0.3123931884765625,0.456451416015625,-0.173492431640625,1.11445164680481,0.7802801132202148,0.0235402137041091,20.59109497070312,87.78376770019531,-4.774673461914062
117361,-0.268310546875,0.3922882080078125,0.00970458984375,0.9765308499336244,0.4100724756717682,0.103789247572422,20.69131469726562,87.82763671875,-5.453079223632812
117362,-0.172027587890625,0.3660736083984375,0.2216949462890625,0.6044265031814575,-0.0163374282419681,0.1937247216701508,20.64498901367188,88.08567810058594,-6.324005126953125
117363,-0.172027587890625,0.3660736083984375,0.2216949462890625,0.6044265031814575,-0.0163374282419681,0.1937247216701508,20.64498901367188,88.08567810058594,-6.324005126953125
117364,-0.126007080078125,0.3370513916015625,0.2341766357421875,0.5331315398216248,-0.2251372486352921,0.2125194519758224,20.70805358886719,88.10418701171875,-6.331985473632812
117365,-0.0695037841796875,0.2683868408203125,0.3486785888671875,0.5739122629165649,-0.5551873445510864,0.185188502073288,20.67733764648438,88.60299682617188,-6.872802734375
117366,-0.0695037841796875,0.2683868408203125,0.3486785888671875,0.5739122629165649,-0.5551873445510864,0.185188502073288,20.67733764648438,88.60299682617188,-6.872802734375
117367,-0.0775299072265625,0.241607666015625,0.436004638671875,0.6220598220825195,-0.5111865997314453,0.1190821826457977,20.74826049804688,88.84559631347656,-7.051666259765625
117368,-0.119873046875,0.2144622802734375,0.512542724609375,0.6710300445556641,-0.3719727694988251,-0.0120976753532886,20.67399597167969,88.95254516601562,-7.080154418945312
117369,-0.223114013671875,0.190887451171875,0.5691070556640625,0.6704526543617249,-0.2342116981744766,-0.1516806036233902,20.71734619140625,89.18145751953125,-7.29119873046875
117370,-0.3848876953125,0.185333251953125,0.6376953125,0.57607501745224,-0.1519695520401001,-0.1837192326784134,20.71012878417969,89.40118408203125,-7.435394287109375
117371,-0.5352020263671875,0.195556640625,0.7160491943359375,0.3505193889141083,-0.1548694670200348,-0.1613793075084686,20.7540283203125,89.54315185546875,-7.656341552734375
117372,-0.6569366455078125,0.20404052734375,0.7403564453125,-0.0047737164422869,-0.2675685882568359,-0.2046120017766953,20.65727233886719,89.53317260742188,-7.777481079101562
117373,-0.7412109375,0.1856536865234375,0.6873931884765625,-0.4074588418006897,-0.5452534556388855,-0.3014184236526489,20.74636840820312,89.50688171386719,-7.843368530273438
117374,-0.7611236572265625,0.1246795654296875,0.579132080078125,-0.7678593993186951,-0.9873992204666138,-0.4054971635341644,20.64486694335938,89.566650390625,-7.9229736328125
117375,-0.70501708984375,0.053802490234375,0.4205780029296875,-0.9867600202560424,-1.567276120185852,-0.4477356970310211,20.63105773925781,89.44903564453125,-7.808364868164062
117376,-0.6120758056640625,0.0626068115234375,0.3101654052734375,-1.061309576034546,-2.118120193481445,-0.4491602182388306,20.40567016601562,89.34217834472656,-7.27978515625
117377,-0.5265045166015625,0.12921142578125,0.26409912109375,-1.080928921699524,-2.486206531524658,-0.50478595495224,20.25872802734375,89.15150451660156,-6.4183349609375
117378,-0.37994384765625,0.169097900390625,0.1910858154296875,-1.141352772712708,-2.716566562652588,-0.6793798208236694,20.17279052734375,88.84919738769531,-4.065780639648438
117379,-0.37994384765625,0.169097900390625,0.1910858154296875,-1.141352772712708,-2.716566562652588,-0.6793798208236694,20.17279052734375,88.84919738769531,-4.065780639648438
117380,-0.328643798828125,0.1581878662109375,0.1382904052734375,-1.176472425460815,-2.684929370880127,-0.7442869544029236,20.16087341308594,88.43806457519531,-2.64410400390625
117381,-0.2871551513671875,0.1420135498046875,0.0733489990234375,-1.173749566078186,-2.632134437561035,-0.7879595756530762,20.27395629882812,88.04255676269531,-1.35675048828125
117382,-0.23602294921875,0.1356964111328125,-0.043243408203125,-1.097862362861633,-2.602114915847778,-0.7969022393226624,20.39140319824219,87.6865234375,-0.344757080078125
117383,-0.1368560791015625,0.148895263671875,-0.4169769287109375,-0.7720410823822021,-2.872320652008057,-0.7020566463470459,20.4398193359375,87.38587951660156,0.55914306640625
117384,-0.00177001953125,0.2083892822265625,-0.5383758544921875,-0.0996352508664131,-2.961534023284912,-0.3169947266578674,20.71954345703125,86.79498291015625,1.740936279296875
117385,0.030914306640625,0.264190673828125,0.00579833984375,0.001195226679556,-0.191665843129158,0.8971667885780334,21.2608642578125,86.27030944824219,3.657455444335938
117386,0.030914306640625,0.264190673828125,0.00579833984375,0.001195226679556,-0.191665843129158,0.8971667885780334,21.2608642578125,86.27030944824219,3.657455444335938
117387,-0.0328521728515625,0.297607421875,-0.1600189208984375,-0.0474311634898185,0.5834181904792786,0.9796704053878784,21.66096496582031,86.30232238769531,4.185546875
117388,-0.0182037353515625,0.2579803466796875,-0.2407073974609375,-0.0223883967846632,0.5188940167427063,0.8769504427909851,21.93960571289062,86.58621215820312,4.367080688476562
117389,0.007476806640625,0.22161865234375,-0.22589111328125,-0.0025060346815735,0.1154067516326904,0.7772983908653259,22.21182250976562,86.71250915527344,4.490463256835938
117390,0.04180908203125,0.2831878662109375,-0.18890380859375,0.0069745522923767,-0.8970066905021667,0.7352697253227234,22.88717651367188,87.00798034667969,4.614486694335938
117391,0.04180908203125,0.2831878662109375,-0.18890380859375,0.0069745522923767,-0.8970066905021667,0.7352697253227234,22.88717651367188,87.00798034667969,4.614486694335938
117392,0.0020599365234375,0.4116973876953125,-0.1475067138671875,0.1179133206605911,-1.200275778770447,0.6805351376533508,23.17225646972656,87.10995483398438,5.037826538085938
117393,-0.042205810546875,0.5457763671875,-0.0972442626953125,0.3303086757659912,-1.188785791397095,0.5377699732780457,23.52967834472656,87.2808837890625,5.365447998046875
117394,-0.0883636474609375,0.6685791015625,-0.1042938232421875,0.5974149107933044,-0.9531400203704834,0.3317670226097107,23.82901000976562,87.54487609863281,5.716232299804688
117395,-0.1703338623046875,0.77532958984375,-0.1693115234375,0.9286922216415404,-0.5860738754272461,0.0549929440021514,24.09260559082031,87.65190124511719,6.022781372070312
117396,-0.288482666015625,0.8645782470703125,-0.2694854736328125,1.276401400566101,-0.1655727177858353,-0.2611525058746338,24.25062561035156,87.81277465820312,6.265609741210938
117397,-0.447052001953125,1.015823364257812,-0.549102783203125,1.635163903236389,0.1748303920030594,-0.5253684520721436,24.3607177734375,87.89793395996094,6.27313232421875
117398,-0.631439208984375,1.2926025390625,-1.017425537109375,1.857163310050964,0.1940919756889343,-0.6804988980293274,24.15684509277344,88.042236328125,5.868148803710938
117399,-0.7824859619140625,1.627395629882812,-1.15777587890625,1.485884666442871,0.0168876368552446,-0.6846901774406433,23.99989318847656,88.13154602050781,5.2637939453125
117400,-0.8153839111328125,1.885238647460938,-0.711090087890625,0.5897205471992493,0.0782447382807731,-0.6381543874740601,23.72470092773438,88.22587585449219,4.662368774414062
117401,-0.833984375,2.124099731445312,-0.1993560791015625,-0.0814080387353897,0.493697851896286,-0.7414112687110901,23.49049377441406,88.21049499511719,4.172958374023438
117402,-0.941650390625,2.428604125976562,-0.021697998046875,-0.0570526346564292,1.191879153251648,-0.9195823073387146,23.21907043457031,88.06838989257812,3.884963989257812
117403,-1.053176879882812,2.636947631835938,-0.066192626953125,0.3117379248142242,1.784554958343506,-0.7462153434753418,22.94537353515625,87.72361755371094,3.519012451171875
117404,-1.273529052734375,2.655197143554688,-0.0882720947265625,0.1999035328626633,1.867340683937073,-0.0941739007830619,22.60398864746094,87.4998779296875,3.093154907226562
117405,-1.518905639648438,2.651077270507812,-0.060455322265625,0.0227295476943254,1.517391204833984,0.6309769153594971,22.23480224609375,87.16935729980469,2.4205322265625
117406,-1.631378173828125,2.692977905273438,0.02972412109375,0.4442887604236603,0.934878706932068,1.091447591781616,21.76747131347656,87.2791748046875,1.525543212890625
117407,-1.655654907226562,2.854217529296875,0.196685791015625,1.101469874382019,0.885625958442688,1.122739672660828,21.6400146484375,87.544677734375,0.6801910400390625
117408,-1.671676635742188,3.047592163085938,0.26605224609375,1.369844079017639,1.295605540275574,0.8014863133430481,21.51457214355469,88.09080505371094,0.0347900390625
117409,-1.893753051757812,3.0435791015625,0.33758544921875,1.177887916564941,1.802394151687622,0.240945503115654,21.4305419921875,88.58830261230469,-0.6876983642578125
117410,-2.196548461914062,2.722335815429688,0.28302001953125,0.8245319724082947,2.12408185005188,-0.4276690483093262,21.32371520996094,88.99833679199219,-1.78033447265625
117411,-2.401885986328125,2.125106811523438,-0.0090789794921875,0.6287006735801697,1.672780156135559,-0.849907636642456,21.07211303710938,89.31765747070312,-2.841888427734375
117412,-2.242874145507812,1.347885131835938,-0.07562255859375,0.5562107563018799,0.6515024304389954,-0.5915234684944153,20.83078002929688,89.51278686523438,-3.6317138671875
117413,-1.665069580078125,0.8423614501953125,0.0951690673828125,0.5780534744262695,-0.053329799324274,0.0828256383538246,20.65069580078125,89.69351196289062,-4.446548461914062
117414,-1.204635620117188,0.703369140625,0.1903228759765625,0.6723155379295349,-0.3315457105636597,0.487945169210434,20.47221374511719,89.8369140625,-5.2431640625
117415,-1.009521484375,0.651458740234375,0.2341766357421875,0.6514784693717957,-0.4151298105716705,0.6510763168334961,20.55731201171875,90.1324462890625,-5.595565795898438
117416,-0.8803558349609375,0.6017303466796875,0.180999755859375,0.5151917338371277,-0.4981243014335632,0.6758825778961182,20.95281982421875,90.49479675292967,-5.671875
117417,-0.771636962890625,0.5456390380859375,0.0669708251953125,0.4827394783496857,-0.7551653981208801,0.6904740333557129,21.35078430175781,90.7823486328125,-5.698577880859375
117418,-0.704986572265625,0.5325775146484375,0.0541229248046875,0.5918028354644775,-0.9636166095733644,0.637941837310791,21.80560302734375,91.08216857910156,-5.763046264648438
117419,-0.651824951171875,0.5672760009765625,0.1231842041015625,0.7118951678276062,-0.8632205128669739,0.4889523684978485,22.31221008300781,91.2873992919922,-5.642044067382812
117420,-0.569183349609375,0.6673736572265625,0.172210693359375,0.7392258644104004,-0.4736807346343994,0.2670154571533203,22.76504516601562,91.5585479736328,-5.595962524414062
117421,-0.5256805419921875,1.044845581054688,0.0004425048828125,0.9268146753311156,0.2529134750366211,-0.1948592364788055,23.67703247070312,91.7287139892578,-5.621475219726562
117422,-0.524658203125,0.948760986328125,-0.0565948486328125,1.072134613990784,0.4724487662315369,-0.3365207612514496,24.00614929199219,91.7393035888672,-5.792160034179688
117423,-0.459228515625,0.756256103515625,-0.1096038818359375,1.179010987281799,0.4080745875835419,-0.3234816491603851,24.03193664550781,91.73069763183594,-6.2423095703125
117424,-0.3144683837890625,0.5990447998046875,0.0096435546875,1.145901441574097,-0.2818676233291626,-0.1394598931074142,24.01812744140625,91.9697265625,-7.271163940429688
117425,-0.3144683837890625,0.5990447998046875,0.0096435546875,1.145901441574097,-0.2818676233291626,-0.1394598931074142,24.01812744140625,91.9697265625,-7.271163940429688
117426,-0.2769927978515625,0.5484619140625,0.083587646484375,1.019631147384644,-0.637779951095581,-0.0996714681386947,23.97537231445312,91.96510314941406,-7.764694213867188
117427,-0.2513885498046875,0.4833526611328125,0.194580078125,0.8338077664375305,-0.8545836210250854,-0.1615641266107559,23.92559814453125,92.05323791503906,-8.150802612304688
117428,-0.1904144287109375,0.331512451171875,0.1797027587890625,0.6875264644622803,-1.097813367843628,-0.2188934683799744,23.955810546875,92.21107482910156,-8.3673095703125
117429,-0.1656341552734375,0.1541290283203125,0.2067413330078125,0.6461201310157776,-1.32198166847229,-0.2528013586997986,23.98123168945312,92.3678741455078,-8.627655029296875
117430,-0.185028076171875,-0.0045166015625,0.327301025390625,0.5950833559036255,-1.335109233856201,-0.2747258245944977,23.97575378417969,92.32354736328124,-8.630081176757812
117431,-0.232421875,-0.1310272216796875,0.4796905517578125,0.4314411580562592,-1.069954752922058,-0.298644483089447,23.98231506347656,92.42556762695312,-8.608535766601562
117432,-0.307403564453125,-0.2128143310546875,0.5759429931640625,0.1902069598436356,-0.6992302536964417,-0.2866048812866211,23.91325378417969,92.45347595214844,-8.558883666992188
117433,-0.431610107421875,-0.2021331787109375,0.6182098388671875,-0.0550222396850585,-0.4358763694763184,-0.2373766005039215,23.793701171875,92.46832275390624,-8.402557373046875
117434,-0.575836181640625,-0.09637451171875,0.6355133056640625,-0.2955032885074615,-0.301333487033844,-0.1728585958480835,23.57919311523438,92.52793884277344,-8.347137451171875
117435,-0.69683837890625,0.0465240478515625,0.59259033203125,-0.5485650897026062,-0.3623904287815094,-0.2184647023677826,23.38414001464844,92.6060028076172,-8.223892211914062
117436,-0.7971343994140625,0.1511993408203125,0.53033447265625,-0.7747031450271606,-0.6201665997505188,-0.3379759192466736,23.20913696289062,92.6020050048828,-8.084304809570312
117437,-0.84228515625,0.1796722412109375,0.4832763671875,-0.9538617134094238,-0.9364963173866272,-0.5038849711418152,23.03013610839844,92.65544128417967,-7.893157958984375
117438,-0.77337646484375,0.160186767578125,0.4182891845703125,-0.9945716261863708,-1.227010488510132,-0.6515777707099915,22.80535888671875,92.6545867919922,-7.74932861328125
117439,-0.6237640380859375,0.1466522216796875,0.342681884765625,-0.8850704431533813,-1.522616028785706,-0.7486883401870728,22.44802856445312,92.62652587890624,-7.341461181640625
117440,-0.44354248046875,0.10626220703125,0.302215576171875,-0.6670171618461609,-1.689187407493591,-0.8946242332458496,22.00930786132812,92.29193115234376,-6.026611328125
117441,-0.44354248046875,0.10626220703125,0.302215576171875,-0.6670171618461609,-1.689187407493591,-0.8946242332458496,22.00930786132812,92.29193115234376,-6.026611328125
117442,-0.3925628662109375,0.081451416015625,0.2679595947265625,-0.6245424151420593,-1.666400074958801,-0.9380438923835754,21.878662109375,91.95643615722656,-5.231094360351562
117443,-0.3443603515625,0.0490264892578125,0.228424072265625,-0.6219130754470825,-1.693362236022949,-0.9650749564170836,21.76914978027344,91.54948425292967,-4.328842163085938
117444,-0.2920684814453125,0.013641357421875,0.1888885498046875,-0.6563395261764526,-1.748136520385742,-0.9540843963623048,21.74969482421875,91.13470458984376,-3.599212646484375
117445,-0.243072509765625,-0.01690673828125,0.1438446044921875,-0.739854633808136,-1.809361696243286,-0.911554217338562,21.812744140625,90.60931396484376,-3.217422485351562
117446,-0.189971923828125,-0.017578125,0.0944976806640625,-0.8443637490272522,-1.887631297111511,-0.847154974937439,21.88406372070312,90.19155883789062,-2.4635009765625
117447,-0.09991455078125,0.0460205078125,0.0362548828125,-0.9741923213005066,-1.945091605186462,-0.7506516575813293,22.16441345214844,89.61299133300781,-1.62847900390625
117448,0.0696563720703125,0.1079864501953125,-0.195281982421875,-1.152217388153076,-2.1128089427948,-0.4419190883636475,22.46864318847656,89.03111267089844,-0.638641357421875
117449,0.3553924560546875,0.088592529296875,-0.7937164306640625,-0.6505500674247742,-2.531189918518066,0.4683626890182495,22.57307434082031,88.45735168457031,0.405242919921875
117450,0.345855712890625,0.12481689453125,-0.4698028564453125,0.5702229738235474,-1.944145441055298,1.59527051448822,22.49678039550781,88.01583862304688,1.47222900390625
117451,0.137603759765625,0.2000579833984375,0.0609130859375,0.8046895861625671,-0.355320543050766,2.080550193786621,22.55439758300781,87.82899475097656,2.472412109375
117452,0.1157073974609375,0.2508087158203125,-0.052520751953125,0.4975205659866333,0.786918044090271,2.054733991622925,23.00314331054688,88.04640197753906,3.149627685546875
117453,0.1542816162109375,0.2625274658203125,-0.2386474609375,-0.0218507032841444,1.128522992134094,1.874447226524353,23.71942138671875,88.56654357910156,3.270034790039062
117454,0.0931243896484375,0.3590087890625,-0.2626495361328125,-0.5199015140533447,0.3132228851318359,1.516033172607422,25.08724975585938,89.5277099609375,3.181488037109375
117455,0.0931243896484375,0.3590087890625,-0.2626495361328125,-0.5199015140533447,0.3132228851318359,1.516033172607422,25.08724975585938,89.5277099609375,3.181488037109375
117456,-0.005889892578125,0.689483642578125,-0.2152557373046875,-0.0537375286221504,-0.4513280391693115,0.8279767632484436,26.91351318359375,90.22335815429688,3.832351684570312
117457,-0.005889892578125,0.689483642578125,-0.2152557373046875,-0.0537375286221504,-0.4513280391693115,0.8279767632484436,26.91351318359375,90.22335815429688,3.832351684570312
117458,-0.005889892578125,0.689483642578125,-0.2152557373046875,-0.0537375286221504,-0.4513280391693115,0.8279767632484436,26.91351318359375,90.22335815429688,3.832351684570312
117459,-0.100006103515625,0.786468505859375,-0.2731170654296875,0.2663664519786835,-0.4825442731380463,0.5256009101867676,27.38150024414062,90.47084045410156,4.128448486328125
117460,-0.36322021484375,1.005126953125,-0.3274993896484375,0.7191344499588013,-0.0994442999362945,-0.0279048681259155,27.917724609375,90.81564331054688,4.466903686523438
117461,-0.36322021484375,1.005126953125,-0.3274993896484375,0.7191344499588013,-0.0994442999362945,-0.0279048681259155,27.917724609375,90.81564331054688,4.466903686523438
117462,-0.4825286865234375,1.221878051757812,-0.4023590087890625,0.7663925290107727,0.1026281043887138,-0.3677391409873962,28.05587768554688,90.8551025390625,4.458099365234375
117463,-0.58184814453125,1.452301025390625,-0.4138946533203125,0.6432141065597534,0.2130150645971298,-0.7362279295921326,27.99424743652344,91.00588989257812,4.330825805664062
117464,-0.6174163818359375,1.706863403320312,-0.319976806640625,0.3296197056770325,0.2777343988418579,-1.035564064979553,27.85409545898438,91.0338897705078,3.92071533203125
117465,-0.5836029052734375,1.872421264648438,-0.0230560302734375,-0.0980195105075836,0.6364827156066895,-1.092267274856567,27.47894287109375,90.9512176513672,3.605575561523438
117466,-0.593963623046875,1.95916748046875,0.3022613525390625,-0.4760115444660187,1.335850119590759,-0.909456431865692,27.06965637207031,90.78016662597656,3.183273315429688
117467,-0.7716522216796875,2.235336303710938,0.4181365966796875,-0.5221524238586426,1.846136808395386,-0.6811303496360779,26.49308776855469,90.44268798828124,2.841629028320312
117468,-1.07489013671875,2.602035522460938,0.4185333251953125,-0.113363042473793,1.749705076217651,-0.5026849508285522,25.90818786621094,90.07713317871094,2.451492309570312
117469,-1.43115234375,2.958282470703125,0.4570159912109375,0.5752345323562622,1.072741031646729,-0.3302764594554901,25.2916259765625,89.80502319335938,1.941757202148438
117470,-1.7957763671875,3.315353393554688,0.5310821533203125,1.246046423912048,0.183733344078064,-0.2105031758546829,24.75637817382812,89.59239196777344,1.270599365234375
117471,-2.224502563476562,3.863876342773438,0.59124755859375,1.689942359924316,-0.3023510873317719,-0.3762740194797516,24.17752075195312,89.49427795410156,0.4468231201171875
117472,-2.844863891601562,3.972183227539062,0.382049560546875,1.911214828491211,-0.2524716556072235,-0.7109367251396179,23.70083618164062,89.51054382324219,-0.597503662109375
117473,-3.470535278320312,2.823623657226562,0.32122802734375,1.017357587814331,1.789353966712952,0.1709038317203522,23.11038208007812,89.59178161621094,-1.758148193359375
117474,-2.78955078125,2.302154541015625,0.001190185546875,0.4056175351142883,2.538998365402222,0.0395418182015419,22.41557312011719,89.552978515625,-2.894485473632812
117475,-2.229904174804688,1.810531616210938,0.10516357421875,0.3328370749950409,1.806387305259705,-0.3358975946903229,21.93911743164062,89.93359375,-3.911041259765625
117476,-1.693862915039062,0.864990234375,0.230560302734375,0.4320246577262878,0.6940314769744873,-0.0758204609155654,21.77032470703125,90.4725341796875,-5.192428588867188
117477,-1.693862915039062,0.864990234375,0.230560302734375,0.4320246577262878,0.6940314769744873,-0.0758204609155654,21.77032470703125,90.4725341796875,-5.192428588867188
117478,-1.314590454101562,0.5850067138671875,0.1068878173828125,0.694427490234375,0.5586502552032471,0.2241374999284744,21.80357360839844,90.68537902832033,-5.602508544921875
117479,-1.041107177734375,0.3588104248046875,0.008453369140625,0.8589528203010559,0.3667817413806915,0.4681552350521088,21.89726257324219,90.87179565429688,-5.73687744140625
117480,-0.867401123046875,0.2277374267578125,-0.0646209716796875,0.8124606609344482,-0.0456660203635692,0.606999933719635,22.0577392578125,91.09919738769533,-5.886184692382812
117481,-0.7513580322265625,0.1636505126953125,-0.0596466064453125,0.7314249277114868,-0.4920973181724548,0.7051147818565369,22.42384338378906,91.1653289794922,-6.003311157226562
117482,-0.71563720703125,0.1735076904296875,0.0057220458984375,0.694424033164978,-0.725732684135437,0.7599465847015381,22.81976318359375,91.48112487792967,-6.5023193359375
117483,-0.723602294921875,0.2360076904296875,0.13031005859375,0.702343225479126,-0.4174206554889679,0.7244389057159424,23.33535766601562,91.78297424316406,-6.719635009765625
117484,-0.7152252197265625,0.352264404296875,0.1410369873046875,0.863210141658783,0.4292192757129669,0.5887173414230347,23.98379516601562,92.043212890625,-6.72998046875
117485,-0.7098846435546875,0.528717041015625,-0.0192413330078125,1.167146801948547,1.160096883773804,0.3766849637031555,24.57728576660156,92.25254821777344,-6.74774169921875
117486,-0.7321014404296875,0.6337432861328125,-0.051971435546875,1.439194917678833,1.542523980140686,0.1595060378313065,25.14509582519531,92.4873504638672,-6.95343017578125
117487,-0.690948486328125,0.5702667236328125,0.0208282470703125,1.556656002998352,1.62464702129364,0.0453235395252704,25.43955993652344,92.79119873046876,-7.364105224609375
117488,-0.574676513671875,0.4873809814453125,0.0623931884765625,1.455699324607849,1.452004432678223,0.0126335034146904,25.71080017089844,92.9532470703125,-8.210861206054688
117489,-0.4725494384765625,0.376220703125,0.0600433349609375,1.218530893325806,1.090751171112061,0.0185134969651699,25.76704406738281,92.97732543945312,-9.246932983398438
117490,-0.3827972412109375,0.27593994140625,0.029022216796875,1.003144860267639,0.6960709691047668,0.0389207676053047,25.65318298339844,93.23678588867188,-10.19203186035156
117491,-0.2990570068359375,0.2280120849609375,0.01220703125,0.9187855124473572,0.2012271136045456,0.0476588644087314,25.56777954101562,93.31771850585938,-11.01199340820312
117492,-0.1903228759765625,0.193115234375,0.233856201171875,0.8969278931617737,-0.4381477832794189,-0.0135938394814729,25.47611999511719,93.61451721191406,-12.22334289550781
117493,-0.1903228759765625,0.193115234375,0.233856201171875,0.8969278931617737,-0.4381477832794189,-0.0135938394814729,25.47611999511719,93.61451721191406,-12.22334289550781
117494,-0.1652069091796875,0.1962890625,0.2758636474609375,0.8330828547477722,-0.5671188235282898,-0.1458916962146759,25.45318603515625,93.74069213867188,-12.52999877929688
117495,-0.1408538818359375,0.177215576171875,0.2986297607421875,0.7979118227958679,-0.7159256339073181,-0.279256671667099,25.35848999023438,93.77220153808594,-12.7374267578125
117496,-0.1622467041015625,0.1831817626953125,0.38433837890625,0.794401228427887,-0.7948427796363831,-0.4475415647029877,25.1845703125,93.93048095703124,-12.88822937011719
117497,-0.2465057373046875,0.173583984375,0.505096435546875,0.7777815461158752,-0.7400892376899719,-0.62664794921875,24.96156311035156,94.01188659667967,-13.03355407714844
117498,-0.37579345703125,0.1780853271484375,0.581695556640625,0.7376652359962463,-0.6497598886489868,-0.6745752096176147,24.8104248046875,94.0754852294922,-13.2081298828125
117499,-0.4851226806640625,0.2223968505859375,0.6163330078125,0.6664363741874695,-0.6203881502151489,-0.6943973898887634,24.49531555175781,94.0648956298828,-13.46586608886719
117500,-0.5814361572265625,0.2401885986328125,0.5955963134765625,0.5253732204437256,-0.7199181914329529,-0.7354233860969543,24.12031555175781,93.99740600585938,-13.63681030273438
117501,-0.6541900634765625,0.207061767578125,0.520233154296875,0.3529713749885559,-0.9827434420585632,-0.7875697016716003,23.87651062011719,93.9443817138672,-13.92059326171875
117502,-0.6980133056640625,0.14337158203125,0.417816162109375,0.1780509650707245,-1.411757946014404,-0.8291930556297302,23.54747009277344,93.94088745117188,-14.23297119140625
117503,-0.700469970703125,0.088592529296875,0.3372344970703125,0.0144521761685609,-1.913859128952026,-0.8374861478805542,23.16981506347656,93.83839416503906,-14.19876098632812
117504,-0.64642333984375,0.1095123291015625,0.2781219482421875,-0.1280660927295685,-2.355791807174683,-0.8070512413978577,22.93685913085938,93.73464965820312,-14.15260314941406
117505,-0.5939483642578125,0.1914520263671875,0.2475128173828125,-0.2693339884281158,-2.640564918518066,-0.7880368232727051,22.65603637695312,93.53286743164062,-13.73985290527344
117506,-0.550994873046875,0.265960693359375,0.2396087646484375,-0.4811623692512512,-2.690297365188599,-0.799619197845459,22.480224609375,93.37940979003906,-13.37602233886719
117507,-0.4990234375,0.3052520751953125,0.2233734130859375,-0.7072820663452148,-2.556317090988159,-0.8198387026786804,22.32850646972656,93.13308715820312,-12.61665344238281
117508,-0.4421844482421875,0.2861175537109375,0.1737518310546875,-0.8770681619644165,-2.32364821434021,-0.8077242374420166,22.16920471191406,92.74398803710938,-11.59745788574219
117509,-0.3915252685546875,0.23516845703125,0.082763671875,-0.9747001528739928,-1.978994250297546,-0.7484806180000305,21.91279602050781,92.22618103027344,-9.826828002929688
117510,-0.2526702880859375,0.1776123046875,-0.35296630859375,-0.8732518553733826,-1.853855967521667,-0.5590124130249023,21.91279602050781,92.22618103027344,-9.826828002929688
117511,-0.07940673828125,0.1142730712890625,-0.58087158203125,-0.3804064691066742,-2.031146287918091,-0.1520798057317734,21.80418395996094,91.85243225097656,-8.839859008789062
117512,-0.0060272216796875,0.088348388671875,-0.2053375244140625,-0.0427708998322486,-1.336447238922119,0.2990695238113403,21.79922485351562,91.56559753417967,-7.756118774414062
117513,0.0227508544921875,0.0892486572265625,-0.0211944580078125,0.0121032679453492,-0.2647552192211151,0.6262479424476624,21.83161926269531,91.3147430419922,-6.66845703125
117514,0.037139892578125,0.1016082763671875,-0.0718536376953125,0.0414566285908222,0.3146431446075439,0.7993709444999695,21.93132019042969,91.18203735351562,-6.050003051757812
117515,0.0488433837890625,0.0888671875,-0.133758544921875,0.0910936892032623,0.408331036567688,0.8903107047080994,22.14341735839844,91.15280151367188,-5.67767333984375
117516,0.091583251953125,0.0365753173828125,-0.1467132568359375,0.0905605256557464,-0.1429196000099182,1.000195622444153,23.41213989257812,91.62405395507812,-5.189651489257812
117517,0.091583251953125,0.0365753173828125,-0.1467132568359375,0.0905605256557464,-0.1429196000099182,1.000195622444153,23.41213989257812,91.62405395507812,-5.189651489257812
117518,0.1339874267578125,0.015472412109375,-0.1534881591796875,0.070328488945961,-0.5532192587852478,1.112676978111267,23.89474487304688,91.80313110351562,-5.129241943359375
117519,0.1719970703125,0.0185699462890625,-0.1572418212890625,0.1007244810461998,-0.9695472121238708,1.276549816131592,24.43836975097656,92.09376525878906,-4.776626586914062
117520,0.1503753662109375,0.3072967529296875,-0.113739013671875,0.3208677768707275,-1.411789059638977,1.718051552772522,26.36396789550781,92.87884521484376,-3.421524047851562
117521,0.1503753662109375,0.3072967529296875,-0.113739013671875,0.3208677768707275,-1.411789059638977,1.718051552772522,26.36396789550781,92.87884521484376,-3.421524047851562
117522,0.1503753662109375,0.3072967529296875,-0.113739013671875,0.3208677768707275,-1.411789059638977,1.718051552772522,26.36396789550781,92.87884521484376,-3.421524047851562
117523,0.0891571044921875,0.488677978515625,-0.1960296630859375,0.4490193426609039,-1.328686237335205,1.578207612037659,27.12187194824219,93.32600402832033,-2.832046508789062
117524,-0.05535888671875,0.8881988525390625,-0.4951171875,0.7753111720085144,-1.039300203323364,0.7633972764015198,28.42807006835938,94.10379028320312,-2.173370361328125
117525,-0.05535888671875,0.8881988525390625,-0.4951171875,0.7753111720085144,-1.039300203323364,0.7633972764015198,28.42807006835938,94.10379028320312,-2.173370361328125
117526,-0.2300872802734375,0.968353271484375,-0.56695556640625,0.6899246573448181,-0.5410534143447876,0.1891238540410995,28.99075317382812,94.46829223632812,-2.077438354492188
117527,-0.4477081298828125,0.984832763671875,-0.641357421875,0.8096158504486084,-0.0140425823628902,-0.2451985776424408,29.29573059082031,94.56364440917967,-2.106704711914062
117528,-0.6624298095703125,1.568954467773438,-0.8257293701171875,0.99934983253479,0.7045959830284119,-0.8566569089889526,29.27249145507812,94.4961395263672,-2.604660034179688
117529,-0.6624298095703125,1.568954467773438,-0.8257293701171875,0.99934983253479,0.7045959830284119,-0.8566569089889526,29.27249145507812,94.4961395263672,-2.604660034179688
117530,-0.715667724609375,1.929229736328125,-0.6072998046875,0.4016081392765045,1.009771108627319,-1.018166899681091,28.88505554199219,94.37838745117188,-3.182327270507812
117531,-0.760284423828125,2.193359375,-0.2464752197265625,-0.4561323821544647,1.216788649559021,-1.332258820533752,28.34201049804688,94.2843017578125,-3.800674438476562
117532,-0.89617919921875,2.568588256835938,-0.0009307861328125,-0.9534761309623718,1.501577854156494,-1.732759356498718,27.61088562011719,93.9958038330078,-4.34564208984375
117533,-1.50872802734375,3.553787231445312,0.1213836669921875,-0.6004884839057922,2.221794366836548,-2.982975721359253,25.51986694335938,93.18594360351562,-5.133758544921875
117534,-1.50872802734375,3.553787231445312,0.1213836669921875,-0.6004884839057922,2.221794366836548,-2.982975721359253,25.51986694335938,93.18594360351562,-5.133758544921875
117535,-2.256576538085938,3.55047607421875,0.2473602294921875,-0.0062035676091909,1.729250907897949,-2.8578040599823,24.1651611328125,92.40545654296876,-5.843170166015625
117536,-3.569183349609375,2.802703857421875,0.534698486328125,0.1451153755187988,1.938590526580811,-0.6655551195144653,22.61714172363281,91.55348205566406,-6.831619262695312
117537,-3.628799438476562,2.713424682617188,0.1760711669921875,0.3181742429733276,1.664936661720276,1.165684223175049,21.37478637695312,90.99960327148438,-8.019882202148438
117538,-2.661087036132812,2.712188720703125,0.1854095458984375,0.7632286548614502,0.6484946608543396,1.015941619873047,20.86363220214844,91.16152954101562,-9.153396606445312
117539,-2.200393676757812,2.2347412109375,0.41119384765625,0.8056879639625549,0.6305468082427979,0.6354560852050781,20.91151428222656,91.40280151367188,-9.730987548828123
117540,-1.965866088867188,1.7855224609375,0.23565673828125,0.7916355729103088,0.6673764586448669,0.2664037346839905,21.04244995117188,91.87054443359376,-10.51924133300781
117541,-1.784866333007812,1.499069213867188,0.130706787109375,0.7288960218429565,0.303798496723175,0.1538084745407104,21.26255798339844,92.4169921875,-11.19461059570312
117542,-1.681838989257812,1.232864379882812,0.1717376708984375,0.6472269892692566,0.163794532418251,0.0566459670662879,21.42817687988281,92.7421875,-11.60426330566406
117543,-1.48565673828125,0.8998565673828125,0.1520538330078125,0.6110127568244934,0.1400135606527328,0.0606585517525672,21.74143981933594,92.99847412109376,-11.83016967773438
117544,-1.08282470703125,0.4055938720703125,0.13702392578125,0.6392326951026917,-0.1308088749647141,0.4020728766918182,22.43504333496094,93.3094482421875,-12.24623107910156
117545,-0.9098663330078124,0.2706451416015625,0.19744873046875,0.625165581703186,-0.2793099284172058,0.5719974637031555,22.86122131347656,93.37330627441406,-12.30912780761719
117546,-0.9098663330078124,0.2706451416015625,0.19744873046875,0.625165581703186,-0.2793099284172058,0.5719974637031555,22.86122131347656,93.37330627441406,-12.30912780761719
117547,-0.7704315185546875,0.19952392578125,0.26116943359375,0.6059815287590027,-0.3028032779693604,0.6942943334579468,23.25350952148438,93.31869506835938,-12.36180114746094
117548,-0.6533050537109375,0.1672515869140625,0.31103515625,0.6692523956298828,-0.1692470759153366,0.7397409081459045,23.84901428222656,93.43898010253906,-12.45442199707031
117549,-0.5401611328125,0.1300811767578125,0.2882232666015625,0.8579442501068115,0.1907680928707123,0.7496875524520874,24.35575866699219,93.55256652832033,-12.58810424804688
117550,-0.414306640625,0.1462554931640625,0.1465911865234375,1.156864881515503,0.5953139662742615,0.7343083620071411,24.8189697265625,93.80377197265624,-12.79695129394531
117551,-0.304656982421875,0.261260986328125,-0.0782318115234375,1.46586275100708,0.919473111629486,0.717664361000061,25.36630249023438,93.87591552734376,-13.10162353515625
117552,-0.25897216796875,0.4563751220703125,-0.295440673828125,1.630917429924011,0.9633727073669434,0.6338056921958923,25.88665771484375,94.15249633789062,-13.70613098144531
117553,-0.2551116943359375,0.585113525390625,-0.3897552490234375,1.568250298500061,0.6812885403633118,0.4526194036006927,26.36103820800781,94.1854248046875,-14.38066101074219
117554,-0.2543487548828125,0.5830841064453125,-0.3413848876953125,1.348382115364075,0.3206374049186707,0.1765071302652359,26.72010803222656,94.26783752441406,-15.19161987304688
117555,-0.2430572509765625,0.448974609375,-0.188690185546875,1.104326844215393,0.1219437494874001,-0.0650298669934272,26.838623046875,94.3647918701172,-15.91932678222656
117556,-0.218414306640625,0.313018798828125,-0.05499267578125,0.9202395677566528,-0.0432923473417758,-0.1801042556762695,26.94363403320312,94.4878387451172,-16.48287963867188
117557,-0.13812255859375,0.3329315185546875,0.0849609375,0.9482989311218262,-0.6512156128883362,-0.1429835259914398,26.85145568847656,94.54393005371094,-17.14521789550781
117558,-0.13812255859375,0.3329315185546875,0.0849609375,0.9482989311218262,-0.6512156128883362,-0.1429835259914398,26.85145568847656,94.54393005371094,-17.14521789550781
117559,-0.123077392578125,0.382415771484375,0.16778564453125,1.025631308555603,-0.8497436046600342,-0.1300919502973557,26.79541015625,94.31927490234376,-17.5562744140625
117560,-0.09661865234375,0.352020263671875,0.250213623046875,1.022913217544556,-1.087534546852112,-0.1394801288843155,26.62713623046875,94.28836059570312,-18.29425048828125
117561,-0.09661865234375,0.352020263671875,0.250213623046875,1.022913217544556,-1.087534546852112,-0.1394801288843155,26.62713623046875,94.28836059570312,-18.29425048828125
117562,-0.118621826171875,0.3050994873046875,0.3121795654296875,0.9161372780799866,-1.124461650848389,-0.1407185047864914,26.66864013671875,94.30226135253906,-18.46929931640625
117563,-0.1843109130859375,0.2649078369140625,0.3903045654296875,0.8004007935523987,-1.1209636926651,-0.1374097913503647,26.54716491699219,94.31748962402344,-18.71116638183594
117564,-0.291259765625,0.2479400634765625,0.4715118408203125,0.6773481369018555,-1.057194232940674,-0.118941031396389,26.36785888671875,94.24581909179688,-18.93464660644531
117565,-0.5713958740234375,0.2491302490234375,0.5652008056640625,0.2891665697097778,-0.9089123606681824,-0.1658853739500046,25.9754638671875,94.54460144042967,-19.10916137695312
117566,-0.5713958740234375,0.2491302490234375,0.5652008056640625,0.2891665697097778,-0.9089123606681824,-0.1658853739500046,25.9754638671875,94.54460144042967,-19.10916137695312
117567,-0.720367431640625,0.2375640869140625,0.56134033203125,0.0578992515802383,-0.9777180552482604,-0.2284400910139084,25.76835632324219,94.6681671142578,-19.26751708984375
117568,-0.8515167236328125,0.2013092041015625,0.5377349853515625,-0.1773846298456192,-1.143855929374695,-0.2958936989307404,25.45687866210938,94.72894287109376,-19.13389587402344
117569,-0.9356842041015624,0.14874267578125,0.4852294921875,-0.4022845923900604,-1.378129959106445,-0.3771246373653412,25.2000732421875,94.86515808105467,-19.12991333007812
117570,-0.9665985107421876,0.091217041015625,0.3919677734375,-0.588473379611969,-1.652779579162598,-0.4414458572864532,24.96025085449219,94.83958435058594,-18.86148071289062
117571,-0.9108428955078124,0.089111328125,0.2787322998046875,-0.7194468379020691,-1.930453777313232,-0.4646449089050293,24.75448608398438,94.8235321044922,-18.29360961914062
117572,-0.679840087890625,0.2701568603515625,0.0614166259765625,-0.8219465613365173,-2.509414672851562,-0.6062289476394653,24.18821716308594,94.71026611328124,-17.20622253417969
117573,-0.679840087890625,0.2701568603515625,0.0614166259765625,-0.8219465613365173,-2.509414672851562,-0.6062289476394653,24.18821716308594,94.71026611328124,-17.20622253417969
117574,-0.599334716796875,0.3141632080078125,0.1161651611328125,-0.8195809125900269,-2.543689489364624,-0.6711735725402832,23.95394897460938,94.67996215820312,-16.35121154785156
117575,-0.4965362548828125,0.3367767333984375,0.20758056640625,-0.8611600399017334,-2.130606174468994,-0.6879693269729614,23.63502502441406,94.4871063232422,-15.25875854492188
117576,-0.3649444580078125,0.339080810546875,0.171356201171875,-0.8480703234672546,-1.577651858329773,-0.6729243397712708,23.31005859375,94.3302001953125,-14.26153564453125
117577,-0.2609405517578125,0.289215087890625,0.0997161865234375,-0.6778157949447632,-1.220040440559387,-0.638611376285553,23.07278442382812,94.15545654296876,-13.25550842285156
117578,-0.1866912841796875,0.2218017578125,0.0747222900390625,-0.4696305990219116,-0.9197841882705688,-0.5284667611122131,22.92549133300781,93.93057250976562,-12.41017150878906
117579,-0.1106414794921875,0.17169189453125,0.03436279296875,-0.3578010201454163,-0.638844907283783,-0.3498991429805756,22.84506225585938,93.57785034179688,-11.560791015625
117580,0.0312652587890625,0.083709716796875,-0.1365814208984375,-0.3449307680130005,-0.519503116607666,0.1526422798633575,22.92872619628906,93.02835083007812,-10.44564819335938
117581,0.05364990234375,0.061553955078125,-0.191070556640625,-0.3024416267871857,-0.5364722013473511,0.3940767347812653,22.86332702636719,93.04351806640624,-10.50393676757812
117582,0.05364990234375,0.061553955078125,-0.191070556640625,-0.3024416267871857,-0.5364722013473511,0.3940767347812653,22.86332702636719,93.04351806640624,-10.50393676757812
117583,0.0703887939453125,0.071136474609375,-0.2133026123046875,-0.1919832825660706,-0.5594193339347839,0.5635405778884888,22.89401245117188,92.98982238769533,-10.14375305175781
117584,0.1046142578125,0.1405487060546875,-0.169708251953125,0.060628991574049,-0.5319664478302002,0.8411983251571655,23.33390808105469,93.20257568359376,-9.50054931640625
117585,0.1046142578125,0.1405487060546875,-0.169708251953125,0.060628991574049,-0.5319664478302002,0.8411983251571655,23.33390808105469,93.20257568359376,-9.50054931640625
117586,0.1104736328125,0.1891632080078125,-0.1619873046875,0.1573070585727692,-0.5299943685531616,0.9605305790901184,23.62652587890625,93.3422393798828,-9.119338989257812
117587,0.0898590087890625,0.2814483642578125,-0.207794189453125,0.2634856998920441,-0.670965850353241,1.047087788581848,23.96653747558594,93.47476196289062,-8.73638916015625
117588,0.0548858642578125,0.4299468994140625,-0.284332275390625,0.4026326835155487,-1.002272963523865,1.07728111743927,24.45440673828125,93.57992553710938,-8.438461303710938
117589,0.0115814208984375,0.629913330078125,-0.3614501953125,0.5916470885276794,-1.411167979240417,1.053768634796143,24.89430236816406,93.8851318359375,-8.172271728515625
117590,-0.076995849609375,0.8780059814453125,-0.4622039794921875,0.8930639028549194,-1.616761445999146,0.8956543803215027,25.36026000976562,94.12094116210938,-7.954269409179688
117591,-0.22979736328125,1.174453735351562,-0.6254730224609375,1.323705315589905,-1.156213998794556,0.5084872245788574,25.67585754394531,94.36289978027344,-7.799423217773438
117592,-0.554595947265625,1.567718505859375,-0.96258544921875,0.2987997531890869,1.63672924041748,0.2921985685825348,26.09527587890625,94.7274169921875,-8.009963989257812
117593,-0.554595947265625,1.567718505859375,-0.96258544921875,0.2987997531890869,1.63672924041748,0.2921985685825348,26.09527587890625,94.7274169921875,-8.009963989257812
117594,-0.554595947265625,1.567718505859375,-0.96258544921875,0.2987997531890869,1.63672924041748,0.2921985685825348,26.09527587890625,94.7274169921875,-8.009963989257812
117595,-0.648834228515625,1.6798095703125,-0.507843017578125,-0.7822369933128357,0.7721441388130188,-0.2564251124858856,26.157958984375,94.83676147460938,-8.808319091796875
117596,-0.87188720703125,2.278106689453125,0.3297576904296875,-0.3241477012634277,0.7386599183082581,-1.246249914169312,26.18154907226562,94.7602081298828,-9.37164306640625
117597,-0.87188720703125,2.278106689453125,0.3297576904296875,-0.3241477012634277,0.7386599183082581,-1.246249914169312,26.18154907226562,94.7602081298828,-9.37164306640625
117598,-1.177719116210938,2.620941162109375,0.44097900390625,0.5368868708610535,1.227524161338806,-1.53669798374176,25.89155578613281,94.56631469726562,-9.277908325195312
117599,-1.666412353515625,2.725311279296875,0.4752349853515625,0.6690118908882141,1.769186615943909,-1.502030849456787,25.24214172363281,94.29705810546876,-9.472824096679688
117600,-2.73162841796875,2.657272338867188,-0.1809539794921875,-0.1174480691552162,1.017865777015686,0.4668896794319153,23.38627624511719,93.46107482910156,-11.23396301269531
117601,-2.73162841796875,2.657272338867188,-0.1809539794921875,-0.1174480691552162,1.017865777015686,0.4668896794319153,23.38627624511719,93.46107482910156,-11.23396301269531
117602,-2.5880126953125,2.635848999023438,0.2497406005859375,0.2066618353128433,-0.0621496587991714,0.9231392741203308,22.8389892578125,93.36802673339844,-12.44056701660156
117603,-2.057830810546875,2.56304931640625,0.5961151123046875,0.3881533145904541,0.1746714115142822,0.6282817721366882,22.66081237792969,93.48179626464844,-13.01210021972656
117604,-1.885391235351562,2.216079711914062,0.526947021484375,0.6268162131309509,0.9080327153205872,0.2147349417209625,22.63681030273438,93.87635803222656,-13.39840698242188
117605,-1.809738159179688,1.85894775390625,0.2865447998046875,0.8330181241035461,0.9559597969055176,-0.0160908196121454,22.72946166992188,94.1843719482422,-13.72994995117188
117606,-1.6199951171875,1.63763427734375,0.10113525390625,0.8456225991249084,0.3180054128170013,-0.0183161571621894,22.89544677734375,94.35179138183594,-14.368896484375
117607,-1.406387329101562,1.423263549804688,0.0747222900390625,0.7996417880058289,-0.3138242363929749,0.080505758523941,23.04487609863281,94.37318420410156,-15.03091430664062
117608,-1.223663330078125,1.0736083984375,0.367584228515625,0.4344885945320129,-0.1982353180646896,0.1136027276515961,23.20075988769531,94.74888610839844,-15.76608276367188
117609,-1.223663330078125,1.0736083984375,0.367584228515625,0.4344885945320129,-0.1982353180646896,0.1136027276515961,23.20075988769531,94.74888610839844,-15.76608276367188
117610,-1.148483276367188,0.843994140625,0.32940673828125,0.1637798845767975,-0.0282654594630003,0.2003895491361618,23.26687622070312,94.8744659423828,-15.99494934082031
117611,-1.095428466796875,0.6168365478515625,0.2403411865234375,0.1411049216985703,-0.1198198795318604,0.3191795945167542,23.50784301757812,95.051513671875,-16.11199951171875
117612,-0.9296112060546876,0.2441558837890625,0.19207763671875,0.7642518877983093,-0.7274531126022339,0.4813972413539886,24.22389221191406,95.28622436523438,-16.12969970703125
117613,-0.9296112060546876,0.2441558837890625,0.19207763671875,0.7642518877983093,-0.7274531126022339,0.4813972413539886,24.22389221191406,95.28622436523438,-16.12969970703125
117614,-0.8021087646484375,0.2159576416015625,0.301544189453125,1.045858025550842,-0.797675609588623,0.4634518027305603,24.60942077636719,95.39337158203124,-16.20089721679688
117615,-0.6455230712890625,0.2291717529296875,0.3299407958984375,1.239326000213623,-0.4724455773830414,0.4054225981235504,25.01014709472656,95.46302795410156,-16.23060607910156
117616,-0.375091552734375,0.3524322509765625,-0.1103515625,1.375528812408447,0.5773464441299438,0.3996438086032867,25.80126953125,95.40106201171876,-16.53117370605469
117617,-0.375091552734375,0.3524322509765625,-0.1103515625,1.375528812408447,0.5773464441299438,0.3996438086032867,25.80126953125,95.40106201171876,-16.53117370605469
117618,-0.3157958984375,0.49420166015625,-0.374725341796875,1.375048398971558,0.8992410898208618,0.3290023803710938,26.32688903808594,95.46868896484376,-17.07704162597656
117619,-0.2996673583984375,0.551361083984375,-0.4383392333984375,1.353366732597351,0.8069026470184326,0.1753566414117813,26.66598510742188,95.4358367919922,-17.76228332519531
117620,-0.289825439453125,0.4914703369140625,-0.107391357421875,1.096098780632019,0.2230743616819382,-0.0628159791231155,27.22775268554688,95.3306121826172,-19.20953369140625
117621,-0.289825439453125,0.4914703369140625,-0.107391357421875,1.096098780632019,0.2230743616819382,-0.0628159791231155,27.22775268554688,95.3306121826172,-19.20953369140625
117622,-0.265167236328125,0.47149658203125,0.027618408203125,0.9953961372375488,-0.0331347845494747,-0.0591440126299858,27.33139038085938,95.32185363769533,-19.86557006835938
117623,-0.24176025390625,0.4670257568359375,0.0608673095703125,0.9777920842170716,-0.1978406459093094,-0.0377492420375347,27.33847045898438,95.15818786621094,-20.28736877441406
117624,-0.203887939453125,0.437835693359375,0.095550537109375,1.141591668128967,-0.5324793457984924,0.0284031461924314,27.30804443359375,95.20013427734376,-21.17930603027344
117625,-0.203887939453125,0.437835693359375,0.095550537109375,1.141591668128967,-0.5324793457984924,0.0284031461924314,27.30804443359375,95.20013427734376,-21.17930603027344
117626,-0.21759033203125,0.456787109375,0.16851806640625,1.195708990097046,-0.6109312772750854,-0.0211343131959438,27.23541259765625,95.17575073242188,-21.67694091796875
117627,-0.210357666015625,0.449249267578125,0.2038726806640625,1.17046058177948,-0.7144941687583923,-0.0844142138957977,27.18807983398438,95.08192443847656,-22.1314697265625
117628,-0.2240142822265625,0.4358673095703125,0.2960052490234375,1.116171002388,-0.7768893837928772,-0.1107115969061852,27.26643371582031,95.12394714355467,-22.54637145996094
117629,-0.284820556640625,0.4206085205078125,0.4027252197265625,1.0489102602005,-0.7556586265563965,-0.0852171629667282,27.11532592773438,95.10758972167967,-22.95564270019531
117630,-0.373443603515625,0.387969970703125,0.4898223876953125,0.9747502207756042,-0.6892313957214355,-0.0147581733763217,26.96784973144531,95.16241455078124,-23.34687805175781
117631,-0.484222412109375,0.3607330322265625,0.5663299560546875,0.8815380334854126,-0.5951384902000427,-0.0002998719282913,26.82865905761719,95.08340454101562,-23.66896057128906
117632,-0.7799224853515625,0.294677734375,0.6673583984375,0.537883460521698,-0.6750591397285461,-0.0255509000271558,26.65824890136719,95.19631958007812,-24.52188110351562
117633,-0.7799224853515625,0.294677734375,0.6673583984375,0.537883460521698,-0.6750591397285461,-0.0255509000271558,26.65824890136719,95.19631958007812,-24.52188110351562
117634,-0.88470458984375,0.224273681640625,0.69281005859375,0.234804779291153,-0.8290034532546997,-0.1042539700865746,26.42230224609375,95.22175598144533,-24.74516296386719
117635,-0.92730712890625,0.136932373046875,0.66107177734375,-0.0958769917488098,-1.084001421928406,-0.2092962265014648,26.20945739746094,95.23143005371094,-24.95333862304688
117636,-0.905548095703125,0.0584869384765625,0.58636474609375,-0.4006531536579132,-1.445037841796875,-0.2709540128707886,26.15963745117188,95.23416137695312,-25.01853942871094
117637,-0.8154144287109375,0.0619354248046875,0.4694061279296875,-0.6223745942115784,-1.900423526763916,-0.3038547039031982,25.99447631835938,95.36270141601562,-25.16558837890625
117638,-0.6998138427734375,0.1489105224609375,0.3933868408203125,-0.7617285251617432,-2.334192514419556,-0.3882670402526855,25.7371826171875,95.43644714355467,-24.83552551269531
117639,-0.5938720703125,0.2128448486328125,0.3885040283203125,-0.8823649287223816,-2.535973072052002,-0.4819919466972351,25.45619201660156,95.62052917480467,-24.3568115234375
117640,-0.495697021484375,0.25250244140625,0.3819732666015625,-1.040589451789856,-2.445703268051147,-0.5632495284080505,25.12611389160156,95.58351135253906,-23.57545471191406
117641,-0.411895751953125,0.25506591796875,0.332672119140625,-1.177805662155151,-2.207534074783325,-0.645338237285614,24.66810607910156,95.55177307128906,-22.64996337890625
117642,-0.3368072509765625,0.218170166015625,0.2462310791015625,-1.224823951721191,-1.977823495864868,-0.6991197466850281,24.25448608398438,95.51084899902344,-21.75929260253906
117643,-0.2698822021484375,0.170257568359375,0.1496734619140625,-1.214368939399719,-1.813881397247314,-0.7181442975997925,23.92601013183594,95.37391662597656,-20.70179748535156
117644,-0.0974884033203125,0.071990966796875,-0.3126678466796875,-1.047581315040588,-1.76022481918335,-0.5902611613273621,23.473876953125,94.92665100097656,-18.47129821777344
117645,-0.0974884033203125,0.071990966796875,-0.3126678466796875,-1.047581315040588,-1.76022481918335,-0.5902611613273621,23.473876953125,94.92665100097656,-18.47129821777344
117646,0.074798583984375,-0.00872802734375,-0.859130859375,-0.3800429403781891,-2.631101846694946,-0.2638811767101288,23.21492004394531,94.7097625732422,-17.61920166015625
117647,0.124053955078125,0.024566650390625,-0.5353851318359375,0.1886889636516571,-2.789516448974609,0.2243774384260178,23.12197875976562,94.59664916992188,-16.65924072265625
117648,0.107696533203125,0.1478271484375,-0.0353240966796875,0.0784537941217422,-0.3671577572822571,1.06161642074585,23.05239868164062,94.24191284179688,-14.85337829589844
117649,0.107696533203125,0.1478271484375,-0.0353240966796875,0.0784537941217422,-0.3671577572822571,1.06161642074585,23.05239868164062,94.24191284179688,-14.85337829589844
117650,0.075469970703125,0.2178497314453125,-0.0854644775390625,0.0959057584404945,0.2910752594470978,1.260843753814697,23.11058044433594,94.25747680664062,-14.18339538574219
117651,0.0307159423828125,0.2713470458984375,-0.1447296142578125,0.1515884548425674,0.4317101240158081,1.249932289123535,23.406005859375,94.43788146972656,-13.74540710449219
117652,0.006195068359375,0.365081787109375,-0.247161865234375,0.2082618623971939,-0.221407487988472,0.9727978706359864,24.59542846679688,94.70645141601562,-13.27604675292969
117653,0.006195068359375,0.365081787109375,-0.247161865234375,0.2082618623971939,-0.221407487988472,0.9727978706359864,24.59542846679688,94.70645141601562,-13.27604675292969
117654,-0.0024566650390625,0.49517822265625,-0.3334503173828125,0.2561928927898407,-0.8267426490783691,0.8441235423088074,25.08592224121094,94.87818908691406,-13.16744995117188
117655,-0.0912628173828125,0.7442169189453125,-0.4741973876953125,0.4922637641429901,-1.453411936759949,0.6853170990943909,25.61003112792969,95.04327392578124,-12.90887451171875
117656,-0.4138336181640625,1.613265991210938,-0.6902923583984375,2.028633832931519,-0.9985042810440063,0.0604175366461277,26.13545227050781,95.26544189453124,-12.24168395996094
117657,-0.4138336181640625,1.613265991210938,-0.6902923583984375,2.028633832931519,-0.9985042810440063,0.0604175366461277,26.13545227050781,95.26544189453124,-12.24168395996094
117658,-0.45306396484375,1.826644897460938,-0.580596923828125,2.283962249755859,0.9358640909194946,0.0185726191848516,26.17497253417969,95.34205627441406,-12.14987182617188
117659,-0.5009613037109375,1.811233520507812,-0.7803192138671875,1.676895618438721,1.74847412109375,0.01710787974298,26.21563720703125,95.22639465332033,-12.36470031738281
117660,-0.7057342529296875,2.058029174804688,-0.944000244140625,0.8251226544380188,0.7151002883911133,-0.4680401682853699,26.18844604492188,95.10841369628906,-13.07666015625
117661,-0.8972625732421875,2.442428588867188,-0.5866241455078125,0.2643355131149292,-0.5635398030281067,-1.184006571769714,26.2752685546875,95.05618286132812,-14.17494201660156
117662,-1.068634033203125,2.772216796875,0.0374755859375,0.3112212717533112,-0.4826276302337646,-1.583147048950195,26.2725830078125,94.9704132080078,-15.05404663085938
117663,-1.268142700195312,2.762374877929688,0.363037109375,0.4779564440250397,0.864023745059967,-1.287022352218628,25.98069763183594,94.67268371582033,-15.44589233398438
117664,-1.853515625,1.996353149414062,0.0092315673828125,0.0506301522254943,1.802822589874268,0.6641833186149597,24.80815124511719,93.9139404296875,-16.64131164550781
117665,-1.853515625,1.996353149414062,0.0092315673828125,0.0506301522254943,1.802822589874268,0.6641833186149597,24.80815124511719,93.9139404296875,-16.64131164550781
117666,-1.966323852539062,2.012313842773438,0.0559844970703125,0.3527647256851196,0.3096196353435516,1.172502756118774,24.43797302246094,93.76393127441406,-17.64321899414062
117667,-1.875,2.37744140625,0.38323974609375,0.6411275267601013,-0.5161829590797424,1.205298185348511,24.46495056152344,93.84121704101562,-18.38604736328125
117668,-1.8048095703125,2.4893798828125,0.7121124267578125,1.124166369438171,1.13416576385498,0.6580601930618286,25.01593017578125,94.37515258789062,-19.18528747558594
117669,-1.898696899414062,2.157638549804688,0.46435546875,1.255157113075256,1.96446430683136,0.1513269394636154,25.15438842773438,94.75920104980467,-19.67106628417969
117670,-1.898696899414062,2.157638549804688,0.46435546875,1.255157113075256,1.96446430683136,0.1513269394636154,25.15438842773438,94.75920104980467,-19.67106628417969
117671,-1.865127563476562,1.802032470703125,-0.056427001953125,1.176786184310913,1.60054349899292,-0.1812339723110199,25.41407775878906,95.06689453125,-20.23223876953125
117672,-1.219879150390625,1.143524169921875,-0.1564788818359375,0.7533485889434814,-0.2689971029758453,0.0414800643920898,25.93032836914062,95.3179168701172,-21.97978210449219
117673,-1.219879150390625,1.143524169921875,-0.1564788818359375,0.7533485889434814,-0.2689971029758453,0.0414800643920898,25.93032836914062,95.3179168701172,-21.97978210449219
117674,-1.021194458007812,1.017379760742188,0.121429443359375,0.6310418844223022,-0.3811739683151245,0.2806026339530945,25.93077087402344,95.29241943359376,-22.81153869628906
117675,-0.96435546875,0.9158172607421876,0.3063201904296875,0.6639625430107117,-0.1343583464622498,0.4081414043903351,26.08702087402344,95.361083984375,-23.35189819335938
117676,-0.9246978759765624,0.5473785400390625,0.359954833984375,0.7108362913131714,0.1182265058159828,0.484242856502533,27.0938720703125,95.72348022460938,-23.88661193847656
117677,-0.9246978759765624,0.5473785400390625,0.359954833984375,0.7108362913131714,0.1182265058159828,0.484242856502533,27.0938720703125,95.72348022460938,-23.88661193847656
117678,-0.847381591796875,0.416961669921875,0.312347412109375,0.7674124836921692,-0.0051846420392394,0.569355845451355,27.55027770996094,95.7885284423828,-24.07623291015625
117679,-0.778656005859375,0.3663177490234375,0.2752227783203125,0.825623095035553,-0.1178549975156784,0.5941307544708252,28.01194763183594,95.85261535644533,-24.204345703125
117680,-0.5965576171875,0.4937591552734375,-0.0170135498046875,1.194840550422668,-0.0232738964259624,0.4405030906200409,28.69789123535156,95.82179260253906,-24.93775939941406
117681,-0.5965576171875,0.4937591552734375,-0.0170135498046875,1.194840550422668,-0.0232738964259624,0.4405030906200409,28.69789123535156,95.82179260253906,-24.93775939941406
117682,-0.514862060546875,0.6480560302734375,-0.1627044677734375,1.417569518089294,0.4407640695571899,0.3566334843635559,29.05580139160156,95.83645629882812,-25.35197448730469
117683,-0.4114227294921875,0.7426910400390625,-0.3206024169921875,1.510428309440613,0.8739210963249207,0.2632750570774078,29.35844421386719,95.66949462890624,-25.77435302734375
117684,-0.3045501708984375,0.7265777587890625,-0.356536865234375,1.467201471328735,0.7842130661010742,0.1772964894771576,29.77813720703125,95.52523803710938,-26.54322814941406
117685,-0.2234039306640625,0.651824951171875,-0.224090576171875,1.27878475189209,0.2734251618385315,0.225707158446312,30.15701293945312,95.36732482910156,-27.29989624023438
117686,-0.1883392333984375,0.592254638671875,-0.029693603515625,1.071359038352966,-0.2006654590368271,0.2966063618659973,30.4251708984375,95.2104034423828,-27.90267944335938
117687,-0.1536865234375,0.5612335205078125,0.0929107666015625,0.9877363443374634,-0.5157365798950195,0.3407876789569855,30.45417785644531,95.12672424316406,-28.48419189453125
117688,-0.1064300537109375,0.549957275390625,0.24676513671875,0.9935675859451294,-0.7396876811981201,0.3847189247608185,30.68171691894531,95.14183044433594,-29.4893798828125
117689,-0.1064300537109375,0.549957275390625,0.24676513671875,0.9935675859451294,-0.7396876811981201,0.3847189247608185,30.68171691894531,95.14183044433594,-29.4893798828125
117690,-0.133575439453125,0.541656494140625,0.304840087890625,0.9730551242828368,-0.7219662070274353,0.3076901733875275,30.70094299316406,95.16876220703124,-29.70892333984375
117691,-0.208038330078125,0.5123443603515625,0.4089813232421875,0.877188503742218,-0.6947715878486633,0.1182249113917351,30.79837036132812,95.05126953125,-29.85389709472656
117692,-0.52410888671875,0.4643096923828125,0.6711883544921875,0.4901140630245209,-0.3225919008255005,0.0598558783531189,30.83161926269531,95.10971069335938,-30.57249450683594
117693,-0.52410888671875,0.4643096923828125,0.6711883544921875,0.4901140630245209,-0.3225919008255005,0.0598558783531189,30.83161926269531,95.10971069335938,-30.57249450683594
117694,-0.687042236328125,0.4789276123046875,0.732086181640625,0.2523214519023895,-0.1673021763563156,0.0634831041097641,30.70533752441406,95.13438415527344,-30.97837829589844
117695,-0.8577728271484375,0.45458984375,0.7567291259765625,0.0155707038938999,-0.1180315613746643,0.0350165739655494,30.62403869628906,95.1130828857422,-31.23304748535156
117696,-1.008956909179688,0.1429595947265625,0.548797607421875,-0.6733999848365784,-0.6663873195648193,-0.0495196171104908,30.31259155273438,95.51622009277344,-31.07987976074219
117697,-1.008956909179688,0.1429595947265625,0.548797607421875,-0.6733999848365784,-0.6663873195648193,-0.0495196171104908,30.31259155273438,95.51622009277344,-31.07987976074219
117698,-1.008956909179688,0.1429595947265625,0.548797607421875,-0.6733999848365784,-0.6663873195648193,-0.0495196171104908,30.31259155273438,95.51622009277344,-31.07987976074219
117699,-0.8695526123046875,0.077972412109375,0.41717529296875,-0.8323334455490112,-1.072357773780823,-0.1485599130392075,30.10969543457031,95.58847045898438,-30.76553344726562
117700,-0.5365447998046875,0.132537841796875,0.213226318359375,-0.855210542678833,-1.939108848571777,-0.3125334084033966,29.40724182128906,95.94122314453124,-30.15614318847656
117701,-0.5365447998046875,0.132537841796875,0.213226318359375,-0.855210542678833,-1.939108848571777,-0.3125334084033966,29.40724182128906,95.94122314453124,-30.15614318847656
117702,-0.4343109130859375,0.17108154296875,0.187957763671875,-0.7757585644721985,-2.179709672927856,-0.427200585603714,28.98257446289062,96.17820739746094,-29.52195739746094
117703,-0.349609375,0.169647216796875,0.178314208984375,-0.6913614273071289,-2.266157865524292,-0.5421919226646423,28.52107238769531,96.22486877441406,-28.75930786132812
117704,-0.199981689453125,0.0960693359375,0.1097412109375,-0.6037806868553162,-2.144195079803467,-0.6480682492256165,27.6380615234375,96.22428894042967,-27.09439086914062
117705,-0.199981689453125,0.0960693359375,0.1097412109375,-0.6037806868553162,-2.144195079803467,-0.6480682492256165,27.6380615234375,96.22428894042967,-27.09439086914062
117706,-0.1165924072265625,0.053802490234375,-0.0441131591796875,-0.5675569176673889,-2.110779285430908,-0.6237847805023193,27.40032958984375,96.02374267578124,-26.12812805175781
117707,-0.0045928955078125,0.003204345703125,-0.313629150390625,-0.3967779874801636,-2.381901502609253,-0.5042282938957214,27.06759643554688,95.81546020507812,-25.24510192871094
117708,0.1535797119140625,-0.0416259765625,-0.249237060546875,0.1860399097204208,-2.39946436882019,0.0732963159680366,26.76292419433594,95.41282653808594,-23.8013916015625
117709,0.1535797119140625,-0.0416259765625,-0.249237060546875,0.1860399097204208,-2.39946436882019,0.0732963159680366,26.76292419433594,95.41282653808594,-23.8013916015625
117710,0.208404541015625,-0.04302978515625,-0.149078369140625,0.3033241927623749,-1.625584721565247,0.5031579732894897,26.83407592773438,95.23664855957033,-23.06512451171875
117711,0.2593841552734375,-0.018341064453125,-0.1587982177734375,0.3492642641067505,-0.9970744252204896,0.9643990397453308,26.99673461914062,95.14999389648438,-22.40707397460938
117712,0.201629638671875,0.10760498046875,-0.21484375,0.2938002049922943,-0.4543677568435669,1.456495881080627,27.57786560058594,95.34141540527344,-21.87554931640625
117713,0.201629638671875,0.10760498046875,-0.21484375,0.2938002049922943,-0.4543677568435669,1.456495881080627,27.57786560058594,95.34141540527344,-21.87554931640625
117714,0.1696319580078125,0.1731109619140625,-0.2415924072265625,0.1914218962192535,-0.5076248645782471,1.424934148788452,27.95860290527344,95.5631103515625,-21.43571472167969
117715,0.149169921875,0.2330322265625,-0.2600860595703125,0.1286740899085999,-0.647950291633606,1.319752335548401,28.62431335449219,95.77450561523438,-21.14169311523438
117716,0.076904296875,0.4191436767578125,-0.14642333984375,0.2001290917396545,-0.864257276058197,0.9618291258811952,29.65081787109375,96.28181457519533,-20.68423461914062
117717,0.04541015625,0.5214080810546875,-0.1078338623046875,0.2586709558963776,-0.8443980813026428,0.7698085308074951,30.09738159179688,96.43034362792967,-20.58892822265625
117718,0.04541015625,0.5214080810546875,-0.1078338623046875,0.2586709558963776,-0.8443980813026428,0.7698085308074951,30.09738159179688,96.43034362792967,-20.58892822265625
117719,-0.009979248046875,0.648468017578125,-0.182159423828125,0.4045346975326538,-0.8492208123207092,0.547003984451294,30.41432189941406,96.60250854492188,-20.38824462890625
117720,-0.2663116455078125,0.852294921875,-0.4674835205078125,1.236306428909302,-0.7757468819618225,-0.1317074298858643,30.67010498046875,96.7560577392578,-20.27236938476562
117721,-0.2663116455078125,0.852294921875,-0.4674835205078125,1.236306428909302,-0.7757468819618225,-0.1317074298858643,30.67010498046875,96.7560577392578,-20.27236938476562
117722,-0.4278106689453125,0.9463958740234376,-0.7207183837890625,1.850026845932007,-0.2991563379764557,-0.4301050305366516,30.57646179199219,96.73330688476562,-20.26448059082031
117723,-0.551025390625,1.088104248046875,-1.10302734375,2.027681350708008,0.6077919602394104,-0.3704909682273865,30.40231323242188,96.54704284667967,-20.57049560546875
117724,-0.7064056396484375,2.133956909179688,-0.526336669921875,-1.395950198173523,0.1896863132715225,-0.8889967203140259,30.13392639160156,95.77000427246094,-22.93496704101562
117725,-0.7064056396484375,2.133956909179688,-0.526336669921875,-1.395950198173523,0.1896863132715225,-0.8889967203140259,30.13392639160156,95.77000427246094,-22.93496704101562
117726,-0.7064056396484375,2.133956909179688,-0.526336669921875,-1.395950198173523,0.1896863132715225,-0.8889967203140259,30.13392639160156,95.77000427246094,-22.93496704101562
117727,-0.766876220703125,2.658279418945312,-0.2486724853515625,-1.01093864440918,-0.0719245225191116,-1.458336591720581,30.17813110351562,95.7565460205078,-22.86007690429688
117728,-0.7997894287109375,3.064605712890625,0.2357635498046875,0.2353451400995255,0.7340353727340698,-1.499622821807861,29.88444519042969,95.58090209960938,-22.51091003417969
117729,-1.023391723632812,3.555755615234375,0.3040618896484375,0.6593928337097168,1.377673745155334,-1.178534030914307,29.32444763183594,95.39447021484376,-22.25286865234375
117730,-1.465484619140625,3.996078491210938,-0.022064208984375,0.4889579713344574,1.053945779800415,-0.9309436678886414,28.73725891113281,94.93595886230467,-22.71978759765625
117731,-1.97967529296875,3.843154907226562,-0.0393829345703125,0.3357628285884857,0.89727783203125,-0.5794298052787781,28.15339660644531,94.57365417480467,-23.44670104980469
117732,-2.348281860351562,2.646240234375,0.243408203125,0.6514284014701843,1.870791554450989,0.3238451778888702,27.13310241699219,94.32191467285156,-25.43441772460938
117733,-2.348281860351562,2.646240234375,0.243408203125,0.6514284014701843,1.870791554450989,0.3238451778888702,27.13310241699219,94.32191467285156,-25.43441772460938
117734,-2.399978637695312,2.220870971679688,0.1353302001953125,0.9263043999671936,1.720799088478088,0.2585854828357697,27.09968566894531,94.5727081298828,-26.38742065429688
117735,-2.488388061523438,1.804351806640625,-0.1168212890625,1.00902247428894,1.115517497062683,0.0736087039113044,27.23733520507812,94.70111083984376,-27.12448120117188
117736,-2.377853393554688,1.298385620117188,-0.26092529296875,0.9343354105949402,0.221726268529892,0.0079876193776726,27.46417236328125,94.99533081054688,-27.87872314453125
117737,-1.854202270507812,0.8623199462890625,-0.2380828857421875,0.8960344195365906,-0.5232229828834534,0.2813901305198669,27.75152587890625,95.04710388183594,-28.57630920410156
117738,-1.387954711914062,0.794677734375,-0.139404296875,0.890174388885498,-0.8564305305480957,0.6267728209495544,27.79763793945312,95.09925842285156,-29.09857177734375
117739,-1.1859130859375,0.862091064453125,0.12188720703125,0.8844760060310364,-0.6599829792976379,0.7655400037765503,27.93235778808594,95.12351989746094,-29.43109130859375
117740,-0.9451446533203124,0.7955474853515625,0.395721435546875,0.946446418762207,-0.0319941528141498,0.5220711827278137,28.58334350585938,95.2795867919922,-30.07785034179688
117741,-0.9451446533203124,0.7955474853515625,0.395721435546875,0.946446418762207,-0.0319941528141498,0.5220711827278137,28.58334350585938,95.2795867919922,-30.07785034179688
117742,-0.8218994140625,0.70001220703125,0.467193603515625,0.825330913066864,0.1394761353731155,0.3112031519412994,29.12191772460938,95.352294921875,-30.37718200683594
117743,-0.666259765625,0.5805511474609375,0.4114532470703125,0.6501045227050781,0.2388690412044525,0.1594546437263489,29.58700561523438,95.42233276367188,-30.82637023925781
117744,-0.3551025390625,0.3985443115234375,0.099517822265625,0.5294942259788513,0.1067831739783287,0.1686225682497025,30.33480834960938,95.25691223144533,-31.35504150390625
117745,-0.3551025390625,0.3985443115234375,0.099517822265625,0.5294942259788513,0.1067831739783287,0.1686225682497025,30.33480834960938,95.25691223144533,-31.35504150390625
117746,-0.2453460693359375,0.4102630615234375,-0.0530853271484375,0.6355865597724915,0.032264195382595,0.30305016040802,30.64016723632812,95.07998657226562,-31.51322937011719
117747,-0.2522125244140625,0.5975494384765625,-0.1697235107421875,0.7645964622497559,0.0776633694767952,0.3471534252166748,30.80043029785156,95.01771545410156,-31.719970703125
117748,-0.38079833984375,0.567626953125,-0.1008453369140625,0.6108713746070862,0.0608383156359195,-0.0206735860556364,31.08091735839844,94.77098083496094,-32.64614868164062
117749,-0.38079833984375,0.567626953125,-0.1008453369140625,0.6108713746070862,0.0608383156359195,-0.0206735860556364,31.08091735839844,94.77098083496094,-32.64614868164062
117750,-0.38079833984375,0.567626953125,-0.1008453369140625,0.6108713746070862,0.0608383156359195,-0.0206735860556364,31.08091735839844,94.77098083496094,-32.64614868164062
117751,-0.3498687744140625,0.529754638671875,0.014923095703125,0.6342020034790039,-0.1907960474491119,-0.0051803807727992,31.32255554199219,94.57666015625,-32.9461669921875
117752,-0.3388519287109375,0.357025146484375,0.186187744140625,0.6140759587287903,-0.5738459825515747,0.051080759614706,31.54977416992188,94.3029327392578,-33.51203918457031
117753,-0.3388519287109375,0.357025146484375,0.186187744140625,0.6140759587287903,-0.5738459825515747,0.051080759614706,31.54977416992188,94.3029327392578,-33.51203918457031
117754,-0.341217041015625,0.27392578125,0.242156982421875,0.5857548117637634,-0.5788428783416748,0.1351069509983063,31.50015258789062,94.23709106445312,-33.66572570800781
117755,-0.3712615966796875,0.21966552734375,0.310394287109375,0.5794753432273865,-0.3948887288570404,0.1862742751836777,31.5263671875,94.36671447753906,-33.92156982421875
117756,-0.4100494384765625,0.180694580078125,0.371612548828125,0.4058274030685425,0.1229016855359077,0.231906995177269,31.49810791015625,94.22837829589844,-34.32276916503906
117757,-0.4100494384765625,0.180694580078125,0.371612548828125,0.4058274030685425,0.1229016855359077,0.231906995177269,31.49810791015625,94.22837829589844,-34.32276916503906
117758,-0.436920166015625,0.2011871337890625,0.4287109375,0.1686207056045532,0.317171037197113,0.2172705382108688,31.44944763183594,94.1663818359375,-34.56484985351562
117759,-0.4936065673828125,0.2239990234375,0.523162841796875,-0.1312379091978073,0.4503996670246124,0.185034304857254,31.61941528320312,94.01927185058594,-34.82206726074219
117760,-0.647308349609375,0.2462310791015625,0.61932373046875,-0.723787784576416,0.5706315040588379,0.1039743348956108,31.74192810058594,94.0285186767578,-35.10061645507812
117761,-0.705474853515625,0.2158050537109375,0.5758819580078125,-0.932932198047638,0.4566301107406616,0.0631589964032173,31.78153991699219,94.15274047851562,-35.02723693847656
117762,-0.705474853515625,0.2158050537109375,0.5758819580078125,-0.932932198047638,0.4566301107406616,0.0631589964032173,31.78153991699219,94.15274047851562,-35.02723693847656
117763,-0.731475830078125,0.19659423828125,0.5169219970703125,-1.049621343612671,0.2468595802783966,-0.0164713840931654,31.81295776367188,94.28868103027344,-34.75296020507812
117764,-0.568145751953125,0.1522369384765625,0.34356689453125,-1.135684251785278,-0.345346212387085,-0.259906142950058,31.58836364746094,94.9713134765625,-34.44381713867188
117765,-0.568145751953125,0.1522369384765625,0.34356689453125,-1.135684251785278,-0.345346212387085,-0.259906142950058,31.58836364746094,94.9713134765625,-34.44381713867188
117766,-0.444915771484375,0.1442413330078125,0.248748779296875,-1.108152747154236,-0.6545730233192444,-0.3485196232795715,31.33895874023438,95.0368194580078,-34.07466125488281
117767,-0.34698486328125,0.1552886962890625,0.174713134765625,-1.039144158363342,-0.9528992772102356,-0.4258002936840057,30.93173217773438,95.3286590576172,-33.65669250488281
117768,-0.1873779296875,0.1886444091796875,0.14044189453125,-0.8767523169517517,-1.362163782119751,-0.543497622013092,30.23194885253906,95.44471740722656,-32.46290588378906
117769,-0.1873779296875,0.1886444091796875,0.14044189453125,-0.8767523169517517,-1.362163782119751,-0.543497622013092,30.23194885253906,95.44471740722656,-32.46290588378906
117770,-0.13525390625,0.1904754638671875,0.1354217529296875,-0.8526208996772766,-1.458296656608582,-0.5939711928367615,29.83840942382812,95.55632019042967,-31.88636779785156
117771,-0.076690673828125,0.16461181640625,0.0843353271484375,-0.8251210451126099,-1.588109731674194,-0.6122308969497681,29.44117736816406,95.47996520996094,-31.11790466308594
117772,0.0402679443359375,0.12396240234375,-0.07672119140625,-0.6559816002845764,-2.069298267364502,-0.5106139779090881,28.71542358398438,95.50334167480467,-29.66990661621094
117773,0.0402679443359375,0.12396240234375,-0.07672119140625,-0.6559816002845764,-2.069298267364502,-0.5106139779090881,28.71542358398438,95.50334167480467,-29.66990661621094
117774,0.1010894775390625,0.1263885498046875,-0.1075286865234375,-0.5186260938644409,-2.256044387817383,-0.3672890663146973,28.46615600585938,95.32420349121094,-28.82681274414062
117775,0.1511993408203125,0.1358184814453125,-0.1153717041015625,-0.411389946937561,-2.267728090286255,-0.1297409534454346,28.40721130371094,95.13095092773438,-28.02067565917969
117776,0.2733001708984375,0.133941650390625,-0.132965087890625,-0.0836203247308731,-2.053893566131592,0.746656060218811,28.06440734863281,94.87738037109376,-26.41018676757812
117777,0.2733001708984375,0.133941650390625,-0.132965087890625,-0.0836203247308731,-2.053893566131592,0.746656060218811,28.06440734863281,94.87738037109376,-26.41018676757812
117778,0.2305755615234375,0.1926422119140625,-0.0541229248046875,0.1597992479801178,-1.573975324630737,1.213099122047424,28.0716552734375,94.8642578125,-25.54048156738281
117779,0.1248321533203125,0.2781524658203125,-0.03533935546875,0.3137456774711609,-0.8832213878631592,1.349748611450195,28.01570129394531,94.9739990234375,-24.84091186523438
117780,0.05914306640625,0.3628692626953125,-0.3066253662109375,0.2539875209331512,-0.252396285533905,1.001816749572754,28.40139770507812,95.32722473144533,-23.78099060058594
117781,0.05914306640625,0.3628692626953125,-0.3066253662109375,0.2539875209331512,-0.252396285533905,1.001816749572754,28.40139770507812,95.32722473144533,-23.78099060058594
117782,0.0413360595703125,0.4337310791015625,-0.4666595458984375,0.1226428300142288,-0.5534866452217102,0.6927896738052368,28.74833679199219,95.68008422851562,-23.84857177734375
117783,0.0106201171875,0.5231475830078125,-0.4868011474609375,-0.020905815064907,-1.072218418121338,0.3570143282413483,29.02781677246094,96.0161590576172,-23.86920166015625
117784,-0.1312408447265625,0.6451416015625,-0.2961578369140625,-0.0090451603755354,-1.617538213729858,-0.0870352983474731,29.45573425292969,96.1810302734375,-23.41130065917969
117785,-0.1312408447265625,0.6451416015625,-0.2961578369140625,-0.0090451603755354,-1.617538213729858,-0.0870352983474731,29.45573425292969,96.1810302734375,-23.41130065917969
117786,-0.23541259765625,0.6746063232421875,-0.20159912109375,0.1286234855651855,-1.363739013671875,-0.1854753196239471,29.43856811523438,96.23860168457033,-23.20509338378906
117787,-0.3538665771484375,0.7309722900390625,-0.1669158935546875,0.1947780102491379,-0.7497309446334839,-0.2724424302577972,29.20614624023438,96.06634521484376,-22.7054443359375
117788,-0.6141357421875,1.071563720703125,-0.52520751953125,0.2309679687023163,0.3002847135066986,-0.6702483892440796,28.76588439941406,96.0156707763672,-22.08906555175781
117789,-0.6141357421875,1.071563720703125,-0.52520751953125,0.2309679687023163,0.3002847135066986,-0.6702483892440796,28.76588439941406,96.0156707763672,-22.08906555175781
117790,-0.73138427734375,1.414779663085938,-0.7701416015625,0.3669449687004089,0.2116374224424362,-0.9074199199676514,28.47386169433594,95.87448120117188,-22.18862915039062
117791,-0.82720947265625,1.854995727539062,-0.712554931640625,0.470045804977417,-0.0046560047194361,-1.017671585083008,28.23786926269531,95.58894348144533,-22.20513916015625
117792,-1.009872436523438,2.456588745117188,0.0519866943359375,0.0916276574134826,0.932691752910614,-0.8371683955192566,27.58924865722656,94.9460906982422,-22.67869567871094
117793,-1.009872436523438,2.456588745117188,0.0519866943359375,0.0916276574134826,0.932691752910614,-0.8371683955192566,27.58924865722656,94.9460906982422,-22.67869567871094
117794,-1.09063720703125,2.5294189453125,0.078369140625,0.0300929211080074,1.644077181816101,-0.5508043169975281,27.321044921875,94.5482177734375,-22.96128845214844
117795,-1.196273803710938,2.467391967773438,-0.1229705810546875,0.1673354655504227,1.782640337944031,-0.1685456037521362,26.99713134765625,94.17233276367188,-23.35464477539062
117796,-1.592681884765625,2.309539794921875,-0.2063751220703125,0.524816632270813,0.4941966831684113,0.9282370805740356,26.92839050292969,94.08859252929688,-24.83772277832031
117797,-1.592681884765625,2.309539794921875,-0.2063751220703125,0.524816632270813,0.4941966831684113,0.9282370805740356,26.92839050292969,94.08859252929688,-24.83772277832031
117798,-1.611618041992188,2.594696044921875,-0.024658203125,0.65571528673172,0.5185752511024475,1.322920441627502,26.96214294433594,94.28054809570312,-25.58705139160156
117799,-1.672042846679688,2.86260986328125,0.162872314453125,0.7299095988273621,1.125091314315796,1.264258980751038,27.12464904785156,94.3312530517578,-26.21586608886719
117800,-2.344879150390625,3.12298583984375,0.3972930908203125,0.4228063821792603,2.373356342315674,0.2339690923690796,27.78630065917969,94.83973693847656,-27.40733337402344
117801,-2.344879150390625,3.12298583984375,0.3972930908203125,0.4228063821792603,2.373356342315674,0.2339690923690796,27.78630065917969,94.83973693847656,-27.40733337402344
117802,-2.708633422851562,2.760177612304688,0.2458953857421875,0.2775983214378357,2.510555267333984,-0.1877877414226532,28.10829162597656,95.11996459960938,-28.2061767578125
117803,-2.734344482421875,1.908645629882812,-0.0536651611328125,0.1781857162714005,2.183361291885376,0.0372030287981033,28.34822082519531,95.46574401855467,-29.11854553222656
117804,-1.548660278320312,0.7484893798828125,-0.14422607421875,-0.100062683224678,0.385280042886734,0.7390809655189514,28.7486572265625,95.86807250976562,-30.73681640625
117805,-1.548660278320312,0.7484893798828125,-0.14422607421875,-0.100062683224678,0.385280042886734,0.7390809655189514,28.7486572265625,95.86807250976562,-30.73681640625
117806,-1.244369506835938,0.63519287109375,0.14703369140625,-0.3040299415588379,-0.1143718510866165,0.9160435199737548,29.08210754394531,96.10855102539062,-31.31752014160156
117807,-1.026397705078125,0.5673828125,0.359893798828125,-0.3564167022705078,-0.188681498169899,1.027414202690125,29.42572021484375,96.3054656982422,-31.55825805664062
117808,-0.69598388671875,0.6149444580078125,0.4958953857421875,0.1125646308064461,0.4108546376228333,0.8559271693229675,30.03688049316406,96.90347290039062,-31.34771728515625
117809,-0.518951416015625,0.5988616943359375,0.4007110595703125,0.5075950622558594,0.7526114583015442,0.6843029856681824,30.43075561523438,97.1719970703125,-31.09468078613281
117810,-0.518951416015625,0.5988616943359375,0.4007110595703125,0.5075950622558594,0.7526114583015442,0.6843029856681824,30.43075561523438,97.1719970703125,-31.09468078613281
117811,-0.3804931640625,0.5556640625,0.2525482177734375,0.8187766075134277,1.004488468170166,0.5378285646438599,31.06796264648438,97.41326904296876,-30.93214416503906
117812,-0.1750335693359375,0.622589111328125,-0.31805419921875,0.9645689725875854,0.2356854975223541,0.2793837189674377,32.76425170898438,97.33583068847656,-31.77854919433594
117813,-0.1750335693359375,0.622589111328125,-0.31805419921875,0.9645689725875854,0.2356854975223541,0.2793837189674377,32.76425170898438,97.33583068847656,-31.77854919433594
117814,-0.1750335693359375,0.622589111328125,-0.31805419921875,0.9645689725875854,0.2356854975223541,0.2793837189674377,32.76425170898438,97.33583068847656,-31.77854919433594
117815,-0.169281005859375,0.6634368896484375,-0.223724365234375,0.763020396232605,-0.1216497346758842,0.1060622557997704,33.35018920898438,97.0686492919922,-32.20588684082031
117816,-0.114593505859375,0.5458831787109375,0.0047149658203125,0.4936115741729736,-0.4048939645290375,-0.1316408514976501,34.15406799316406,96.53654479980467,-32.74092102050781
117817,-0.114593505859375,0.5458831787109375,0.0047149658203125,0.4936115741729736,-0.4048939645290375,-0.1316408514976501,34.15406799316406,96.53654479980467,-32.74092102050781
117818,-0.1126708984375,0.4416046142578125,0.126983642578125,0.5449368357658386,-0.3970136642456055,-0.1600059121847153,34.38844299316406,96.47283935546876,-32.90591430664062
117819,-0.13409423828125,0.3515472412109375,0.205047607421875,0.610066831111908,-0.306677371263504,-0.1562657654285431,34.44816589355469,96.34112548828124,-33.08198547363281
117820,-0.241607666015625,0.178436279296875,0.255218505859375,0.6452887058258057,-0.102196678519249,-0.144207239151001,34.50592041015625,96.1583251953125,-33.57746887207031
117821,-0.241607666015625,0.178436279296875,0.255218505859375,0.6452887058258057,-0.102196678519249,-0.144207239151001,34.50592041015625,96.1583251953125,-33.57746887207031
117822,-0.3634490966796875,0.0906829833984375,0.3165740966796875,0.5535122156143188,-0.0008862999966368,-0.1753233522176743,34.43437194824219,96.1119384765625,-33.80059814453125
117823,-0.51708984375,0.0108795166015625,0.386566162109375,0.3397652804851532,0.1316799968481064,-0.2319839596748352,34.47392272949219,95.92996215820312,-33.99853515625
117824,-0.7788238525390625,-0.0270233154296875,0.484619140625,-0.2631000876426697,0.2188567072153091,-0.1892479509115219,34.35148620605469,95.92604064941406,-34.50057983398438
117825,-0.7788238525390625,-0.0270233154296875,0.484619140625,-0.2631000876426697,0.2188567072153091,-0.1892479509115219,34.35148620605469,95.92604064941406,-34.50057983398438
117826,-0.80450439453125,0.072052001953125,0.503082275390625,-0.5570297241210938,0.0788189172744751,-0.186585858464241,34.26368713378906,96.00895690917967,-34.92904663085938
117827,-0.804718017578125,0.1926116943359375,0.515777587890625,-0.7610792517662048,-0.2301205545663834,-0.2591306269168854,34.096435546875,96.02033996582033,-34.89950561523438
117828,-0.751922607421875,0.29425048828125,0.6135711669921875,-1.075568675994873,-0.5380749106407166,-0.5094563364982605,33.51821899414062,96.3019561767578,-34.35591125488281
117829,-0.751922607421875,0.29425048828125,0.6135711669921875,-1.075568675994873,-0.5380749106407166,-0.5094563364982605,33.51821899414062,96.3019561767578,-34.35591125488281
117830,-0.6898193359375,0.2589263916015625,0.607452392578125,-1.170308589935303,-0.4077920019626617,-0.6300437450408936,32.97738647460938,96.50294494628906,-34.11512756347656
117831,-0.61187744140625,0.1840667724609375,0.5308380126953125,-1.165003061294556,-0.2419774830341339,-0.758674144744873,32.32200622558594,96.78236389160156,-33.74833679199219
117832,-0.3144989013671875,0.00738525390625,0.15936279296875,-0.456786721944809,-0.8353399038314819,-1.012619853019714,30.42132568359375,97.03553771972656,-31.58280944824219
117833,-0.3144989013671875,0.00738525390625,0.15936279296875,-0.456786721944809,-0.8353399038314819,-1.012619853019714,30.42132568359375,97.03553771972656,-31.58280944824219
117834,-0.3144989013671875,0.00738525390625,0.15936279296875,-0.456786721944809,-0.8353399038314819,-1.012619853019714,30.42132568359375,97.03553771972656,-31.58280944824219
117835,-0.242156982421875,-0.01513671875,0.101898193359375,-0.2815107703208923,-1.21088981628418,-1.023418664932251,30.00778198242188,97.00148010253906,-31.24147033691406
117836,-0.1180877685546875,-0.03436279296875,0.041046142578125,-0.3174844980239868,-1.860631346702576,-0.9639093279838562,29.3426513671875,96.50506591796876,-30.50904846191406
117837,-0.1180877685546875,-0.03436279296875,0.041046142578125,-0.3174844980239868,-1.860631346702576,-0.9639093279838562,29.3426513671875,96.50506591796876,-30.50904846191406
117838,-0.06573486328125,-0.03094482421875,0.006256103515625,-0.4964731335639954,-2.116860151290894,-0.9062771797180176,28.86654663085938,96.25799560546876,-29.99427795410156
117839,-0.02490234375,-0.0186309814453125,-0.0338897705078125,-0.7132227420806885,-2.333198070526123,-0.8453062176704407,28.58738708496094,95.93464660644533,-29.26457214355469
117840,0.1419525146484375,0.0955047607421875,-0.5296630859375,-0.7738956809043884,-3.128907680511475,-0.5579996109008789,28.30841064453125,95.2532958984375,-27.47822570800781
117841,0.1419525146484375,0.0955047607421875,-0.5296630859375,-0.7738956809043884,-3.128907680511475,-0.5579996109008789,28.30841064453125,95.2532958984375,-27.47822570800781
117842,0.30584716796875,0.1888580322265625,-0.638885498046875,-0.1624203324317932,-3.857929944992065,0.1167801469564438,28.04995727539062,95.00851440429688,-26.33668518066406
117843,0.3112030029296875,0.3272857666015625,-0.150634765625,0.5006383061408997,-3.237883567810059,1.165144920349121,27.57182312011719,94.89308166503906,-25.18170166015625
117844,0.0076446533203125,0.5791473388671875,0.042694091796875,0.6274620294570923,0.2542900741100311,1.740612268447876,26.77215576171875,95.10261535644533,-23.79493713378906
117845,0.0076446533203125,0.5791473388671875,0.042694091796875,0.6274620294570923,0.2542900741100311,1.740612268447876,26.77215576171875,95.10261535644533,-23.79493713378906
117846,0.0575408935546875,0.5743865966796875,-0.4007568359375,0.1352795213460922,0.945852518081665,1.405150651931763,27.24024963378906,95.46119689941406,-23.5218505859375
117847,0.0814666748046875,0.5438079833984375,-0.67864990234375,-0.3426582813262939,0.4966510534286499,1.01580023765564,27.99839782714844,95.67355346679688,-23.46353149414062
117848,-0.0302581787109375,0.4294586181640625,-0.1994781494140625,-0.5508232116699219,-0.6501633524894714,0.5006393790245056,29.23591613769531,96.27545166015624,-23.36488342285156
117849,-0.0302581787109375,0.4294586181640625,-0.1994781494140625,-0.5508232116699219,-0.6501633524894714,0.5006393790245056,29.23591613769531,96.27545166015624,-23.36488342285156
117850,-0.0992279052734375,0.394989013671875,-0.1147613525390625,-0.505395770072937,-0.6868894100189209,0.2197523266077042,29.57699584960938,96.30307006835938,-22.87152099609375
117851,-0.1744537353515625,0.4026031494140625,-0.1354827880859375,-0.3739626705646515,-0.5255194306373596,-0.018875952810049,29.68914794921875,96.48301696777344,-22.49114990234375
117852,-0.3622283935546875,0.5797119140625,-0.420196533203125,0.0419410578906536,-0.288815826177597,-0.4045093953609467,29.56986999511719,96.67243957519533,-22.01675415039062
117853,-0.3622283935546875,0.5797119140625,-0.420196533203125,0.0419410578906536,-0.288815826177597,-0.4045093953609467,29.56986999511719,96.67243957519533,-22.01675415039062
117854,-0.4821014404296875,0.7606353759765625,-0.578033447265625,0.2411361783742905,-0.3234291970729828,-0.6227455735206604,29.43502807617188,96.59547424316406,-21.84202575683594
117855,-0.5979461669921875,1.017425537109375,-0.6432647705078125,0.3730436265468597,-0.2946343123912811,-0.8060853481292725,29.12423706054688,96.4979248046875,-21.86181640625
117856,-0.8048095703125,1.670181274414062,-0.3372955322265625,0.3174690306186676,0.4061546921730042,-1.023553252220154,28.41009521484375,95.9219207763672,-21.93246459960938
117857,-0.8048095703125,1.670181274414062,-0.3372955322265625,0.3174690306186676,0.4061546921730042,-1.023553252220154,28.41009521484375,95.9219207763672,-21.93246459960938
117858,-0.8034210205078125,1.994491577148438,-0.0231781005859375,-0.0584651753306388,1.1905597448349,-0.9142631888389589,28.08232116699219,95.64723205566406,-22.12644958496094
117859,-0.7118682861328125,2.2496337890625,0.2459869384765625,-0.5002452731132507,2.05562949180603,-0.6339311599731445,27.7313232421875,95.2105712890625,-22.33718872070312
117860,-0.753631591796875,2.37103271484375,0.405303955078125,-0.7376111745834351,2.577138900756836,-0.2710964679718018,27.45841979980469,95.05706787109376,-23.01388549804688
117861,-1.049026489257812,2.499298095703125,0.4854583740234375,-0.3561874032020569,2.218431711196899,0.2168537527322769,27.34568786621094,95.0164031982422,-23.4659423828125
117862,-1.498947143554688,2.804336547851562,0.5557403564453125,0.4511312246322632,1.213531136512756,0.595716118812561,27.47059631347656,95.01724243164062,-24.10581970214844
117863,-1.911483764648438,3.240829467773438,0.6399993896484375,1.159225225448608,0.0224752146750688,0.7481809854507446,27.7005615234375,95.00540161132812,-24.66238403320312
117864,-3.246826171875,4.398117065429688,1.063568115234375,1.636973261833191,0.4399478137493134,-0.8780559301376343,27.66401672363281,94.79537963867188,-26.24601745605469
117865,-3.246826171875,4.398117065429688,1.063568115234375,1.636973261833191,0.4399478137493134,-0.8780559301376343,27.66401672363281,94.79537963867188,-26.24601745605469
117866,-3.907470703125,3.128082275390625,0.6427764892578125,1.203730463981628,3.009709596633911,-0.470303863286972,27.40283203125,94.50209045410156,-27.35780334472656
117867,-3.311447143554688,1.959396362304688,-1.129837036132812,0.836024820804596,2.456989526748657,0.2465945929288864,27.18638610839844,94.3507080078125,-28.57342529296875
117868,-1.830535888671875,0.985107421875,0.194549560546875,0.3348203301429749,0.0804282650351524,0.54245525598526,28.1146240234375,94.5076141357422,-30.39501953125
117869,-1.830535888671875,0.985107421875,0.194549560546875,0.3348203301429749,0.0804282650351524,0.54245525598526,28.1146240234375,94.5076141357422,-30.39501953125
117870,-1.453399658203125,0.84735107421875,0.2279052734375,0.3390488922595978,0.4305306077003479,0.6954736113548279,28.51646423339844,94.81491088867188,-30.6571044921875
117871,-1.168838500976562,0.7076873779296875,0.1385040283203125,0.4610986411571503,0.5918049812316895,0.7869057655334473,28.85498046875,95.14743041992188,-30.89796447753906
117872,-0.7201995849609375,0.4654541015625,0.0548858642578125,0.5699225664138794,0.0993148684501647,0.8250579237937927,29.71694946289062,95.45945739746094,-31.22613525390625
117873,-0.7201995849609375,0.4654541015625,0.0548858642578125,0.5699225664138794,0.0993148684501647,0.8250579237937927,29.71694946289062,95.45945739746094,-31.22613525390625
117874,-0.556121826171875,0.462982177734375,0.2540283203125,0.691955029964447,0.116599053144455,0.7932131886482239,30.23056030273438,95.53762817382812,-31.45054626464844
117875,-0.4073486328125,0.43035888671875,0.3488616943359375,0.8785480856895447,0.4672481417655945,0.7244181632995605,30.67811584472656,95.68077087402344,-31.71221923828125
117876,-0.1038665771484375,0.19464111328125,-0.0769500732421875,1.371831297874451,0.8217002153396606,0.8147757649421692,31.69761657714844,95.72279357910156,-32.13449096679688
117877,-0.1038665771484375,0.19464111328125,-0.0769500732421875,1.371831297874451,0.8217002153396606,0.8147757649421692,31.69761657714844,95.72279357910156,-32.13449096679688
117878,-0.0181427001953125,0.1727142333984375,-0.32318115234375,1.592819809913635,0.6649700403213501,0.9490035772323608,32.30375671386719,95.49203491210938,-32.42024230957031
117879,-0.0133514404296875,0.32647705078125,-0.46240234375,1.646092414855957,0.4363043606281281,0.9715259671211244,33.0015869140625,95.3385772705078,-32.72201538085938
117880,-0.0433197021484375,0.6401824951171875,-0.3906707763671875,1.050220727920532,0.1572905480861664,0.5364966988563538,34.14286804199219,95.06936645507812,-34.0355224609375
117881,-0.0433197021484375,0.6401824951171875,-0.3906707763671875,1.050220727920532,0.1572905480861664,0.5364966988563538,34.14286804199219,95.06936645507812,-34.0355224609375
117882,-0.0467681884765625,0.6514129638671875,-0.1605377197265625,0.7230777740478516,0.1618024855852127,0.3084648847579956,34.58358764648438,95.04074096679688,-34.90107727050781
117883,-0.0519561767578125,0.604949951171875,0.0065155029296875,0.5376714468002319,0.2033656388521194,0.1107150614261627,34.79458618164062,94.88465881347656,-35.51214599609375
117884,-0.137847900390625,0.3775482177734375,0.1414337158203125,0.6478413343429565,0.0176532957702875,0.0859383419156074,35.12628173828125,94.77589416503906,-35.93281555175781
117885,-0.137847900390625,0.3775482177734375,0.1414337158203125,0.6478413343429565,0.0176532957702875,0.0859383419156074,35.12628173828125,94.77589416503906,-35.93281555175781
117886,-0.1954345703125,0.31689453125,0.2474822998046875,0.7239710092544556,-0.0066182217560708,0.1366843432188034,35.20936584472656,94.74977111816406,-36.28067016601562
117887,-0.23974609375,0.2727203369140625,0.289703369140625,0.7126784324645996,0.0668035298585891,0.1598333418369293,35.29844665527344,94.5930633544922,-36.58549499511719
117888,-0.385467529296875,0.309295654296875,0.436981201171875,0.4234426021575928,0.3270588219165802,0.0901591852307319,35.40020751953125,94.53311157226562,-37.29428100585938
117889,-0.385467529296875,0.309295654296875,0.436981201171875,0.4234426021575928,0.3270588219165802,0.0901591852307319,35.40020751953125,94.53311157226562,-37.29428100585938
117890,-0.50640869140625,0.3880767822265625,0.5364532470703125,0.0928186178207397,0.4664161801338196,-0.0337837971746921,35.48271179199219,94.43336486816406,-37.62371826171875
117891,-0.6545562744140625,0.445892333984375,0.5691070556640625,-0.2983062565326691,0.4260293245315552,-0.183111235499382,35.45706176757812,94.39744567871094,-37.73941040039062
117892,-1.05535888671875,0.427154541015625,0.52734375,-0.960033357143402,-0.2467570602893829,-0.4092852473258972,35.2113037109375,94.70082092285156,-38.14826965332031
117893,-1.05535888671875,0.427154541015625,0.52734375,-0.960033357143402,-0.2467570602893829,-0.4092852473258972,35.2113037109375,94.70082092285156,-38.14826965332031
117894,-1.2230224609375,0.3255157470703125,0.46087646484375,-1.129805326461792,-0.7452754974365234,-0.4283561408519745,35.00537109375,94.999755859375,-38.16096496582031
117895,-1.2435302734375,0.2374420166015625,0.443115234375,-1.131977200508118,-1.216043591499329,-0.456411749124527,34.55914306640625,95.29933166503906,-37.84603881835938
117896,-0.7927093505859375,0.2718505859375,0.4057464599609375,-0.8823190927505493,-1.390595436096191,-0.6928272247314453,33.38180541992188,95.74801635742188,-36.9957275390625
117897,-0.7927093505859375,0.2718505859375,0.4057464599609375,-0.8823190927505493,-1.390595436096191,-0.6928272247314453,33.38180541992188,95.74801635742188,-36.9957275390625
117898,-0.596771240234375,0.304168701171875,0.34332275390625,-0.7656289935112,-1.30827009677887,-0.8114784955978394,32.65679931640625,95.89820861816406,-36.32771301269531
117899,-0.4445037841796875,0.318206787109375,0.2796783447265625,-0.6998419761657715,-1.216139197349548,-0.899371325969696,32.07218933105469,95.8619384765625,-35.50123596191406
117900,-0.2261962890625,0.2431793212890625,0.149200439453125,-0.5912675857543945,-1.312209010124207,-0.9271252155303956,31.02627563476562,95.78604125976562,-34.21626281738281
117901,-0.2261962890625,0.2431793212890625,0.149200439453125,-0.5912675857543945,-1.312209010124207,-0.9271252155303956,31.02627563476562,95.78604125976562,-34.21626281738281
117902,-0.144622802734375,0.193115234375,0.07305908203125,-0.5333677530288696,-1.369827270507812,-0.852298378944397,30.59739685058594,95.61978149414062,-33.53546142578125
117903,-0.059844970703125,0.138336181640625,-0.048248291015625,-0.440538763999939,-1.433762311935425,-0.7242799401283264,30.20013427734375,95.60293579101562,-33.01634216308594
117904,0.09515380859375,0.0323638916015625,-0.1717376708984375,-0.0444862432777881,-1.245040535926819,-0.1934032887220383,29.49107360839844,95.16659545898438,-31.90766906738281
117905,0.09515380859375,0.0323638916015625,-0.1717376708984375,-0.0444862432777881,-1.245040535926819,-0.1934032887220383,29.49107360839844,95.16659545898438,-31.90766906738281
117906,0.132110595703125,-0.0041961669921875,-0.1715087890625,0.0619025155901908,-0.9361671805381776,0.1453840881586075,29.40823364257812,95.0327606201172,-31.50444030761719
117907,0.186920166015625,-0.0374755859375,-0.2018280029296875,0.0721903070807457,-0.7633432149887085,0.5126894116401672,29.36698913574219,94.8276824951172,-30.99937438964844
117908,0.2687530517578125,-0.0605621337890625,-0.2707366943359375,0.0044472124427556,-0.9016030430793762,1.211050868034363,29.55409240722656,94.71929931640624,-30.28024291992188
117909,0.2687530517578125,-0.0605621337890625,-0.2707366943359375,0.0044472124427556,-0.9016030430793762,1.211050868034363,29.55409240722656,94.71929931640624,-30.28024291992188
117910,0.2824554443359375,0.0048828125,-0.3437652587890625,-0.1094737648963928,-1.109926462173462,1.366124391555786,29.74114990234375,94.9043426513672,-29.91227722167969
117911,0.2584686279296875,0.0966033935546875,-0.299072265625,-0.3533594012260437,-1.202732563018799,1.300311088562012,29.91246032714844,95.17086791992188,-29.32722473144531
