time_idx,accelerometerAccelerationX(G),accelerometerAccelerationY(G),accelerometerAccelerationZ(G),gyroRotationX(rad/s),gyroRotationY(rad/s),gyroRotationZ(rad/s),magnetometerX(µT),magnetometerY(µT),magnetometerZ(µT)
202497,-0.5612335205078125,1.089111328125,0.3165740966796875,1.349166989326477,1.420456647872925,0.7073366641998291,17.95445251464844,89.12286376953125,-22.35218811035156
202498,-0.5612335205078125,1.089111328125,0.3165740966796875,1.349166989326477,1.420456647872925,0.7073366641998291,17.95445251464844,89.12286376953125,-22.35218811035156
202499,-0.4203033447265625,0.919677734375,0.1060791015625,0.3983452320098877,0.0452526994049549,0.7279995679855347,18.96034240722656,89.26353454589844,-24.29519653320312
202500,-0.4203033447265625,0.919677734375,0.1060791015625,0.3983452320098877,0.0452526994049549,0.7279995679855347,18.96034240722656,89.26353454589844,-24.29519653320312
202501,-0.3085479736328125,0.84783935546875,0.5310211181640625,0.1091581806540489,0.3982435166835785,0.6048060059547424,19.64389038085938,89.27638244628906,-25.23466491699219
202502,-0.3085479736328125,0.84783935546875,0.5310211181640625,0.1091581806540489,0.3982435166835785,0.6048060059547424,19.64389038085938,89.27638244628906,-25.23466491699219
202503,-0.2131500244140625,0.603118896484375,0.4564666748046875,-0.1260751038789749,0.8523154258728027,0.4679844975471497,20.23739624023438,89.49221801757812,-25.66984558105469
202504,-0.2202911376953125,0.48150634765625,0.4448089599609375,-0.150869145989418,0.8063990473747253,0.3624178767204285,20.57102966308594,89.52037048339844,-25.66377258300781
202505,-0.2613525390625,0.22344970703125,0.430908203125,-0.3653436303138733,0.6346134543418884,0.1478597670793533,21.18141174316406,89.7313232421875,-25.93562316894531
202506,-0.2613525390625,0.22344970703125,0.430908203125,-0.3653436303138733,0.6346134543418884,0.1478597670793533,21.18141174316406,89.7313232421875,-25.93562316894531
202507,-0.2670745849609375,0.104583740234375,0.39447021484375,-0.5601794123649597,0.5883074402809143,0.1131225600838661,21.4461669921875,89.84288024902344,-26.14439392089844
202508,-0.2560882568359375,0.0120697021484375,0.326507568359375,-0.7641692757606506,0.5721290111541748,0.1262420862913132,21.61099243164062,89.98182678222656,-26.1470947265625
202509,-0.2291717529296875,-0.054595947265625,0.2435455322265625,-1.113372325897217,0.4817855358123779,0.1814608722925186,21.84255981445312,90.01036071777344,-26.0242919921875
202510,-0.2291717529296875,-0.054595947265625,0.2435455322265625,-1.113372325897217,0.4817855358123779,0.1814608722925186,21.84255981445312,90.01036071777344,-26.0242919921875
202511,-0.095855712890625,-0.1610870361328125,-0.2662200927734375,-1.114104390144348,-0.1504590064287186,0.2393617182970047,22.02183532714844,90.3878173828125,-25.50334167480469
202512,-0.0443878173828125,-0.1594390869140625,-0.2148590087890625,-1.105904221534729,-0.867547869682312,0.304658979177475,22.06278991699219,90.55946350097656,-25.31529235839844
202513,-0.03802490234375,-0.01470947265625,0.075714111328125,-1.323066711425781,-0.9785135388374328,0.2450078874826431,22.03982543945312,90.8145751953125,-24.74264526367188
202514,-0.03802490234375,-0.01470947265625,0.075714111328125,-1.323066711425781,-0.9785135388374328,0.2450078874826431,22.03982543945312,90.8145751953125,-24.74264526367188
202515,-0.1668243408203125,0.352783203125,0.1722259521484375,-1.798824191093445,-0.8780345916748047,-0.26140096783638,21.99156188964844,91.27146911621094,-23.310791015625
202516,-0.2436370849609375,0.476776123046875,0.2025604248046875,-1.849735498428345,-0.9859570860862732,-0.433023065328598,21.89424133300781,91.46351623535156,-22.40225219726562
202517,-0.306640625,0.609588623046875,0.2478179931640625,-1.759233355522156,-1.077507734298706,-0.6565320491790771,21.69961547851562,91.50819396972656,-21.45083618164062
202518,-0.306640625,0.609588623046875,0.2478179931640625,-1.759233355522156,-1.077507734298706,-0.6565320491790771,21.69961547851562,91.50819396972656,-21.45083618164062
202519,-0.4046173095703125,0.7950439453125,0.3032073974609375,-1.688081383705139,-1.027204155921936,-0.6919795274734497,21.18002319335938,91.4352569580078,-19.46458435058594
202520,-0.4092864990234375,0.8563232421875,0.260894775390625,-1.624037384986877,-1.115197896957397,-0.7134371399879456,21.02867126464844,91.19273376464844,-18.51560974121094
202521,-0.3660125732421875,0.8506011962890625,0.202545166015625,-1.624037384986877,-1.115197896957397,-0.7134371399879456,20.76371765136719,90.8922882080078,-17.607666015625
202522,-0.3660125732421875,0.8506011962890625,0.202545166015625,-1.624037384986877,-1.115197896957397,-0.7134371399879456,20.76371765136719,90.8922882080078,-17.607666015625
202523,-0.2402191162109375,0.6668548583984375,0.157806396484375,-1.661153316497803,-1.291718125343323,-0.7374663352966309,20.28471374511719,90.55679321289062,-15.81959533691406
202524,-0.2058258056640625,0.5558929443359375,0.0916900634765625,-1.66042685508728,-1.342059016227722,-0.7158510088920593,20.04142761230469,90.3828125,-14.85159301757812
202525,-0.184326171875,0.469085693359375,0.0114898681640625,-1.636160731315613,-1.402963876724243,-0.675296425819397,19.778564453125,90.04071044921875,-13.80488586425781
202526,-0.15606689453125,0.4119873046875,-0.0683135986328125,-1.593851566314697,-1.486778378486633,-0.644358217716217,19.6231689453125,89.70054626464844,-12.75851440429688
202527,-0.1056976318359375,0.3601837158203125,-0.158966064453125,-1.367138266563416,-1.718954086303711,-0.5313863754272461,19.49063110351562,89.24372863769531,-11.7257080078125
202528,-0.0623779296875,0.30609130859375,-0.21710205078125,-1.367138266563416,-1.718954086303711,-0.5313863754272461,19.271240234375,88.96270751953125,-10.56208801269531
202529,-0.0373992919921875,0.239410400390625,-0.195556640625,-1.159878492355347,-1.660336375236511,-0.4337791502475739,18.97543334960938,88.77098083496094,-9.549880981445312
202530,-0.0373992919921875,0.239410400390625,-0.195556640625,-1.159878492355347,-1.660336375236511,-0.4337791502475739,18.97543334960938,88.77098083496094,-9.549880981445312
202531,-0.0080108642578125,0.14990234375,-0.1423187255859375,-0.76883864402771,-1.005153894424438,-0.2023951858282089,18.64588928222656,88.42745971679688,-7.48077392578125
202532,0.0086212158203125,0.1492919921875,-0.1656951904296875,-0.581829845905304,-0.7411100268363953,-0.1062342971563339,18.55491638183594,88.26693725585938,-6.534820556640625
202533,0.021484375,0.1648101806640625,-0.1818084716796875,-0.4039384126663208,-0.6055184006690979,-0.042863842099905,18.452880859375,88.21177673339844,-5.642791748046875
202534,0.021484375,0.1648101806640625,-0.1818084716796875,-0.4039384126663208,-0.6055184006690979,-0.042863842099905,18.452880859375,88.21177673339844,-5.642791748046875
202535,0.060882568359375,0.26165771484375,-0.2942352294921875,-0.0923991724848747,-0.6757089495658875,0.0320333018898963,18.47019958496094,88.0960693359375,-4.767364501953125
202536,0.0633544921875,0.3576507568359375,-0.369537353515625,0.0300782732665538,-0.8467589616775513,0.0403287820518016,18.56820678710938,88.02662658691406,-4.410140991210938
202537,0.0572509765625,0.4673004150390625,-0.342071533203125,0.0335819274187088,-0.6785851716995239,-0.0462700277566909,18.59211730957031,87.95219421386719,-4.09375
202538,0.0572509765625,0.4673004150390625,-0.342071533203125,0.0335819274187088,-0.6785851716995239,-0.0462700277566909,18.59211730957031,87.95219421386719,-4.09375
202539,0.0010528564453125,0.5903778076171875,-0.7754669189453125,-0.3948040306568146,0.2669142484664917,-0.5026633739471436,18.66506958007812,87.95175170898438,-3.635421752929688
202540,-0.140411376953125,0.573211669921875,-0.7064056396484375,-0.2582842707633972,-0.2983675301074982,-0.5780726671218872,18.59913635253906,87.90817260742188,-3.4443359375
202541,-0.2416534423828125,0.5998077392578125,-0.48712158203125,-0.1011929288506508,-0.5248563289642334,-0.6060454249382019,18.50605773925781,87.70404052734375,-3.326644897460938
202542,-0.2416534423828125,0.5998077392578125,-0.48712158203125,-0.1011929288506508,-0.5248563289642334,-0.6060454249382019,18.50605773925781,87.70404052734375,-3.326644897460938
202543,-0.3264312744140625,0.76641845703125,-0.4020233154296875,0.3422343134880066,-0.3184999525547028,-0.7691976428031921,18.12164306640625,87.27976989746094,-2.776626586914062
202544,-0.3695831298828125,0.8515625,-0.31085205078125,0.5333877801895142,-0.0144974496215581,-0.8616194128990173,17.86039733886719,87.1541748046875,-2.65911865234375
202545,-0.3991851806640625,0.95306396484375,-0.274993896484375,0.6790879368782043,0.3743922412395477,-0.9221714735031128,17.54061889648438,87.09544372558594,-2.686767578125
202546,-0.3991851806640625,0.95306396484375,-0.274993896484375,0.6790879368782043,0.3743922412395477,-0.9221714735031128,17.54061889648438,87.09544372558594,-2.686767578125
202547,-0.60174560546875,1.425018310546875,-0.0705108642578125,0.7532588839530945,1.363939523696899,-1.179033637046814,16.78627014160156,86.71484375,-3.0267333984375
202548,-0.8369598388671875,1.849777221679688,0.06280517578125,0.5676178932189941,2.023163557052612,-1.610215663909912,16.20230102539062,86.75093078613281,-3.52801513671875
202549,-1.110443115234375,2.397415161132812,0.2407379150390625,0.1879427433013916,2.740182161331177,-2.292258024215698,15.42405700683594,86.77740478515625,-4.441543579101562
202550,-1.110443115234375,2.397415161132812,0.2407379150390625,0.1879427433013916,2.740182161331177,-2.292258024215698,15.42405700683594,86.77740478515625,-4.441543579101562
202551,-2.996810913085938,3.376571655273438,0.1005401611328125,-1.179292678833008,3.210550308227539,-2.085244655609131,13.20735168457031,86.450439453125,-7.009979248046875
202552,-3.787887573242188,3.865921020507812,-0.0543975830078125,-1.036433100700378,2.071380615234375,0.2589069306850433,11.89634704589844,86.07481384277344,-8.738449096679688
202553,-3.311248779296875,4.206161499023438,0.1625213623046875,-0.2225132286548615,-0.4287793040275574,1.038229823112488,11.0555419921875,85.70880126953125,-10.21270751953125
202554,-3.311248779296875,4.206161499023438,0.1625213623046875,-0.2225132286548615,-0.4287793040275574,1.038229823112488,11.0555419921875,85.70880126953125,-10.21270751953125
202555,-1.098190307617188,2.49224853515625,0.772125244140625,0.6172083616256714,-1.517694711685181,1.259430766105652,10.87162780761719,85.98074340820312,-11.26190185546875
202556,-1.098190307617188,2.49224853515625,0.772125244140625,0.6172083616256714,-1.517694711685181,1.259430766105652,10.87162780761719,85.98074340820312,-11.26190185546875
202557,-0.3339996337890625,2.233383178710938,-0.0237579345703125,1.93453061580658,-0.3272266089916229,1.659880638122559,12.38313293457031,86.54425048828125,-10.34490966796875
202558,-0.3339996337890625,2.233383178710938,-0.0237579345703125,1.93453061580658,-0.3272266089916229,1.659880638122559,12.38313293457031,86.54425048828125,-10.34490966796875
202559,-0.458587646484375,2.044921875,0.179962158203125,1.984744787216187,-0.7677387595176697,1.453516840934753,13.27944946289062,86.88735961914062,-10.60871887207031
202560,-0.4920654296875,1.648635864257812,0.355438232421875,1.911984324455261,-0.9951434135437012,1.155331254005432,14.1845703125,87.24151611328125,-10.92828369140625
202561,-0.462066650390625,1.2525634765625,0.3528289794921875,1.822961688041687,-1.197566032409668,1.061716318130493,15.188720703125,87.57792663574219,-11.307373046875
202562,-0.462066650390625,1.2525634765625,0.3528289794921875,1.822961688041687,-1.197566032409668,1.061716318130493,15.188720703125,87.57792663574219,-11.307373046875
202563,-0.4374847412109375,0.584686279296875,0.213104248046875,1.628808975219727,-1.276448607444763,1.172875285148621,16.98519897460938,87.85621643066406,-11.84426879882812
202564,-0.3421173095703125,0.3203582763671875,-0.016204833984375,1.424494743347168,-1.235726714134216,1.27697217464447,17.74925231933594,87.93318176269531,-11.94902038574219
202565,-0.2384033203125,0.11895751953125,-0.1624603271484375,1.12188994884491,-1.113825798034668,1.342149257659912,18.39469909667969,88.11189270019531,-12.08566284179688
202566,-0.2384033203125,0.11895751953125,-0.1624603271484375,1.12188994884491,-1.113825798034668,1.342149257659912,18.39469909667969,88.11189270019531,-12.08566284179688
202567,-0.1803741455078125,0.0985870361328125,0.0981292724609375,0.7414640188217163,-0.0191521234810352,1.153993487358093,19.32772827148438,88.87158203125,-12.12005615234375
202568,-0.1748809814453125,0.181732177734375,0.2178192138671875,0.9876039624214172,0.4348646402359009,1.025115370750427,19.74128723144531,89.34422302246094,-12.05519104003906
202569,-0.1403656005859375,0.259735107421875,0.2652740478515625,1.135666966438293,0.8722518086433411,0.9069498777389526,20.22560119628906,89.74862670898438,-12.19338989257812
202570,-0.1403656005859375,0.259735107421875,0.2652740478515625,1.135666966438293,0.8722518086433411,0.9069498777389526,20.22560119628906,89.74862670898438,-12.19338989257812
202571,0.01373291015625,0.2764129638671875,0.192596435546875,0.6861967444419861,1.403363585472107,0.6740162372589111,21.12933349609375,90.11654663085938,-13.01931762695312
202572,0.07232666015625,0.20489501953125,0.1132049560546875,0.350462406873703,1.315029501914978,0.6324205994606018,21.41256713867188,90.3105926513672,-13.84710693359375
202573,0.1146392822265625,0.1529541015625,0.0703582763671875,0.0830869004130363,1.087487936019897,0.6114732623100281,21.76715087890625,90.33531188964844,-14.4979248046875
202574,0.1146392822265625,0.1529541015625,0.0703582763671875,0.0830869004130363,1.087487936019897,0.6114732623100281,21.76715087890625,90.33531188964844,-14.4979248046875
202575,0.2072601318359375,0.0026397705078125,-0.156005859375,-0.1426977664232254,0.4145385921001434,0.6518589854240417,22.3060302734375,90.59327697753906,-15.39895629882812
202576,0.24652099609375,-0.0410308837890625,-0.2077178955078125,-0.1509082913398743,0.0383844077587127,0.7062444686889648,22.50601196289062,90.77984619140624,-15.44287109375
202577,0.2615203857421875,-0.0396575927734375,-0.0997314453125,-0.1738428920507431,-0.0472380854189395,0.7422895431518555,22.77571105957031,91.0150909423828,-15.52278137207031
202578,0.2615203857421875,-0.0396575927734375,-0.0997314453125,-0.1738428920507431,-0.0472380854189395,0.7422895431518555,22.77571105957031,91.0150909423828,-15.52278137207031
202579,0.197509765625,0.247161865234375,0.222808837890625,-0.571282684803009,0.9482515454292296,0.4682995676994324,23.12684631347656,91.4375,-15.07666015625
202580,0.0838165283203125,0.4567108154296875,0.3301544189453125,-0.928589403629303,1.556712985038757,0.2144806087017059,23.386474609375,91.71275329589844,-14.83238220214844
202581,-0.04022216796875,0.616729736328125,0.4185791015625,-1.185431003570557,1.911719560623169,0.056686982512474,23.54096984863281,91.82994079589844,-14.74240112304688
202582,-0.04022216796875,0.616729736328125,0.4185791015625,-1.185431003570557,1.911719560623169,0.056686982512474,23.54096984863281,91.82994079589844,-14.74240112304688
202583,-0.334442138671875,1.117446899414062,0.3974456787109375,-1.057454943656921,1.478659987449646,-0.0331249311566352,23.74153137207031,92.03239440917967,-14.71516418457031
202584,-0.334442138671875,1.117446899414062,0.3974456787109375,-1.057454943656921,1.478659987449646,-0.0331249311566352,23.74153137207031,92.03239440917967,-14.71516418457031
202585,-0.4817962646484375,1.30645751953125,0.31732177734375,-0.8517396450042725,0.8145312666893005,-0.0684067532420158,23.798828125,92.15524291992188,-14.75762939453125
202586,-0.5601043701171875,1.313232421875,0.228485107421875,-0.7124765515327454,0.0086611323058605,-0.0997609496116638,23.7984619140625,92.24163818359376,-14.73182678222656
202587,-0.2510528564453125,1.009735107421875,0.30853271484375,-0.7352390885353088,-0.9421278238296508,-0.154890775680542,23.63587951660156,92.28921508789062,-14.62799072265625
202588,-0.14361572265625,0.8966522216796875,0.4234161376953125,-0.7702929973602295,-1.013987421989441,-0.1909137666225433,23.45866394042969,92.33120727539062,-14.19537353515625
202589,-0.1142578125,0.8194732666015625,0.56280517578125,-0.7840431332588196,-0.8299139738082886,-0.2157562673091888,23.38624572753906,92.24903869628906,-13.71202087402344
202590,-0.1142578125,0.8194732666015625,0.56280517578125,-0.7840431332588196,-0.8299139738082886,-0.2157562673091888,23.38624572753906,92.24903869628906,-13.71202087402344
202591,-0.1376953125,0.6695098876953125,0.525482177734375,-0.8835790753364563,-0.4145002365112305,-0.3439525663852692,23.10887145996094,92.18148803710938,-12.75352478027344
202592,-0.1612548828125,0.5826568603515625,0.43499755859375,-1.008322596549988,-0.3775044083595276,-0.4626368880271912,23.08113098144531,92.0179443359375,-12.21751403808594
202593,-0.1733551025390625,0.4753570556640625,0.353546142578125,-1.126464128494263,-0.4007636606693268,-0.5663944482803345,23.02348327636719,91.95179748535156,-11.57234191894531
202594,-0.1733551025390625,0.4753570556640625,0.353546142578125,-1.126464128494263,-0.4007636606693268,-0.5663944482803345,23.02348327636719,91.95179748535156,-11.57234191894531
202595,-0.1467132568359375,0.257476806640625,0.198394775390625,-1.198023557662964,-0.5194447636604309,-0.7505618929862976,22.76773071289062,91.61251831054688,-10.47293090820312
202596,-0.1467132568359375,0.257476806640625,0.198394775390625,-1.198023557662964,-0.5194447636604309,-0.7505618929862976,22.76773071289062,91.61251831054688,-10.47293090820312
202597,-0.1233367919921875,0.1656036376953125,0.1317138671875,-1.162367582321167,-0.6058696508407593,-0.8360008597373962,22.52792358398438,91.0369873046875,-9.225906372070312
202598,-0.0754241943359375,0.051483154296875,0.0198822021484375,-1.072355389595032,-0.7838519215583801,-0.9949945211410522,21.95791625976562,90.44383239746094,-8.04986572265625
202599,-0.0530548095703125,0.0069580078125,-0.1795654296875,-1.054734587669373,-0.8912960886955261,-1.055114030838013,21.68452453613281,90.20791625976562,-7.465591430664062
202600,-0.0530548095703125,0.0069580078125,-0.1795654296875,-1.054734587669373,-0.8912960886955261,-1.055114030838013,21.68452453613281,90.20791625976562,-7.465591430664062
202601,-0.041778564453125,-0.077545166015625,-1.012283325195312,-0.7259231209754944,-2.227344274520874,-1.064282298088074,21.40765380859375,89.86253356933594,-6.612548828125
202602,-0.00018310546875,-0.1192626953125,-1.320877075195312,0.1606690436601639,-4.252504348754883,-0.7040817141532898,21.16267395019531,89.48538208007812,-5.581253051757812
202603,-0.090789794921875,0.284271240234375,-0.3935546875,-0.7600041031837463,-0.4452336728572845,-0.5608124732971191,20.41523742675781,89.17646789550781,-3.583908081054688
202604,-0.0467376708984375,0.4467926025390625,-0.7045440673828125,-0.2948188483715057,0.2720693349838257,-0.4848258197307587,20.24082946777344,89.10833740234375,-2.819931030273438
202605,-0.06317138671875,0.55615234375,-0.206756591796875,0.2704005837440491,0.2739125192165375,-0.2906283736228943,19.78535461425781,88.92887878417969,-2.616714477539062
202606,-0.06317138671875,0.55615234375,-0.206756591796875,0.2704005837440491,0.2739125192165375,-0.2906283736228943,19.78535461425781,88.92887878417969,-2.616714477539062
202607,-0.1057891845703125,0.6800384521484375,-0.1696014404296875,0.320463240146637,0.1314720064401627,-0.1821841895580292,19.5330810546875,88.77020263671875,-2.526870727539062
202608,-0.1057891845703125,0.6800384521484375,-0.1696014404296875,0.320463240146637,0.1314720064401627,-0.1821841895580292,19.5330810546875,88.77020263671875,-2.526870727539062
202609,-0.17340087890625,0.8396148681640625,-0.218505859375,0.4255329370498657,-0.5782215595245361,-0.2880155444145203,19.30760192871094,88.71836853027344,-2.65191650390625
202610,-0.339813232421875,1.210647583007812,-0.5245361328125,0.7385553121566772,-1.229682683944702,-0.6764005422592163,19.19801330566406,88.69401550292969,-2.6490478515625
202611,-0.4365234375,1.330413818359375,-0.602508544921875,1.325020909309387,-1.777437329292297,-1.125937581062317,19.02444458007812,88.6070556640625,-2.499267578125
202612,-0.591949462890625,1.407516479492188,-0.58135986328125,2.006374359130859,-1.529547929763794,-1.473308682441711,18.77944946289062,88.50181579589844,-2.28399658203125
202613,-0.7788848876953125,1.440994262695312,-0.6670379638671875,2.524012327194214,-0.5553010702133179,-1.61958920955658,18.36579895019531,88.3802490234375,-2.308731079101562
202614,-0.7788848876953125,1.440994262695312,-0.6670379638671875,2.524012327194214,-0.5553010702133179,-1.61958920955658,18.36579895019531,88.3802490234375,-2.308731079101562
202615,-0.8591461181640625,1.506866455078125,-1.149917602539062,2.372430801391602,0.7189688086509705,-0.9653192162513732,17.28315734863281,88.07974243164062,-3.62255859375
202616,-0.6189727783203125,1.739395141601562,-1.184463500976562,1.632330536842346,0.4451859891414642,-0.4908642470836639,16.69815063476562,88.07057189941406,-4.828018188476562
202617,-0.3940582275390625,1.93328857421875,-0.9831085205078124,0.7253223061561584,0.0899053886532783,-0.18735072016716,16.36453247070312,87.98658752441406,-5.779708862304688
202618,-0.3940582275390625,1.93328857421875,-0.9831085205078124,0.7253223061561584,0.0899053886532783,-0.18735072016716,16.36453247070312,87.98658752441406,-5.779708862304688
202619,-0.3806304931640625,2.368789672851562,-0.3512725830078125,-0.3768644630908966,-0.1466206014156342,0.2238147258758545,16.10493469238281,88.08488464355469,-6.305038452148438
202620,-0.3806304931640625,2.368789672851562,-0.3512725830078125,-0.3768644630908966,-0.1466206014156342,0.2238147258758545,16.10493469238281,88.08488464355469,-6.305038452148438
202621,-0.797119140625,3.42236328125,0.2879180908203125,0.1218034029006958,1.073976159095764,-0.2358948141336441,16.0440673828125,88.55377197265625,-6.248779296875
202622,-1.183975219726562,3.998077392578125,0.3898773193359375,0.4621942639350891,1.88137412071228,-0.7774976491928101,15.83602905273438,88.77320861816406,-6.601119995117188
202623,-1.87481689453125,3.992446899414062,0.481231689453125,0.7206921577453613,2.939791917800903,-0.6934682130813599,15.47343444824219,88.85769653320312,-7.684173583984375
202624,-2.462448120117188,3.447586059570312,0.2166748046875,1.039343118667603,3.420942783355713,0.2308529168367386,15.11123657226562,88.78854370117188,-9.035690307617188
202625,-2.120849609375,2.682830810546875,0.1004486083984375,1.539775252342224,2.531350612640381,0.3656818568706512,15.09910583496094,88.77174377441406,-10.86306762695312
202626,-2.120849609375,2.682830810546875,0.1004486083984375,1.539775252342224,2.531350612640381,0.3656818568706512,15.09910583496094,88.77174377441406,-10.86306762695312
202627,-1.003402709960938,1.593490600585938,0.3975372314453125,1.455714702606201,0.7825704216957092,0.5753639936447144,15.75692749023438,88.81599426269531,-13.96957397460938
202628,-0.6865081787109375,1.469650268554688,0.447235107421875,1.189496874809265,0.3690874874591827,0.7152094841003418,16.09133911132812,88.829345703125,-15.00253295898438
202629,-0.4626922607421875,1.3543701171875,0.409332275390625,0.9467785358428956,0.0752337649464607,0.7956576943397522,16.36428833007812,89.01788330078125,-15.64654541015625
202630,-0.4626922607421875,1.3543701171875,0.409332275390625,0.9467785358428956,0.0752337649464607,0.7956576943397522,16.36428833007812,89.01788330078125,-15.64654541015625
202631,-0.176483154296875,0.99322509765625,0.2078857421875,0.7080389261245728,-0.6296953558921814,0.9527445435523988,17.23225402832031,88.95704650878906,-16.22970581054688
202632,-0.091339111328125,0.8164520263671875,0.234130859375,0.7095782160758972,-0.8403109312057495,1.034254312515259,17.78431701660156,88.98611450195312,-16.33207702636719
202633,-0.0146026611328125,0.633636474609375,0.316619873046875,0.7305668592453003,-0.7473876476287842,1.128920316696167,18.36148071289062,88.94944763183594,-16.16415405273438
202634,0.0611572265625,0.4580841064453125,0.3683319091796875,0.7663896083831787,-0.4142416417598724,1.274799823760986,18.81587219238281,89.11512756347656,-16.028564453125
202635,0.1163482666015625,0.3270263671875,0.4028778076171875,0.8057044744491577,0.0865338295698165,1.463990807533264,19.22132873535156,89.39340209960938,-15.99946594238281
202636,0.1163482666015625,0.3270263671875,0.4028778076171875,0.8057044744491577,0.0865338295698165,1.463990807533264,19.22132873535156,89.39340209960938,-15.99946594238281
202637,0.0957794189453125,0.206024169921875,0.457427978515625,0.6678842902183533,1.501494765281677,1.665970802307129,20.21540832519531,90.04759216308594,-16.20135498046875
202638,0.0455169677734375,0.1987762451171875,0.4478607177734375,-0.2334031611680984,2.552680969238281,1.330203175544739,20.84100341796875,90.61094665527344,-16.50462341308594
202639,-0.0120086669921875,0.1937103271484375,0.3679962158203125,-0.2334031611680984,2.552680969238281,1.330203175544739,21.60823059082031,90.94723510742188,-16.84849548339844
202640,-0.0120086669921875,0.1937103271484375,0.3679962158203125,-0.2334031611680984,2.552680969238281,1.330203175544739,21.60823059082031,90.94723510742188,-16.84849548339844
202641,-0.285064697265625,0.2293853759765625,-0.02972412109375,-1.053642868995667,1.53791081905365,0.5423647165298462,23.0941162109375,91.5850067138672,-17.90110778808594
202642,-0.3657073974609375,0.2174835205078125,-0.0338287353515625,-1.06811535358429,0.5009435415267944,0.2032319456338882,23.61247253417969,91.8861083984375,-17.97518920898438
202643,-0.375946044921875,0.193267822265625,0.1351776123046875,-0.9598418474197388,-0.1239429861307144,-0.0895205587148666,23.86805725097656,92.06639099121094,-17.98619079589844
202644,-0.3419952392578125,0.159149169921875,0.218536376953125,-0.8592047095298767,-0.2432006746530533,-0.3164618313312531,23.95201110839844,92.33804321289062,-17.78611755371094
202645,-0.2671356201171875,0.1175689697265625,0.1967620849609375,-0.8299283385276794,-0.1322850733995438,-0.3980951607227325,23.76438903808594,92.54562377929688,-17.561279296875
202646,-0.2671356201171875,0.1175689697265625,0.1967620849609375,-0.8299283385276794,-0.1322850733995438,-0.3980951607227325,23.76438903808594,92.54562377929688,-17.561279296875
202647,-0.2669219970703125,0.2114410400390625,0.253387451171875,-1.031442284584045,0.4035115242004395,-0.057100836187601,23.20011901855469,92.65274047851562,-16.93412780761719
202648,-0.33673095703125,0.40234375,0.2677764892578125,-1.142587661743164,0.6769401431083679,-0.0071774856187403,23.007080078125,92.72622680664062,-16.74485778808594
202649,-0.3720245361328125,0.5495452880859375,0.2864837646484375,-1.161641001701355,0.7015362977981567,-0.1747726052999496,22.93844604492188,92.85910034179688,-16.45069885253906
202650,-0.406890869140625,0.610107421875,0.3198394775390625,-1.190358996391296,0.6174293756484985,-0.3901879787445068,22.96168518066406,92.77462768554688,-16.2347412109375
202651,-0.424835205078125,0.6486358642578125,0.2803802490234375,-1.270231127738953,0.4328065514564514,-0.5636471509933472,22.87191772460938,92.65657043457033,-15.92633056640625
202652,-0.4009246826171875,0.6577301025390625,0.2027435302734375,-1.38601553440094,0.128773421049118,-0.6405733227729797,22.85798645019531,92.51512145996094,-15.82130432128906
202653,-0.3423309326171875,0.653289794921875,0.149993896484375,-1.476576328277588,-0.2511925399303436,-0.6381045579910278,22.63307189941406,92.37881469726562,-15.5341796875
202654,-0.3423309326171875,0.653289794921875,0.149993896484375,-1.476576328277588,-0.2511925399303436,-0.6381045579910278,22.63307189941406,92.37881469726562,-15.5341796875
202655,-0.171112060546875,0.6283416748046875,0.20269775390625,-1.469215869903564,-0.8323174715042114,-0.748977541923523,21.99772644042969,92.05265808105467,-14.3927001953125
202656,-0.1378021240234375,0.5973663330078125,0.2511138916015625,-1.409922957420349,-0.8717791438102722,-0.8036759495735168,21.69834899902344,91.841064453125,-13.61798095703125
202657,-0.120147705078125,0.573944091796875,0.233001708984375,-1.332550406455994,-0.8963952660560608,-0.8168039917945862,21.36500549316406,91.50373840332033,-12.74583435058594
202658,-0.120147705078125,0.573944091796875,0.233001708984375,-1.332550406455994,-0.8963952660560608,-0.8168039917945862,21.36500549316406,91.50373840332033,-12.74583435058594
202659,-0.0917816162109375,0.5279388427734375,0.137359619140625,-1.191499590873718,-1.304102540016174,-0.8054725527763367,20.89595031738281,90.8957061767578,-11.12333679199219
202660,-0.07501220703125,0.488433837890625,0.113372802734375,-1.205511331558228,-1.542735695838928,-0.7557920813560486,20.72105407714844,90.4019775390625,-10.21101379394531
202661,-0.076507568359375,0.4326324462890625,0.0512847900390625,-1.269371747970581,-1.925742149353027,-0.6672701835632324,20.64466857910156,90.06382751464844,-9.519271850585938
202662,-0.0492706298828125,0.371307373046875,-0.19482421875,-1.269371747970581,-1.925742149353027,-0.6672701835632324,20.56538391113281,89.58828735351562,-8.468902587890625
202663,-0.0241241455078125,0.2766265869140625,-0.52362060546875,-0.9852372407913208,-2.655278921127319,-0.6105728149414062,20.5577392578125,89.1094970703125,-7.3182373046875
202664,-0.0562591552734375,0.1378173828125,-0.5453033447265625,-0.5007440447807312,-3.306919097900391,-0.6399586796760559,20.38041687011719,88.86631774902344,-6.346694946289062
202665,-0.07171630859375,0.0598602294921875,-0.3095245361328125,-0.0556076020002365,-2.234628915786743,-0.6657689809799194,20.15516662597656,88.79681396484375,-5.159942626953125
202666,-0.07171630859375,0.0598602294921875,-0.3095245361328125,-0.0556076020002365,-2.234628915786743,-0.6657689809799194,20.15516662597656,88.79681396484375,-5.159942626953125
202667,-0.0233917236328125,-0.009429931640625,-0.1579437255859375,-0.2844570279121399,0.0649281367659568,-0.5860368609428406,19.65052795410156,88.65550231933594,-2.870529174804688
202668,-0.0078277587890625,0.1966094970703125,-0.61395263671875,-0.2876589596271515,0.9941257834434508,-0.5810266733169556,19.415771484375,88.49151611328125,-2.330596923828125
202669,0.008941650390625,0.31146240234375,-0.624114990234375,-0.3373593986034393,0.1435470432043076,-0.3952365517616272,19.30384826660156,88.17533874511719,-2.12567138671875
202670,0.0113677978515625,0.379913330078125,-0.43084716796875,-0.3373593986034393,0.1435470432043076,-0.3952365517616272,19.14523315429688,87.97714233398438,-2.32830810546875
202671,-0.0068359375,0.4860382080078125,-0.35528564453125,-0.4766317903995514,-0.2334660142660141,-0.2554040849208832,18.95852661132812,87.76007080078125,-2.345687866210938
202672,-0.0437164306640625,0.60565185546875,-0.4054718017578125,-0.4652907252311707,-0.5326969027519226,-0.1943287253379822,18.79608154296875,87.57432556152344,-2.166183471679688
202673,-0.08197021484375,0.7130279541015625,-0.4247589111328125,-0.2647685408592224,-0.6605308055877686,-0.2462076395750046,18.72602844238281,87.48689270019531,-1.889862060546875
202674,-0.08197021484375,0.7130279541015625,-0.4247589111328125,-0.2647685408592224,-0.6605308055877686,-0.2462076395750046,18.72602844238281,87.48689270019531,-1.889862060546875
202675,-0.197601318359375,0.8798675537109375,-0.346099853515625,0.3508179485797882,-0.044975996017456,-0.4629061222076416,18.54595947265625,87.41554260253906,-1.160736083984375
202676,-0.197601318359375,0.8798675537109375,-0.346099853515625,0.3508179485797882,-0.044975996017456,-0.4629061222076416,18.54595947265625,87.41554260253906,-1.160736083984375
202677,-0.3072052001953125,0.9199066162109376,-0.4463958740234375,0.8575828671455383,0.1647607237100601,-0.5646886825561523,18.27825927734375,87.23548889160156,-1.018341064453125
202678,-0.3543701171875,1.00994873046875,-0.5761566162109375,0.8575828671455383,0.1647607237100601,-0.5646886825561523,18.07757568359375,86.98301696777344,-1.18621826171875
202679,-0.393096923828125,1.160400390625,-0.6485137939453125,0.9566375613212584,-0.1385525465011597,-0.5507214665412903,17.8985595703125,86.87611389160156,-1.525604248046875
202680,-0.4405975341796875,1.361434936523438,-0.5224456787109375,1.008008599281311,-0.1796480566263199,-0.5571396946907043,17.63066101074219,86.9136962890625,-1.724319458007812
202681,-0.5113677978515625,1.597198486328125,-0.225494384765625,1.00415575504303,0.2605855166912079,-0.695393443107605,17.30329895019531,87.0294189453125,-2.059860229492188
202682,-0.6142730712890625,1.869674682617188,0.0236663818359375,1.006513237953186,0.9187421202659608,-1.129984021186829,16.89404296875,87.25119018554688,-2.395797729492188
202683,-0.7718963623046875,2.1790771484375,0.17120361328125,0.9788861274719238,1.507765412330627,-1.830090165138245,16.43977355957031,87.39170837402344,-2.802627563476562
202684,-0.7718963623046875,2.1790771484375,0.17120361328125,0.9788861274719238,1.507765412330627,-1.830090165138245,16.43977355957031,87.39170837402344,-2.802627563476562
202685,-1.030014038085938,2.655838012695312,0.1385345458984375,0.8040570616722107,1.906265616416931,-2.726268291473389,15.73152160644531,87.39033508300781,-3.653915405273438
202686,-1.711807250976562,2.9945068359375,-0.164947509765625,0.5614454746246338,1.488981127738953,-3.292404890060425,14.78965759277344,87.11660766601562,-4.66754150390625
202687,-3.459426879882812,4.15338134765625,-0.2526702880859375,-0.3430764079093933,0.8403852581977844,0.638613760471344,12.40296936035156,86.12281799316406,-6.93017578125
202688,-2.815383911132812,4.725418090820312,0.30377197265625,0.2555449604988098,0.1869411170482635,0.9872918725013732,11.72596740722656,85.84297180175781,-7.686935424804688
202689,-1.99652099609375,3.918350219726562,0.60870361328125,0.7734397649765015,0.6486954092979431,0.7429236769676208,11.71931457519531,85.81642150878906,-8.0281982421875
202690,-1.99652099609375,3.918350219726562,0.60870361328125,0.7734397649765015,0.6486954092979431,0.7429236769676208,11.71931457519531,85.81642150878906,-8.0281982421875
202691,-1.031707763671875,2.335098266601562,-0.0112762451171875,1.920410513877869,0.5415769815444946,1.152668595314026,12.36225891113281,86.28031921386719,-8.999710083007812
202692,-0.803741455078125,1.895553588867188,0.25048828125,2.140458106994629,0.3328591883182526,1.133313775062561,12.80462646484375,86.54446411132812,-9.69854736328125
202693,-0.5604705810546875,1.531723022460938,0.331939697265625,2.213869094848633,0.1954147666692734,0.9895033836364746,13.32868957519531,86.99053955078125,-10.8017578125
202694,-0.36578369140625,1.33392333984375,0.3441619873046875,2.217822313308716,0.1392753273248672,0.8361800909042358,13.917236328125,87.08876037597656,-11.64509582519531
202695,-0.204742431640625,1.164474487304688,0.308197021484375,2.100345611572266,-0.0146969202905893,0.687629759311676,14.62185668945312,87.2244873046875,-12.35505676269531
202696,-0.204742431640625,1.164474487304688,0.308197021484375,2.100345611572266,-0.0146969202905893,0.687629759311676,14.62185668945312,87.2244873046875,-12.35505676269531
202697,0.0706329345703125,0.68658447265625,0.26513671875,1.5757737159729,-0.600514829158783,0.8850275278091431,15.78977966308594,87.15887451171875,-13.32856750488281
202698,0.160919189453125,0.466156005859375,0.240478515625,0.9802291393280028,-1.03286337852478,1.541411280632019,16.41432189941406,87.10078430175781,-13.54884338378906
202699,0.2577056884765625,0.26654052734375,0.2456207275390625,0.9802291393280028,-1.03286337852478,1.541411280632019,16.95162963867188,87.13667297363281,-13.63934326171875
202700,0.2577056884765625,0.26654052734375,0.2456207275390625,0.9802291393280028,-1.03286337852478,1.541411280632019,16.95162963867188,87.13667297363281,-13.63934326171875
202701,0.28076171875,0.04742431640625,0.16937255859375,0.9255619049072266,-0.7222042679786682,2.096263885498047,18.01702880859375,87.78919982910156,-13.63511657714844
202702,0.223541259765625,0.0009307861328125,0.0745391845703125,1.062210083007812,-0.1898405104875565,1.945250391960144,18.62431335449219,88.34024047851562,-13.15544128417969
202703,0.1314849853515625,0.0160980224609375,0.0783538818359375,1.062210083007812,-0.1898405104875565,1.945250391960144,19.29328918457031,88.91766357421875,-12.8792724609375
202704,-0.0037384033203125,0.1060028076171875,0.2322845458984375,0.8339254856109619,0.2404690682888031,1.593829751014709,20.02371215820312,89.57044982910156,-12.94412231445312
202705,-0.1312255859375,0.1563873291015625,0.43267822265625,-0.216200202703476,1.675948619842529,0.7974684238433838,20.66256713867188,90.20538330078124,-13.28199768066406
202706,-0.2271728515625,0.1871490478515625,0.3875732421875,-0.216200202703476,1.675948619842529,0.7974684238433838,21.35855102539062,90.88298034667967,-13.77342224121094
202707,-0.300262451171875,0.2374114990234375,0.111846923828125,-0.6996587514877319,1.753225564956665,0.3863634169101715,21.94471740722656,91.25212097167967,-14.16020202636719
202708,-0.3734130859375,0.2620391845703125,-0.1040496826171875,-0.9761276245117188,1.154046773910522,-0.0809435844421386,22.40071105957031,91.390380859375,-14.49385070800781
202709,-0.4026336669921875,0.2395782470703125,-0.15191650390625,-0.7748616337776184,-0.2920808494091034,-0.8285757303237915,22.79017639160156,91.47314453125,-14.9375
202710,-0.363616943359375,0.187469482421875,-0.016357421875,-0.7748616337776184,-0.2920808494091034,-0.8285757303237915,22.90483093261719,91.4399871826172,-15.04606628417969
202711,-0.2774505615234375,0.0960845947265625,0.153076171875,-0.5470566749572754,-0.2811019718647003,-0.894821047782898,22.73902893066406,91.41009521484376,-15.05426025390625
202712,-0.23162841796875,-0.01739501953125,0.2372894287109375,-0.4868639409542084,0.154647633433342,-0.5943285822868347,22.387939453125,91.23207092285156,-15.03842163085938
202713,-0.2354888916015625,-0.0262603759765625,0.28143310546875,-0.653099000453949,0.8452993035316467,-0.0129991555586457,22.07147216796875,91.03854370117188,-14.83818054199219
202714,-0.1850128173828125,0.2967071533203125,0.2883453369140625,-0.9140772819519044,1.383468508720398,0.3655335009098053,21.84126281738281,90.9738311767578,-14.77825927734375
202715,-0.1742401123046875,0.566802978515625,0.3054351806640625,-1.248200654983521,1.497079253196716,0.2959144711494446,21.73881530761719,90.92039489746094,-14.6868896484375
202716,-0.2671356201171875,0.6579132080078125,0.3690338134765625,-1.61376166343689,1.422713398933411,0.1262793689966202,21.79501342773438,90.9810791015625,-14.69682312011719
202717,-0.363677978515625,0.715606689453125,0.4091949462890625,-1.872243523597717,1.301530480384827,-0.005739111918956,21.93435668945312,91.05775451660156,-14.62921142578125
202718,-0.439849853515625,0.7503204345703125,0.4143829345703125,-1.962316155433655,1.141008973121643,-0.0820519924163818,22.0369873046875,91.03781127929688,-14.50970458984375
202719,-0.4840240478515625,0.772369384765625,0.351959228515625,-1.914801836013794,0.8353292346000671,-0.1055573150515556,22.01063537597656,91.1194305419922,-14.18260192871094
202720,-0.43804931640625,0.79296875,0.32647705078125,-1.810084581375122,0.3938018977642059,-0.1020896136760712,21.8924560546875,91.15463256835938,-13.66194152832031
202721,-0.316497802734375,0.795928955078125,0.3782501220703125,-1.715122103691101,-0.213246762752533,-0.2211297154426575,21.73016357421875,91.29600524902344,-13.2752685546875
202722,-0.209136962890625,0.7613983154296875,0.4040374755859375,-1.715122103691101,-0.213246762752533,-0.2211297154426575,21.52879333496094,91.3741455078125,-12.82356262207031
202723,-0.1589508056640625,0.7410736083984375,0.4051513671875,-1.721253156661987,-0.3644813001155853,-0.2334950417280197,21.42115783691406,91.38493347167967,-12.15689086914062
202724,-0.158660888671875,0.75439453125,0.372833251953125,-1.702204346656799,-0.4240279793739319,-0.2648665606975555,21.32247924804688,91.26776123046876,-11.40641784667969
202725,-0.1575775146484375,0.7599639892578125,0.3009033203125,-1.594304084777832,-0.4079137146472931,-0.3386070728302002,21.24894714355469,91.00970458984376,-10.54888916015625
202726,-0.120513916015625,0.7093963623046875,0.17620849609375,-1.439988017082214,-0.4013855159282684,-0.3822938501834869,21.1705322265625,90.81678771972656,-9.769805908203123
202727,-0.0596923828125,0.60003662109375,-0.09320068359375,-1.126281142234802,-0.5710757374763489,-0.3613866865634918,21.0474853515625,90.58041381835938,-8.903091430664062
202728,0.00091552734375,0.4365081787109375,-0.4327545166015625,-0.5092339515686035,-1.069563627243042,-0.3171305656433105,20.97343444824219,90.38580322265624,-8.198486328125
202729,0.0295257568359375,0.226348876953125,-0.41168212890625,0.6968379020690918,-1.380775213241577,-0.0711322352290153,20.96781921386719,90.06320190429688,-7.457748413085938
202730,0.0295257568359375,0.226348876953125,-0.41168212890625,0.6968379020690918,-1.380775213241577,-0.0711322352290153,20.96781921386719,90.06320190429688,-7.457748413085938
202731,0.026031494140625,-0.0441131591796875,-0.17578125,0.8404400944709778,-0.9975793957710266,0.0657015144824981,20.80563354492188,89.83515930175781,-6.438385009765625
202732,0.0875701904296875,-0.1130828857421875,-0.2894744873046875,0.8289695978164673,-0.6929888725280762,0.191260501742363,20.64067077636719,89.886474609375,-6.307113647460938
202733,0.19268798828125,-0.128631591796875,-0.4463958740234375,0.6048470139503479,-0.3116044998168945,0.2736270129680634,20.54396057128906,90.05136108398438,-6.2376708984375
202734,0.19268798828125,-0.128631591796875,-0.4463958740234375,0.6048470139503479,-0.3116044998168945,0.2736270129680634,20.54396057128906,90.05136108398438,-6.2376708984375
202735,0.263519287109375,0.10455322265625,-0.7227935791015625,-0.4618397951126099,-0.0310918726027011,0.1348912417888641,20.53416442871094,90.41983032226562,-6.326492309570312
202736,0.2015533447265625,0.2624664306640625,-0.6203765869140625,-0.6527053713798523,-0.4560279846191406,0.0026000442449003,20.58229064941406,90.55290222167967,-6.345611572265625
202737,0.143798828125,0.4297637939453125,-0.5085601806640625,-0.5717939734458923,-0.781246542930603,-0.160772904753685,20.70573425292969,90.46182250976562,-6.028305053710938
202738,0.143798828125,0.4297637939453125,-0.5085601806640625,-0.5717939734458923,-0.781246542930603,-0.160772904753685,20.70573425292969,90.46182250976562,-6.028305053710938
202739,0.01104736328125,0.9081573486328124,-0.235137939453125,0.3716649115085602,-0.3219495415687561,-0.9920732975006104,20.68754577636719,90.36605834960938,-5.108734130859375
202740,-0.0836944580078125,1.133132934570312,-0.2819976806640625,0.3716649115085602,-0.3219495415687561,-0.9920732975006104,20.54583740234375,90.30996704101562,-4.502944946289062
202741,-0.2082061767578125,1.2076416015625,-0.4555511474609375,1.352700710296631,-0.3787270784378052,-1.541086316108704,20.34457397460938,90.27935791015624,-4.16064453125
202742,-0.2082061767578125,1.2076416015625,-0.4555511474609375,1.352700710296631,-0.3787270784378052,-1.541086316108704,20.34457397460938,90.27935791015624,-4.16064453125
202743,-0.4977264404296875,1.1514892578125,-1.021347045898438,1.787531852722168,-0.5643613934516907,-1.463246941566467,19.41830444335938,89.92654418945312,-4.22845458984375
202744,-0.683074951171875,1.250335693359375,-1.192245483398438,1.815317630767822,-0.2223433256149292,-0.9831085801124572,18.90475463867188,89.66305541992188,-4.501388549804688
202745,-0.7684173583984375,1.52557373046875,-1.151153564453125,1.430317282676697,0.437171995639801,-0.4257643520832062,18.20686340332031,89.50880432128906,-4.908538818359375
202746,-0.7684173583984375,1.52557373046875,-1.151153564453125,1.430317282676697,0.437171995639801,-0.4257643520832062,18.20686340332031,89.50880432128906,-4.908538818359375
202747,-0.7158355712890625,2.05377197265625,-0.9172515869140624,1.110153079032898,-0.6000871658325195,-1.19752311706543,17.32302856445312,89.20150756835938,-6.059478759765625
202748,-0.7719268798828125,2.287704467773438,-0.969573974609375,1.110153079032898,-0.6000871658325195,-1.19752311706543,17.13552856445312,89.28572082519531,-6.511642456054688
202749,-0.9926605224609376,2.471420288085938,-1.026504516601562,1.315256714820862,-0.3434492349624634,-1.326666712760925,16.90699768066406,89.42131042480469,-7.107101440429688
202750,-0.9926605224609376,2.471420288085938,-1.026504516601562,1.315256714820862,-0.3434492349624634,-1.326666712760925,16.90699768066406,89.42131042480469,-7.107101440429688
202751,-1.133682250976562,2.881607055664062,-1.163040161132812,0.3989263474941254,1.076355934143066,-0.6130234599113464,15.94471740722656,89.13156127929688,-7.90380859375
202752,-1.051376342773438,3.193527221679688,-0.7632293701171875,-0.2706759572029114,1.100964903831482,-0.3321747481822968,15.40057373046875,89.00901794433594,-8.57257080078125
202753,-1.113555908203125,3.449722290039062,-0.2245330810546875,-0.4948195815086365,1.269738793373108,-0.1260953545570374,15.01536560058594,88.81333923339844,-9.21240234375
202754,-1.113555908203125,3.449722290039062,-0.2245330810546875,-0.4948195815086365,1.269738793373108,-0.1260953545570374,15.01536560058594,88.81333923339844,-9.21240234375
202755,-2.015060424804688,3.282302856445312,-0.084991455078125,0.4952297210693359,1.635222673416138,1.613905429840088,14.8514404296875,88.70082092285156,-10.34654235839844
202756,-1.593505859375,2.649520874023438,-0.11431884765625,1.278856873512268,1.026863217353821,2.352056980133057,15.08323669433594,88.93362426757812,-11.16957092285156
202757,-0.9615478515625,2.205612182617188,0.019622802734375,1.843675017356873,0.4587174952030182,2.128945350646973,15.60664367675781,89.25794982910156,-11.96270751953125
202758,-0.9615478515625,2.205612182617188,0.019622802734375,1.843675017356873,0.4587174952030182,2.128945350646973,15.60664367675781,89.25794982910156,-11.96270751953125
202759,-0.5704498291015625,1.824066162109375,0.59552001953125,2.216581106185913,1.699782848358154,1.383343577384949,18.31575012207031,90.76530456542967,-14.98802185058594
202760,-0.32440185546875,1.570419311523438,0.555511474609375,2.2789306640625,2.400439500808716,1.295279741287231,19.0755615234375,91.02931213378906,-16.082763671875
202761,-0.16363525390625,1.26556396484375,0.480926513671875,2.248934507369995,2.692073106765747,1.394913196563721,19.91049194335938,90.99000549316406,-17.45687866210938
202762,-0.16363525390625,1.26556396484375,0.480926513671875,2.248934507369995,2.692073106765747,1.394913196563721,19.91049194335938,90.99000549316406,-17.45687866210938
202763,0.07110595703125,0.6121673583984375,0.224273681640625,1.775070667266846,1.894169569015503,2.039791584014893,21.82254028320312,91.07342529296876,-20.32365417480469
202764,0.07110595703125,0.6121673583984375,0.224273681640625,1.775070667266846,1.894169569015503,2.039791584014893,21.82254028320312,91.07342529296876,-20.32365417480469
202765,0.164276123046875,0.1999359130859375,0.181549072265625,1.254596829414368,0.4168342351913452,2.603496789932251,24.15751647949219,91.37718200683594,-22.48521423339844
202766,0.157135009765625,0.1059722900390625,0.2438812255859375,0.9971671104431152,-0.0830906257033348,2.638670921325684,25.24249267578125,91.69923400878906,-22.97785949707031
202767,0.1464996337890625,0.063018798828125,0.3734588623046875,0.6153068542480469,-0.3252627849578857,2.501751184463501,26.47232055664062,92.1968994140625,-23.13157653808594
202768,0.1372528076171875,0.0736236572265625,0.5408935546875,0.0849050357937812,-0.2889111638069153,2.244841337203979,27.535400390625,92.65206909179688,-23.09628295898438
202769,0.1053619384765625,0.13153076171875,0.7225341796875,-0.5130617022514343,0.1364795416593552,1.858149290084839,28.36154174804688,93.19889831542967,-22.93107604980469
202770,0.1053619384765625,0.13153076171875,0.7225341796875,-0.5130617022514343,0.1364795416593552,1.858149290084839,28.36154174804688,93.19889831542967,-22.93107604980469
202771,-0.0035552978515625,0.2150421142578125,0.704833984375,-1.413326501846313,1.465456366539001,0.7523406147956848,29.75779724121094,94.0247802734375,-22.06227111816406
202772,-0.11724853515625,0.2039642333984375,0.543426513671875,-1.493820309638977,1.74310576915741,0.3948551714420319,30.38253784179688,94.48684692382812,-21.70956420898438
202773,-0.154876708984375,0.220977783203125,0.30755615234375,-1.403091788291931,1.585975766181946,0.3071293234825134,30.85820007324219,94.731689453125,-21.29705810546875
202774,-0.2038726806640625,0.3303070068359375,-0.07135009765625,-1.222529411315918,0.8825015425682068,0.2222756743431091,31.06062316894531,95.10162353515624,-20.98591613769531
202775,-0.365875244140625,0.5015411376953125,-0.708953857421875,-0.8580196499824524,-0.8625597953796387,-0.018419487401843,31.22312927246094,95.4430694580078,-20.66423034667969
202776,-0.410614013671875,0.6072540283203125,-0.263641357421875,-0.5866315364837646,-2.145467519760132,-0.3989937305450439,31.22044372558594,95.6987762451172,-20.35531616210938
202777,-0.3649444580078125,0.6271209716796875,0.388916015625,-0.6857045888900757,-1.836956143379211,-0.7938874959945679,30.92095947265625,95.88885498046876,-20.03323364257812
202778,-0.2960357666015625,0.584747314453125,0.5809173583984375,-0.9426799416542052,-0.8144407272338867,-0.9382010102272034,30.4447021484375,95.92782592773438,-19.40771484375
202779,-0.2534637451171875,0.63128662109375,0.53228759765625,-1.170892834663391,0.1355109512805939,-0.8336354494094849,29.86320495605469,95.93150329589844,-18.76544189453125
202780,-0.2327423095703125,0.7661590576171875,0.3872222900390625,-1.30138111114502,0.6010426878929138,-0.6555083394050598,29.46168518066406,95.87388610839844,-18.43330383300781
202781,-0.1909942626953125,0.892791748046875,0.25396728515625,-1.337636351585388,0.5147871971130371,-0.6245157718658447,29.17082214355469,95.82902526855467,-18.04721069335938
202782,-0.1718292236328125,0.951751708984375,0.192291259765625,-1.346744894981384,0.0601954311132431,-0.730808675289154,28.94277954101562,95.60421752929688,-17.63670349121094
202783,-0.17047119140625,0.9898834228515624,0.1837615966796875,-1.340599894523621,-0.5293362736701965,-0.8104835152626038,28.73902893066406,95.38737487792967,-17.27511596679688
202784,-0.17047119140625,0.9898834228515624,0.1837615966796875,-1.340599894523621,-0.5293362736701965,-0.8104835152626038,28.73902893066406,95.38737487792967,-17.27511596679688
202785,-0.1114349365234375,0.98358154296875,0.26507568359375,-1.357433438301086,-1.513059735298157,-0.8064627051353455,28.25978088378906,94.9080047607422,-15.86534118652344
202786,-0.0584716796875,0.9466400146484376,0.31292724609375,-1.443643450737,-1.744829893112183,-0.7444344758987427,27.8492431640625,94.63429260253906,-14.96173095703125
202787,-0.0436248779296875,0.8725738525390625,0.348175048828125,-1.577599406242371,-1.740190148353577,-0.690243124961853,27.61618041992188,94.28399658203124,-13.98101806640625
202788,-0.08428955078125,0.746673583984375,0.34368896484375,-1.70381486415863,-1.397279381752014,-0.6826890707015991,27.30252075195312,93.97222900390624,-13.03923034667969
202789,-0.1249847412109375,0.610076904296875,0.1583404541015625,-1.747781991958618,-0.9685717225074768,-0.7131279706954956,26.99790954589844,93.8207550048828,-12.01998901367188
202790,-0.14654541015625,0.441497802734375,-0.2046966552734375,-1.622348189353943,-1.054714322090149,-0.7787021994590759,26.61984252929688,93.70960998535156,-11.15034484863281
202791,-0.1269073486328125,0.2534332275390625,-0.3715667724609375,-1.322966814041138,-1.574673295021057,-0.8302841186523438,26.40255737304688,93.47286987304688,-10.09347534179688
202792,-0.063262939453125,0.12078857421875,-0.3202972412109375,-0.9467697143554688,-2.032677173614502,-0.8379068970680237,26.07588195800781,93.2198486328125,-9.150726318359377
202793,-0.009033203125,0.040985107421875,-0.2430877685546875,-0.6087267398834229,-2.228232145309448,-0.8107227087020874,25.65348815917969,93.06346130371094,-8.088119506835938
202794,-0.009033203125,0.040985107421875,-0.2430877685546875,-0.6087267398834229,-2.228232145309448,-0.8107227087020874,25.65348815917969,93.06346130371094,-8.088119506835938
202795,0.070281982421875,-0.0564422607421875,-0.2427825927734375,-0.2207054793834686,-1.850724935531616,-0.7967512011528015,25.123779296875,92.54876708984376,-6.434860229492188
202796,0.114166259765625,-0.1194305419921875,-0.255889892578125,-0.393088698387146,-0.9555208683013916,-0.7947106957435608,24.82575988769531,92.33493041992188,-6.007431030273438
202797,0.140472412109375,-0.1237640380859375,-0.3879547119140625,-0.777217447757721,0.1755270808935165,-0.7094453573226929,24.62290954589844,92.13606262207033,-5.4951171875
202798,0.1545257568359375,0.00433349609375,-0.6510467529296875,-0.8911384344100952,0.3021417558193207,-0.5323334336280823,24.34541320800781,91.82536315917967,-5.268692016601562
202799,0.1422271728515625,0.1687774658203125,-0.7817230224609375,-0.6646725535392761,-0.6016618609428406,-0.3631632924079895,24.0924072265625,91.61564636230467,-4.899642944335938
202800,0.1422271728515625,0.1687774658203125,-0.7817230224609375,-0.6646725535392761,-0.6016618609428406,-0.3631632924079895,24.0924072265625,91.61564636230467,-4.899642944335938
202801,0.1153564453125,0.34112548828125,-0.5023040771484375,-0.5702669620513916,-0.647062361240387,-0.316502571105957,23.67999267578125,91.14933776855467,-4.095657348632812
202802,0.1153564453125,0.34112548828125,-0.5023040771484375,-0.5702669620513916,-0.647062361240387,-0.316502571105957,23.67999267578125,91.14933776855467,-4.095657348632812
202803,0.1284332275390625,0.484619140625,-0.2672882080078125,-0.6205194592475891,-0.1018608510494232,-0.0650559663772583,23.42439270019531,90.8464813232422,-3.005477905273438
202804,0.145050048828125,0.6251678466796875,-0.2611846923828125,-0.6895235776901245,0.0312697738409042,0.0860717669129371,23.36968994140625,90.76116943359376,-2.618331909179688
202805,0.1728515625,0.7762298583984375,-0.267333984375,-0.7377097606658936,-0.0296700112521648,0.1891328990459442,23.32095336914062,90.72262573242188,-2.540374755859375
202806,0.1928558349609375,0.864288330078125,-0.2501373291015625,-0.7404195070266724,-0.180535152554512,0.2072421312332153,23.38203430175781,90.65251159667967,-2.346328735351562
202807,0.2169952392578125,0.91424560546875,-0.24810791015625,-0.6550239324569702,-0.3506019711494446,0.1452964693307877,23.52433776855469,90.52822875976562,-1.973190307617188
202808,0.252471923828125,0.9581756591796876,-0.207000732421875,-0.4921857118606567,-0.4394942820072174,0.0907112583518028,23.66915893554688,90.47747802734376,-1.476654052734375
202809,0.2739715576171875,1.050338745117188,-0.1201934814453125,-0.3247123062610626,-0.2876386940479279,0.0906934142112731,23.74006652832031,90.35513305664062,-0.906768798828125
202810,0.2569580078125,1.21282958984375,-0.0941009521484375,-0.1957623064517975,0.005739111918956,0.1496166586875916,23.83833312988281,90.2686767578125,-0.3753814697265625
202811,0.1958770751953125,1.457107543945312,-0.2219085693359375,-0.0648602247238159,0.0894957929849624,0.2145399898290634,23.88133239746094,90.37274169921876,-0.3118133544921875
202812,0.0958404541015625,1.8394775390625,-0.442138671875,0.2128611356019974,-0.3262707889080048,0.2096203416585922,23.83314514160156,90.63331604003906,-0.2416229248046875
202813,0.0059814453125,2.449188232421875,-0.55938720703125,0.7922523617744446,-1.056187868118286,0.0009211873984895,23.76847839355469,90.82473754882812,-0.1029052734375
202814,-0.079315185546875,3.128814697265625,-0.3443145751953125,1.694364309310913,-1.318263411521912,-0.3733520209789276,23.78436279296875,90.93360900878906,0.0075225830078125
202815,-0.4057769775390625,3.711471557617188,0.143951416015625,2.333700895309448,-0.2880381941795349,-0.9882367253303528,23.74124145507812,91.05271911621094,0.0100860595703125
202816,-1.021316528320312,4.459518432617188,-0.1815643310546875,2.329522132873535,1.35239052772522,-2.248547315597534,23.46035766601562,91.30050659179688,-0.378265380859375
202817,-1.535964965820312,4.66650390625,-1.488693237304688,1.966734647750854,1.105625987052917,-3.607222080230713,22.73408508300781,91.44369506835938,-1.489974975585938
202818,-1.788970947265625,3.772567749023438,-1.4046630859375,0.9669620990753174,0.6375820636749268,-3.636604070663452,21.7286376953125,91.1907196044922,-2.948745727539062
202819,-2.235794067382812,2.280792236328125,-0.4297332763671875,0.2008596062660217,1.837473511695862,-2.164411783218384,20.30995178222656,90.57530212402344,-4.482223510742188
202820,-2.43707275390625,1.118606567382812,-0.267608642578125,0.3864177465438843,3.325990915298462,0.3587504327297211,19.18919372558594,90.01481628417969,-5.801589965820312
202821,-1.387557983398438,1.205459594726562,-0.510406494140625,1.700307965278625,2.970410823822021,1.182272791862488,18.73854064941406,89.74186706542969,-7.065658569335938
202822,-0.7024688720703125,1.24267578125,-0.4302978515625,2.879585742950439,1.999467015266418,1.163988828659058,18.98332214355469,89.68232727050781,-8.458236694335938
202823,-0.53997802734375,1.098129272460938,-0.1964263916015625,3.172784328460693,1.477292418479919,1.041893601417542,19.48643493652344,89.92706298828125,-9.908096313476562
202824,-0.359344482421875,1.088333129882812,-0.109588623046875,2.649563550949097,1.495821118354797,0.904977560043335,19.7647705078125,90.37669372558594,-11.63645935058594
202825,-0.1624603271484375,1.11798095703125,-0.249237060546875,1.768919825553894,1.442509174346924,0.8430545330047607,19.9229736328125,90.629638671875,-13.20758056640625
202826,-0.0122833251953125,1.171478271484375,-0.3451995849609375,0.9508776664733888,1.103101849555969,0.8037515878677368,20.15896606445312,90.87889099121094,-14.47259521484375
202827,0.0936737060546875,1.240753173828125,-0.2529449462890625,0.4752877056598663,0.7609007954597473,0.732388973236084,20.2974853515625,91.0125732421875,-15.63824462890625
202828,0.0936737060546875,1.240753173828125,-0.2529449462890625,0.4752877056598663,0.7609007954597473,0.732388973236084,20.2974853515625,91.0125732421875,-15.63824462890625
202829,0.151336669921875,1.37713623046875,0.211944580078125,0.6948744058609009,1.063066244125366,0.5756489038467407,20.79653930664062,91.35218811035156,-16.74142456054688
202830,0.1279754638671875,1.4000244140625,0.3447265625,1.046195387840271,1.564525127410889,0.6313319206237793,20.945068359375,91.52362060546876,-17.22032165527344
202831,-0.0224609375,1.398284912109375,0.4635162353515625,1.274501800537109,2.134202718734741,0.7074682116508484,21.12174987792969,91.79972839355467,-17.82215881347656
202832,-0.2001953125,1.338729858398438,0.561126708984375,1.27479100227356,2.708712339401245,0.632107675075531,21.38365173339844,91.9517822265625,-18.61076354980469
202833,-0.318145751953125,1.239883422851562,0.582977294921875,1.025314569473267,3.06219482421875,0.4386916160583496,21.78373718261719,92.13121032714844,-19.58781433105469
202834,-0.318145751953125,1.239883422851562,0.582977294921875,1.025314569473267,3.06219482421875,0.4386916160583496,21.78373718261719,92.13121032714844,-19.58781433105469
202835,-0.5445098876953125,0.9553375244140624,0.5814971923828125,0.3302759230136871,2.836137533187866,0.0617544427514076,22.88385009765625,92.24627685546876,-22.12327575683594
202836,-0.598175048828125,0.7725677490234375,0.5279083251953125,0.0250691343098878,1.715013146400452,-0.0988991484045982,23.42631530761719,92.34245300292967,-23.20785522460938
202837,-0.5881500244140625,0.6002197265625,0.473480224609375,0.0250691343098878,1.715013146400452,-0.0988991484045982,23.7109375,92.48162841796876,-24.08041381835938
202838,-0.57879638671875,0.466461181640625,0.4641876220703125,-0.0947030708193779,0.5292529463768005,-0.2172159403562546,23.94306945800781,92.60748291015624,-24.72918701171875
202839,-0.6024932861328125,0.3320770263671875,0.506072998046875,-0.0947030708193779,0.5292529463768005,-0.2172159403562546,23.96347045898438,92.89152526855467,-25.18917846679688
202840,-0.6676025390625,0.1909942626953125,0.553253173828125,-0.2153666466474533,0.3427991569042206,-0.3164021670818329,23.75942993164062,93.09320068359376,-25.35801696777344
202841,-0.7630157470703125,0.07281494140625,0.5791168212890625,-0.4286802411079407,0.6095280647277832,-0.6201702952384949,23.65760803222656,93.26541137695312,-25.51776123046875
202842,-0.8423004150390625,-0.044769287109375,0.5720977783203125,-0.4286802411079407,0.6095280647277832,-0.6201702952384949,23.43632507324219,93.42404174804688,-25.50747680664062
202843,-0.87493896484375,-0.1379852294921875,0.500946044921875,-0.5386278033256531,0.7269436120986938,-0.7390061616897583,23.25100708007812,93.5278778076172,-25.42376708984375
202844,-0.87493896484375,-0.1379852294921875,0.500946044921875,-0.5386278033256531,0.7269436120986938,-0.7390061616897583,23.25100708007812,93.5278778076172,-25.42376708984375
202845,-0.677276611328125,0.0250701904296875,0.21942138671875,-1.134721040725708,0.0360144600272178,-1.003924608230591,22.82301330566406,93.0632781982422,-25.03059387207031
202846,-0.677276611328125,0.0250701904296875,0.21942138671875,-1.134721040725708,0.0360144600272178,-1.003924608230591,22.82301330566406,93.0632781982422,-25.03059387207031
202847,-0.5165557861328125,0.181182861328125,0.13775634765625,-1.343236088752747,-0.4936363399028778,-1.041867733001709,22.49362182617188,92.73300170898438,-24.79127502441406
202848,-0.3687286376953125,0.3057403564453125,0.109649658203125,-1.502479791641235,-0.9897185564041138,-1.068047642707825,22.11390686035156,92.54345703125,-24.45977783203125
202849,-0.2406158447265625,0.387115478515625,0.10235595703125,-1.679660439491272,-1.709699392318726,-1.02480673789978,21.63983154296875,92.2821044921875,-23.94586181640625
202850,-0.154266357421875,0.4225311279296875,0.1175079345703125,-1.679660439491272,-1.709699392318726,-1.02480673789978,21.1082763671875,92.1225128173828,-23.16361999511719
202851,-0.10626220703125,0.4290008544921875,0.1295166015625,-1.679842352867126,-1.823355555534363,-0.9728785753250122,20.52195739746094,91.89036560058594,-22.08203125
202852,-0.079010009765625,0.413665771484375,0.0945892333984375,-1.617829918861389,-1.814405202865601,-0.9477007985115052,20.0577392578125,91.5858917236328,-21.01960754394531
202853,-0.0308380126953125,0.3817291259765625,-0.0960540771484375,-1.315797805786133,-2.600445508956909,-0.8204852938652039,19.60614013671875,91.34831237792967,-20.00244140625
202854,0.045196533203125,0.342376708984375,-0.38873291015625,-1.315797805786133,-2.600445508956909,-0.8204852938652039,19.21859741210938,90.98605346679688,-18.76016235351562
202855,0.0959625244140625,0.2940826416015625,-0.40716552734375,-1.032714486122131,-3.461105823516846,-0.6659417748451233,18.96192932128906,90.69891357421876,-17.44439697265625
202856,0.110076904296875,0.2455902099609375,-0.2101898193359375,-0.8302135467529297,-3.973519563674927,-0.5131669044494629,18.74024963378906,90.2017822265625,-16.00267028808594
202857,0.1667938232421875,0.226043701171875,-0.0650177001953125,-0.8660544157028198,-4.20720100402832,-0.2318220436573029,18.74253845214844,89.542236328125,-14.35348510742188
202858,0.1667938232421875,0.226043701171875,-0.0650177001953125,-0.8660544157028198,-4.20720100402832,-0.2318220436573029,18.74253845214844,89.542236328125,-14.35348510742188
202859,0.4277496337890625,0.16650390625,-0.2204132080078125,-1.086332201957703,-0.6841559410095215,1.307119369506836,18.78465270996094,88.7059326171875,-10.93504333496094
202860,0.4277496337890625,0.16650390625,-0.2204132080078125,-1.086332201957703,-0.6841559410095215,1.307119369506836,18.78465270996094,88.7059326171875,-10.93504333496094
202861,0.5547332763671875,0.2303924560546875,-0.45965576171875,-1.086332201957703,-0.6841559410095215,1.307119369506836,18.70660400390625,88.77593994140625,-9.014785766601562
202862,0.3306121826171875,0.304534912109375,-0.9752197265625,-0.459143340587616,-0.1062284335494041,1.092690229415894,18.7794189453125,89.1865234375,-7.246856689453125
202863,0.1697235107421875,0.2204437255859375,-0.4947052001953125,-0.2622958123683929,0.4838106036186218,0.2023320645093918,19.73483276367188,89.57040405273438,-5.585952758789062
202864,0.13714599609375,0.2546539306640625,-0.6004180908203125,-0.4385099709033966,0.2083952873945236,-0.0585296228528022,20.07373046875,89.76022338867188,-5.307861328125
202865,0.0185699462890625,0.315643310546875,-0.662994384765625,-0.6307076215744019,-0.2164745181798935,-0.0528445728123188,20.15011596679688,89.77532958984375,-5.183563232421875
202866,0.0185699462890625,0.315643310546875,-0.662994384765625,-0.6307076215744019,-0.2164745181798935,-0.0528445728123188,20.15011596679688,89.77532958984375,-5.183563232421875
202867,-0.006378173828125,0.553619384765625,-0.555694580078125,-0.6496528387069702,-0.4268021881580353,0.0149906668812036,20.20823669433594,89.82530212402344,-5.064132690429688
202868,-0.003692626953125,0.663848876953125,-0.4523773193359375,-0.4382228851318359,-0.2012995630502701,0.0448327176272869,20.11262512207031,89.71881103515625,-4.675155639648438
202869,-0.01007080078125,0.76214599609375,-0.33685302734375,-0.2165938317775726,0.2178132832050323,0.1112543493509293,20.14559936523438,89.75175476074219,-4.300186157226562
202870,-0.039459228515625,0.8698577880859375,-0.3465728759765625,-0.0336317308247089,0.5905892848968506,0.2143772691488266,20.15142822265625,89.7393798828125,-4.13201904296875
202871,-0.0949554443359375,1.024368286132812,-0.4621734619140625,0.0897320136427879,0.7434996962547302,0.3058512508869171,20.05284118652344,89.61579895019531,-3.978317260742188
202872,-0.17205810546875,1.2164306640625,-0.640869140625,0.1836049854755402,0.6666403412818909,0.339285135269165,20.11286926269531,89.60038757324219,-3.96490478515625
202873,-0.1844329833984375,1.453475952148438,-0.6871185302734375,0.2103005051612854,0.6327143311500549,0.4856130480766296,20.17060852050781,89.79440307617188,-4.400070190429688
202874,-0.0451202392578125,1.735183715820312,-0.5251007080078125,0.2103005051612854,0.6327143311500549,0.4856130480766296,20.22830200195312,89.8895263671875,-4.625137329101562
202875,0.1648406982421875,1.984634399414062,-0.323822021484375,0.1469529569149017,0.9655279517173768,0.6925246715545654,20.18899536132812,90.05204772949219,-4.750213623046875
202876,0.2691802978515625,2.151397705078125,-0.0791168212890625,0.1691304296255112,1.347716331481934,0.8756537437438965,20.34916687011719,90.18952941894533,-5.0084228515625
202877,0.2352752685546875,2.452011108398438,0.204620361328125,0.2202934920787811,1.766235828399658,0.955258846282959,20.3795166015625,90.40548706054688,-5.374114990234375
202878,0.2352752685546875,2.452011108398438,0.204620361328125,0.2202934920787811,1.766235828399658,0.955258846282959,20.3795166015625,90.40548706054688,-5.374114990234375
202879,-0.097930908203125,4.336456298828125,0.3189697265625,0.6930839419364929,1.819086790084839,0.6986294388771057,20.61419677734375,91.01171875,-6.272308349609375
202880,-0.418975830078125,5.876495361328125,-0.0952606201171875,1.188433289527893,0.7077465057373047,0.085982821881771,20.67703247070312,91.38484191894533,-7.143753051757812
202881,-0.8517913818359375,6.635665893554688,-0.2664794921875,1.773449063301086,-0.931951105594635,-0.9854010343551636,20.64913940429688,91.58976745605467,-8.219879150390625
202882,-0.8517913818359375,6.635665893554688,-0.2664794921875,1.773449063301086,-0.931951105594635,-0.9854010343551636,20.64913940429688,91.58976745605467,-8.219879150390625
202883,-1.521652221679688,4.026123046875,0.302520751953125,0.9976488947868348,0.4980025887489319,-2.477061033248901,19.68400573730469,91.9722900390625,-10.31430053710938
202884,-1.521652221679688,4.026123046875,0.302520751953125,0.9976488947868348,0.4980025887489319,-2.477061033248901,19.68400573730469,91.9722900390625,-10.31430053710938
202885,-2.418380737304688,1.063522338867188,0.389190673828125,0.4901316165924072,4.057848453521729,-1.362679839134216,17.62631225585938,91.95791625976562,-12.23796081542969
202886,-2.741729736328125,0.3469085693359375,-0.1770172119140625,0.7600033283233643,3.657803535461426,0.9250226616859436,16.87940979003906,91.60545349121094,-13.66989135742188
202887,-2.147537231445312,0.5158843994140625,-0.0991058349609375,1.268224239349365,2.219258546829224,1.349945425987244,16.75276184082031,91.45892333984376,-15.36659240722656
202888,-1.639389038085938,0.569580078125,0.2011871337890625,1.725174427032471,0.7311447858810425,1.076650261878967,17.33070373535156,91.59915161132812,-16.88662719726562
202889,-1.284866333007812,0.4411773681640625,0.4678497314453125,1.850932121276855,-0.0144883953034877,0.7843400835990906,18.11502075195312,91.74395751953124,-17.92453002929688
202890,-0.9401702880859376,0.2553253173828125,0.334320068359375,1.850932121276855,-0.0144883953034877,0.7843400835990906,18.7264404296875,91.8722686767578,-18.71241760253906
202891,-0.5782470703125,0.1912078857421875,0.0054931640625,1.749412178993225,-0.3334682583808899,0.7293804287910461,19.16403198242188,91.92713928222656,-19.53372192382812
202892,-0.250213623046875,0.1809844970703125,-0.1756744384765625,1.634919404983521,-0.8185760974884033,0.621936023235321,19.43843078613281,92.08363342285156,-20.38243103027344
202893,0.02734375,0.1199188232421875,-0.158905029296875,1.42736828327179,-0.8861964344978333,0.5293331146240234,19.76431274414062,91.85377502441406,-20.78846740722656
202894,0.02734375,0.1199188232421875,-0.158905029296875,1.42736828327179,-0.8861964344978333,0.5293331146240234,19.76431274414062,91.85377502441406,-20.78846740722656
202895,0.3444061279296875,0.01318359375,-0.0624237060546875,1.031325936317444,0.4367552101612091,0.3354730606079102,20.23245239257812,91.61068725585938,-21.21574401855469
202896,0.3679962158203125,0.006378173828125,0.088714599609375,1.115817070007324,1.149628043174744,0.2786398828029633,20.51904296875,91.48941040039062,-21.30897521972656
202897,0.321746826171875,0.03997802734375,0.148193359375,0.9119467735290528,1.972778081893921,0.2378477156162262,20.68142700195312,91.2830047607422,-21.43342590332031
202898,0.321746826171875,0.03997802734375,0.148193359375,0.9119467735290528,1.972778081893921,0.2378477156162262,20.68142700195312,91.2830047607422,-21.43342590332031
202899,0.1937408447265625,0.12091064453125,0.03765869140625,0.4060481786727905,1.573956370353699,0.1494049280881882,21.00967407226562,91.21429443359376,-22.53834533691406
202900,0.1937408447265625,0.12091064453125,0.03765869140625,0.4060481786727905,1.573956370353699,0.1494049280881882,21.00967407226562,91.21429443359376,-22.53834533691406
202901,0.080963134765625,0.25067138671875,-0.0255889892578125,0.0822011306881904,0.9218875765800476,-0.03823047503829,21.60240173339844,91.17033386230467,-23.86798095703125
202902,0.080963134765625,0.25067138671875,-0.0255889892578125,0.0822011306881904,0.9218875765800476,-0.03823047503829,21.60240173339844,91.17033386230467,-23.86798095703125
202903,-0.1982574462890625,0.391937255859375,0.0618896484375,-0.5056245923042297,-0.2388466596603394,-0.769818127155304,22.1722412109375,90.79698181152344,-24.43414306640625
202904,-0.3011016845703125,0.478515625,-0.0084228515625,-0.6316794157028198,-0.7709366679191589,-1.14842700958252,22.17832946777344,90.61076354980467,-24.40771484375
202905,-0.395050048828125,0.648468017578125,0.1114349365234375,-0.9135081768035888,-0.8995934128761292,-1.903747916221619,21.93150329589844,90.62532043457033,-24.41783142089844
202906,-0.395050048828125,0.648468017578125,0.1114349365234375,-0.9135081768035888,-0.8995934128761292,-1.903747916221619,21.93150329589844,90.62532043457033,-24.41783142089844
202907,-0.5787353515625,0.900909423828125,0.385711669921875,-1.066332578659058,-0.3699144124984741,-2.13827919960022,20.72576904296875,90.65226745605467,-24.04573059082031
202908,-0.7389373779296875,0.799407958984375,0.3272857666015625,-1.066738963127136,0.0866195783019065,-2.102867126464844,19.85420227050781,90.49079895019533,-23.67025756835938
202909,-1.015945434570312,0.4604949951171875,0.260833740234375,-0.4544018507003784,0.4425670504570007,-0.64571613073349,18.91543579101562,90.2076416015625,-23.49388122558594
202910,-1.015945434570312,0.4604949951171875,0.260833740234375,-0.4544018507003784,0.4425670504570007,-0.64571613073349,18.91543579101562,90.2076416015625,-23.49388122558594
202911,-0.7833709716796875,0.3404693603515625,0.0436248779296875,-0.1789481788873672,0.0127381654456257,-0.4740922152996063,17.5,89.54922485351562,-23.27052307128906
202912,-0.593719482421875,0.40863037109375,0.0681915283203125,-0.2711622714996338,-0.4605119526386261,-0.4450784027576447,17.0938720703125,89.40939331054688,-23.38261413574219
202913,-0.3986053466796875,0.3927154541015625,0.0327606201171875,-0.9387174248695374,-0.9882668256759644,-0.2047286480665207,16.98524475097656,89.22392272949219,-23.33097839355469
202914,-0.3986053466796875,0.3927154541015625,0.0327606201171875,-0.9387174248695374,-0.9882668256759644,-0.2047286480665207,16.98524475097656,89.22392272949219,-23.33097839355469
202915,-0.03875732421875,0.29638671875,0.0752716064453125,-1.023144364356995,-1.098761439323425,-0.0510594546794891,16.73504638671875,88.74789428710938,-22.78225708007812
202916,0.0567626953125,0.2170562744140625,0.0753173828125,-0.99582701921463,-1.118249654769897,0.1187412962317467,16.67387390136719,88.74507141113281,-22.19615173339844
202917,0.107421875,0.1443634033203125,-0.00897216796875,-0.8845663070678711,-1.507196545600891,0.4706604480743408,16.52360534667969,88.75482177734375,-21.36613464355469
202918,0.107421875,0.1443634033203125,-0.00897216796875,-0.8845663070678711,-1.507196545600891,0.4706604480743408,16.52360534667969,88.75482177734375,-21.36613464355469
202919,0.152099609375,0.02740478515625,-0.2724151611328125,-0.7381808161735535,-1.990522503852844,0.6076787710189819,16.48963928222656,88.695068359375,-19.54226684570312
202920,0.1787567138671875,-0.0063018798828125,-0.3735198974609375,-0.1505865752696991,-2.948562622070312,0.805830180644989,16.68283081054688,88.723876953125,-18.38087463378906
202921,0.2069091796875,-0.0257720947265625,-0.3944244384765625,-0.1505865752696991,-2.948562622070312,0.805830180644989,16.94818115234375,88.97410583496094,-16.01113891601562
202922,0.2827301025390625,-0.0037384033203125,-0.2484130859375,0.0034333472140133,-2.674065828323364,0.8797739148139954,17.02787780761719,89.19316101074219,-14.77813720703125
202923,0.408294677734375,0.062591552734375,-0.6776885986328125,-0.8240009546279907,-0.2447974979877472,0.5932691693305969,17.21762084960938,89.47695922851562,-13.63365173339844
202924,0.346435546875,0.1450653076171875,-0.9116363525390624,-0.5246922373771667,-0.6383708715438843,0.4802720844745636,17.55018615722656,89.66865539550781,-12.84616088867188
202925,0.2526702880859375,0.237579345703125,-0.3132171630859375,-0.5612398982048035,-0.4127334952354431,0.2816841304302216,17.7763671875,89.86296081542969,-12.34664916992188
202926,0.1618804931640625,0.29571533203125,-0.176910400390625,-0.6847367882728577,-0.1605454683303833,0.0737980604171752,17.90744018554688,89.85072326660156,-11.7755126953125
202927,0.0640411376953125,0.34405517578125,-0.158782958984375,-0.8511707782745361,-0.0704366192221641,-0.1024608612060547,18.10154724121094,89.86990356445312,-11.4256591796875
202928,-0.0419769287109375,0.4344024658203125,-0.1756134033203125,-1.043588399887085,-0.1743406504392624,-0.2635964751243591,18.03407287597656,89.90609741210938,-11.14125061035156
202929,-0.1863250732421875,0.7021636962890625,-0.2271881103515625,-1.168330311775208,-0.3468309342861176,-0.4479868412017822,18.00209045410156,89.9215087890625,-10.72576904296875
202930,-0.1863250732421875,0.7021636962890625,-0.2271881103515625,-1.168330311775208,-0.3468309342861176,-0.4479868412017822,18.00209045410156,89.9215087890625,-10.72576904296875
202931,-0.5255126953125,1.374526977539062,-0.630828857421875,-0.7059816122055054,-1.15521776676178,-1.274857878684998,17.43597412109375,89.61456298828125,-10.00054931640625
202932,-0.5082244873046875,1.208465576171875,-0.606658935546875,-0.1731099933385849,-1.261978268623352,-1.323344230651855,16.92807006835938,89.37063598632812,-9.4620361328125
202933,-0.5047607421875,1.0001220703125,-0.460906982421875,0.3083319962024689,-0.5286329388618469,-0.8335936665534973,16.36129760742188,89.10250854492188,-9.018768310546877
202934,-0.5047607421875,1.0001220703125,-0.460906982421875,0.3083319962024689,-0.5286329388618469,-0.8335936665534973,16.36129760742188,89.10250854492188,-9.018768310546877
202935,-0.3430938720703125,1.307968139648438,-0.444244384765625,0.5403870940208435,0.962363600730896,0.0483957603573799,15.42926025390625,88.58163452148438,-8.863723754882812
202936,-0.142913818359375,1.589874267578125,-0.375457763671875,0.1869075745344162,0.9955223798751832,0.233470544219017,15.37443542480469,88.50004577636719,-9.313720703125
202937,0.015472412109375,1.909255981445312,-0.3878936767578125,-0.2291165441274643,0.7001202702522278,0.4003902971744537,15.39500427246094,88.37017822265625,-9.691604614257812
202938,0.015472412109375,1.909255981445312,-0.3878936767578125,-0.2291165441274643,0.7001202702522278,0.4003902971744537,15.39500427246094,88.37017822265625,-9.691604614257812
202939,0.0668487548828125,2.766220092773438,-0.3940277099609375,-0.3032389581203461,-0.578678548336029,0.8034586310386658,15.80116271972656,88.30406188964844,-9.643264770507812
202940,-0.6614532470703125,4.246719360351562,-0.7080230712890625,1.003514289855957,0.125392273068428,0.7165881991386414,16.34083557128906,88.62303161621094,-8.956497192382812
202941,-0.6614532470703125,4.246719360351562,-0.7080230712890625,1.003514289855957,0.125392273068428,0.7165881991386414,16.34083557128906,88.62303161621094,-8.956497192382812
202942,-0.6614532470703125,4.246719360351562,-0.7080230712890625,1.003514289855957,0.125392273068428,0.7165881991386414,16.34083557128906,88.62303161621094,-8.956497192382812
202943,-1.003173828125,4.115676879882812,-1.086746215820312,2.835153341293335,1.323274612426758,0.273724228143692,16.41545104980469,89.40498352050781,-9.840286254882812
202944,-0.9778594970703124,3.365814208984375,-0.9037322998046876,2.573274612426758,1.393856644630432,-0.040011066943407,16.41159057617188,89.73249816894531,-11.16400146484375
202945,-0.78973388671875,2.630538940429688,-0.6848907470703125,2.129974365234375,0.999655306339264,-0.3774263858795166,16.38653564453125,89.96507263183594,-12.83108520507812
202946,-0.78973388671875,2.630538940429688,-0.6848907470703125,2.129974365234375,0.999655306339264,-0.3774263858795166,16.38653564453125,89.96507263183594,-12.83108520507812
202947,-0.574920654296875,1.319580078125,-0.4716949462890625,2.124996662139893,0.9176230430603028,-0.3333827555179596,16.44557189941406,90.10250854492188,-15.77548217773438
202948,-0.574920654296875,1.319580078125,-0.4716949462890625,2.124996662139893,0.9176230430603028,-0.3333827555179596,16.44557189941406,90.10250854492188,-15.77548217773438
202949,-0.7243804931640625,0.6687774658203125,-0.0446014404296875,2.094427108764648,1.864160299301147,-0.0720480978488922,16.57598876953125,90.0462646484375,-18.49067687988281
202950,-0.77484130859375,0.5726165771484375,0.0611724853515625,2.094427108764648,1.864160299301147,-0.0720480978488922,16.76042175292969,89.90875244140625,-20.03050231933594
202951,-0.8355712890625,0.3428192138671875,-0.1397857666015625,1.650914311408997,1.873745560646057,0.0251061525195837,17.09628295898438,89.75093078613281,-21.37898254394531
202952,-0.9582977294921876,0.00677490234375,-0.2018585205078125,1.360990881919861,1.192916393280029,0.2858045995235443,17.50010681152344,89.57014465332031,-22.673828125
202953,-0.9582977294921876,0.00677490234375,-0.2018585205078125,1.360990881919861,1.192916393280029,0.2858045995235443,17.50010681152344,89.57014465332031,-22.673828125
202954,-0.8076019287109375,-0.4059295654296875,-0.0648193359375,1.302123785018921,0.5911149382591248,0.4631242454051971,18.39866638183594,89.24378967285156,-24.63162231445312
202955,-0.5411376953125,-0.4548492431640625,-0.1840972900390625,1.239820003509521,0.7328883409500122,0.3893736004829407,18.74440002441406,89.07102966308594,-25.41314697265625
202956,-0.5411376953125,-0.4548492431640625,-0.1840972900390625,1.239820003509521,0.7328883409500122,0.3893736004829407,18.74440002441406,89.07102966308594,-25.41314697265625
202957,-0.2268524169921875,0.0955352783203125,0.0066680908203125,0.4466656446456909,1.084309458732605,-0.4961061477661133,19.24429321289062,88.8287353515625,-26.77993774414062
202958,-0.3570404052734375,0.3199920654296875,0.0760345458984375,0.4466656446456909,1.084309458732605,-0.4961061477661133,19.2701416015625,88.67881774902344,-27.39479064941406
202959,-0.4427490234375,0.487548828125,0.096710205078125,0.2453756779432297,1.060597777366638,-0.4877422451972961,19.21202087402344,88.58200073242188,-27.99723815917969
202960,-0.504852294921875,0.7089691162109375,0.0478973388671875,0.1241626963019371,0.9479092955589294,-0.4288658797740936,19.07247924804688,88.3626708984375,-28.43032836914062
202961,-0.65423583984375,0.9739837646484376,0.139617919921875,0.1117206737399101,0.9914687871932985,-0.4386308789253235,18.87513732910156,88.30494689941406,-28.88302612304688
202962,-0.65423583984375,0.9739837646484376,0.139617919921875,0.1117206737399101,0.9914687871932985,-0.4386308789253235,18.87513732910156,88.30494689941406,-28.88302612304688
202963,-0.77642822265625,1.59832763671875,0.2913665771484375,0.1171668395400047,1.453716278076172,-0.2006289660930634,18.36279296875,88.56004333496094,-29.837646484375
202964,-0.77642822265625,1.59832763671875,0.2913665771484375,0.1171668395400047,1.453716278076172,-0.2006289660930634,18.36279296875,88.56004333496094,-29.837646484375
202965,-0.8802490234375,2.119857788085938,0.390106201171875,0.0124904913827776,1.337967872619629,-0.0887474492192268,18.18565368652344,88.49365234375,-30.96194458007812
202966,-0.7227935791015625,1.816665649414062,0.262237548828125,-0.1166666969656944,0.5353842973709106,-0.1921422779560089,18.31111145019531,88.62069702148438,-31.61766052246094
202967,-0.54754638671875,1.262191772460938,0.2261505126953125,-0.1574125289916992,-0.4661509394645691,-0.2495113015174866,18.50987243652344,88.48074340820312,-31.83335876464844
202968,-0.4265899658203125,0.8709259033203125,0.14776611328125,-0.0606391131877899,-1.243770480155945,-0.2723462879657745,18.67332458496094,88.38420104980469,-31.92910766601562
202969,-0.288238525390625,0.555084228515625,0.033538818359375,0.074740819633007,-1.7864590883255,-0.2207195907831192,18.65570068359375,88.22053527832031,-31.662353515625
202970,-0.288238525390625,0.555084228515625,0.033538818359375,0.074740819633007,-1.7864590883255,-0.2207195907831192,18.65570068359375,88.22053527832031,-31.662353515625
202971,-0.1701812744140625,0.1455230712890625,-0.1502532958984375,-0.0975119099020957,-1.984528541564941,-0.1731829643249512,18.25790405273438,87.74519348144531,-30.61824035644531
202972,-0.08917236328125,-0.11456298828125,-0.3238525390625,-0.3792927265167236,-1.88714873790741,-0.0583714321255683,17.95063781738281,87.58323669433594,-29.96791076660156
202973,-0.01776123046875,-0.3289642333984375,-0.46148681640625,-0.5834418535232544,-1.793665289878845,0.152873694896698,17.59465026855469,87.54386901855469,-29.09657287597656
202974,0.044830322265625,-0.4666748046875,-0.4818115234375,-0.6418716311454773,-1.678428292274475,0.3927483558654785,17.4124755859375,87.71961975097656,-28.19419860839844
202975,0.1347198486328125,-0.4989013671875,-0.48046875,-0.8535434007644653,-1.200794816017151,0.6031383275985718,17.43605041503906,87.72174072265625,-27.04481506347656
202976,0.1347198486328125,-0.4989013671875,-0.48046875,-0.8535434007644653,-1.200794816017151,0.6031383275985718,17.43605041503906,87.72174072265625,-27.04481506347656
202977,0.246612548828125,-0.318450927734375,-0.435150146484375,-0.5234195590019226,-0.8576547503471375,0.9611555933952332,17.90069580078125,88.16166687011719,-24.95353698730469
202978,0.24017333984375,-0.322784423828125,-0.3621826171875,-0.5234195590019226,-0.8576547503471375,0.9611555933952332,18.32923889160156,88.38839721679688,-24.02012634277344
202979,0.2464599609375,-0.3204498291015625,-0.3188934326171875,-0.2826879024505615,-1.177115082740784,1.142786860466003,18.86944580078125,88.63920593261719,-23.10652160644531
202980,0.2533111572265625,-0.279388427734375,-0.1665802001953125,-0.1549395173788071,-1.55935001373291,1.313308835029602,19.47964477539062,88.71293640136719,-22.19778442382812
202981,0.3160858154296875,-0.300018310546875,-0.1187896728515625,-1.226254940032959,-0.5362362861633301,1.17376983165741,20.04005432128906,88.87284851074219,-21.20097351074219
202982,0.449920654296875,-0.4570465087890625,-0.56561279296875,-1.226254940032959,-0.5362362861633301,1.17376983165741,20.56578063964844,89.11753845214844,-20.28182983398438
202983,0.462615966796875,-0.5418548583984375,-0.820709228515625,-1.085774183273315,-0.941068947315216,1.115651726722717,21.17527770996094,89.38722229003906,-19.21244812011719
202984,0.462615966796875,-0.5418548583984375,-0.820709228515625,-1.085774183273315,-0.941068947315216,1.115651726722717,21.17527770996094,89.38722229003906,-19.21244812011719
202985,0.2402801513671875,-0.1376190185546875,-0.2659454345703125,-0.926931083202362,-0.2331869155168533,0.3994275629520416,22.18687438964844,89.73103332519531,-17.09413146972656
202986,0.13031005859375,0.21728515625,-0.3838043212890625,-0.8803680539131165,-0.0929395258426666,-0.4005753695964813,22.50164794921875,89.89689636230469,-16.27894592285156
202987,-0.037628173828125,0.279205322265625,-0.4811248779296875,-0.8351854085922241,-0.2278680503368378,-0.7740243077278137,22.62371826171875,89.90373229980469,-15.7490234375
202988,-0.0935211181640625,0.292694091796875,-0.468536376953125,-0.804172933101654,-0.442812591791153,-0.8845643997192383,22.56730651855469,90.02621459960938,-15.44575500488281
202989,-0.0804290771484375,0.3369598388671875,-0.357330322265625,-0.7747952938079834,-0.5160108804702759,-1.032668352127075,22.36618041992188,89.94093322753906,-14.96124267578125
202990,-0.061798095703125,0.3607940673828125,-0.258819580078125,-0.7747952938079834,-0.5160108804702759,-1.032668352127075,21.8822021484375,89.79867553710938,-14.47738647460938
202991,-0.045806884765625,0.3842926025390625,-0.2412567138671875,-0.7130070328712463,-0.5145823955535889,-1.138445973396301,21.45182800292969,89.52606201171875,-14.0240478515625
202992,-0.0411224365234375,0.419830322265625,-0.2913970947265625,-0.6669412851333618,-0.6277611255645752,-1.260522842407227,21.04248046875,89.27130126953125,-13.67364501953125
202993,-0.0318756103515625,0.4694366455078125,-0.35821533203125,-0.6310903429985046,-0.8043057918548584,-1.383190155029297,20.52273559570312,89.06651306152344,-13.40019226074219
202994,-0.029449462890625,0.559112548828125,-0.437713623046875,-0.5650393962860107,-1.086854100227356,-1.548403143882751,19.9224853515625,88.81135559082031,-13.19825744628906
202995,-0.0337677001953125,0.713165283203125,-0.53070068359375,-0.460336446762085,-1.391848921775818,-1.781163096427917,19.022216796875,88.58198547363281,-12.92822265625
202996,-0.0411529541015625,0.9578399658203124,-0.6142425537109375,-0.4742344319820404,-1.685625672340393,-2.050752639770508,18.14697265625,88.18695068359375,-12.60301208496094
202997,-0.100830078125,1.914199829101562,-0.5107879638671875,-0.644363284111023,-1.466031551361084,-2.170124292373657,17.068603515625,87.69515991210938,-12.35493469238281
202998,-0.100830078125,1.914199829101562,-0.5107879638671875,-0.644363284111023,-1.466031551361084,-2.170124292373657,17.068603515625,87.69515991210938,-12.35493469238281
202999,-0.517974853515625,3.397689819335938,0.133758544921875,-1.088135957717896,0.6274580359458923,-0.4570461213588715,14.52763366699219,86.65104675292969,-12.06935119628906
203000,-0.517974853515625,3.397689819335938,0.133758544921875,-1.088135957717896,0.6274580359458923,-0.4570461213588715,14.52763366699219,86.65104675292969,-12.06935119628906
203001,-1.22735595703125,5.047332763671875,0.382049560546875,0.2246815711259842,2.442061901092529,-1.195850610733032,12.69471740722656,85.82887268066406,-12.64299011230469
203002,-1.22735595703125,5.047332763671875,0.382049560546875,0.2246815711259842,2.442061901092529,-1.195850610733032,12.69471740722656,85.82887268066406,-12.64299011230469
203003,-1.603652954101562,5.217208862304688,0.5727081298828125,0.2751879096031189,2.377974271774292,-1.460202693939209,12.39186096191406,85.56753540039062,-13.5179443359375
203004,-2.278518676757812,4.887130737304688,0.5725555419921875,-0.2215584963560104,2.439422607421875,-1.848439335823059,11.87501525878906,85.17173767089844,-14.69401550292969
203005,-3.18597412109375,3.4619140625,0.33258056640625,-0.9325034618377686,2.711085081100464,-1.410598635673523,11.31777954101562,85.04109191894531,-16.54783630371094
203006,-3.18597412109375,3.4619140625,0.33258056640625,-0.9325034618377686,2.711085081100464,-1.410598635673523,11.31777954101562,85.04109191894531,-16.54783630371094
203007,-2.532501220703125,1.375289916992188,0.0833282470703125,-0.0393426120281219,1.304241895675659,-0.2654418051242828,10.61994934082031,84.51634216308594,-19.25942993164062
203008,-2.04534912109375,0.8153839111328125,0.217559814453125,0.7288371324539185,0.4437681138515472,0.0099679455161094,10.62335205078125,84.31272888183594,-19.91891479492188
203009,-1.610031127929688,0.442657470703125,0.0917510986328125,0.9451643824577332,0.1422921568155289,0.3275166153907776,10.62356567382812,84.31343078613281,-20.23028564453125
203010,-1.107162475585938,0.3919525146484375,-0.2390594482421875,0.7642566561698914,0.1131798177957535,0.6302370429039001,10.75814819335938,84.09353637695312,-20.37370300292969
203011,-0.685943603515625,0.5724639892578125,-0.4151153564453125,0.5964583158493042,0.0628921464085578,0.7240428924560547,10.90980529785156,83.910888671875,-20.61093139648438
203012,-0.381988525390625,0.63720703125,-0.3333740234375,0.7391315698623657,0.1616011410951614,0.6514574289321899,11.36683654785156,83.82710266113281,-20.7740478515625
203013,-0.1154022216796875,0.564300537109375,-0.2675933837890625,1.243785977363586,0.3512336611747742,0.822558581829071,11.89253234863281,83.68934631347656,-20.9425048828125
203014,0.053436279296875,0.4605255126953125,-0.268218994140625,1.243785977363586,0.3512336611747742,0.822558581829071,12.51228332519531,83.49427795410156,-21.11294555664062
203015,0.11517333984375,0.36358642578125,-0.32403564453125,1.262813448905945,0.2436632663011551,1.005642890930176,12.86801147460938,83.51284790039062,-21.12176513671875
203016,0.165069580078125,0.2775421142578125,-0.3478546142578125,1.228152990341187,-0.0403452925384044,1.14188539981842,13.02619934082031,83.67288208007812,-21.39971923828125
203017,0.1787872314453125,0.2403564453125,-0.2932281494140625,1.022668480873108,-0.3736995458602905,1.102815747261047,13.18443298339844,83.94735717773438,-21.54110717773438
203018,0.1619415283203125,0.2262725830078125,-0.23858642578125,1.022668480873108,-0.3736995458602905,1.102815747261047,13.39750671386719,84.168212890625,-21.55860900878906
203019,0.1489715576171875,0.198455810546875,-0.2210540771484375,0.8465169072151184,-0.4059826731681824,0.914841890335083,13.65924072265625,84.46989440917969,-21.53190612792969
203020,0.1489715576171875,0.198455810546875,-0.2210540771484375,0.8465169072151184,-0.4059826731681824,0.914841890335083,13.65924072265625,84.46989440917969,-21.53190612792969
203021,0.0777587890625,0.1305999755859375,-0.2111053466796875,0.3094222843647003,-0.6641945242881775,-0.195699468255043,14.30094909667969,84.94218444824219,-21.544677734375
203022,-0.048553466796875,0.1315155029296875,-0.1647796630859375,0.3094222843647003,-0.6641945242881775,-0.195699468255043,14.58491516113281,85.11308288574219,-21.35223388671875
203023,-0.209136962890625,0.1357269287109375,-0.1041717529296875,0.2240307033061981,-0.6350120902061462,-0.6310620903968811,14.74191284179688,85.189453125,-21.21365356445312
203024,-0.294586181640625,0.195892333984375,-0.0968017578125,-0.1154237985610962,-0.4482928216457367,-1.133563876152039,14.75959777832031,85.12481689453125,-20.94969177246094
203025,-0.294586181640625,0.195892333984375,-0.0968017578125,-0.1154237985610962,-0.4482928216457367,-1.133563876152039,14.75959777832031,85.12481689453125,-20.94969177246094
203026,-0.36737060546875,0.3719940185546875,-0.01513671875,-0.7405188083648682,-0.0340919233858585,-1.42296028137207,14.24337768554688,84.74227905273438,-20.74526977539062
203027,-0.367919921875,0.481964111328125,0.1822052001953125,-0.7405188083648682,-0.0340919233858585,-1.42296028137207,13.78041076660156,84.48101806640625,-20.74067687988281
203028,-0.3581085205078125,0.611846923828125,0.3148040771484375,-1.088600397109985,0.5404903888702393,-1.397960066795349,13.35516357421875,84.12741088867188,-20.6505126953125
203029,-0.349853515625,0.735382080078125,0.385040283203125,-1.340062141418457,1.106275200843811,-1.24967634677887,12.95863342285156,83.80056762695312,-20.60379028320312
203030,-0.349853515625,0.735382080078125,0.385040283203125,-1.340062141418457,1.106275200843811,-1.24967634677887,12.95863342285156,83.80056762695312,-20.60379028320312
203031,-0.4376068115234375,0.8441314697265625,0.3578338623046875,-1.145302295684814,1.431257605552673,-0.8256180286407471,12.28683471679688,83.1934814453125,-20.74909973144531
203032,-0.536041259765625,0.77545166015625,0.3208160400390625,-0.4873440861701965,0.66968834400177,-0.6499305963516235,12.30101013183594,82.92233276367188,-21.14302062988281
203033,-0.581298828125,0.6557464599609375,0.3077239990234375,0.1263717859983444,-0.4179562330245972,-0.6421738862991333,12.34303283691406,82.66281127929688,-21.25038146972656
203034,-0.528472900390625,0.526031494140625,0.3265838623046875,0.3815430998802185,-1.431490659713745,-0.7235281467437744,12.40216064453125,82.50349426269531,-21.50199890136719
203035,-0.409149169921875,0.420623779296875,0.3492279052734375,0.2720206081867218,-2.199164390563965,-0.7535520792007446,12.27143859863281,82.30523681640625,-21.45733642578125
203036,-0.298187255859375,0.3233795166015625,0.3095245361328125,-0.0957699343562126,-2.736179828643799,-0.7158893942832947,12.16441345214844,81.88134765625,-21.18647766113281
203037,-0.195953369140625,0.2161712646484375,0.300994873046875,-0.5861676335334778,-2.980699300765991,-0.590198278427124,12.03346252441406,81.4888916015625,-20.67361450195312
203038,-0.195953369140625,0.2161712646484375,0.300994873046875,-0.5861676335334778,-2.980699300765991,-0.590198278427124,12.03346252441406,81.4888916015625,-20.67361450195312
203039,-0.0453033447265625,0.0944976806640625,0.1432037353515625,-1.672561049461365,-2.929795980453491,-0.1925390958786011,11.640625,81.0648193359375,-18.37298583984375
203040,0.0345458984375,-0.0059661865234375,-0.2845001220703125,-1.672561049461365,-2.929795980453491,-0.1925390958786011,11.52072143554688,80.81488037109375,-16.85404968261719
203041,0.16986083984375,-0.19891357421875,-0.9637451171875,-0.1980725973844528,-4.847031116485596,0.4962819218635559,11.28973388671875,80.76846313476562,-15.16891479492188
203042,0.16986083984375,-0.19891357421875,-0.9637451171875,-0.1980725973844528,-4.847031116485596,0.4962819218635559,11.28973388671875,80.76846313476562,-15.16891479492188
203043,0.063934326171875,-0.2795867919921875,0.2129669189453125,-0.0815377384424209,-3.234844446182251,0.7132161259651184,10.92674255371094,81.04386901855469,-11.779296875
203044,0.081878662109375,-0.3305816650390625,-0.053680419921875,-0.4182923138141632,-0.3912910521030426,0.7236988544464111,11.00474548339844,81.29360961914062,-9.698455810546877
203045,0.0817108154296875,-0.211761474609375,-0.498626708984375,-0.4407102763652802,0.6093195080757141,0.6006919741630554,11.28656005859375,81.57205200195312,-8.231399536132812
203046,0.054779052734375,0.0006256103515625,-0.354278564453125,-0.3096052706241608,0.4968409240245819,0.4471151828765869,11.72616577148438,81.62159729003906,-7.347091674804688
203047,0.0173492431640625,0.0922088623046875,-0.20355224609375,-0.3893568217754364,0.3464226722717285,0.2389108538627625,12.10566711425781,81.69984436035156,-6.981399536132812
203048,-0.0319061279296875,0.1473541259765625,-0.1600799560546875,-0.5735836625099182,0.2038577944040298,0.070677101612091,12.36410522460938,81.74269104003906,-7.126449584960938
203049,-0.086578369140625,0.170379638671875,-0.1786651611328125,-0.737012505531311,0.037255760282278,-0.0213399101048708,12.57017517089844,81.76077270507812,-7.040771484375
203050,-0.086578369140625,0.170379638671875,-0.1786651611328125,-0.737012505531311,0.037255760282278,-0.0213399101048708,12.57017517089844,81.76077270507812,-7.040771484375
203051,-0.2563629150390625,0.36871337890625,-0.3341064453125,-0.8515974283218384,-0.140206903219223,-0.1459513455629349,12.51789855957031,81.70004272460938,-6.940826416015625
203052,-0.2563629150390625,0.36871337890625,-0.3341064453125,-0.8515974283218384,-0.140206903219223,-0.1459513455629349,12.51789855957031,81.70004272460938,-6.940826416015625
203053,-0.441558837890625,0.61737060546875,-0.4237060546875,-0.8022873997688293,-0.0096552902832627,-0.0726584941148757,12.38812255859375,81.62303161621094,-6.946701049804688
203054,-0.5738372802734375,0.9808807373046876,-0.334381103515625,-0.4397667348384857,0.2799988985061646,0.2386719584465027,12.01087951660156,81.64649963378906,-6.83941650390625
203055,-0.41278076171875,1.024505615234375,-0.22222900390625,-0.2103074342012405,0.3999032080173492,0.46549391746521,11.97793579101562,81.56025695800781,-6.658401489257812
203056,-0.148284912109375,0.9966583251953124,-0.0679779052734375,-0.0694147571921348,0.5618060827255249,0.6549597382545471,11.83894348144531,81.50180053710938,-6.730224609375
203057,-0.148284912109375,0.9966583251953124,-0.0679779052734375,-0.0694147571921348,0.5618060827255249,0.6549597382545471,11.83894348144531,81.50180053710938,-6.730224609375
203058,0.01776123046875,0.9777679443359376,0.0902252197265625,-0.0722718015313148,0.8769482970237732,0.7465959191322327,11.87825012207031,81.59548950195312,-6.697784423828125
203059,0.011016845703125,1.23077392578125,0.041168212890625,-0.2292558252811432,0.963111400604248,0.8439855575561523,12.18019104003906,81.79121398925781,-7.022186279296875
203060,-0.069305419921875,1.501113891601562,-0.022552490234375,-0.1613337695598602,0.530944287776947,0.7694529891014099,12.40243530273438,82.06706237792969,-7.192474365234375
203061,-0.1598052978515625,1.852142333984375,-0.0180816650390625,0.0540528483688831,-0.0061590927653014,0.6134461164474487,12.60171508789062,82.24290466308594,-7.420852661132812
203062,-0.245880126953125,2.299880981445312,0.0260772705078125,0.3130013346672058,-0.3548579514026642,0.3879509270191193,12.67184448242188,82.51737976074219,-7.624801635742188
203063,-0.2929534912109375,2.65045166015625,0.2193450927734375,0.5256888270378113,-0.2217387855052948,0.2389758229255676,12.68988037109375,82.75312805175781,-7.713165283203125
203064,-0.3604736328125,2.902679443359375,0.63360595703125,0.7277860045433044,0.5571069121360779,0.2808489799499512,12.67634582519531,83.07502746582031,-7.693756103515625
203065,-0.4815673828125,3.22625732421875,1.069686889648438,0.89555823802948,1.936192631721497,0.4070234298706055,12.53730773925781,83.24909973144531,-7.910369873046875
203066,-0.4815673828125,3.22625732421875,1.069686889648438,0.89555823802948,1.936192631721497,0.4070234298706055,12.53730773925781,83.24909973144531,-7.910369873046875
203067,-1.000885009765625,4.231170654296875,1.209030151367188,1.048414587974548,3.430848360061646,0.5610369443893433,12.23573303222656,83.72511291503906,-9.281448364257812
203068,-1.513351440429688,4.696136474609375,1.099334716796875,0.6669551134109497,3.018555641174316,0.1104463487863541,12.22135925292969,83.94413757324219,-10.64111328125
203069,-2.073394775390625,4.665802001953125,0.8431854248046875,0.0397082641720771,2.07984733581543,-0.8196818232536316,12.35737609863281,84.37538146972656,-12.42216491699219
203070,-2.469207763671875,3.867721557617188,0.3707733154296875,-0.5074325799942017,0.3533532619476318,-2.090583562850952,12.47915649414062,84.67630004882812,-14.29815673828125
203071,-2.797531127929688,2.126358032226562,0.392120361328125,-0.7725214958190918,-0.910871922969818,-2.3395676612854,12.39964294433594,84.6923828125,-15.77243041992188
203072,-2.858993530273438,0.5365142822265625,0.22845458984375,-0.9967349171638488,-0.3169047236442566,-0.7608730792999268,12.00738525390625,84.5601806640625,-16.60986328125
203073,-1.89581298828125,0.2194061279296875,-0.7913360595703125,0.4999344646930695,-1.179743885993958,0.7761104106903076,11.21815490722656,84.14585876464844,-16.71507263183594
203074,-1.145721435546875,0.4710845947265625,-0.696319580078125,0.4999344646930695,-1.179743885993958,0.7761104106903076,10.62557983398438,83.89208984375,-16.23678588867188
203075,-0.7796630859375,0.6567230224609375,-0.1813812255859375,1.499458432197571,-0.4885073602199554,0.8847849369049072,10.62080383300781,83.65896606445312,-15.59358215332031
203076,-0.465576171875,0.69549560546875,-0.1371002197265625,1.998036623001099,0.2138275951147079,0.8404973745346069,11.08189392089844,83.50273132324219,-14.83259582519531
203077,-0.2356719970703125,0.6349945068359375,-0.2425537109375,1.978422164916992,0.2204410284757614,0.8629603385925293,11.73655700683594,83.51629638671875,-14.69223022460938
203078,-0.1022491455078125,0.5256500244140625,-0.3038482666015625,1.671626210212708,-0.1505149453878403,0.9310200810432434,12.48844909667969,83.29908752441406,-15.01011657714844
203079,-0.0630645751953125,0.4174957275390625,-0.3121795654296875,1.349428534507751,-0.3313265442848206,0.9692380428314208,13.13446044921875,83.29039001464844,-15.33499145507812
203080,-0.0394287109375,0.3014678955078125,-0.313140869140625,1.164276242256165,-0.3243604898452759,0.9419430494308472,13.49232482910156,83.46919250488281,-15.69964599609375
203081,-0.0458831787109375,0.2237701416015625,-0.2686614990234375,1.107666730880737,-0.1295385509729385,0.8527079820632935,13.72259521484375,83.68209838867188,-15.85316467285156
203082,-0.08599853515625,0.191253662109375,-0.2313995361328125,1.069632291793823,0.1818494200706482,0.6162887811660767,13.80509948730469,84.01568603515625,-15.88035583496094
203083,-0.1082611083984375,0.1529998779296875,-0.248260498046875,0.9542319178581238,0.4548420906066895,0.2536722123622894,13.81144714355469,84.72579956054688,-16.44081115722656
203084,-0.1082611083984375,0.1529998779296875,-0.248260498046875,0.9542319178581238,0.4548420906066895,0.2536722123622894,13.81144714355469,84.72579956054688,-16.44081115722656
203085,-0.1267852783203125,0.025848388671875,-0.3302459716796875,0.6512480974197388,0.2870927453041077,-0.5208719372749329,14.07394409179688,84.79782104492188,-17.09512329101562
203086,-0.17572021484375,0.0029754638671875,-0.2775421142578125,0.625312328338623,-0.0097335875034332,-0.7714221477508545,13.98402404785156,84.63185119628906,-17.28564453125
203087,-0.22930908203125,0.055633544921875,-0.1980133056640625,0.7061744332313538,0.0094142742455005,-0.7845664620399475,13.78225708007812,84.48292541503906,-17.47940063476562
203088,-0.244903564453125,0.147125244140625,-0.1877288818359375,0.7928515672683716,0.2120177149772644,-0.6339255571365356,13.49427795410156,84.27407836914062,-17.77703857421875
203089,-0.21942138671875,0.2695770263671875,-0.2156982421875,0.7980090379714966,0.287883996963501,-0.5269205570220947,13.07354736328125,84.23260498046875,-18.23057556152344
203090,-0.21942138671875,0.2695770263671875,-0.2156982421875,0.7980090379714966,0.287883996963501,-0.5269205570220947,13.07354736328125,84.23260498046875,-18.23057556152344
203091,-0.189605712890625,0.49798583984375,0.043304443359375,0.3256894052028656,0.3774900436401367,-0.4356297552585602,12.47137451171875,84.04571533203125,-18.81851196289062
203092,-0.189605712890625,0.49798583984375,0.043304443359375,0.3256894052028656,0.3774900436401367,-0.4356297552585602,12.47137451171875,84.04571533203125,-18.81851196289062
203093,-0.192169189453125,0.5911712646484375,0.201080322265625,-0.1135574579238892,0.5842325687408447,-0.42409747838974,12.34492492675781,83.87123107910156,-19.04690551757812
203094,-0.1957855224609375,0.6770172119140625,0.28271484375,-0.5164532661437988,0.7971360683441162,-0.4241344928741455,12.28443908691406,83.88832092285156,-19.29763793945312
203095,-0.3145904541015625,0.785858154296875,0.37890625,-1.046828150749207,1.069133520126343,-0.5374687910079956,12.32940673828125,83.75929260253906,-19.52145385742188
203096,-0.440185546875,0.7527923583984375,0.3380279541015625,-0.5094203948974609,-0.2154747694730759,-0.7288182377815247,12.26933288574219,83.85617065429688,-19.74845886230469
203097,-0.440185546875,0.7527923583984375,0.3380279541015625,-0.5094203948974609,-0.2154747694730759,-0.7288182377815247,12.26933288574219,83.85617065429688,-19.74845886230469
203098,-0.593719482421875,0.7196807861328125,0.3365936279296875,-0.5094203948974609,-0.2154747694730759,-0.7288182377815247,12.38316345214844,83.78724670410156,-19.87118530273438
203099,-0.700958251953125,0.604339599609375,0.418487548828125,-0.0668368190526962,-2.824840784072876,-1.03938353061676,12.45719909667969,83.29106140136719,-19.54615783691406
203100,-0.700958251953125,0.604339599609375,0.418487548828125,-0.0668368190526962,-2.824840784072876,-1.03938353061676,12.45719909667969,83.29106140136719,-19.54615783691406
203101,-0.4791717529296875,0.4111480712890625,0.398895263671875,-0.5428611636161804,-3.526514053344727,-0.8810479640960693,12.28231811523438,82.31918334960938,-18.26203918457031
203102,-0.37255859375,0.3160858154296875,0.4341888427734375,-1.103946089744568,-3.80653977394104,-0.6459944844245911,12.1611328125,81.790771484375,-16.91741943359375
203103,-0.232635498046875,0.2841339111328125,0.37945556640625,-1.542145252227783,-3.702237129211426,-0.5028860569000244,12.08712768554688,81.38264465332031,-15.27053833007812
203104,-0.232635498046875,0.2841339111328125,0.37945556640625,-1.542145252227783,-3.702237129211426,-0.5028860569000244,12.08712768554688,81.38264465332031,-15.27053833007812
203105,-0.1003570556640625,0.2605438232421875,0.2506103515625,-1.802915811538696,-3.595227718353271,-0.4302824139595032,11.87873840332031,81.12895202636719,-13.49079895019531
203106,0.220550537109375,-0.0064544677734375,-0.7618408203125,-1.878960013389587,-4.055042266845703,0.0394235737621784,11.46903991699219,80.68864440917969,-9.83221435546875
203107,0.5164337158203125,-0.2289581298828125,-1.306671142578125,-1.070688009262085,-5.680723667144775,0.5459693074226379,11.23529052734375,80.546875,-7.71124267578125
203108,0.45806884765625,-0.26513671875,-0.0705413818359375,-0.4863270223140717,-3.466601371765137,0.7537273168563843,11.31890869140625,80.6104736328125,-5.327774047851562
203109,0.2315826416015625,-0.17431640625,0.23406982421875,-0.1604980677366257,-0.3170852661132812,0.6953047513961792,11.62353515625,80.84013366699219,-3.114974975585938
203110,0.129364013671875,-0.0821533203125,-0.061370849609375,0.10958082228899,0.9808747172355652,0.6198371648788452,12.12257385253906,80.98524475097656,-1.750244140625
203111,0.051727294921875,0.0177459716796875,-0.22821044921875,0.2121751010417938,1.032318711280823,0.5185108184814453,12.42707824707031,81.10684204101562,-1.463729858398438
203112,-0.0178680419921875,0.0949859619140625,-0.3030853271484375,0.1702433675527573,0.4777247607707977,0.3356395065784454,12.66067504882812,81.23147583007812,-1.643783569335938
203113,-0.0649261474609375,0.112030029296875,-0.293487548828125,0.0088384989649057,-0.1610586643218994,0.1676393300294876,12.95185852050781,81.34658813476562,-1.900802612304688
203114,-0.0649261474609375,0.112030029296875,-0.293487548828125,0.0088384989649057,-0.1610586643218994,0.1676393300294876,12.95185852050781,81.34658813476562,-1.900802612304688
203115,-0.174591064453125,0.2163543701171875,-0.2176055908203125,-0.5922617316246033,-0.7122914791107178,0.0311102494597435,13.02546691894531,81.53846740722656,-2.256561279296875
203116,-0.253265380859375,0.40753173828125,-0.199310302734375,-0.8546605706214905,-0.5737274289131165,0.0091373054310679,12.93016052246094,81.50547790527344,-2.198104858398438
203117,-0.2948455810546875,0.643280029296875,-0.1988677978515625,-0.93926203250885,-0.4854716360569,-0.006728742737323,13.01116943359375,81.43814086914062,-1.959701538085938
203118,-0.2948455810546875,0.643280029296875,-0.1988677978515625,-0.93926203250885,-0.4854716360569,-0.006728742737323,13.01116943359375,81.43814086914062,-1.959701538085938
203119,-0.3018035888671875,1.013031005859375,-0.158905029296875,-0.5318162441253662,-0.3829002380371094,0.1289563775062561,12.91871643066406,81.00721740722656,-1.420196533203125
203120,-0.3018035888671875,1.013031005859375,-0.158905029296875,-0.5318162441253662,-0.3829002380371094,0.1289563775062561,12.91871643066406,81.00721740722656,-1.420196533203125
203121,-0.141448974609375,1.093582153320312,0.0916900634765625,0.1213629096746445,0.1776339113712311,0.5392307043075562,13.16545104980469,80.73715209960938,-0.9050140380859376
203122,-0.0439453125,1.102737426757812,0.1746978759765625,0.2457578331232071,0.5863398909568787,0.6594237089157104,13.29670715332031,80.71409606933594,-0.6870269775390625
203123,-0.0261077880859375,1.13690185546875,0.21563720703125,0.2300867289304733,0.8673145771026611,0.7894355058670044,13.49288940429688,80.88374328613281,-0.6827239990234375
203124,-0.0686187744140625,1.253997802734375,0.1705322265625,0.1798930615186691,0.8415477275848389,0.8738393187522888,13.62864685058594,81.10992431640625,-0.934722900390625
203125,-0.161407470703125,1.428619384765625,0.1868133544921875,0.1642552465200424,0.5182271599769592,0.8492535948753357,13.77055358886719,81.50616455078125,-1.315597534179688
203126,-0.161407470703125,1.428619384765625,0.1868133544921875,0.1642552465200424,0.5182271599769592,0.8492535948753357,13.77055358886719,81.50616455078125,-1.315597534179688
203127,-0.3889312744140625,1.872222900390625,0.6226654052734375,0.1924054026603699,0.5409239530563354,0.4706567227840424,14.119873046875,82.01985168457031,-1.747879028320312
203128,-0.4591827392578125,2.254791259765625,0.833282470703125,0.2677251994609833,0.9985032677650452,0.2247002273797989,14.11227416992188,82.20805358886719,-2.177932739257812
203129,-0.5295257568359375,2.822113037109375,0.8790283203125,0.539604902267456,1.182675242424011,0.1330153048038483,14.05863952636719,82.46640014648438,-2.777206420898438
203130,-0.5295257568359375,2.822113037109375,0.8790283203125,0.539604902267456,1.182675242424011,0.1330153048038483,14.05863952636719,82.46640014648438,-2.777206420898438
203131,-1.042205810546875,4.394699096679688,1.179779052734375,1.308430790901184,0.5392493605613708,-0.1027700528502464,13.75558471679688,82.65438842773438,-4.019119262695312
203132,-1.334426879882812,4.6466064453125,1.5635986328125,1.035468459129333,0.7559183239936829,-0.4154928028583527,13.61811828613281,82.89852905273438,-4.959609985351562
203133,-1.570159912109375,4.335952758789062,1.56207275390625,0.3092460036277771,0.9994409680366516,-0.5565345883369446,13.30926513671875,83.12138366699219,-5.972488403320312
203134,-1.570159912109375,4.335952758789062,1.56207275390625,0.3092460036277771,0.9994409680366516,-0.5565345883369446,13.30926513671875,83.12138366699219,-5.972488403320312
203135,-1.8905029296875,2.834152221679688,0.858673095703125,-0.1230415031313896,0.2974532544612885,-1.224919080734253,12.77119445800781,83.21321105957031,-7.284698486328125
203136,-1.8953857421875,1.832199096679688,0.63922119140625,0.3208874762058258,-0.5409985184669495,-1.160972356796265,12.5699462890625,83.03764343261719,-7.672714233398438
203137,-1.836532592773438,1.008316040039062,0.4976654052734375,0.7077292203903198,-0.5273431539535522,-0.5257236957550049,12.35398864746094,82.812255859375,-7.711196899414062
203138,-1.427352905273438,0.6924896240234375,0.089599609375,1.214360952377319,-0.4062375128269196,0.0540983900427818,12.18840026855469,82.59901428222656,-7.611648559570312
203139,-0.981903076171875,0.6705169677734375,-0.3431854248046875,1.579247832298279,0.1239483132958412,0.7849100232124329,12.097412109375,82.49055480957031,-7.5045166015625
203140,-0.981903076171875,0.6705169677734375,-0.3431854248046875,1.579247832298279,0.1239483132958412,0.7849100232124329,12.097412109375,82.49055480957031,-7.5045166015625
203141,-0.4808502197265625,0.7704010009765625,-0.661376953125,1.605427742004395,0.2250602841377258,0.8484452962875366,12.53401184082031,82.76153564453125,-7.737014770507812
203142,-0.3654632568359375,0.6938629150390625,-0.3113250732421875,1.579684138298035,0.4318848252296448,0.7984572052955627,12.92155456542969,83.0511474609375,-8.13433837890625
203143,-0.256561279296875,0.5784454345703125,-0.2126617431640625,1.456945419311523,0.420509397983551,0.7093204259872437,13.32737731933594,83.20700073242188,-8.550094604492188
203144,-0.137298583984375,0.4515228271484375,-0.2645416259765625,1.254088401794434,0.1014469936490059,0.6814781427383423,13.75262451171875,83.49028015136719,-9.103408813476562
203145,-0.03363037109375,0.321868896484375,-0.365325927734375,1.090548753738403,-0.524214506149292,0.7542349100112915,14.16831970214844,83.73545837402344,-9.36663818359375
203146,0.0287933349609375,0.2116546630859375,-0.3853912353515625,1.026115655899048,-1.212131142616272,0.8769767880439758,14.49484252929688,83.94841003417969,-9.553466796875
203147,0.0563201904296875,0.1514129638671875,-0.2993927001953125,1.096752882003784,-1.674625992774963,0.9832904934883118,14.83836364746094,84.21401977539062,-9.47412109375
203148,0.0563201904296875,0.1514129638671875,-0.2993927001953125,1.096752882003784,-1.674625992774963,0.9832904934883118,14.83836364746094,84.21401977539062,-9.47412109375
203149,0.0496063232421875,0.175384521484375,-0.138519287109375,1.261208057403564,-1.68440568447113,0.989699363708496,15.07620239257812,84.6014404296875,-9.237518310546877
203150,-0.07666015625,0.3303375244140625,-0.040771484375,1.479146838188171,-0.6077357530593872,0.3897344470024109,15.69007873535156,85.50004577636719,-8.626312255859375
203151,-0.1592864990234375,0.3162689208984375,-0.1573333740234375,1.422950983047485,-0.0392174422740936,-0.123136043548584,15.94874572753906,85.80986022949219,-8.545883178710938
203152,-0.1592864990234375,0.3162689208984375,-0.1573333740234375,1.422950983047485,-0.0392174422740936,-0.123136043548584,15.94874572753906,85.80986022949219,-8.545883178710938
203153,-0.28179931640625,0.260833740234375,-0.2930755615234375,1.254926800727844,0.2418384552001953,-0.5100853443145752,15.93113708496094,86.0845947265625,-8.850540161132812
203154,-0.38519287109375,0.2603759765625,-0.260650634765625,1.034821033477783,0.1990521103143692,-0.6217280030250549,15.863525390625,86.17744445800781,-9.337066650390623
203155,-0.4639739990234375,0.284454345703125,-0.003631591796875,0.5499438047409058,0.2522623538970947,-0.6798922419548035,15.66119384765625,85.89999389648438,-10.22923278808594
203156,-0.4639739990234375,0.284454345703125,-0.003631591796875,0.5499438047409058,0.2522623538970947,-0.6798922419548035,15.66119384765625,85.89999389648438,-10.22923278808594
203157,-0.456512451171875,0.2938385009765625,0.0724029541015625,0.4353421330451965,0.4137899875640869,-0.6169825196266174,15.43263244628906,85.70228576660156,-10.78671264648438
203158,-0.4208526611328125,0.3295440673828125,0.1661224365234375,0.3550814092159271,0.6171060800552368,-0.4832904934883118,15.22166442871094,85.68968200683594,-11.11703491210938
203159,-0.32879638671875,0.53631591796875,0.4723968505859375,-0.0192362796515226,1.41889762878418,-0.2711668014526367,14.98410034179688,85.39569091796875,-11.91984558105469
203160,-0.32879638671875,0.53631591796875,0.4723968505859375,-0.0192362796515226,1.41889762878418,-0.2711668014526367,14.98410034179688,85.39569091796875,-11.91984558105469
203161,-0.366424560546875,0.7367095947265625,0.4415740966796875,-0.6126394271850586,1.341675519943237,-0.4170984327793121,15.02130126953125,85.31912231445312,-12.90444946289062
203162,-0.506011962890625,0.809906005859375,0.408447265625,-0.6126394271850586,1.341675519943237,-0.4170984327793121,15.03488159179688,85.37599182128906,-13.40315246582031
203163,-0.672882080078125,0.868560791015625,0.4347381591796875,-0.4149215519428253,0.5452699661254883,-0.6175497770309448,15.07502746582031,85.45790100097656,-14.09532165527344
203164,-0.79638671875,0.8442840576171875,0.4912872314453125,-0.2227811515331268,-0.2182934582233429,-0.8515588045120239,14.9285888671875,85.48835754394531,-14.56999206542969
203165,-0.822509765625,0.727447509765625,0.5265045166015625,-0.292479544878006,-1.146626949310303,-1.084534049034119,14.74151611328125,85.38746643066406,-14.59535217285156
203166,-0.822509765625,0.727447509765625,0.5265045166015625,-0.292479544878006,-1.146626949310303,-1.084534049034119,14.74151611328125,85.38746643066406,-14.59535217285156
203167,-0.6363677978515625,0.33905029296875,0.38812255859375,-0.4433254897594452,-1.4888596534729,-0.9111440777778624,14.07133483886719,84.97798156738281,-14.60198974609375
203168,-0.6363677978515625,0.33905029296875,0.38812255859375,-0.4433254897594452,-1.4888596534729,-0.9111440777778624,14.07133483886719,84.97798156738281,-14.60198974609375
203169,-0.43829345703125,0.270355224609375,0.2755279541015625,-0.8426177501678467,-2.004804372787476,-0.5712363123893738,13.77792358398438,84.68431091308594,-14.21334838867188
203170,-0.2877197265625,0.3109130859375,0.17767333984375,-0.8426177501678467,-2.004804372787476,-0.5712363123893738,13.40618896484375,84.30303955078125,-13.40885925292969
203171,0.0062255859375,0.2336883544921875,-0.41650390625,-1.200066685676575,-3.047079086303711,-0.310453474521637,13.01174926757812,83.79052734375,-11.70014953613281
203172,0.0062255859375,0.2336883544921875,-0.41650390625,-1.200066685676575,-3.047079086303711,-0.310453474521637,13.01174926757812,83.79052734375,-11.70014953613281
203173,0.146759033203125,0.1516876220703125,-0.4933013916015625,-0.9441958069801332,-4.216352462768555,0.0201255083084106,12.91255187988281,83.45185852050781,-10.46330261230469
203174,0.187103271484375,0.1054229736328125,-0.156463623046875,-0.5883074402809143,-4.609766483306885,0.3927861750125885,12.92767333984375,83.28085327148438,-8.861053466796875
203175,0.141845703125,0.0849456787109375,0.070220947265625,0.0974756926298141,-3.181631565093994,0.9889238476753236,13.52098083496094,83.39479064941406,-4.839157104492188
203176,0.141845703125,0.0849456787109375,0.070220947265625,0.0974756926298141,-3.181631565093994,0.9889238476753236,13.52098083496094,83.39479064941406,-4.839157104492188
203177,0.188446044921875,0.119476318359375,-0.2442169189453125,0.3322429358959198,0.0531287305057048,0.7099401354789734,14.38154602050781,83.69033813476562,-1.630767822265625
203178,0.190093994140625,0.147216796875,-0.4762420654296875,0.3322429358959198,0.0531287305057048,0.7099401354789734,14.93991088867188,83.90859985351562,-0.7944488525390625
203179,0.1514129638671875,0.200103759765625,-0.485870361328125,0.2268374115228653,-0.1778581440448761,0.5242674946784973,15.41197204589844,84.32603454589844,-0.641937255859375
203180,0.1514129638671875,0.200103759765625,-0.485870361328125,0.2268374115228653,-0.1778581440448761,0.5242674946784973,15.41197204589844,84.32603454589844,-0.641937255859375
203181,0.116241455078125,0.2412261962890625,-0.3921966552734375,0.0715495496988296,-0.6483638882637024,0.3762804269790649,15.80485534667969,84.57467651367188,-0.789398193359375
203182,0.11163330078125,0.33319091796875,-0.1951751708984375,-0.2364415675401688,-1.185329079627991,0.3506195247173309,16.51580810546875,84.65867614746094,-0.5165557861328125
203183,0.08502197265625,0.428985595703125,-0.194976806640625,-0.2746542096138,-1.138182878494263,0.3559114933013916,16.83311462402344,84.56427001953125,-0.153594970703125
203184,0.036834716796875,0.5648040771484375,-0.2483978271484375,-0.0584915392100811,-1.050280690193176,0.1794983893632889,17.10285949707031,84.7772216796875,0.4337615966796875
203185,0.036834716796875,0.5648040771484375,-0.2483978271484375,-0.0584915392100811,-1.050280690193176,0.1794983893632889,17.10285949707031,84.7772216796875,0.4337615966796875
