time_idx,accelerometerAccelerationX(G),accelerometerAccelerationY(G),accelerometerAccelerationZ(G),gyroRotationX(rad/s),gyroRotationY(rad/s),gyroRotationZ(rad/s),magnetometerX(µT),magnetometerY(µT),magnetometerZ(µT)
226038,-0.0105743408203125,1.421615600585938,-0.3407135009765625,-0.3070432841777802,-0.3815971612930298,-0.1467023640871048,51.46040344238281,99.8629913330078,1.732925415039062
226039,0.0232086181640625,1.370803833007812,-0.3264312744140625,-0.0636093392968177,-0.4228042364120483,-0.1330350190401077,51.36822509765625,99.7769775390625,2.070358276367188
226040,0.0232086181640625,1.370803833007812,-0.3264312744140625,-0.0636093392968177,-0.4228042364120483,-0.1330350190401077,51.36822509765625,99.7769775390625,2.070358276367188
226041,0.1383209228515625,1.211868286132812,-0.454620361328125,0.2710823714733124,-0.4513602554798126,-0.084764689207077,51.26786804199219,99.82672119140624,2.258255004882812
226042,0.1748809814453125,1.113327026367188,-0.5721282958984375,0.4203922152519226,-0.545282244682312,-0.0141834635287523,51.13052368164062,99.8380889892578,2.204864501953125
226043,0.1748809814453125,1.113327026367188,-0.5721282958984375,0.4203922152519226,-0.545282244682312,-0.0141834635287523,51.13052368164062,99.8380889892578,2.204864501953125
226044,0.1959991455078125,1.009124755859375,-0.615020751953125,0.7326238751411438,-0.5912915468215942,0.1435427814722061,51.38667297363281,99.78758239746094,1.79913330078125
226045,0.1620941162109375,1.01788330078125,-0.5977325439453125,0.7839299440383911,-0.5590936541557312,0.1840023249387741,51.55178833007812,99.64483642578124,1.699905395507812
226046,0.126556396484375,1.048568725585938,-0.5272216796875,0.753368079662323,-0.5548169016838074,0.191459447145462,51.77058410644531,99.70675659179688,1.367156982421875
226047,0.126556396484375,1.048568725585938,-0.5272216796875,0.753368079662323,-0.5548169016838074,0.191459447145462,51.77058410644531,99.70675659179688,1.367156982421875
226048,0.123016357421875,1.068099975585938,-0.46270751953125,0.7185200452804565,-0.5395375490188599,0.2229728996753693,51.86811828613281,99.85479736328124,0.7946014404296875
226049,0.1253662109375,1.123489379882812,-0.3971405029296875,0.7196449637413025,-0.4984058141708374,0.3097684979438782,52.40142822265625,99.89923095703124,-0.14483642578125
226050,0.1222686767578125,1.178985595703125,-0.3494415283203125,0.7261494994163513,-0.4529840052127838,0.3500322997570038,52.66580200195312,99.89340209960938,-0.46954345703125
226051,0.1222686767578125,1.178985595703125,-0.3494415283203125,0.7261494994163513,-0.4529840052127838,0.3500322997570038,52.66580200195312,99.89340209960938,-0.46954345703125
226052,0.112457275390625,1.238800048828125,-0.297210693359375,0.7198090553283691,-0.384869396686554,0.3659585416316986,52.87693786621094,99.96156311035156,-0.9007110595703125
226053,0.0547637939453125,1.345932006835938,-0.1112060546875,0.6897028088569641,-0.3541452884674072,0.3497090041637421,53.4364013671875,100.126220703125,-1.63616943359375
226054,0.002593994140625,1.3828125,0.00579833984375,0.6402201652526855,-0.4008736610412598,0.2963267266750336,53.72915649414062,100.2522430419922,-1.860610961914062
226055,-0.0884857177734375,1.4332275390625,0.14678955078125,0.5839015245437622,-0.5222845077514648,0.1377125978469849,54.17233276367188,100.4502410888672,-2.799057006835938
226056,-0.0884857177734375,1.4332275390625,0.14678955078125,0.5839015245437622,-0.5222845077514648,0.1377125978469849,54.17233276367188,100.4502410888672,-2.799057006835938
226057,-0.11334228515625,1.429428100585938,0.1470947265625,0.6064353585243225,-0.5549303293228149,0.0270049851387739,54.40483093261719,100.5162658691406,-3.094009399414062
226058,-0.1428680419921875,1.36566162109375,0.1210479736328125,0.6551560163497925,-0.6274122595787048,-0.0672482773661613,54.61869812011719,100.4815368652344,-3.407546997070312
226059,-0.1428680419921875,1.36566162109375,0.1210479736328125,0.6551560163497925,-0.6274122595787048,-0.0672482773661613,54.61869812011719,100.4815368652344,-3.407546997070312
226060,-0.1695098876953125,1.1510009765625,0.12213134765625,0.8084374070167542,-0.8347260355949402,-0.1697075366973877,54.68058776855469,100.7938995361328,-4.230514526367188
226061,-0.1839752197265625,1.053466796875,0.1310577392578125,0.8084374070167542,-0.8347260355949402,-0.1697075366973877,54.80500793457031,100.8174133300781,-4.607574462890625
226062,-0.2115020751953125,0.9632415771484376,0.11553955078125,0.7987930774688721,-0.9085043668746948,-0.1327572464942932,54.85635375976562,100.7989654541016,-4.9073486328125
226063,-0.2406158447265625,0.883544921875,0.1053314208984375,0.7456334233283997,-1.002274513244629,-0.0919437706470489,54.91038513183594,100.9315185546875,-5.378509521484375
226064,-0.2406158447265625,0.883544921875,0.1053314208984375,0.7456334233283997,-1.002274513244629,-0.0919437706470489,54.91038513183594,100.9315185546875,-5.378509521484375
226065,-0.2672271728515625,0.7312164306640625,0.0742034912109375,0.6714670658111572,-1.114434361457825,-0.0344882011413574,55.13603210449219,101.0392608642578,-6.134506225585938
226066,-0.2613525390625,0.6611785888671875,0.038665771484375,0.7114267349243164,-1.166186809539795,0.0050674630329012,55.32591247558594,100.8948669433594,-6.525466918945312
226067,-0.2613525390625,0.6611785888671875,0.038665771484375,0.7114267349243164,-1.166186809539795,0.0050674630329012,55.32591247558594,100.8948669433594,-6.525466918945312
226068,-0.242523193359375,0.60723876953125,0.0141448974609375,0.7625508904457092,-1.168171405792236,0.0243924241513013,55.43409729003906,100.9569244384766,-6.932144165039062
226069,-0.212646484375,0.4964752197265625,-0.003997802734375,0.7592123746871948,-0.958321213722229,-0.0228429976850748,55.87619018554688,100.8907165527344,-7.685516357421875
226070,-0.2107086181640625,0.467010498046875,0.008056640625,0.696520209312439,-0.8086768388748169,-0.0603669360280036,56.01239013671875,100.8820495605469,-7.881210327148438
226071,-0.2107086181640625,0.467010498046875,0.008056640625,0.696520209312439,-0.8086768388748169,-0.0603669360280036,56.01239013671875,100.8820495605469,-7.881210327148438
226072,-0.219146728515625,0.4625091552734375,0.05914306640625,0.5829063057899475,-0.6422708034515381,-0.1090154349803925,55.92999267578125,101.0601501464844,-8.40283203125
226073,-0.2393035888671875,0.486419677734375,0.140289306640625,0.2101292610168457,-0.3059958815574646,-0.0841223374009132,55.98329162597656,101.1529388427734,-8.85406494140625
226074,-0.224151611328125,0.7570343017578125,0.3276824951171875,-0.0482170656323432,-0.0811952501535415,-0.0198674481362104,55.95747375488281,101.324951171875,-9.354339599609377
226075,-0.224151611328125,0.7570343017578125,0.3276824951171875,-0.0482170656323432,-0.0811952501535415,-0.0198674481362104,55.95747375488281,101.324951171875,-9.354339599609377
226076,-0.247528076171875,0.8687896728515625,0.3321380615234375,-0.2927554249763489,0.1101137176156044,0.022801985964179,55.93852233886719,101.2623901367188,-9.5537109375
226077,-0.277618408203125,0.8829498291015625,0.2769012451171875,-0.5595242977142334,0.0259751416742801,0.1474680155515671,56.00082397460938,101.2531890869141,-9.539657592773438
226078,-0.2772216796875,0.8988037109375,0.310821533203125,-0.5672948360443115,-0.0285930279642343,0.2196098566055298,55.98583984375,101.3777160644531,-9.2357177734375
226079,-0.2456817626953125,0.9270782470703124,0.3442535400390625,-0.5634750723838806,0.0471214391291141,0.2798947691917419,56.12234497070312,101.3275604248047,-8.890396118164062
226080,-0.2456817626953125,0.9270782470703124,0.3442535400390625,-0.5634750723838806,0.0471214391291141,0.2798947691917419,56.12234497070312,101.3275604248047,-8.890396118164062
226081,-0.1754913330078125,0.9439849853515624,0.3306121826171875,-0.5888060331344604,0.0907394886016845,0.2861497402191162,56.17802429199219,101.2258758544922,-8.158782958984375
226082,-0.15673828125,0.9249114990234376,0.3521881103515625,-0.5997284054756165,-0.0444281846284866,0.2532373368740082,56.21588134765625,101.20361328125,-7.851943969726562
226083,-0.15673828125,0.9249114990234376,0.3521881103515625,-0.5997284054756165,-0.0444281846284866,0.2532373368740082,56.21588134765625,101.20361328125,-7.851943969726562
226084,-0.1405792236328125,0.907073974609375,0.388641357421875,-0.644741415977478,-0.1746863275766373,0.1949058324098587,56.39256286621094,101.2688140869141,-7.81298828125
226085,-0.120452880859375,0.9044952392578124,0.3883819580078125,-0.7554482221603394,-0.2817813456058502,0.1229397729039192,56.46125793457031,101.2645874023438,-7.887603759765625
226086,-0.0720062255859375,1.002288818359375,0.2540740966796875,-1.052894830703735,-0.555513322353363,-0.0553721785545349,56.553466796875,101.0832061767578,-7.331756591796875
226087,-0.05389404296875,1.08782958984375,0.145355224609375,-1.155174374580383,-0.6920466423034668,-0.1510057598352432,56.60536193847656,100.8701934814453,-6.7869873046875
226088,-0.05389404296875,1.08782958984375,0.145355224609375,-1.155174374580383,-0.6920466423034668,-0.1510057598352432,56.60536193847656,100.8701934814453,-6.7869873046875
226089,0.0130157470703125,1.244979858398438,-0.1823883056640625,-0.8190469145774841,-0.2473360300064087,-0.2563918232917786,56.51422119140625,100.8183135986328,-5.764251708984375
226090,-0.0253753662109375,1.182464599609375,-0.3432769775390625,-0.4161002635955811,-0.1861078143119812,-0.2845808565616608,56.32481384277344,100.6159057617188,-5.073272705078125
226091,-0.0253753662109375,1.182464599609375,-0.3432769775390625,-0.4161002635955811,-0.1861078143119812,-0.2845808565616608,56.32481384277344,100.6159057617188,-5.073272705078125
226092,-0.0713653564453125,1.085922241210938,-0.23004150390625,-0.3218004107475281,-0.2860211133956909,-0.3508509695529938,56.17799377441406,100.7059631347656,-4.69891357421875
226093,-0.048431396484375,1.11956787109375,-0.16705322265625,-0.4413611590862274,-0.2446728646755219,-0.3681620359420776,55.79084777832031,100.8129577636719,-4.244216918945312
226094,-0.0393218994140625,1.207626342773438,-0.2960662841796875,-0.4611734747886658,-0.2532892525196075,-0.3225958943367004,55.61444091796875,100.7898559570312,-4.034820556640625
226095,-0.0428009033203125,1.2822265625,-0.3997955322265625,-0.3670576214790344,-0.2905958890914917,-0.2056096196174622,55.37057495117188,100.9283294677734,-3.945068359375
226096,-0.0428009033203125,1.2822265625,-0.3997955322265625,-0.3670576214790344,-0.2905958890914917,-0.2056096196174622,55.37057495117188,100.9283294677734,-3.945068359375
226097,-0.0639495849609375,1.289810180664062,-0.3990936279296875,-0.2147455960512161,-0.2665376961231232,-0.0567341186106205,55.15765380859375,100.8177642822266,-3.711273193359375
226098,-0.1260986328125,1.186508178710938,-0.4272918701171875,0.0402534119784832,0.1119478419423103,0.1774639934301376,54.94401550292969,100.8795471191406,-3.106002807617188
226099,-0.1260986328125,1.186508178710938,-0.4272918701171875,0.0402534119784832,0.1119478419423103,0.1774639934301376,54.94401550292969,100.8795471191406,-3.106002807617188
226100,-0.098236083984375,1.11700439453125,-0.5235595703125,0.2963570952415466,0.2844349145889282,0.3675979971885681,54.96377563476562,100.8432006835938,-3.088104248046875
226101,0.0663909912109375,1.032257080078125,-0.6333465576171875,0.3941529095172882,0.2682226598262787,0.4399973452091217,55.18150329589844,100.7561950683594,-2.877304077148438
226102,0.1628570556640625,1.057144165039062,-0.599822998046875,0.4251957833766937,0.2591215670108795,0.4701366126537323,55.33926391601562,100.5529632568359,-2.72723388671875
226103,0.1628570556640625,1.057144165039062,-0.599822998046875,0.4251957833766937,0.2591215670108795,0.4701366126537323,55.33926391601562,100.5529632568359,-2.72723388671875
226104,0.229888916015625,1.108627319335938,-0.5644378662109375,0.4225970506668091,0.240383043885231,0.4516918361186981,55.43577575683594,100.5568389892578,-3.03558349609375
226105,0.2565155029296875,1.209503173828125,-0.4553070068359375,0.4259571731090546,0.1620291173458099,0.3760324716567993,55.91754150390625,100.5022430419922,-3.815231323242188
226106,0.2195587158203125,1.237960815429688,-0.3893890380859375,0.464219868183136,0.0859215632081031,0.3584071397781372,56.10591125488281,100.6136322021484,-3.994796752929688
226107,0.2195587158203125,1.237960815429688,-0.3893890380859375,0.464219868183136,0.0859215632081031,0.3584071397781372,56.10591125488281,100.6136322021484,-3.994796752929688
226108,0.0866241455078125,1.234375,-0.222259521484375,0.4993762671947479,-0.0465347431600093,0.3182829022407532,56.51713562011719,100.7248229980469,-4.338409423828125
226109,0.034637451171875,1.192642211914062,-0.132904052734375,0.4155894815921783,-0.0749474763870239,0.287360668182373,56.81173706054688,100.8205413818359,-4.563674926757812
226110,0.034637451171875,1.192642211914062,-0.132904052734375,0.4155894815921783,-0.0749474763870239,0.287360668182373,56.81173706054688,100.8205413818359,-4.563674926757812
226111,-0.000885009765625,1.1300048828125,-0.0630645751953125,0.4155894815921783,-0.0749474763870239,0.287360668182373,57.13235473632812,100.7978515625,-4.971084594726562
226112,-0.059906005859375,0.995269775390625,0.0148162841796875,0.2492745369672775,-0.3215202391147614,0.2721292674541473,57.53804016113281,100.7758941650391,-5.458969116210938
226113,-0.0849761962890625,0.961181640625,0.041473388671875,0.2492745369672775,-0.3215202391147614,0.2721292674541473,57.78315734863281,100.7614593505859,-5.679153442382812
226114,-0.0849761962890625,0.961181640625,0.041473388671875,0.2492745369672775,-0.3215202391147614,0.2721292674541473,57.78315734863281,100.7614593505859,-5.679153442382812
226115,-0.08612060546875,0.946990966796875,0.0936279296875,0.2074429392814636,-0.7893345952033997,0.3859122693538666,58.1597900390625,100.8412475585938,-6.141204833984375
226116,-0.08612060546875,0.946990966796875,0.0936279296875,0.2074429392814636,-0.7893345952033997,0.3859122693538666,58.1597900390625,100.8412475585938,-6.141204833984375
226117,0.023040771484375,0.9554901123046876,0.0715179443359375,0.2277199774980545,-0.869489312171936,0.4501439929008484,58.80838012695312,100.6676940917969,-6.34375
226118,0.023040771484375,0.9554901123046876,0.0715179443359375,0.2277199774980545,-0.869489312171936,0.4501439929008484,58.80838012695312,100.6676940917969,-6.34375
226119,0.0605621337890625,0.9766845703125,0.076995849609375,0.2722951769828796,-0.9156967997550964,0.5197166800498962,59.09895324707031,100.6110229492188,-6.596160888671875
226120,0.062774658203125,0.997802734375,0.13818359375,0.4090141355991364,-0.7048987746238708,0.510551393032074,59.33845520019531,100.4663848876953,-6.64544677734375
226121,0.024444580078125,1.008132934570312,0.184112548828125,0.4090141355991364,-0.7048987746238708,0.510551393032074,59.71757507324219,100.4791870117188,-6.979217529296875
226122,-0.036102294921875,0.9980316162109376,0.2049713134765625,0.4296778738498688,-0.6066893935203552,0.4792395532131195,60.05526733398438,100.4167938232422,-7.129531860351562
226123,-0.08319091796875,0.9614410400390624,0.2230224609375,0.3636985719203949,-0.5069563984870911,0.4299716055393219,60.42417907714844,100.2586669921875,-7.30438232421875
226124,-0.1520233154296875,0.839996337890625,0.1848907470703125,0.2031475305557251,-0.4068292677402496,0.3519436717033386,60.97824096679688,100.2076721191406,-7.787353515625
226125,-0.169921875,0.7689971923828125,0.14495849609375,0.1809836328029633,-0.4036332070827484,0.3461736440658569,61.13218688964844,100.1865081787109,-7.92205810546875
226126,-0.1784210205078125,0.71514892578125,0.1231231689453125,0.1799516528844833,-0.3906761407852173,0.342801570892334,61.44140625,100.1634063720703,-8.189254760742188
226127,-0.1865386962890625,0.67474365234375,0.117401123046875,0.1679796874523163,-0.3472676873207092,0.3310274481773376,61.69508361816406,100.0297088623047,-8.142059326171875
226128,-0.2010498046875,0.6680450439453125,0.14483642578125,0.0955462306737899,-0.2361201196908951,0.285869300365448,61.91424560546875,99.96588134765624,-8.43658447265625
226129,-0.230682373046875,0.712890625,0.1801605224609375,-0.0330958999693393,-0.0559341050684452,0.2216964364051819,62.04583740234375,99.8922882080078,-8.584487915039062
226130,-0.26971435546875,0.800262451171875,0.176849365234375,-0.2140720784664154,0.0824019312858581,0.0200208462774753,62.24812316894531,99.79580688476562,-8.575347900390625
226131,-0.26971435546875,0.800262451171875,0.176849365234375,-0.2140720784664154,0.0824019312858581,0.0200208462774753,62.24812316894531,99.79580688476562,-8.575347900390625
226132,-0.2890167236328125,0.9324493408203124,0.1762542724609375,-0.2140720784664154,0.0824019312858581,0.0200208462774753,62.35581970214844,99.71043395996094,-8.563934326171875
226133,-0.2051239013671875,1.08880615234375,0.2139434814453125,-0.1175793632864952,0.1453081965446472,-0.0879748612642288,62.37913513183594,99.8377685546875,-8.328353881835938
226134,-0.1566314697265625,1.076095581054688,0.2453765869140625,-0.0658746212720871,0.1024502068758011,-0.1106151938438416,62.36192321777344,99.77723693847656,-8.086959838867188
226135,-0.123626708984375,1.045166015625,0.2696685791015625,-0.0747922137379646,0.0559159964323043,-0.1377932876348495,62.36019897460938,99.81932067871094,-8.304229736328125
226136,-0.123626708984375,1.045166015625,0.2696685791015625,-0.0747922137379646,0.0559159964323043,-0.1377932876348495,62.36019897460938,99.81932067871094,-8.304229736328125
226137,-0.108123779296875,0.9659576416015624,0.2229766845703125,-0.1327431350946426,-0.0808170884847641,-0.1854849010705948,62.25900268554688,99.692138671875,-8.523239135742188
226138,-0.1420745849609375,0.921234130859375,0.1840057373046875,-0.0900942087173461,-0.1128019168972969,-0.2138315886259079,62.1998291015625,99.75608825683594,-8.463287353515625
226139,-0.192352294921875,0.8824920654296875,0.1663055419921875,-0.0598670616745948,-0.0369998291134834,-0.2879167497158051,62.10089111328125,99.859130859375,-8.411788940429688
226140,-0.192352294921875,0.8824920654296875,0.1663055419921875,-0.0598670616745948,-0.0369998291134834,-0.2879167497158051,62.10089111328125,99.859130859375,-8.411788940429688
226141,-0.27978515625,0.8233642578125,0.12445068359375,-0.1712457835674286,-0.0479550100862979,-0.329164057970047,61.86456298828125,100.1510314941406,-8.3245849609375
226142,-0.287139892578125,0.79888916015625,0.1096038818359375,-0.3491587936878204,-0.1279414594173431,-0.3529751002788544,61.61962890625,100.2079925537109,-8.322006225585938
226143,-0.287139892578125,0.79888916015625,0.1096038818359375,-0.3491587936878204,-0.1279414594173431,-0.3529751002788544,61.61962890625,100.2079925537109,-8.322006225585938
226144,-0.2640228271484375,0.7802886962890625,0.1082763671875,-0.5467647910118103,-0.2230831533670425,-0.3661372363567352,61.39401245117188,100.3253936767578,-8.2508544921875
226145,-0.2245330810546875,0.776947021484375,0.1213836669921875,-0.7118871808052063,-0.2595396935939789,-0.363014429807663,61.19252014160156,100.2946929931641,-8.067581176757812
226146,-0.1393280029296875,0.84979248046875,0.1433563232421875,-0.9439531564712524,-0.1828097552061081,-0.3495944738388062,60.86991882324219,100.3802642822266,-7.7073974609375
226147,-0.1393280029296875,0.84979248046875,0.1433563232421875,-0.9439531564712524,-0.1828097552061081,-0.3495944738388062,60.86991882324219,100.3802642822266,-7.7073974609375
226148,-0.1081390380859375,0.9380645751953124,0.1316070556640625,-0.9951356649398804,-0.1280573010444641,-0.3686824142932892,60.5943603515625,100.4147796630859,-7.326263427734375
226149,-0.060546875,1.105667114257812,0.08270263671875,-0.9613417387008668,-0.0891373306512832,-0.4046787619590759,60.17105102539062,100.3482666015625,-6.493499755859375
226150,-0.0382232666015625,1.18963623046875,0.02142333984375,-0.8566126823425293,-0.0654999166727066,-0.4024435877799988,59.99516296386719,100.3092956542969,-5.863922119140625
226151,-0.0382232666015625,1.18963623046875,0.02142333984375,-0.8566126823425293,-0.0654999166727066,-0.4024435877799988,59.99516296386719,100.3092956542969,-5.863922119140625
226152,-0.006134033203125,1.238967895507812,-0.06854248046875,-0.7028356194496155,-0.0742545202374458,-0.388795405626297,59.69166564941406,100.2628631591797,-5.335952758789062
226153,0.0480804443359375,1.29559326171875,-0.2644195556640625,-0.3106896877288818,-0.1521285474300385,-0.2837166786193848,59.05809020996094,100.4138641357422,-4.451095581054688
226154,0.05670166015625,1.279769897460938,-0.3368072509765625,-0.1176419481635094,-0.1789609640836716,-0.2294078916311264,58.88752746582031,100.3048858642578,-4.186187744140625
226155,0.05670166015625,1.279769897460938,-0.3368072509765625,-0.1176419481635094,-0.1789609640836716,-0.2294078916311264,58.88752746582031,100.3048858642578,-4.186187744140625
226156,0.0763092041015625,1.246383666992188,-0.4208221435546875,0.1177085265517235,-0.2977182269096375,-0.1778845191001892,58.50556945800781,100.3339080810547,-3.698150634765625
226157,0.1253662109375,1.17962646484375,-0.44879150390625,0.2342058420181274,-0.4008401036262512,-0.1707576215267181,58.38682556152344,100.4020690917969,-3.455780029296875
226158,0.18206787109375,1.097900390625,-0.4835205078125,0.3973263204097748,-0.4721526205539703,-0.1626922488212585,58.25898742675781,100.4225463867188,-3.486907958984375
226159,0.2315826416015625,1.013473510742188,-0.539306640625,0.5826892852783203,-0.5199563503265381,-0.1167417988181114,58.2528076171875,100.4117736816406,-3.479598999023438
226160,0.2315826416015625,1.013473510742188,-0.539306640625,0.5826892852783203,-0.5199563503265381,-0.1167417988181114,58.2528076171875,100.4117736816406,-3.479598999023438
226161,0.2899627685546875,0.948486328125,-0.62713623046875,0.8978509306907654,-0.5187675356864929,0.0059265987947583,58.25709533691406,100.55078125,-4.149658203125
226162,0.2850494384765625,0.967498779296875,-0.6313323974609375,0.931128978729248,-0.5393833518028259,0.0448164716362953,58.22406005859375,100.5709686279297,-4.422210693359375
226163,0.279205322265625,0.9939117431640624,-0.6153564453125,0.891975998878479,-0.594821572303772,0.0634916275739669,58.27792358398438,100.5904235839844,-4.69952392578125
226164,0.279205322265625,0.9939117431640624,-0.6153564453125,0.891975998878479,-0.594821572303772,0.0634916275739669,58.27792358398438,100.5904235839844,-4.69952392578125
226165,0.2957305908203125,1.050552368164062,-0.5186920166015625,0.8253104090690613,-0.6776621341705322,0.2499416619539261,58.62046813964844,100.7783508300781,-5.559661865234375
226166,0.30010986328125,1.085739135742188,-0.4800872802734375,0.8253104090690613,-0.6776621341705322,0.2499416619539261,58.78474426269531,100.6343994140625,-5.930099487304688
226167,0.30010986328125,1.085739135742188,-0.4800872802734375,0.8253104090690613,-0.6776621341705322,0.2499416619539261,58.78474426269531,100.6343994140625,-5.930099487304688
226168,0.2762908935546875,1.168914794921875,-0.35186767578125,0.7178172469139099,-0.6986486315727234,0.4518124759197235,59.18939208984375,100.4480285644531,-7.05035400390625
226169,0.2481689453125,1.2095947265625,-0.265716552734375,0.7178172469139099,-0.6986486315727234,0.4518124759197235,59.30824279785156,100.5194702148438,-7.661270141601562
226170,0.2002105712890625,1.235458374023438,-0.18585205078125,0.6448714137077332,-0.7142019867897034,0.4429105818271637,59.69505310058594,100.5161285400391,-8.10052490234375
226171,0.1450958251953125,1.2567138671875,-0.104766845703125,0.4626222252845764,-0.7497488260269165,0.3099839687347412,59.94920349121094,100.4969635009766,-8.4937744140625
226172,0.1450958251953125,1.2567138671875,-0.104766845703125,0.4626222252845764,-0.7497488260269165,0.3099839687347412,59.94920349121094,100.4969635009766,-8.4937744140625
226173,0.0534820556640625,1.3204345703125,-0.0059356689453125,0.4531520307064056,-0.7822375297546387,0.1853054165840149,60.58428955078125,100.6714019775391,-9.428878784179688
226174,0.0081024169921875,1.343856811523438,0.0007171630859375,0.5254054665565491,-0.8710874915122986,0.031056985259056,60.77262878417969,100.7176055908203,-9.846954345703123
226175,0.0081024169921875,1.343856811523438,0.0007171630859375,0.5254054665565491,-0.8710874915122986,0.031056985259056,60.77262878417969,100.7176055908203,-9.846954345703123
226176,-0.03533935546875,1.33416748046875,0.025238037109375,0.7971829175949097,-1.021548628807068,-0.2227867394685745,60.99089050292969,100.8630065917969,-10.18536376953125
226177,-0.1056060791015625,1.236007690429688,0.0807952880859375,0.891605794429779,-1.082453012466431,-0.2597287893295288,61.17414855957031,100.9911346435547,-10.83305358886719
226178,-0.1305694580078125,1.166839599609375,0.096893310546875,0.913735330104828,-1.178610682487488,-0.241057887673378,61.37837219238281,100.984619140625,-11.19853210449219
226179,-0.1489410400390625,1.078109741210938,0.1234130859375,0.8826456069946289,-1.305423498153687,-0.1853062063455582,61.51463317871094,100.8841552734375,-11.69158935546875
226180,-0.1489410400390625,1.078109741210938,0.1234130859375,0.8826456069946289,-1.305423498153687,-0.1853062063455582,61.51463317871094,100.8841552734375,-11.69158935546875
226181,-0.188446044921875,0.860198974609375,0.148284912109375,0.8417195081710815,-1.440522432327271,-0.0247905682772398,61.71328735351562,100.7918853759766,-13.15953063964844
226182,-0.2144775390625,0.77545166015625,0.138031005859375,0.8723663687705994,-1.405225157737732,0.0297925174236297,61.9066162109375,100.7223358154297,-13.6904296875
226183,-0.2682342529296875,0.7302398681640625,0.13226318359375,0.8723663687705994,-1.405225157737732,0.0297925174236297,61.98846435546875,100.6596984863281,-14.27842712402344
226184,-0.2682342529296875,0.7302398681640625,0.13226318359375,0.8723663687705994,-1.405225157737732,0.0297925174236297,61.98846435546875,100.6596984863281,-14.27842712402344
226185,-0.4567413330078125,0.66485595703125,0.118316650390625,0.8458351492881775,-1.046836733818054,-0.1135936751961708,62.17121887207031,100.5540771484375,-15.58451843261719
226186,-0.52349853515625,0.6193389892578125,0.0750579833984375,0.7946419715881348,-0.819428026676178,-0.1612962186336517,62.18104553222656,100.5923309326172,-16.01161193847656
226187,-0.52349853515625,0.6193389892578125,0.0750579833984375,0.7946419715881348,-0.819428026676178,-0.1612962186336517,62.18104553222656,100.5923309326172,-16.01161193847656
226188,-0.535614013671875,0.5922698974609375,0.0262603759765625,0.6979959011077881,-0.6405725479125977,-0.1742708683013916,62.1898193359375,100.6995544433594,-16.61332702636719
226189,-0.395660400390625,0.6322174072265625,0.1328277587890625,0.4078362286090851,-0.2756970822811127,-0.1138517335057259,61.93621826171875,100.6266784667969,-17.45880126953125
226190,-0.2920074462890625,0.708404541015625,0.2013702392578125,0.1736029535531998,-0.0911573395133018,-0.0104507766664028,61.81391906738281,100.6897125244141,-17.6568603515625
226191,-0.247314453125,0.809295654296875,0.2523040771484375,-0.1008421927690506,0.04025474563241,0.0669018030166626,61.73886108398438,100.7756500244141,-17.86656188964844
226192,-0.247314453125,0.809295654296875,0.2523040771484375,-0.1008421927690506,0.04025474563241,0.0669018030166626,61.73886108398438,100.7756500244141,-17.86656188964844
226193,-0.2617645263671875,0.9459686279296876,0.325286865234375,-0.548732340335846,0.2278334349393845,0.1353463679552078,61.87535095214844,100.7188568115234,-17.95021057128906
226194,-0.2515869140625,0.9627838134765624,0.309539794921875,-0.6335723996162415,0.2560866475105286,0.1413957476615906,61.88169860839844,100.6664428710938,-17.66233825683594
226195,-0.2515869140625,0.9627838134765624,0.309539794921875,-0.6335723996162415,0.2560866475105286,0.1413957476615906,61.88169860839844,100.6664428710938,-17.66233825683594
226196,-0.2251739501953125,0.95172119140625,0.2836151123046875,-0.636890172958374,0.2257766723632812,0.1415558010339737,61.89793395996094,100.6592864990234,-17.43064880371094
226197,-0.1170196533203125,0.934906005859375,0.2588348388671875,-0.6164778470993042,0.2722957134246826,0.1439342647790909,62.05555725097656,100.7153015136719,-16.53129577636719
226198,-0.0706634521484375,0.9292449951171876,0.2297210693359375,-0.6704912781715393,0.3118191361427307,0.1311718672513962,62.0185546875,100.6484375,-16.11933898925781
226199,-0.0350341796875,0.9350738525390624,0.2019195556640625,-0.7613793611526489,0.2547345459461212,0.102454200387001,61.9984130859375,100.66748046875,-15.971923828125
226200,-0.0350341796875,0.9350738525390624,0.2019195556640625,-0.7613793611526489,0.2547345459461212,0.102454200387001,61.9984130859375,100.66748046875,-15.971923828125
226201,0.0037078857421875,0.985015869140625,0.2006988525390625,-0.9455801248550416,-0.0566467680037021,0.0073801521211862,62.01197814941406,100.7129211425781,-15.38127136230469
226202,-0.002593994140625,1.043792724609375,0.2113189697265625,-1.042410731315613,-0.1905041635036469,-0.0562446303665638,62.05935668945312,100.7899017333984,-14.93458557128906
226203,-0.024261474609375,1.107818603515625,0.2044219970703125,-1.123729348182678,-0.2468659728765488,-0.1343844383955002,62.05162048339844,100.7301635742188,-14.45864868164062
226204,-0.024261474609375,1.107818603515625,0.2044219970703125,-1.123729348182678,-0.2468659728765488,-0.1343844383955002,62.05162048339844,100.7301635742188,-14.45864868164062
226205,-0.049530029296875,1.153976440429688,0.1380615234375,-1.05543065071106,-0.2492508441209793,-0.2599908411502838,61.91033935546875,100.7392425537109,-13.98751831054688
226206,-0.068817138671875,1.182464599609375,-0.0724945068359375,-0.8576909899711609,-0.2991787195205688,-0.2978223562240601,61.63980102539062,100.9206085205078,-12.74298095703125
226207,-0.0752716064453125,1.155227661132812,-0.12335205078125,-0.6532862186431885,-0.3278028964996338,-0.3406875431537628,61.32829284667969,100.9368591308594,-12.15803527832031
226208,-0.0752716064453125,1.155227661132812,-0.12335205078125,-0.6532862186431885,-0.3278028964996338,-0.3406875431537628,61.32829284667969,100.9368591308594,-12.15803527832031
226209,-0.0574493408203125,1.060150146484375,-0.2043914794921875,-0.4897137880325317,-0.2095289975404739,-0.3575786352157593,60.91673278808594,101.0180816650391,-11.5748291015625
226210,-0.027587890625,1.0560302734375,-0.2672271728515625,-0.4869107902050018,-0.1837527900934219,-0.323338657617569,60.63249206542969,101.0161895751953,-11.39576721191406
226211,-0.027587890625,1.0560302734375,-0.2672271728515625,-0.4869107902050018,-0.1837527900934219,-0.323338657617569,60.63249206542969,101.0161895751953,-11.39576721191406
226212,-0.010223388671875,1.093124389648438,-0.323883056640625,-0.484354704618454,-0.1875235587358475,-0.2807517647743225,60.42660522460938,101.1323852539062,-11.05105590820312
226213,-0.0092926025390625,1.159912109375,-0.3723297119140625,-0.3214856088161469,-0.1722894757986069,-0.1376510709524155,60.17625427246094,101.3332061767578,-10.49070739746094
226214,-0.0188446044921875,1.14227294921875,-0.399444580078125,-0.1815996170043945,-0.1062473431229591,-0.0549729689955711,60.06196594238281,101.2398681640625,-10.1431884765625
226215,-0.041290283203125,1.102386474609375,-0.4477081298828125,-0.0349191017448902,-0.0001382180635118,0.0340509116649627,59.888427734375,101.1528625488281,-10.07130432128906
226216,-0.041290283203125,1.102386474609375,-0.4477081298828125,-0.0349191017448902,-0.0001382180635118,0.0340509116649627,59.888427734375,101.1528625488281,-10.07130432128906
226217,-0.0044097900390625,0.9864044189453124,-0.5974273681640625,0.3033729195594788,0.1519354730844498,0.2614297270774841,59.85081481933594,101.0131988525391,-9.966384887695312
226218,0.05377197265625,0.965301513671875,-0.657958984375,0.4815282821655273,0.2012569457292557,0.3750042319297791,60.0185546875,101.0514221191406,-9.955902099609377
226219,0.1148529052734375,0.982147216796875,-0.67755126953125,0.6230524182319641,0.2622486650943756,0.4838694632053375,60.09684753417969,101.0870666503906,-10.16201782226562
226220,0.1148529052734375,0.982147216796875,-0.67755126953125,0.6230524182319641,0.2622486650943756,0.4838694632053375,60.09684753417969,101.0870666503906,-10.16201782226562
226221,0.1947021484375,1.069976806640625,-0.5773162841796875,0.6057306528091431,0.2997491657733917,0.4737345278263092,60.48745727539062,101.0330810546875,-10.62406921386719
226222,0.204132080078125,1.104171752929688,-0.5036468505859375,0.5924662351608276,0.318335086107254,0.4600765109062195,60.71368408203125,101.0058288574219,-10.94903564453125
226223,0.204132080078125,1.104171752929688,-0.5036468505859375,0.5924662351608276,0.318335086107254,0.4600765109062195,60.71368408203125,101.0058288574219,-10.94903564453125
226224,0.1994781494140625,1.116455078125,-0.443817138671875,0.6005260348320007,0.3204120993614197,0.4503224194049835,60.92953491210938,100.9629669189453,-11.2076416015625
226225,0.1497802734375,1.176773071289062,-0.3497314453125,0.5697577595710754,0.2656415402889252,0.4126552045345306,61.41712951660156,100.9989013671875,-11.86050415039062
226226,0.101287841796875,1.2098388671875,-0.2769927978515625,0.5206053853034973,0.2418112903833389,0.3510275185108185,61.66177368164062,100.8820648193359,-12.041015625
226227,0.0441436767578125,1.200942993164062,-0.216339111328125,0.3607842922210693,-0.0361782424151897,0.1956794857978821,61.97210693359375,100.90380859375,-12.51448059082031
226228,0.0441436767578125,1.200942993164062,-0.216339111328125,0.3607842922210693,-0.0361782424151897,0.1956794857978821,61.97210693359375,100.90380859375,-12.51448059082031
226229,-0.069000244140625,1.077651977539062,-0.0862884521484375,0.2889005243778229,-0.2140792608261108,0.1607513278722763,62.35357666015625,100.8450775146484,-12.83683776855469
226230,-0.1074676513671875,1.012985229492188,-0.0126495361328125,0.3050006628036499,-0.3375838994979858,0.1804115921258926,62.52711486816406,100.8669586181641,-12.85072326660156
226231,-0.1471099853515625,0.95458984375,0.1279754638671875,0.6215836405754089,-0.8169968128204346,0.3690763115882874,62.82923889160156,100.9262084960938,-13.50888061523438
226232,-0.1471099853515625,0.95458984375,0.1279754638671875,0.6215836405754089,-0.8169968128204346,0.3690763115882874,62.82923889160156,100.9262084960938,-13.50888061523438
226233,-0.159881591796875,0.935577392578125,0.193084716796875,0.6215836405754089,-0.8169968128204346,0.3690763115882874,63.14552307128906,100.8502807617188,-13.8438720703125
226234,-0.1606292724609375,0.928558349609375,0.2262115478515625,0.5742547512054443,-0.8951733708381653,0.4191786348819733,63.31838989257812,100.7370300292969,-14.05949401855469
226235,-0.1606292724609375,0.928558349609375,0.2262115478515625,0.5742547512054443,-0.8951733708381653,0.4191786348819733,63.31838989257812,100.7370300292969,-14.05949401855469
226236,-0.1388702392578125,0.90972900390625,0.2179107666015625,0.3111424446105957,-0.9606988430023192,0.4115166962146759,63.48521423339844,100.5775299072266,-14.55091857910156
226237,-0.0699310302734375,0.8360748291015625,0.2146759033203125,0.1480634957551956,-0.9026691317558287,0.3989010453224182,63.93504333496094,100.4556427001953,-15.32615661621094
226238,-0.03424072265625,0.8543243408203125,0.20648193359375,-0.0024905882310122,-0.7393749952316284,0.4066308736801147,64.17178344726562,100.3065490722656,-15.45541381835938
226239,-0.022918701171875,0.9012298583984376,0.1448974609375,-0.0938905403017997,-0.4547182321548462,0.4213730692863464,64.34471130371094,100.2379302978516,-15.5360107421875
226240,-0.022918701171875,0.9012298583984376,0.1448974609375,-0.0938905403017997,-0.4547182321548462,0.4213730692863464,64.34471130371094,100.2379302978516,-15.5360107421875
226241,-0.025482177734375,0.917755126953125,0.0562591552734375,-0.0315118543803691,-0.3280444443225861,0.3994712233543396,64.65901184082031,99.9980926513672,-15.66731262207031
226242,-0.02392578125,0.9314422607421876,0.0283660888671875,0.0421479865908622,-0.1671525090932846,0.3625217378139496,64.89784240722656,99.91879272460938,-15.82296752929688
226243,-0.0367431640625,0.9527130126953124,-0.0230255126953125,0.1068369671702385,-0.0361345671117305,0.3045005202293396,65.13833618164062,99.7060089111328,-15.93240356445312
226244,-0.0367431640625,0.9527130126953124,-0.0230255126953125,0.1068369671702385,-0.0361345671117305,0.3045005202293396,65.13833618164062,99.7060089111328,-15.93240356445312
226245,-0.083892822265625,0.991973876953125,-0.042633056640625,0.1566362082958221,0.0810778066515922,0.14676733314991,65.29237365722656,99.73919677734376,-16.23991394042969
226246,-0.1038818359375,1.009597778320312,-0.0056610107421875,0.1477178186178207,0.0929792076349258,0.0526123456656932,65.381591796875,99.66114807128906,-16.26736450195312
226247,-0.1038818359375,1.009597778320312,-0.0056610107421875,0.1477178186178207,0.0929792076349258,0.0526123456656932,65.381591796875,99.66114807128906,-16.26736450195312
226248,-0.1405029296875,1.002105712890625,0.0937652587890625,-0.0738822147250175,0.0249458290636539,-0.2310105860233307,65.41598510742188,99.60316467285156,-16.42655944824219
226249,-0.16796875,0.98211669921875,0.1327667236328125,-0.0738822147250175,0.0249458290636539,-0.2310105860233307,65.45835876464844,99.59628295898438,-16.35134887695312
226250,-0.1897125244140625,0.949554443359375,0.1677093505859375,-0.1893456876277924,-0.012516058050096,-0.2933748960494995,65.35562133789062,99.7294464111328,-16.20755004882812
226251,-0.1897125244140625,0.949554443359375,0.1677093505859375,-0.1893456876277924,-0.012516058050096,-0.2933748960494995,65.35562133789062,99.7294464111328,-16.20755004882812
226252,-0.212738037109375,0.916961669921875,0.1966094970703125,-0.3393474519252777,-0.0003946804790757,-0.3459784388542175,65.25189208984375,99.7631378173828,-16.24067687988281
226253,-0.284515380859375,0.89678955078125,0.1859283447265625,-0.3510890603065491,0.0269139055162668,-0.3245109617710114,65.00564575195312,99.88038635253906,-16.00642395019531
226254,-0.31317138671875,0.906219482421875,0.16754150390625,-0.3375042676925659,0.0657832771539688,-0.3039212822914124,64.90933227539062,99.96339416503906,-15.79029846191406
226255,-0.31317138671875,0.906219482421875,0.16754150390625,-0.3375042676925659,0.0657832771539688,-0.3039212822914124,64.90933227539062,99.96339416503906,-15.79029846191406
226256,-0.3217926025390625,0.912628173828125,0.151123046875,-0.3337489366531372,0.0970927253365516,-0.2965142130851746,64.79183959960938,100.1424102783203,-15.70071411132812
226257,-0.3130035400390625,0.9122467041015624,0.13360595703125,-0.3629622161388397,0.0925863906741142,-0.3100875616073608,64.64329528808594,100.2088165283203,-15.51510620117188
226258,-0.2794036865234375,0.8871917724609375,0.101959228515625,-0.5641211867332458,-0.0355891548097133,-0.3294979929924011,64.2401123046875,100.4412994384766,-15.0584716796875
226259,-0.2545166015625,0.8834228515625,0.101165771484375,-0.7153836488723755,-0.1327167749404907,-0.3071370422840118,64.04728698730469,100.5574188232422,-15.01239013671875
226260,-0.2545166015625,0.8834228515625,0.101165771484375,-0.7153836488723755,-0.1327167749404907,-0.3071370422840118,64.04728698730469,100.5574188232422,-15.01239013671875
226261,-0.189605712890625,0.91717529296875,0.1282501220703125,-0.9752642512321472,-0.2986055910587311,-0.2854093611240387,63.76866149902344,100.6413269042969,-14.28419494628906
226262,-0.1514892578125,0.950439453125,0.1313323974609375,-1.04113245010376,-0.3273285925388336,-0.2829765677452087,63.57722473144531,100.5627899169922,-13.67877197265625
226263,-0.1077117919921875,0.9912567138671876,0.09600830078125,-0.9981114864349364,-0.2204628586769104,-0.2645826637744904,63.35760498046875,100.6654968261719,-13.27740478515625
226264,-0.1077117919921875,0.9912567138671876,0.09600830078125,-0.9981114864349364,-0.2204628586769104,-0.2645826637744904,63.35760498046875,100.6654968261719,-13.27740478515625
226265,-0.0523681640625,1.062484741210938,-0.0548553466796875,-0.8690317869186401,-0.2082043290138245,-0.2370745986700058,62.91200256347656,100.8671569824219,-12.53375244140625
226266,-0.02978515625,1.06292724609375,-0.086669921875,-0.7055448889732361,-0.2542354762554169,-0.214157298207283,62.84477233886719,100.8970031738281,-12.01591491699219
226267,-0.02978515625,1.06292724609375,-0.086669921875,-0.7055448889732361,-0.2542354762554169,-0.214157298207283,62.84477233886719,100.8970031738281,-12.01591491699219
226268,-0.0061492919921875,1.042877197265625,-0.0735931396484375,-0.575705885887146,-0.3012828826904297,-0.171528086066246,62.66061401367188,100.8525238037109,-11.53669738769531
226269,0.0384063720703125,1.027130126953125,-0.1656341552734375,-0.3689388930797577,-0.3810203075408936,-0.091579183936119,62.43452453613281,100.8868865966797,-11.13772583007812
226270,0.0728302001953125,1.000732421875,-0.24609375,-0.2397481501102448,-0.4269182980060577,-0.0516400262713432,62.400634765625,100.8609924316406,-10.76223754882812
226271,0.0728302001953125,1.000732421875,-0.24609375,-0.2397481501102448,-0.4269182980060577,-0.0516400262713432,62.400634765625,100.8609924316406,-10.76223754882812
226272,0.1058197021484375,0.981353759765625,-0.3153533935546875,0.0373417809605598,-0.4842976927757263,-0.0029462550301104,62.3289794921875,100.9754486083984,-10.40495300292969
226273,0.1058197021484375,0.981353759765625,-0.3153533935546875,0.0373417809605598,-0.4842976927757263,-0.0029462550301104,62.3289794921875,100.9754486083984,-10.40495300292969
226274,0.131744384765625,0.9310455322265624,-0.3263702392578125,0.2201885581016541,-0.5490804314613342,-0.0425852760672569,62.35267639160156,100.8207702636719,-10.31169128417969
226275,0.1557769775390625,0.9008331298828124,-0.3573760986328125,0.3118372559547424,-0.621882975101471,-0.057125337421894,62.33596801757812,100.8439788818359,-10.54278564453125
226276,0.1557769775390625,0.9008331298828124,-0.3573760986328125,0.3118372559547424,-0.621882975101471,-0.057125337421894,62.33596801757812,100.8439788818359,-10.54278564453125
226277,0.2132568359375,0.873779296875,-0.4414825439453125,0.5692554712295532,-0.7619972229003906,-0.0303105022758245,62.25204467773438,100.7455902099609,-10.8470458984375
226278,0.229278564453125,0.8891143798828125,-0.470947265625,0.6762199997901917,-0.8107000589370728,-0.0153845492750406,62.35997009277344,100.7120666503906,-11.0745849609375
226279,0.2506103515625,0.9705963134765624,-0.460662841796875,0.764801025390625,-0.8294910788536072,0.0528829209506511,62.47354125976562,100.6625671386719,-11.5679931640625
226280,0.2506103515625,0.9705963134765624,-0.460662841796875,0.764801025390625,-0.8294910788536072,0.0528829209506511,62.47354125976562,100.6625671386719,-11.5679931640625
226281,0.253082275390625,1.036483764648438,-0.4111480712890625,0.764801025390625,-0.8294910788536072,0.0528829209506511,62.56655883789062,100.6141967773438,-12.01310729980469
226282,0.253082275390625,1.036483764648438,-0.4111480712890625,0.764801025390625,-0.8294910788536072,0.0528829209506511,62.56655883789062,100.6141967773438,-12.01310729980469
226283,0.2293701171875,1.176025390625,-0.27423095703125,0.6799399256706238,-0.9093635082244872,0.1279544979333878,62.66256713867188,100.5019836425781,-12.74656677246094
226284,0.2293701171875,1.176025390625,-0.27423095703125,0.6799399256706238,-0.9093635082244872,0.1279544979333878,62.66256713867188,100.5019836425781,-12.74656677246094
226285,0.127227783203125,1.343795776367188,-0.143035888671875,0.6067453026771545,-0.9918474555015564,0.1203096359968185,62.769287109375,100.6853179931641,-13.97700500488281
226286,0.0555877685546875,1.431411743164062,-0.0968780517578125,0.5226941108703613,-1.101481318473816,0.0839108824729919,62.87185668945312,100.7103118896484,-14.57252502441406
226287,0.0555877685546875,1.431411743164062,-0.0968780517578125,0.5226941108703613,-1.101481318473816,0.0839108824729919,62.87185668945312,100.7103118896484,-14.57252502441406
226288,-0.005279541015625,1.510223388671875,-0.0259552001953125,0.4869515299797058,-1.203903317451477,-0.0268284175544977,62.9879150390625,100.6643981933594,-14.95912170410156
226289,-0.1121978759765625,1.654022216796875,0.0843353271484375,0.7919750809669495,-1.170888543128967,-0.0962530300021171,63.23399353027344,100.8659210205078,-15.79121398925781
226290,-0.1121978759765625,1.654022216796875,0.0843353271484375,0.7919750809669495,-1.170888543128967,-0.0962530300021171,63.23399353027344,100.8659210205078,-15.79121398925781
226291,-0.2147674560546875,1.596328735351562,0.1708831787109375,1.014154672622681,-1.177532076835632,-0.105183407664299,63.29959106445312,100.9249267578125,-16.54441833496094
226292,-0.2147674560546875,1.596328735351562,0.1708831787109375,1.014154672622681,-1.177532076835632,-0.105183407664299,63.29959106445312,100.9249267578125,-16.54441833496094
226293,-0.2419281005859375,1.248947143554688,0.1656036376953125,1.305899143218994,-1.15986180305481,-0.0626194402575492,63.43588256835938,100.7763671875,-17.63127136230469
226294,-0.2308807373046875,1.069732666015625,0.125946044921875,1.332934260368347,-1.273889780044556,-0.0570912472903728,63.43272399902344,100.652587890625,-18.10176086425781
226295,-0.2220611572265625,0.9234771728515624,0.1099395751953125,1.188596725463867,-1.486777544021606,-0.0652402564883232,63.4476318359375,100.6083221435547,-19.00958251953125
226296,-0.2220611572265625,0.9234771728515624,0.1099395751953125,1.188596725463867,-1.486777544021606,-0.0652402564883232,63.4476318359375,100.6083221435547,-19.00958251953125
226297,-0.2212982177734375,0.8160247802734375,0.1018829345703125,1.045589804649353,-1.468649744987488,-0.0643331855535507,63.50370788574219,100.5941314697266,-19.93116760253906
226298,-0.2164764404296875,0.7451629638671875,0.07269287109375,1.045589804649353,-1.468649744987488,-0.0643331855535507,63.51446533203125,100.3765258789062,-20.66030883789062
226299,-0.292083740234375,0.675933837890625,-0.05389404296875,0.5246136784553528,-0.9383490681648254,-0.0629640519618988,63.45321655273438,100.1448822021484,-22.02035522460938
226300,-0.292083740234375,0.675933837890625,-0.05389404296875,0.5246136784553528,-0.9383490681648254,-0.0629640519618988,63.45321655273438,100.1448822021484,-22.02035522460938
226301,-0.4165496826171875,0.682525634765625,-0.09368896484375,0.4570381343364716,-0.6161220669746399,-0.0218001045286655,63.26475524902344,99.9538116455078,-22.88092041015625
226302,-0.4044647216796875,0.69537353515625,-0.0767974853515625,0.4719060063362122,-0.3762159645557404,0.0202991459518671,63.20640563964844,99.76243591308594,-23.24374389648438
226303,-0.3292083740234375,0.7234649658203125,0.009735107421875,0.3488099277019501,-0.0958077535033226,0.1700457632541656,63.07841491699219,99.68229675292967,-23.59889221191406
226304,-0.3292083740234375,0.7234649658203125,0.009735107421875,0.3488099277019501,-0.0958077535033226,0.1700457632541656,63.07841491699219,99.68229675292967,-23.59889221191406
226305,-0.1497344970703125,0.7116546630859375,0.133514404296875,-0.0502048470079898,-0.1075842529535294,0.303166002035141,62.99797058105469,99.7010498046875,-24.30233764648438
226306,-0.09130859375,0.648223876953125,0.1231689453125,-0.0502048470079898,-0.1075842529535294,0.303166002035141,63.03877258300781,99.75227355957033,-24.59588623046875
226307,-0.0581817626953125,0.607391357421875,0.11724853515625,-0.2011967599391937,-0.1989016532897949,0.3509569466114044,63.0499267578125,99.59553527832033,-24.61830139160156
226308,-0.0581817626953125,0.607391357421875,0.11724853515625,-0.2011967599391937,-0.1989016532897949,0.3509569466114044,63.0499267578125,99.59553527832033,-24.61830139160156
226309,0.024322509765625,0.6759796142578125,0.1171722412109375,-0.4905409514904022,-0.1793766766786575,0.3278894424438477,63.30137634277344,99.43264770507812,-24.67245483398438
226310,0.0393829345703125,0.833343505859375,0.1184234619140625,-0.4905409514904022,-0.1793766766786575,0.3278894424438477,63.40298461914062,99.37922668457033,-24.49008178710938
226311,0.002655029296875,1.004653930664062,0.1598358154296875,-0.5923418998718262,-0.1287766247987747,0.2692594230175018,63.49479675292969,99.54104614257812,-24.46035766601562
226312,0.002655029296875,1.004653930664062,0.1598358154296875,-0.5923418998718262,-0.1287766247987747,0.2692594230175018,63.49479675292969,99.54104614257812,-24.46035766601562
226313,-0.1012115478515625,1.109375,0.23931884765625,-0.7434493899345398,-0.1062401533126831,0.0607195384800434,63.68797302246094,99.6737060546875,-24.03501892089844
226314,-0.147369384765625,1.118316650390625,0.26849365234375,-0.8402888178825378,-0.1619936972856522,-0.0249037519097328,63.76005554199219,99.82742309570312,-23.83969116210938
226315,-0.1750335693359375,1.152435302734375,0.2880096435546875,-1.019129395484924,-0.2083071321249008,-0.1763239055871964,63.77630615234375,99.88525390625,-23.48654174804688
226316,-0.1750335693359375,1.152435302734375,0.2880096435546875,-1.019129395484924,-0.2083071321249008,-0.1763239055871964,63.77630615234375,99.88525390625,-23.48654174804688
226317,-0.2004852294921875,1.221054077148438,0.213165283203125,-1.035014629364014,-0.2002308368682861,-0.2246711850166321,63.76214599609375,99.95782470703124,-22.58421325683594
226318,-0.2104949951171875,1.218551635742188,0.15997314453125,-0.9900301098823548,-0.1843754351139069,-0.2522799074649811,63.64109802246094,100.13037109375,-22.224609375
226319,-0.2152099609375,1.18182373046875,0.13897705078125,-0.9102452993392944,-0.1765832901000977,-0.2455703467130661,63.5853271484375,100.3079071044922,-21.6640625
226320,-0.2152099609375,1.18182373046875,0.13897705078125,-0.9102452993392944,-0.1765832901000977,-0.2455703467130661,63.5853271484375,100.3079071044922,-21.6640625
226321,-0.2334442138671875,1.084701538085938,0.18621826171875,-0.7832207679748535,-0.0050272489897906,-0.2130342423915863,63.30355834960938,100.3440551757812,-20.74760437011719
226322,-0.2422637939453125,1.047866821289062,0.116485595703125,-0.7805128693580627,-0.0183896590024232,-0.2075196355581284,63.17936706542969,100.5243530273438,-20.36912536621094
226323,-0.2296142578125,0.998016357421875,0.016571044921875,-0.7978913187980652,-0.1586828529834747,-0.1750402599573135,63.01651000976562,100.7117462158203,-19.97575378417969
226324,-0.2296142578125,0.998016357421875,0.016571044921875,-0.7978913187980652,-0.1586828529834747,-0.1750402599573135,63.01651000976562,100.7117462158203,-19.97575378417969
226325,-0.1248626708984375,0.9180450439453124,-0.177886962890625,-0.6604482531547546,0.1156440377235413,-0.0934825465083122,62.93582153320312,100.6832885742188,-19.12924194335938
226326,-0.09259033203125,0.96417236328125,-0.27496337890625,-0.6604482531547546,0.1156440377235413,-0.0934825465083122,62.85432434082031,100.6732940673828,-18.62081909179688
226327,-0.0871124267578125,1.06427001953125,-0.3610382080078125,-0.5222389698028564,0.2528229355812073,-0.0924175456166267,62.68743896484375,100.8740997314453,-18.20919799804688
226328,-0.0871124267578125,1.06427001953125,-0.3610382080078125,-0.5222389698028564,0.2528229355812073,-0.0924175456166267,62.68743896484375,100.8740997314453,-18.20919799804688
226329,-0.080657958984375,1.178955078125,-0.3767852783203125,-0.3239122927188873,0.3040863871574402,-0.1240231469273567,62.40167236328125,101.0589599609375,-17.55551147460938
226330,-0.0447235107421875,1.164627075195312,-0.381072998046875,-0.2217899113893509,0.2936161756515503,-0.0892142951488494,62.28897094726562,101.0786285400391,-17.31636047363281
226331,0.0163116455078125,1.105484008789062,-0.4279022216796875,0.1342749893665314,0.2678641974925995,0.0674570724368095,62.26930236816406,101.0042114257812,-16.96893310546875
226332,0.0884246826171875,1.016448974609375,-0.4855499267578125,0.1342749893665314,0.2678641974925995,0.0674570724368095,62.16322326660156,101.0091400146484,-16.99937438964844
226333,0.1563873291015625,0.9433746337890624,-0.5239105224609375,0.3260643780231476,0.2385643720626831,0.1586940437555313,62.12541198730469,101.0530700683594,-16.79006958007812
226334,0.2115325927734375,0.891357421875,-0.5408477783203125,0.4786384999752045,0.1994715631008148,0.2344993203878403,62.11631774902344,101.0030517578125,-16.74595642089844
226335,0.25994873046875,0.86663818359375,-0.5382537841796875,0.6245847940444946,0.0076217008754611,0.3186786472797394,62.19648742675781,101.1319122314453,-16.74432373046875
226336,0.25994873046875,0.86663818359375,-0.5382537841796875,0.6245847940444946,0.0076217008754611,0.3186786472797394,62.19648742675781,101.1319122314453,-16.74432373046875
226337,0.28253173828125,0.902496337890625,-0.46978759765625,0.6472005844116211,-0.093989610671997,0.320795863866806,62.44955444335938,101.0940399169922,-17.14326477050781
226338,0.2514495849609375,0.9648284912109376,-0.3964691162109375,0.651238203048706,-0.1690129935741425,0.307424396276474,62.6077880859375,100.9465637207031,-17.44258117675781
226339,0.1894378662109375,1.043350219726562,-0.3115386962890625,0.624117374420166,-0.2313458770513535,0.2814609706401825,62.72456359863281,100.8194885253906,-17.78521728515625
226340,0.1174163818359375,1.114974975585938,-0.2065277099609375,0.5589509010314941,-0.2933530509471893,0.2294422388076782,62.91761779785156,100.8170471191406,-18.18849182128906
226341,0.042510986328125,1.148895263671875,-0.102783203125,0.4947969615459442,-0.3098651766777039,0.1782592236995697,63.07521057128906,100.7954711914062,-18.48291015625
226342,-0.050750732421875,1.15289306640625,-0.04541015625,0.4487029612064362,-0.3459853827953339,0.1117060258984566,63.195068359375,100.7375030517578,-18.77680969238281
226343,-0.128692626953125,1.142227172851562,-0.0011138916015625,0.4173221290111542,-0.3467643558979034,0.0434763692319393,63.28997802734375,100.7067413330078,-19.023681640625
226344,-0.1870269775390625,1.124908447265625,0.0142822265625,0.4200923442840576,-0.3568619787693024,-0.0544057190418243,63.25570678710938,100.8306884765625,-19.46356201171875
226345,-0.2212066650390625,1.088836669921875,0.01043701171875,0.4200923442840576,-0.3568619787693024,-0.0544057190418243,63.28413391113281,100.8551635742188,-19.68904113769531
226346,-0.2420501708984375,1.050125122070312,0.017974853515625,0.4492342472076416,-0.4190017879009247,-0.0467528589069843,63.32820129394531,100.8375701904297,-20.12591552734375
226347,-0.23236083984375,1.019210815429688,0.0376739501953125,0.5031134486198425,-0.4876490235328674,-0.0043034018017351,63.31460571289062,100.7688446044922,-20.35221862792969
226348,-0.1962432861328125,0.9816741943359376,0.0500335693359375,0.5302151441574097,-0.5150455236434937,0.084517017006874,63.27105712890625,100.9368591308594,-20.79762268066406
226349,-0.1498565673828125,0.9503631591796876,0.0513153076171875,0.5172748565673828,-0.5559979677200317,0.2010958194732666,63.25335693359375,100.8455963134766,-21.18870544433594
226350,-0.0879669189453125,0.931884765625,0.0672760009765625,0.4745217859745026,-0.6176221966743469,0.3188850283622742,63.26898193359375,100.6612548828125,-21.46086120605469
226351,-0.0351104736328125,0.919891357421875,0.0982666015625,0.4134131371974945,-0.6724780201911926,0.406280130147934,63.3759765625,100.5709686279297,-21.86550903320312
226352,-0.0351104736328125,0.919891357421875,0.0982666015625,0.4134131371974945,-0.6724780201911926,0.406280130147934,63.3759765625,100.5709686279297,-21.86550903320312
226353,0.0131683349609375,0.888397216796875,0.18914794921875,0.239449605345726,-0.6357527375221252,0.4941079914569855,63.63337707519531,100.2683258056641,-22.47309875488281
226354,0.01177978515625,0.899017333984375,0.190704345703125,0.1430695354938507,-0.5679971575737,0.5072813034057617,63.8594970703125,100.1065673828125,-22.68385314941406
226355,-0.0109710693359375,0.915313720703125,0.15203857421875,0.0766327232122421,-0.5698392391204834,0.4823730289936066,64.07412719726562,100.073974609375,-22.84687805175781
226356,-0.0109710693359375,0.915313720703125,0.15203857421875,0.0766327232122421,-0.5698392391204834,0.4823730289936066,64.07412719726562,100.073974609375,-22.84687805175781
226357,-0.0550384521484375,0.8713226318359375,0.062042236328125,0.0784047916531562,-0.6968592405319214,0.41632479429245,64.38125610351562,99.88217163085938,-22.98139953613281
226358,-0.0681915283203125,0.82781982421875,0.0290679931640625,0.1284527778625488,-0.7214929461479187,0.3886284232139587,64.57672119140625,99.70626831054688,-23.02915954589844
226359,-0.0916900634765625,0.7928619384765625,0.0297088623046875,0.1502662003040314,-0.6533628702163696,0.3554582297801971,64.74058532714844,99.68035888671876,-23.2470703125
226360,-0.1275177001953125,0.7866668701171875,0.0538787841796875,0.089791402220726,-0.4328843057155609,0.3096659779548645,64.74809265136719,99.60971069335938,-23.57705688476562
226361,-0.1659088134765625,0.8394317626953125,0.0516815185546875,-0.0354762338101863,-0.1702952980995178,0.2354303598403931,64.89013671875,99.43310546875,-23.7928466796875
226362,-0.21533203125,0.948883056640625,0.0387115478515625,-0.2226120382547379,-0.0165595356374979,0.048589639365673,64.99308776855469,99.28738403320312,-23.78971862792969
226363,-0.260040283203125,1.052337646484375,0.0639190673828125,-0.2226120382547379,-0.0165595356374979,0.048589639365673,65.08816528320312,99.17521667480467,-23.68623352050781
226364,-0.260040283203125,1.052337646484375,0.0639190673828125,-0.2226120382547379,-0.0165595356374979,0.048589639365673,65.08816528320312,99.17521667480467,-23.68623352050781
226365,-0.2582244873046875,1.164276123046875,0.086883544921875,-0.1483375430107117,-0.0187859386205673,-0.0623310171067714,65.25843811035156,99.2539520263672,-23.42005920410156
226366,-0.2442169189453125,1.15997314453125,0.0825958251953125,-0.0604915730655193,-0.0137323234230279,-0.1213176399469376,65.26100158691406,99.28927612304688,-23.43391418457031
226367,-0.2315521240234375,1.133407592773438,0.0550689697265625,0.0083404881879687,-0.0526621453464031,-0.1875334084033966,65.1690673828125,99.4041748046875,-23.26899719238281
226368,-0.2315521240234375,1.133407592773438,0.0550689697265625,0.0083404881879687,-0.0526621453464031,-0.1875334084033966,65.1690673828125,99.4041748046875,-23.26899719238281
226369,-0.199005126953125,1.03955078125,0.0192108154296875,0.0184559728950262,-0.2715721130371094,-0.2873817086219788,65.16067504882812,99.41407775878906,-23.28190612792969
226370,-0.19110107421875,0.9480743408203124,0.023345947265625,0.044563740491867,-0.311608225107193,-0.3154754042625427,64.99612426757812,99.33055114746094,-23.29510498046875
226371,-0.2181396484375,0.8227691650390625,0.0218048095703125,0.0823260322213172,-0.2980237007141113,-0.3423003554344177,64.84625244140625,99.49461364746094,-23.42936706542969
226372,-0.2181396484375,0.8227691650390625,0.0218048095703125,0.0823260322213172,-0.2980237007141113,-0.3423003554344177,64.84625244140625,99.49461364746094,-23.42936706542969
226373,-0.2550506591796875,0.8021087646484375,0.0307769775390625,0.0107549093663692,-0.2653443217277527,-0.3526515364646912,64.61395263671875,99.432861328125,-23.48200988769531
226374,-0.3025360107421875,0.79888916015625,0.0430908203125,-0.1023804321885109,-0.2319139242172241,-0.3670171499252319,64.49191284179688,99.6046142578125,-23.55137634277344
226375,-0.349761962890625,0.81854248046875,0.050445556640625,-0.2133002877235413,-0.2040495425462723,-0.3820472359657288,64.314208984375,99.78205871582033,-23.63232421875
226376,-0.349761962890625,0.81854248046875,0.050445556640625,-0.2133002877235413,-0.2040495425462723,-0.3820472359657288,64.314208984375,99.78205871582033,-23.63232421875
226377,-0.41448974609375,0.8994903564453125,0.0419769287109375,-0.4179495871067047,-0.1390004903078079,-0.4076063930988312,64.00531005859375,99.94758605957033,-23.43141174316406
226378,-0.4133453369140625,0.950347900390625,0.0304107666015625,-0.4548876285552979,-0.0931105017662048,-0.3854236006736755,63.74508666992188,100.0733947753906,-23.13764953613281
226379,-0.38232421875,1.000686645507812,0.011566162109375,-0.4915273785591125,-0.0492426455020904,-0.3413163125514984,63.53599548339844,100.0941467285156,-22.93899536132812
226380,-0.38232421875,1.000686645507812,0.011566162109375,-0.4915273785591125,-0.0492426455020904,-0.3413163125514984,63.53599548339844,100.0941467285156,-22.93899536132812
226381,-0.254425048828125,1.05316162109375,-0.032623291015625,-0.5323683023452759,-0.0048717204481363,-0.2772851288318634,63.12664794921875,100.3710021972656,-22.2674560546875
226382,-0.184783935546875,1.060699462890625,-0.048553466796875,-0.5511787533760071,0.0461171604692935,-0.1992254853248596,62.97854614257812,100.5397186279297,-21.98866271972656
226383,-0.12762451171875,1.0626220703125,-0.0705108642578125,-0.5463547110557556,0.0665686428546905,-0.1501263827085495,62.82521057128906,100.6647644042969,-21.91770935058594
226384,-0.12762451171875,1.0626220703125,-0.0705108642578125,-0.5463547110557556,0.0665686428546905,-0.1501263827085495,62.82521057128906,100.6647644042969,-21.91770935058594
226385,-0.080169677734375,1.035995483398438,-0.100189208984375,-0.5332902669906616,0.0488125458359718,-0.1036845818161964,62.57009887695312,100.7830047607422,-21.90235900878906
226386,-0.013671875,1.036575317382812,-0.1848907470703125,-0.4690556228160858,0.0048975530080497,-0.0214770622551441,62.33982849121094,101.0116729736328,-21.33236694335938
226387,0.011688232421875,1.060195922851562,-0.2633514404296875,-0.2574227452278137,0.0470665767788887,0.0273008625954389,62.35263061523438,100.9905700683594,-20.93696594238281
226388,0.011688232421875,1.060195922851562,-0.2633514404296875,-0.2574227452278137,0.0470665767788887,0.0273008625954389,62.35263061523438,100.9905700683594,-20.93696594238281
226389,0.0345306396484375,1.097183227539062,-0.403106689453125,-0.1514904499053955,0.0258667506277561,0.0596137940883636,62.19526672363281,100.9432983398438,-20.04637145996094
226390,0.0430145263671875,1.09869384765625,-0.4242095947265625,-0.067718856036663,-0.0245455559343099,0.0829521417617797,62.25625610351562,100.8462982177734,-19.6019287109375
226391,0.0618438720703125,1.080642700195312,-0.4126129150390625,-0.0029297433793544,-0.1067741140723228,0.0902199074625968,62.184814453125,100.8642578125,-19.64341735839844
226392,0.0618438720703125,1.080642700195312,-0.4126129150390625,-0.0029297433793544,-0.1067741140723228,0.0902199074625968,62.184814453125,100.8642578125,-19.64341735839844
226393,0.1370697021484375,0.9613494873046876,-0.34979248046875,0.1802214384078979,-0.2512490153312683,0.0867428854107856,62.29875183105469,100.9771728515625,-19.74786376953125
226394,0.1698455810546875,0.893890380859375,-0.36566162109375,0.3231317102909088,-0.2619650363922119,0.097828023135662,62.34994506835938,100.8459930419922,-19.81298828125
226395,0.19671630859375,0.8493804931640625,-0.4171905517578125,0.4920480251312256,-0.2805126309394836,0.1159814670681953,62.38641357421875,100.8362731933594,-19.95547485351562
226396,0.19671630859375,0.8493804931640625,-0.4171905517578125,0.4920480251312256,-0.2805126309394836,0.1159814670681953,62.38641357421875,100.8362731933594,-19.95547485351562
226397,0.2054443359375,0.86932373046875,-0.541351318359375,0.7458166480064392,-0.3151787221431732,0.0991412326693534,62.41085815429688,100.6690063476562,-20.40109252929688
226398,0.1807708740234375,0.9302825927734376,-0.5823211669921875,0.7728666663169861,-0.3758029341697693,0.0501944608986377,62.47785949707031,100.6492614746094,-20.6441650390625
226399,0.142425537109375,0.99560546875,-0.5869140625,0.7340340614318848,-0.4718956351280212,0.0272084511816501,62.5126953125,100.5348052978516,-21.09303283691406
226400,0.142425537109375,0.99560546875,-0.5869140625,0.7340340614318848,-0.4718956351280212,0.0272084511816501,62.5126953125,100.5348052978516,-21.09303283691406
226401,0.1107177734375,1.136077880859375,-0.5088653564453125,0.7483301758766174,-0.637569785118103,0.0928303375840187,62.49871826171875,100.1988220214844,-21.94325256347656
226402,0.1033782958984375,1.201187133789062,-0.463134765625,0.7960273623466492,-0.6752458214759827,0.1435209512710571,62.6002197265625,100.2621765136719,-22.48092651367188
226403,0.0970001220703125,1.246551513671875,-0.4087371826171875,0.8185997605323792,-0.7248386740684509,0.2051393091678619,62.58308410644531,100.2950439453125,-22.98953247070312
226404,0.0970001220703125,1.246551513671875,-0.4087371826171875,0.8185997605323792,-0.7248386740684509,0.2051393091678619,62.58308410644531,100.2950439453125,-22.98953247070312
226405,0.071380615234375,1.248458862304688,-0.2287750244140625,0.8308383226394653,-0.7314763069152832,0.3172155022621155,62.64891052246094,100.0061950683594,-23.97247314453125
226406,0.051971435546875,1.21746826171875,-0.1461334228515625,0.8439893126487732,-0.6272599101066589,0.3426148593425751,62.82997131347656,99.91319274902344,-24.39305114746094
226407,0.01312255859375,1.208480834960938,-0.080596923828125,0.8226349949836731,-0.5084328651428223,0.3179020583629608,62.86260986328125,99.91807556152344,-24.86253356933594
226408,0.01312255859375,1.208480834960938,-0.080596923828125,0.8226349949836731,-0.5084328651428223,0.3179020583629608,62.86260986328125,99.91807556152344,-24.86253356933594
226409,-0.0799713134765625,1.170059204101562,0.00360107421875,0.7436323165893555,-0.4380441904067993,0.1244740188121796,63.03912353515625,99.79306030273438,-25.88862609863281
226410,-0.1103515625,1.1844482421875,0.037384033203125,0.7106373906135559,-0.5399228930473328,0.0070371367037296,63.17779541015625,99.67738342285156,-26.37913513183594
226411,-0.133514404296875,1.2100830078125,0.06939697265625,0.621430516242981,-0.8642434477806091,-0.1655223816633224,63.24945068359375,99.52522277832033,-26.89932250976562
226412,-0.133514404296875,1.2100830078125,0.06939697265625,0.621430516242981,-0.8642434477806091,-0.1655223816633224,63.24945068359375,99.52522277832033,-26.89932250976562
226413,-0.184478759765625,1.2122802734375,0.04290771484375,0.5949051976203918,-1.093969583511353,-0.1979972422122955,63.17164611816406,99.34259033203124,-27.60516357421875
226414,-0.1954498291015625,1.184432983398438,0.02825927734375,0.6367218494415283,-1.315054059028625,-0.1434184163808823,63.048583984375,99.23023986816406,-27.93826293945312
226415,-0.1839447021484375,1.124069213867188,0.0218963623046875,0.6900713443756104,-1.245431542396545,-0.1059413477778435,62.83042907714844,99.2646484375,-28.51370239257812
226416,-0.1839447021484375,1.124069213867188,0.0218963623046875,0.6900713443756104,-1.245431542396545,-0.1059413477778435,62.83042907714844,99.2646484375,-28.51370239257812
226417,-0.1949005126953125,0.966217041015625,-0.023223876953125,0.7384868264198303,-1.182590007781982,-0.0826938152313232,62.51850891113281,99.020263671875,-29.39308166503906
226418,-0.231658935546875,0.909149169921875,-0.0008544921875,0.7194372415542603,-1.126588463783264,-0.0678733214735984,62.28111267089844,98.8981475830078,-29.94989013671875
226419,-0.277496337890625,0.8650054931640625,0.0432281494140625,0.6240271329879761,-1.027244567871094,-0.0680251196026802,62.11930847167969,98.83509826660156,-30.38665771484375
226420,-0.277496337890625,0.8650054931640625,0.0432281494140625,0.6240271329879761,-1.027244567871094,-0.0680251196026802,62.11930847167969,98.83509826660156,-30.38665771484375
226421,-0.3269195556640625,0.8386383056640625,0.1341400146484375,0.2482010126113892,-0.8143147826194763,-0.0397948175668716,61.90859985351562,98.72540283203124,-31.21302795410156
226422,-0.308624267578125,0.836029052734375,0.169921875,0.0585501305758953,-0.7433308362960815,-0.0119085907936096,61.75204467773438,98.67286682128906,-31.36508178710938
226423,-0.26324462890625,0.81353759765625,0.1916961669921875,-0.0675047412514686,-0.697786808013916,0.0426957979798317,61.70660400390625,98.64437866210938,-31.82157897949219
226424,-0.26324462890625,0.81353759765625,0.1916961669921875,-0.0675047412514686,-0.697786808013916,0.0426957979798317,61.70660400390625,98.64437866210938,-31.82157897949219
226425,-0.1432037353515625,0.7681427001953125,0.2028961181640625,-0.1858726590871811,-0.6621907353401184,0.1050491854548454,61.450927734375,98.59210205078124,-32.07989501953125
226426,-0.120697021484375,0.7398681640625,0.2181396484375,-0.2459732890129089,-0.5826948285102844,0.1096809580922127,61.43618774414062,98.625244140625,-31.97166442871094
226427,-0.137664794921875,0.7359619140625,0.2274322509765625,-0.3115030229091644,-0.4541262090206146,0.1082873269915581,61.35711669921875,98.6065673828125,-32.11346435546875
226428,-0.137664794921875,0.7359619140625,0.2274322509765625,-0.3115030229091644,-0.4541262090206146,0.1082873269915581,61.35711669921875,98.6065673828125,-32.11346435546875
226429,-0.1763458251953125,0.7989044189453125,0.1810150146484375,-0.5061960816383362,-0.2801272571086884,0.081139862537384,61.48112487792969,98.60581970214844,-31.69520568847656
226430,-0.1728515625,0.8097076416015625,0.1559600830078125,-0.6354818940162659,-0.2775040566921234,0.0602886416018009,61.5147705078125,98.60702514648438,-31.53022766113281
226431,-0.17340087890625,0.8237152099609375,0.1489105224609375,-0.7770140171051025,-0.2474244385957718,0.0431338883936405,61.49462890625,98.71150207519533,-31.36056518554688
226432,-0.17340087890625,0.8237152099609375,0.1489105224609375,-0.7770140171051025,-0.2474244385957718,0.0431338883936405,61.49462890625,98.71150207519533,-31.36056518554688
226433,-0.175201416015625,0.90576171875,0.1106719970703125,-1.017237782478333,-0.1516845971345901,0.0250789877027273,61.48654174804688,98.89387512207033,-30.83787536621094
226434,-0.1631011962890625,0.947174072265625,0.079437255859375,-1.052928686141968,-0.122832179069519,0.0137491011992096,61.56144714355469,99.08901977539062,-30.34101867675781
226435,-0.1511383056640625,0.9796905517578124,0.0346527099609375,-0.8867846727371216,-0.1619396358728409,0.0203603990375995,61.57379150390625,99.40444946289062,-29.81053161621094
226436,-0.147003173828125,1.002273559570312,0.021881103515625,-0.8867846727371216,-0.1619396358728409,0.0203603990375995,61.51133728027344,99.4770050048828,-29.22219848632812
226437,-0.1408233642578125,1.004608154296875,0.043060302734375,-0.768016517162323,-0.1252793520689011,0.0264672935009002,61.51710510253906,99.62208557128906,-28.73881530761719
226438,-0.14691162109375,1.000595092773438,0.0590057373046875,-0.6862475872039795,-0.0591613240540027,0.0091873733326792,61.56126403808594,99.6905517578125,-28.20034790039062
226439,-0.1607818603515625,0.9820404052734376,0.0662689208984375,-0.6565291285514832,0.0017193368403241,-0.0399538092315197,61.46975708007812,99.77629089355467,-27.91067504882812
226440,-0.1607818603515625,0.9820404052734376,0.0662689208984375,-0.6565291285514832,0.0017193368403241,-0.0399538092315197,61.46975708007812,99.77629089355467,-27.91067504882812
226441,-0.1835479736328125,0.9519195556640624,0.040435791015625,-0.6981956362724304,0.1135457381606102,-0.1652592569589615,61.46148681640625,99.85174560546876,-27.4410400390625
226442,-0.19183349609375,0.9979705810546876,-0.015106201171875,-0.7241837978363037,0.1425875127315521,-0.2107849419116974,61.32333374023438,100.0671691894531,-27.04734802246094
226443,-0.1935272216796875,1.071685791015625,-0.0875091552734375,-0.6361072063446045,0.0945755094289779,-0.2664678990840912,61.31813049316406,100.2051696777344,-26.69107055664062
226444,-0.1935272216796875,1.071685791015625,-0.0875091552734375,-0.6361072063446045,0.0945755094289779,-0.2664678990840912,61.31813049316406,100.2051696777344,-26.69107055664062
226445,-0.172271728515625,1.232757568359375,-0.242462158203125,-0.5076807737350464,0.0686195418238639,-0.2667526006698608,61.00048828125,100.4525299072266,-26.01333618164062
226446,-0.137542724609375,1.267227172851562,-0.283355712890625,-0.3882499933242798,0.0458939895033836,-0.251124382019043,60.8670654296875,100.4723815917969,-25.55403137207031
226447,-0.1164398193359375,1.283203125,-0.2799530029296875,-0.2921208143234253,0.0364360399544239,-0.2241374999284744,60.7020263671875,100.7128601074219,-25.31231689453125
226448,-0.1164398193359375,1.283203125,-0.2799530029296875,-0.2921208143234253,0.0364360399544239,-0.2241374999284744,60.7020263671875,100.7128601074219,-25.31231689453125
226449,-0.0529937744140625,1.219940185546875,-0.2578887939453125,-0.1637207567691803,-0.0040370859205722,-0.152855321764946,60.31927490234375,100.9089965820312,-24.983642578125
226450,-0.009918212890625,1.139678955078125,-0.2672119140625,-0.0870369002223014,-0.0163291729986667,-0.093086265027523,60.24952697753906,100.8563232421875,-24.78785705566406
226451,0.02886962890625,1.019577026367188,-0.2983856201171875,0.0051913000643253,-0.0256377197802066,-0.0208043474704027,60.152587890625,100.8931732177734,-24.64501953125
226452,0.02886962890625,1.019577026367188,-0.2983856201171875,0.0051913000643253,-0.0256377197802066,-0.0208043474704027,60.152587890625,100.8931732177734,-24.64501953125
226453,0.058837890625,0.8467559814453125,-0.3718719482421875,0.1294783651828766,-0.0130609404295682,0.1227384358644485,60.13436889648438,100.7292785644531,-24.4735107421875
226454,0.0754241943359375,0.8045196533203125,-0.4107208251953125,0.1555160880088806,-0.0152545869350433,0.1847863644361496,60.19174194335938,100.7329254150391,-24.32449340820312
226455,0.09228515625,0.8030853271484375,-0.4302825927734375,0.1696137934923172,-0.0291901100426912,0.235412523150444,60.31004333496094,100.6956939697266,-24.53804016113281
226456,0.09228515625,0.8030853271484375,-0.4302825927734375,0.1696137934923172,-0.0291901100426912,0.235412523150444,60.31004333496094,100.6956939697266,-24.53804016113281
226457,0.1036529541015625,0.8398284912109375,-0.4287261962890625,0.1872351318597794,-0.029795179143548,0.2751735150814056,60.28753662109375,100.5377044677734,-24.77313232421875
226458,0.104034423828125,0.9647369384765624,-0.38165283203125,0.2221076339483261,0.0053146043792366,0.3524877429008484,60.64093017578125,100.4443359375,-24.98368835449219
226459,0.0911407470703125,1.036102294921875,-0.35760498046875,0.323042243719101,0.080731064081192,0.4176318645477295,60.81245422363281,100.3529205322266,-25.14315795898438
226460,0.0911407470703125,1.036102294921875,-0.35760498046875,0.323042243719101,0.080731064081192,0.4176318645477295,60.81245422363281,100.3529205322266,-25.14315795898438
226461,0.077789306640625,1.095062255859375,-0.340118408203125,0.400409460067749,0.1095818877220154,0.4310909509658813,61.04515075683594,100.3054809570312,-25.47419738769531
226462,0.0532379150390625,1.145187377929688,-0.30291748046875,0.5310854315757751,0.1658187955617905,0.4393102526664734,61.51052856445312,100.2160034179688,-25.44253540039062
226463,0.04315185546875,1.141754150390625,-0.286956787109375,0.5791879892349243,0.1823679506778717,0.4316800236701965,61.67784118652344,100.1109161376953,-25.50169372558594
226464,0.04315185546875,1.141754150390625,-0.286956787109375,0.5791879892349243,0.1823679506778717,0.4316800236701965,61.67784118652344,100.1109161376953,-25.50169372558594
226465,0.038726806640625,1.13494873046875,-0.265655517578125,0.5791879892349243,0.1823679506778717,0.4316800236701965,61.88899230957031,99.97991943359376,-25.84341430664062
226466,-0.0020904541015625,1.08404541015625,-0.1663970947265625,0.5896638035774231,0.066744677722454,0.3956818282604218,62.25700378417969,99.8891143798828,-26.39743041992188
226467,-0.016632080078125,1.059463500976562,-0.102569580078125,0.4258133471012115,-0.1265811175107956,0.372174084186554,62.51622009277344,99.78689575195312,-26.72648620605469
226468,-0.016632080078125,1.059463500976562,-0.102569580078125,0.4258133471012115,-0.1265811175107956,0.372174084186554,62.51622009277344,99.78689575195312,-26.72648620605469
226469,-0.010833740234375,1.020736694335938,-0.064056396484375,0.4258133471012115,-0.1265811175107956,0.372174084186554,62.77728271484375,99.6847686767578,-26.98606872558594
226470,0.004058837890625,0.9710845947265624,-0.0816802978515625,0.3275323212146759,-0.2044386267662048,0.3894470930099487,62.96176147460938,99.5495147705078,-27.31002807617188
226471,0.0341339111328125,0.8768310546875,-0.0250091552734375,0.1858303248882294,-0.3294101357460022,0.4402104020118713,63.21820068359375,99.37648010253906,-27.5491943359375
226472,0.0341339111328125,0.8768310546875,-0.0250091552734375,0.1858303248882294,-0.3294101357460022,0.4402104020118713,63.21820068359375,99.37648010253906,-27.5491943359375
226473,0.011810302734375,0.876556396484375,0.203887939453125,0.1132679656147957,-0.0632759109139442,0.4438011348247528,63.44664001464844,99.23422241210938,-27.99415588378906
226474,0.011810302734375,0.876556396484375,0.203887939453125,0.1132679656147957,-0.0632759109139442,0.4438011348247528,63.44664001464844,99.23422241210938,-27.99415588378906
226475,-0.0665283203125,0.969024658203125,0.1849212646484375,-0.016595222055912,0.2001189738512039,0.3856827020645142,63.82951354980469,98.94921875,-28.38648986816406
226476,-0.0665283203125,0.969024658203125,0.1849212646484375,-0.016595222055912,0.2001189738512039,0.3856827020645142,63.82951354980469,98.94921875,-28.38648986816406
226477,-0.124359130859375,0.962921142578125,0.0992889404296875,-0.0440944917500019,0.2237201780080795,0.324835866689682,64.27523803710938,98.97274780273438,-28.44291687011719
226478,-0.1042633056640625,0.9747467041015624,0.040069580078125,0.0101258708164095,0.2568832039833069,0.303871750831604,64.46611022949219,98.9010009765625,-28.41116333007812
226479,-0.078826904296875,1.012481689453125,0.0075225830078125,0.0101258708164095,0.2568832039833069,0.303871750831604,64.60392761230469,98.77700805664062,-28.25761413574219
226480,-0.078826904296875,1.012481689453125,0.0075225830078125,0.0101258708164095,0.2568832039833069,0.303871750831604,64.60392761230469,98.77700805664062,-28.25761413574219
226481,-0.062164306640625,1.098800659179688,0.0541534423828125,0.062311578541994,0.3786735534667969,0.2347760200500488,65.03428649902344,98.4912109375,-27.98936462402344
226482,-0.093109130859375,1.099075317382812,0.0591278076171875,0.0627888143062591,0.3851199746131897,0.1605774313211441,65.21011352539062,98.4860382080078,-27.87191772460938
226483,-0.1145782470703125,1.100051879882812,0.0852508544921875,0.0126854348927736,0.352401465177536,0.0681542828679084,65.26947021484375,98.3917236328125,-27.83891296386719
226484,-0.120025634765625,1.092056274414062,0.1233673095703125,-0.0418611653149128,0.3280591070652008,-0.0227021165192127,65.38105773925781,98.46383666992188,-28.04071044921875
226485,-0.1196441650390625,1.068710327148438,0.1334228515625,-0.0739136412739753,0.2799983620643616,-0.0860491320490837,65.49002075195312,98.4787139892578,-28.0208740234375
226486,-0.1305999755859375,1.05035400390625,0.134490966796875,-0.0829164534807205,0.1978078931570053,-0.1222047358751297,65.60784912109375,98.44866943359376,-27.76284790039062
226487,-0.14837646484375,1.041473388671875,0.1367950439453125,-0.0921086221933364,0.1215290948748589,-0.1493101269006729,65.59263610839844,98.34268188476562,-27.74713134765625
226488,-0.14837646484375,1.041473388671875,0.1367950439453125,-0.0921086221933364,0.1215290948748589,-0.1493101269006729,65.59263610839844,98.34268188476562,-27.74713134765625
226489,-0.192718505859375,0.98748779296875,0.092071533203125,-0.1029341071844101,-0.0487385094165802,-0.1981309205293655,65.4931640625,98.3974609375,-27.94647216796875
226490,-0.2019805908203125,0.930450439453125,0.073028564453125,-0.0981641188263893,-0.1276160180568695,-0.2276318222284317,65.44378662109375,98.37802124023438,-27.92393493652344
226491,-0.201263427734375,0.8668212890625,0.053192138671875,-0.0954402387142181,-0.1536950170993805,-0.2669025361537933,65.33856201171875,98.48983764648438,-27.91748046875
226492,-0.19232177734375,0.818023681640625,0.021270751953125,-0.1148831769824028,-0.1557661592960358,-0.3119767904281616,65.17703247070312,98.59617614746094,-27.89047241210938
226493,-0.1772003173828125,0.7840728759765625,-0.0126953125,-0.1441502571105957,-0.1652922928333282,-0.358006089925766,65.07196044921875,98.75692749023438,-27.94627380371094
226494,-0.15533447265625,0.7605743408203125,-0.0320587158203125,-0.288819819688797,-0.2617866098880768,-0.4316036105155945,65.03408813476562,98.77867126464844,-27.82975769042969
226495,-0.1351776123046875,0.757843017578125,-0.0216522216796875,-0.288819819688797,-0.2617866098880768,-0.4316036105155945,64.86422729492188,98.94520568847656,-27.72930908203125
226496,-0.1351776123046875,0.757843017578125,-0.0216522216796875,-0.288819819688797,-0.2617866098880768,-0.4316036105155945,64.86422729492188,98.94520568847656,-27.72930908203125
226497,-0.126495361328125,0.77978515625,0.0494232177734375,-0.5627208948135376,-0.3434710800647736,-0.4824247062206268,64.45634460449219,99.12118530273438,-27.62362670898438
226498,-0.122283935546875,0.8099517822265625,0.060333251953125,-0.6900705695152283,-0.395221084356308,-0.4940137267112732,64.24812316894531,99.24520874023438,-27.41947937011719
226499,-0.1132659912109375,0.850982666015625,0.06591796875,-0.7921961545944214,-0.4493138790130615,-0.4837405681610107,63.95437622070312,99.35011291503906,-27.24125671386719
226500,-0.1132659912109375,0.850982666015625,0.06591796875,-0.7921961545944214,-0.4493138790130615,-0.4837405681610107,63.95437622070312,99.35011291503906,-27.24125671386719
226501,-0.11004638671875,0.98388671875,0.0708770751953125,-0.8601158261299133,-0.4701850712299347,-0.4285329878330231,63.42953491210938,99.6019287109375,-26.611083984375
226502,-0.1200103759765625,1.037857055664062,0.072906494140625,-0.8162916302680969,-0.4944523274898529,-0.3847423493862152,63.20733642578125,99.75642395019533,-26.15838623046875
226503,-0.1258697509765625,1.069442749023438,0.0795745849609375,-0.7275921106338501,-0.5324977040290833,-0.3244648873806,62.85028076171875,99.98927307128906,-25.87704467773438
226504,-0.1258697509765625,1.069442749023438,0.0795745849609375,-0.7275921106338501,-0.5324977040290833,-0.3244648873806,62.85028076171875,99.98927307128906,-25.87704467773438
226505,-0.0992584228515625,1.106338500976562,0.0667724609375,-0.5016220808029175,-0.5671135187149048,-0.2110195606946945,62.22499084472656,100.3223114013672,-25.18699645996094
226506,-0.0650634765625,1.115966796875,0.0214080810546875,-0.3843647241592407,-0.5552243590354919,-0.1778466999530792,61.99154663085938,100.4599456787109,-24.96475219726562
226507,-0.035797119140625,1.110595703125,-0.044891357421875,-0.2600875198841095,-0.5423543453216553,-0.1411523371934891,61.83203125,100.6758728027344,-24.67649841308594
226508,-0.035797119140625,1.110595703125,-0.044891357421875,-0.2600875198841095,-0.5423543453216553,-0.1411523371934891,61.83203125,100.6758728027344,-24.67649841308594
226509,-0.0081329345703125,1.07000732421875,-0.154632568359375,-0.0591623894870281,-0.5844192504882812,-0.1136884838342667,61.51646423339844,100.8479614257812,-24.45570373535156
226510,-0.001708984375,1.0465087890625,-0.177093505859375,0.0435919538140296,-0.5965017676353455,-0.1185657978057861,61.37753295898438,100.9067077636719,-24.48336791992188
226511,-0.0013885498046875,0.9943695068359376,-0.1822052001953125,0.1418857723474503,-0.5923796892166138,-0.135818287730217,61.27752685546875,100.8719329833984,-24.22767639160156
226512,-0.0013885498046875,0.9943695068359376,-0.1822052001953125,0.1418857723474503,-0.5923796892166138,-0.135818287730217,61.27752685546875,100.8719329833984,-24.22767639160156
226513,0.0052947998046875,0.8623199462890625,-0.230926513671875,0.3178261816501617,-0.5644671320915222,-0.1665860563516617,60.9588623046875,100.9359588623047,-24.47305297851562
226514,0.0074310302734375,0.8026275634765625,-0.28704833984375,0.3980384469032288,-0.5450212359428406,-0.1672875285148621,60.80776977539062,100.8988189697266,-24.77816772460938
226515,-0.003753662109375,0.7676849365234375,-0.344818115234375,0.4752733111381531,-0.5331648588180542,-0.1540361642837524,60.79762268066406,100.8296966552734,-25.04112243652344
226516,-0.003753662109375,0.7676849365234375,-0.344818115234375,0.4752733111381531,-0.5331648588180542,-0.1540361642837524,60.79762268066406,100.8296966552734,-25.04112243652344
226517,-0.03363037109375,0.8123016357421875,-0.417266845703125,0.5649933218955994,-0.4840327203273773,-0.0937898755073547,60.51023864746094,100.6573333740234,-25.34443664550781
226518,-0.0346527099609375,0.8752288818359375,-0.4515838623046875,0.6057516932487488,-0.4525957107543945,-0.0545199662446975,60.52334594726562,100.6906280517578,-25.51962280273438
226519,-0.023651123046875,0.9543914794921876,-0.464599609375,0.6513431668281555,-0.4044601321220398,-0.0029265477787703,60.45724487304688,100.6026306152344,-25.93080139160156
226520,-0.023651123046875,0.9543914794921876,-0.464599609375,0.6513431668281555,-0.4044601321220398,-0.0029265477787703,60.45724487304688,100.6026306152344,-25.93080139160156
226521,0.00823974609375,1.113510131835938,-0.3820953369140625,0.6450183987617493,-0.2578086256980896,0.0948471501469612,60.42057800292969,100.4969635009766,-26.64071655273438
226522,0.0323333740234375,1.158721923828125,-0.300323486328125,0.5800535082817078,-0.1607753038406372,0.1474011689424515,60.41323852539062,100.3709716796875,-26.93658447265625
226523,0.0618133544921875,1.249755859375,-0.1502227783203125,0.4684068858623505,0.0013472931459546,0.3116782605648041,60.6510009765625,100.2314605712891,-27.63723754882812
226524,0.0618133544921875,1.249755859375,-0.1502227783203125,0.4684068858623505,0.0013472931459546,0.3116782605648041,60.6510009765625,100.2314605712891,-27.63723754882812
226525,0.0362701416015625,1.313583374023438,-0.0789337158203125,0.4490773975849152,-0.030518228188157,0.3766705691814423,60.81425476074219,99.98757934570312,-27.80477905273438
226526,0.0010528564453125,1.388092041015625,0.002166748046875,0.4353863596916199,-0.0963246747851371,0.4024782180786133,61.02275085449219,99.84748840332033,-28.14250183105469
226527,-0.0364990234375,1.462554931640625,0.052001953125,0.4240604639053345,-0.1158629506826401,0.3611067831516266,61.13258361816406,99.62889099121094,-28.33197021484375
226528,-0.0364990234375,1.462554931640625,0.052001953125,0.4240604639053345,-0.1158629506826401,0.3611067831516266,61.13258361816406,99.62889099121094,-28.33197021484375
226529,-0.0686798095703125,1.503143310546875,-0.0086669921875,0.4881164133548737,-0.1709994375705719,0.1466104835271835,61.50657653808594,99.60589599609376,-28.70030212402344
226530,-0.0715484619140625,1.439300537109375,-0.0526580810546875,0.5950527191162109,-0.2605631351470947,0.0010090717114508,61.56845092773438,99.5547332763672,-28.88264465332031
226531,-0.08392333984375,1.325302124023438,-0.0716094970703125,0.7914363145828247,-0.5527177453041077,-0.2234349548816681,61.63604736328125,99.43923950195312,-29.061279296875
226532,-0.08392333984375,1.325302124023438,-0.0716094970703125,0.7914363145828247,-0.5527177453041077,-0.2234349548816681,61.63604736328125,99.43923950195312,-29.061279296875
226533,-0.09759521484375,1.05670166015625,-0.1156005859375,0.8157041072845459,-0.7494481205940247,-0.2513459324836731,61.59043884277344,99.3079833984375,-29.86485290527344
226534,-0.0882110595703125,0.9487457275390624,-0.127593994140625,0.7990630865097046,-0.9541658759117126,-0.2310997992753983,61.41566467285156,99.17938232421876,-30.29771423339844
226535,-0.0902557373046875,0.8756103515625,-0.129486083984375,0.7754568457603455,-1.231096267700195,-0.1207780838012695,61.19636535644531,98.96543884277344,-30.91835021972656
226536,-0.095703125,0.81634521484375,-0.1217498779296875,0.7754568457603455,-1.231096267700195,-0.1207780838012695,61.03140258789062,98.88371276855467,-31.29545593261719
226537,-0.11529541015625,0.7707366943359375,-0.116851806640625,0.7893736958503723,-1.291837096214294,-0.0803688764572143,60.83273315429688,98.79063415527344,-31.78126525878906
226538,-0.162506103515625,0.7446136474609375,-0.115936279296875,0.8134324550628662,-1.273320436477661,-0.0689452439546585,60.62855529785156,98.41081237792967,-32.18550109863281
226539,-0.2100067138671875,0.7241363525390625,-0.1056060791015625,0.8468080163002014,-1.159390449523926,-0.0806690156459808,60.396240234375,98.3558349609375,-32.73258972167969
226540,-0.2100067138671875,0.7241363525390625,-0.1056060791015625,0.8468080163002014,-1.159390449523926,-0.0806690156459808,60.396240234375,98.3558349609375,-32.73258972167969
226541,-0.2796783447265625,0.76611328125,-0.0460968017578125,0.723713755607605,-0.8393630981445312,-0.0200575981289148,60.15547180175781,97.96337890625,-33.71133422851562
226542,-0.246490478515625,0.81414794921875,0.0383453369140625,0.5558677911758423,-0.6621055006980896,0.0621427334845066,59.96757507324219,97.82235717773438,-34.22900390625
226543,-0.20263671875,0.8786163330078125,0.099853515625,0.1085560396313667,-0.4457953274250031,0.2060439735651016,59.8470458984375,97.6901397705078,-34.57684326171875
226544,-0.20263671875,0.8786163330078125,0.099853515625,0.1085560396313667,-0.4457953274250031,0.2060439735651016,59.8470458984375,97.6901397705078,-34.57684326171875
226545,-0.1708984375,1.03314208984375,0.1849365234375,-0.1298645287752151,-0.4281792938709259,0.2618771493434906,59.6314697265625,97.71253967285156,-35.13796997070312
226546,-0.2010650634765625,1.114471435546875,0.2099761962890625,-0.2966194152832031,-0.4179029762744904,0.2771871387958527,59.67320251464844,97.7003173828125,-35.25019836425781
226547,-0.2247467041015625,1.11480712890625,0.215301513671875,-0.3530145287513733,-0.3922950625419617,0.2722757160663605,59.73591613769531,97.68927001953124,-35.145263671875
226548,-0.2247467041015625,1.11480712890625,0.215301513671875,-0.3530145287513733,-0.3922950625419617,0.2722757160663605,59.73591613769531,97.68927001953124,-35.145263671875
226549,-0.165740966796875,0.982330322265625,0.2034912109375,-0.2777874171733856,-0.2472337633371353,0.2846969664096832,59.78105163574219,97.7625732421875,-34.92994689941406
226550,-0.121246337890625,0.9439239501953124,0.2001190185546875,-0.2732680141925812,-0.1950565725564957,0.3041348457336426,59.86506652832031,97.82066345214844,-34.75865173339844
226551,-0.0815887451171875,0.9300537109375,0.201324462890625,-0.3063572645187378,-0.1763414740562439,0.3206291496753693,59.90107727050781,97.8872528076172,-34.72134399414062
226552,-0.0815887451171875,0.9300537109375,0.201324462890625,-0.3063572645187378,-0.1763414740562439,0.3206291496753693,59.90107727050781,97.8872528076172,-34.72134399414062
226553,-0.023468017578125,0.916290283203125,0.1957550048828125,-0.4110306799411774,-0.2278653830289841,0.3110132813453674,60.17063903808594,97.88482666015624,-34.6505126953125
226554,-0.0133209228515625,0.9368133544921876,0.1845550537109375,-0.4846194088459015,-0.2580595016479492,0.2692354619503021,60.32383728027344,97.8046417236328,-34.47160339355469
226555,-0.023468017578125,0.9652862548828124,0.1565704345703125,-0.6424511075019836,-0.3559591770172119,0.1341791152954102,60.40412902832031,97.93855285644533,-34.4283447265625
226556,-0.0501861572265625,1.006057739257812,0.12286376953125,-0.6424511075019836,-0.3559591770172119,0.1341791152954102,60.37294006347656,97.9763641357422,-34.28358459472656
226557,-0.080474853515625,1.047775268554688,0.0677032470703125,-0.6757118701934814,-0.4118120670318604,0.060660682618618,60.38742065429688,98.044189453125,-34.01190185546875
226558,-0.1050567626953125,1.089324951171875,0.00592041015625,-0.6456053853034973,-0.451821506023407,-0.0068296766839921,60.34390258789062,98.23419189453124,-33.57907104492188
226559,-0.1190032958984375,1.109588623046875,-0.0440826416015625,-0.5479267239570618,-0.446065366268158,-0.0531194098293781,60.26856994628906,98.28314208984376,-33.34382629394531
226560,-0.1190032958984375,1.109588623046875,-0.0440826416015625,-0.5479267239570618,-0.446065366268158,-0.0531194098293781,60.26856994628906,98.28314208984376,-33.34382629394531
226561,-0.1346282958984375,1.086334228515625,-0.1008758544921875,-0.3299424946308136,-0.3678832054138184,-0.11021438986063,59.96754455566406,98.54646301269533,-32.81169128417969
226562,-0.1346282958984375,1.086334228515625,-0.1008758544921875,-0.3299424946308136,-0.3678832054138184,-0.11021438986063,59.96754455566406,98.54646301269533,-32.81169128417969
226563,-0.127899169921875,1.090286254882812,-0.1747589111328125,-0.2595831155776978,-0.3176975250244141,-0.1565984040498734,59.71722412109375,98.92839050292967,-32.67637634277344
226564,-0.127899169921875,1.090286254882812,-0.1747589111328125,-0.2595831155776978,-0.3176975250244141,-0.1565984040498734,59.71722412109375,98.92839050292967,-32.67637634277344
226565,-0.079345703125,1.095809936523438,-0.2847137451171875,-0.2046972215175629,-0.296106219291687,-0.1724045276641846,59.38084411621094,99.05381774902344,-32.46852111816406
226566,-0.0429840087890625,1.078811645507812,-0.3012237548828125,-0.1609185785055161,-0.2677725851535797,-0.144012838602066,59.26039123535156,99.09506225585938,-32.4302978515625
226567,-0.0258636474609375,1.05145263671875,-0.284759521484375,-0.1377986073493958,-0.2460137605667114,-0.1058420091867447,59.07003784179688,99.04747009277344,-32.37254333496094
226568,-0.0258636474609375,1.05145263671875,-0.284759521484375,-0.1377986073493958,-0.2460137605667114,-0.1058420091867447,59.07003784179688,99.04747009277344,-32.37254333496094
226569,-0.0256195068359375,0.9223785400390624,-0.2472991943359375,-0.0847670882940292,-0.2717465460300446,-0.0108891334384679,58.87013244628906,99.21275329589844,-32.21322631835938
226570,-0.0238189697265625,0.85638427734375,-0.2525177001953125,0.0018309232546016,-0.2442978918552399,0.0485092140734195,58.78443908691406,99.24014282226562,-32.01789855957031
226571,0.0013580322265625,0.7622528076171875,-0.3424224853515625,0.263040691614151,-0.1287694275379181,0.1915140450000763,58.7308349609375,99.10833740234376,-31.99110412597656
226572,0.0013580322265625,0.7622528076171875,-0.3424224853515625,0.263040691614151,-0.1287694275379181,0.1915140450000763,58.7308349609375,99.10833740234376,-31.99110412597656
226573,0.0319061279296875,0.762542724609375,-0.3810577392578125,0.3668538928031921,-0.0962999016046524,0.2678924202919006,58.82711791992188,99.08485412597656,-32.02940368652344
226574,0.06036376953125,0.8030548095703125,-0.3990631103515625,0.4099435806274414,-0.0764263346791267,0.3296481966972351,58.90724182128906,99.09945678710938,-32.24453735351562
226575,0.0758209228515625,0.8860931396484375,-0.392730712890625,0.3883235156536102,-0.0775459259748458,0.3590314090251923,59.10380554199219,98.88703918457033,-32.36016845703125
226576,0.0758209228515625,0.8860931396484375,-0.392730712890625,0.3883235156536102,-0.0775459259748458,0.3590314090251923,59.10380554199219,98.88703918457033,-32.36016845703125
226577,0.035186767578125,1.04595947265625,-0.3037109375,0.3518664240837097,-0.0406049489974975,0.3192930519580841,59.47203063964844,98.78530883789062,-32.52976989746094
226578,-0.0044097900390625,1.077774047851562,-0.2566986083984375,0.3518664240837097,-0.0406049489974975,0.3192930519580841,59.6666259765625,98.63606262207033,-32.68690490722656
226579,-0.035736083984375,1.084823608398438,-0.2368316650390625,0.4286741316318512,0.0420606359839439,0.320800393819809,59.89064025878906,98.58734130859376,-32.69291687011719
226580,-0.035736083984375,1.084823608398438,-0.2368316650390625,0.4286741316318512,0.0420606359839439,0.320800393819809,59.89064025878906,98.58734130859376,-32.69291687011719
226581,-0.0758819580078125,1.036849975585938,-0.2538299560546875,0.5166274309158325,0.2451359927654266,0.2859918177127838,60.1966552734375,98.26451110839844,-32.83811950683594
226582,-0.0758819580078125,1.036849975585938,-0.2538299560546875,0.5166274309158325,0.2451359927654266,0.2859918177127838,60.1966552734375,98.26451110839844,-32.83811950683594
226583,-0.082550048828125,0.9546356201171876,-0.2350311279296875,0.4654861986637115,0.1782512366771698,0.296856164932251,60.72053527832031,98.03366088867188,-33.49961853027344
226584,-0.082550048828125,0.9546356201171876,-0.2350311279296875,0.4654861986637115,0.1782512366771698,0.296856164932251,60.72053527832031,98.03366088867188,-33.49961853027344
226585,-0.04327392578125,0.8981475830078125,-0.1344451904296875,0.3090273439884186,0.0877881720662117,0.3634908497333527,61.03424072265625,97.8377685546875,-34.33665466308594
226586,-0.04327392578125,0.8981475830078125,-0.1344451904296875,0.3090273439884186,0.0877881720662117,0.3634908497333527,61.03424072265625,97.8377685546875,-34.33665466308594
226587,-0.02288818359375,0.903594970703125,-0.09747314453125,0.3090273439884186,0.0877881720662117,0.3634908497333527,61.12135314941406,97.76724243164062,-34.48519897460938
226588,-0.0081329345703125,0.9317626953125,-0.0582427978515625,0.1829133629798889,-0.0190663691610097,0.4032078981399536,61.36367797851562,97.7196044921875,-34.71699523925781
226589,0.0219268798828125,0.9542388916015624,0.08148193359375,-0.1222888976335526,-0.1260719150304794,0.4489309191703796,61.66690063476562,97.54144287109376,-34.9677734375
226590,0.0382537841796875,0.9853973388671876,0.125335693359375,-0.2567058205604553,-0.0769547000527381,0.4702604413032532,61.77969360351562,97.42912292480467,-34.91221618652344
226591,0.0499420166015625,1.028411865234375,0.1265869140625,-0.3299038708209991,-0.0405282527208328,0.4776648283004761,61.96464538574219,97.35780334472656,-34.93951416015625
226592,0.0499420166015625,1.028411865234375,0.1265869140625,-0.3299038708209991,-0.0405282527208328,0.4776648283004761,61.96464538574219,97.35780334472656,-34.93951416015625
226593,0.0814971923828125,1.097457885742188,0.090972900390625,-0.2623123228549957,-0.0772622972726821,0.4679259359836578,62.43899536132812,97.21377563476562,-34.79974365234375
226594,0.1104278564453125,1.110198974609375,0.076385498046875,-0.1121425181627274,-0.1045234799385071,0.452261745929718,62.66859436035156,97.28070068359376,-34.59423828125
226595,0.1551971435546875,1.074981689453125,0.0380401611328125,0.1234308555722237,-0.2681720554828644,0.4322859048843384,62.75323486328125,97.20588684082033,-34.53135681152344
226596,0.1551971435546875,1.074981689453125,0.0380401611328125,0.1234308555722237,-0.2681720554828644,0.4322859048843384,62.75323486328125,97.20588684082033,-34.53135681152344
226597,0.2618255615234375,0.9993438720703124,-0.0246429443359375,0.1606679707765579,-0.3993953168392181,0.4449098110198975,62.97262573242188,97.01910400390624,-34.48490905761719
226598,0.292572021484375,1.001953125,-0.0443878173828125,0.1781875789165497,-0.4683152735233307,0.4278429448604584,63.10350036621094,96.94638061523438,-34.50993347167969
226599,0.2888336181640625,1.034042358398438,-0.072113037109375,0.1935140788555145,-0.4551914930343628,0.1736703217029572,63.28147888183594,96.91999816894533,-34.78253173828125
226600,0.2888336181640625,1.034042358398438,-0.072113037109375,0.1935140788555145,-0.4551914930343628,0.1736703217029572,63.28147888183594,96.91999816894533,-34.78253173828125
226601,0.11627197265625,1.109664916992188,-0.0877685546875,0.1742144078016281,-0.4515767693519592,-0.0036498622503131,63.31907653808594,96.5881805419922,-34.99192810058594
226602,0.11627197265625,1.109664916992188,-0.0877685546875,0.1742144078016281,-0.4515767693519592,-0.0036498622503131,63.31907653808594,96.5881805419922,-34.99192810058594
226603,-0.0531463623046875,1.095474243164062,-0.06048583984375,0.0993750542402267,-0.6020222306251526,-0.3726864755153656,63.29817199707031,96.548583984375,-35.23954772949219
226604,-0.0531463623046875,1.095474243164062,-0.06048583984375,0.0993750542402267,-0.6020222306251526,-0.3726864755153656,63.29817199707031,96.548583984375,-35.23954772949219
226605,-0.16265869140625,1.011566162109375,-0.0065460205078125,0.1501735150814056,-0.5616422891616821,-0.437166154384613,63.02081298828125,96.58404541015624,-35.5115966796875
226606,-0.2096405029296875,0.9663238525390624,0.03387451171875,0.1501735150814056,-0.5616422891616821,-0.437166154384613,62.76712036132812,96.63395690917967,-35.558837890625
226607,-0.24853515625,0.9261322021484376,0.0738983154296875,0.1285790205001831,-0.5275684595108032,-0.4344356060028076,62.52278137207031,96.71180725097656,-35.7493896484375
226608,-0.278167724609375,0.89215087890625,0.1072540283203125,0.0650567635893821,-0.4954193234443665,-0.4260519742965698,62.22471618652344,96.7979736328125,-35.96121215820312
226609,-0.3059539794921875,0.86358642578125,0.131683349609375,-0.0043798345141112,-0.4414522349834442,-0.4171583354473114,61.9246826171875,96.7356414794922,-35.99522399902344
226610,-0.33099365234375,0.83026123046875,0.1332855224609375,-0.0617986507713794,-0.4010574221611023,-0.3897363245487213,61.6728515625,96.9060516357422,-36.08126831054688
226611,-0.3578033447265625,0.7958221435546875,0.130584716796875,-0.1624821126461029,-0.3282748162746429,-0.3209476470947266,61.43812561035156,96.84056091308594,-36.01646423339844
226612,-0.3578033447265625,0.7958221435546875,0.130584716796875,-0.1624821126461029,-0.3282748162746429,-0.3209476470947266,61.43812561035156,96.84056091308594,-36.01646423339844
226613,-0.4007568359375,0.7330322265625,0.1242828369140625,-0.2172862440347672,-0.2760294675827026,-0.2954854369163513,61.14930725097656,96.9877471923828,-35.93229675292969
226614,-0.4110107421875,0.724334716796875,0.1189117431640625,-0.2806330025196075,-0.2265977263450623,-0.283099353313446,60.94314575195312,97.0469207763672,-35.66134643554688
226615,-0.4046478271484375,0.7412109375,0.1122589111328125,-0.449906975030899,-0.1748852580785751,-0.2860599756240845,60.80348205566406,97.2478485107422,-35.86221313476562
226616,-0.4046478271484375,0.7412109375,0.1122589111328125,-0.449906975030899,-0.1748852580785751,-0.2860599756240845,60.80348205566406,97.2478485107422,-35.86221313476562
226617,-0.3713531494140625,0.7707977294921875,0.10980224609375,-0.449906975030899,-0.1748852580785751,-0.2860599756240845,60.57257080078125,97.41873168945312,-35.84873962402344
226618,-0.2677154541015625,0.8228302001953125,0.1244964599609375,-0.7215547561645508,-0.2652774751186371,-0.2918361127376556,60.1962890625,97.77735900878906,-35.48420715332031
226619,-0.229522705078125,0.8503875732421875,0.118011474609375,-0.908938765525818,-0.3465624749660492,-0.277348518371582,60.02836608886719,97.8917236328125,-35.28865051269531
226620,-0.229522705078125,0.8503875732421875,0.118011474609375,-0.908938765525818,-0.3465624749660492,-0.277348518371582,60.02836608886719,97.8917236328125,-35.28865051269531
226621,-0.134185791015625,0.9072265625,0.06866455078125,-0.9205352067947388,-0.3615725934505463,-0.2524181306362152,59.62763977050781,98.33160400390624,-34.72808837890625
226622,-0.134185791015625,0.9072265625,0.06866455078125,-0.9205352067947388,-0.3615725934505463,-0.2524181306362152,59.62763977050781,98.33160400390624,-34.72808837890625
226623,-0.03204345703125,1.018295288085938,-0.0021209716796875,-0.7938473224639893,-0.308725893497467,-0.1665122807025909,59.32839965820312,98.55851745605467,-33.85879516601562
226624,-0.0262908935546875,1.086898803710938,-0.0815582275390625,-0.6614333391189575,-0.291586846113205,-0.1518545150756836,59.10542297363281,98.65797424316406,-33.42672729492188
226625,-0.029266357421875,1.139205932617188,-0.1587066650390625,-0.5153355002403259,-0.3842022716999054,-0.1620368361473083,58.85260009765625,98.8554229736328,-33.04537963867188
226626,-0.02459716796875,1.172134399414062,-0.2061920166015625,-0.3916692435741425,-0.4940531253814697,-0.1980275958776474,58.66813659667969,99.01571655273438,-32.5977783203125
226627,-0.006591796875,1.192855834960938,-0.250213623046875,-0.3092784881591797,-0.6054906845092773,-0.2132699340581894,58.44358825683594,99.14788818359376,-32.29888916015625
226628,-0.006591796875,1.192855834960938,-0.250213623046875,-0.3092784881591797,-0.6054906845092773,-0.2132699340581894,58.44358825683594,99.14788818359376,-32.29888916015625
226629,0.067474365234375,1.180374145507812,-0.330169677734375,-0.1507919132709503,-0.80067378282547,-0.2039528638124466,58.03642272949219,99.3917999267578,-31.94892883300781
226630,0.1206207275390625,1.142791748046875,-0.33404541015625,0.0005896238726563,-0.8611853122711182,-0.1835389286279678,57.79690551757812,99.423583984375,-31.70979309082031
226631,0.21527099609375,1.009323120117188,-0.3807830810546875,0.3770729899406433,-0.9363437294960022,-0.1263406276702881,57.37635803222656,99.4102020263672,-31.73103332519531
226632,0.21527099609375,1.009323120117188,-0.3807830810546875,0.3770729899406433,-0.9363437294960022,-0.1263406276702881,57.37635803222656,99.4102020263672,-31.73103332519531
226633,0.2223358154296875,0.96514892578125,-0.4112091064453125,0.5496785640716553,-0.9948464632034302,-0.0824474692344665,57.16824340820312,99.41065979003906,-31.77714538574219
226634,0.2223358154296875,0.96514892578125,-0.4112091064453125,0.5496785640716553,-0.9948464632034302,-0.0824474692344665,57.16824340820312,99.41065979003906,-31.77714538574219
226635,0.102508544921875,0.987945556640625,-0.4473114013671875,0.8407914042472839,-1.00712525844574,0.0431906133890152,56.71397399902344,99.11009216308594,-32.71073913574219
226636,0.102508544921875,0.987945556640625,-0.4473114013671875,0.8407914042472839,-1.00712525844574,0.0431906133890152,56.71397399902344,99.11009216308594,-32.71073913574219
226637,0.047576904296875,1.0494384765625,-0.4428558349609375,0.8385024070739746,-0.96018648147583,0.0780274271965026,56.55561828613281,99.10116577148438,-33.06210327148438
226638,0.047576904296875,1.0494384765625,-0.4428558349609375,0.8385024070739746,-0.96018648147583,0.0780274271965026,56.55561828613281,99.10116577148438,-33.06210327148438
226639,0.0155029296875,1.1798095703125,-0.3967437744140625,0.8228318095207214,-0.7272829413414001,0.1957748234272003,56.34292602539062,98.65719604492188,-33.93708801269531
226640,0.0155029296875,1.1798095703125,-0.3967437744140625,0.8228318095207214,-0.7272829413414001,0.1957748234272003,56.34292602539062,98.65719604492188,-33.93708801269531
226641,0.00390625,1.2412109375,-0.3643035888671875,0.832947850227356,-0.6307880878448486,0.2214522361755371,56.21888732910156,98.48966979980467,-34.28860473632812
226642,0.001800537109375,1.300308227539062,-0.324310302734375,0.832947850227356,-0.6307880878448486,0.2214522361755371,56.19758605957031,98.3644561767578,-34.75285339355469
226643,0.0334625244140625,1.404922485351562,-0.24420166015625,0.840118408203125,-0.4922086298465729,0.2371249347925186,56.1822509765625,98.00662231445312,-35.46273803710938
226644,0.0334625244140625,1.404922485351562,-0.24420166015625,0.840118408203125,-0.4922086298465729,0.2371249347925186,56.1822509765625,98.00662231445312,-35.46273803710938
226645,0.0391998291015625,1.433349609375,-0.204742431640625,0.8953979015350342,-0.5681174993515015,0.2042343616485596,56.14651489257812,97.78361511230467,-35.89865112304688
226646,0.0344085693359375,1.354812622070312,-0.0640716552734375,0.9162395000457764,-0.6510193347930908,0.1783628165721893,56.30429077148438,97.29142761230467,-36.62069702148438
226647,0.019805908203125,1.274200439453125,-0.0176239013671875,0.9062260389328004,-0.7149346470832825,0.1375016719102859,56.27569580078125,97.00369262695312,-36.99594116210938
226648,0.019805908203125,1.274200439453125,-0.0176239013671875,0.9062260389328004,-0.7149346470832825,0.1375016719102859,56.27569580078125,97.00369262695312,-36.99594116210938
226649,-0.0006256103515625,1.179153442382812,-0.0245208740234375,0.9316744208335876,-0.7633514404296875,0.0918939709663391,56.27499389648438,96.88876342773438,-37.64225769042969
226650,-0.0496978759765625,1.0303955078125,-0.0744476318359375,1.007295966148376,-0.9756647944450378,0.0169009529054164,56.30381774902344,96.69367980957033,-38.66534423828125
226651,-0.0818328857421875,0.9967803955078124,-0.0921478271484375,0.96288800239563,-1.071507096290588,0.0182879269123077,56.22314453125,96.45501708984376,-39.25225830078125
226652,-0.0818328857421875,0.9967803955078124,-0.0921478271484375,0.96288800239563,-1.071507096290588,0.0182879269123077,56.22314453125,96.45501708984376,-39.25225830078125
226653,-0.14593505859375,0.96429443359375,-0.1468353271484375,0.8265016674995422,-1.316314220428467,0.0596984848380088,55.78031921386719,95.98069763183594,-40.24433898925781
226654,-0.14593505859375,0.96429443359375,-0.1468353271484375,0.8265016674995422,-1.316314220428467,0.0596984848380088,55.78031921386719,95.98069763183594,-40.24433898925781
226655,-0.167144775390625,0.8551025390625,-0.1219024658203125,0.8920052647590637,-1.204033493995667,0.0810517072677612,55.11801147460938,95.14019775390624,-41.57435607910156
226656,-0.167144775390625,0.8551025390625,-0.1219024658203125,0.8920052647590637,-1.204033493995667,0.0810517072677612,55.11801147460938,95.14019775390624,-41.57435607910156
226657,-0.176513671875,0.809722900390625,-0.1105194091796875,0.8448364734649658,-1.06348729133606,0.0805068239569664,54.97486877441406,94.8589324951172,-41.85621643066406
226658,-0.1719512939453125,0.759674072265625,-0.079620361328125,0.700244665145874,-0.9880210161209106,0.0974384024739265,54.68238830566406,94.62649536132812,-42.28579711914062
226659,-0.15478515625,0.72357177734375,-0.024017333984375,0.4960640966892242,-0.9300253987312316,0.12788125872612,54.47871398925781,94.39436340332033,-42.81947326660156
226660,-0.15478515625,0.72357177734375,-0.024017333984375,0.4960640966892242,-0.9300253987312316,0.12788125872612,54.47871398925781,94.39436340332033,-42.81947326660156
226661,-0.120147705078125,0.7202301025390625,0.127471923828125,0.0327622070908546,-0.7585710883140564,0.2009669244289398,54.05392456054688,94.09718322753906,-43.37832641601562
226662,-0.10955810546875,0.730010986328125,0.2050933837890625,-0.1902133524417877,-0.6199948191642761,0.2520564794540405,53.85728454589844,93.93447875976562,-43.61334228515625
226663,-0.10955810546875,0.730010986328125,0.2050933837890625,-0.1902133524417877,-0.6199948191642761,0.2520564794540405,53.85728454589844,93.93447875976562,-43.61334228515625
226664,-0.1075439453125,0.755645751953125,0.27471923828125,-0.3996339440345764,-0.443038135766983,0.298495888710022,53.76606750488281,93.8340301513672,-43.63743591308594
226665,-0.162017822265625,0.834197998046875,0.316131591796875,-0.6919131875038147,-0.1176440715789795,0.3117794692516327,53.71041870117188,93.90846252441406,-43.47866821289062
226666,-0.193756103515625,0.8527679443359375,0.30218505859375,-0.7619814872741699,-0.0702336803078651,0.2847020328044891,53.77947998046875,94.09202575683594,-43.41030883789062
226667,-0.207275390625,0.8644866943359375,0.29083251953125,-0.7959626317024231,-0.0672938227653503,0.2637656033039093,53.9136962890625,94.31047058105467,-43.272705078125
226668,-0.207275390625,0.8644866943359375,0.29083251953125,-0.7959626317024231,-0.0672938227653503,0.2637656033039093,53.9136962890625,94.31047058105467,-43.272705078125
226669,-0.163665771484375,0.9150238037109376,0.2671356201171875,-0.8167827129364014,-0.1561299413442612,0.2930630445480347,54.18116760253906,94.66458129882812,-42.44305419921875
226670,-0.1309814453125,0.9451904296875,0.2486419677734375,-0.8545809388160706,-0.3180962204933167,0.2470406740903854,54.24395751953125,94.8372802734375,-42.18560791015625
226671,-0.098388671875,0.9629058837890624,0.246368408203125,-0.9105928540229796,-0.5169909596443176,0.1826334595680237,54.34933471679688,95.05958557128906,-41.87190246582031
226672,-0.098388671875,0.9629058837890624,0.246368408203125,-0.9105928540229796,-0.5169909596443176,0.1826334595680237,54.34933471679688,95.05958557128906,-41.87190246582031
226673,-0.03643798828125,0.996826171875,0.2436676025390625,-1.054958820343018,-0.8220118284225464,0.0517526753246784,54.38955688476562,95.54066467285156,-41.05389404296875
226674,-0.0229644775390625,1.014175415039062,0.2338409423828125,-1.117022752761841,-0.9285596013069152,-0.0144361974671483,54.35496520996094,95.79533386230467,-40.76289367675781
226675,-0.018524169921875,1.038345336914062,0.22906494140625,-1.156254291534424,-0.9845008850097656,-0.0815955251455307,54.18846130371094,96.06233215332033,-40.28518676757812
226676,-0.018524169921875,1.038345336914062,0.22906494140625,-1.156254291534424,-0.9845008850097656,-0.0815955251455307,54.18846130371094,96.06233215332033,-40.28518676757812
226677,-0.0427703857421875,1.069351196289062,0.1716766357421875,-1.030847907066345,-0.7423356175422668,-0.251688688993454,53.40931701660156,96.6604461669922,-38.46488952636719
226678,-0.0824127197265625,1.028762817382812,0.0918731689453125,-0.8460716009140015,-0.5198730230331421,-0.3434756100177765,53.13754272460938,97.10853576660156,-37.98921203613281
226679,-0.136016845703125,0.9718170166015624,0.004608154296875,-0.6728838682174683,-0.3980062305927277,-0.4020494520664215,52.73036193847656,97.38400268554688,-37.525146484375
226680,-0.136016845703125,0.9718170166015624,0.004608154296875,-0.6728838682174683,-0.3980062305927277,-0.4020494520664215,52.73036193847656,97.38400268554688,-37.525146484375
226681,-0.1779327392578125,0.98651123046875,-0.0707550048828125,-0.4863752424716949,-0.5191696882247925,-0.4062843918800354,52.05986022949219,97.74339294433594,-36.7786865234375
226682,-0.153778076171875,1.045974731445312,-0.0967559814453125,-0.4334696829319,-0.5773677229881287,-0.3705998957157135,51.66400146484375,97.98031616210938,-36.51548767089844
226683,-0.1337432861328125,1.116256713867188,-0.1551666259765625,-0.3467909693717957,-0.5324590802192688,-0.3298854827880859,51.33468627929688,98.14739990234376,-36.50157165527344
226684,-0.1337432861328125,1.116256713867188,-0.1551666259765625,-0.3467909693717957,-0.5324590802192688,-0.3298854827880859,51.33468627929688,98.14739990234376,-36.50157165527344
226685,-0.09075927734375,1.208526611328125,-0.312469482421875,-0.1198640838265419,-0.2393516004085541,-0.22409887611866,50.70347595214844,98.36456298828124,-36.23588562011719
226686,-0.093597412109375,1.216323852539062,-0.3345794677734375,-0.0816458612680435,-0.1697882413864136,-0.1781937032938004,50.54345703125,98.31466674804688,-36.08805847167969
226687,-0.093658447265625,1.190841674804688,-0.3065032958984375,-0.0925930514931678,-0.1500086784362793,-0.1316437870264053,50.3416748046875,98.46377563476562,-36.0595703125
226688,-0.093658447265625,1.190841674804688,-0.3065032958984375,-0.0925930514931678,-0.1500086784362793,-0.1316437870264053,50.3416748046875,98.46377563476562,-36.0595703125
226689,-0.037628173828125,1.067779541015625,-0.332061767578125,0.0097551587969064,0.0028011128306388,-0.0500764846801757,50.09657287597656,98.47419738769533,-35.94871520996094
226690,-0.0057373046875,0.9885711669921876,-0.4040679931640625,0.1457774490118027,0.0695327371358871,0.0229588449001312,50.15692138671875,98.43649291992188,-35.93080139160156
226691,0.0210418701171875,0.935394287109375,-0.4674530029296875,0.2657195627689362,0.1074883788824081,0.1243051737546921,50.13687133789062,98.35934448242188,-35.85212707519531
226692,0.0210418701171875,0.935394287109375,-0.4674530029296875,0.2657195627689362,0.1074883788824081,0.1243051737546921,50.13687133789062,98.35934448242188,-35.85212707519531
226693,0.048583984375,0.9562530517578124,-0.5094757080078125,0.3564198911190033,0.1265225261449814,0.3068462312221527,50.3590087890625,98.2317352294922,-35.83598327636719
226694,0.03717041015625,1.016326904296875,-0.491607666015625,0.3495228588581085,0.1553501784801483,0.3620277047157288,50.50614929199219,98.21778869628906,-35.99404907226562
226695,0.005126953125,1.074798583984375,-0.4766387939453125,0.3509127497673035,0.209058403968811,0.4169106781482697,50.67474365234375,98.1746826171875,-36.08831787109375
226696,0.005126953125,1.074798583984375,-0.4766387939453125,0.3509127497673035,0.209058403968811,0.4169106781482697,50.67474365234375,98.1746826171875,-36.08831787109375
226697,-0.06280517578125,1.170074462890625,-0.3829498291015625,0.366335928440094,0.2859550416469574,0.4305838644504547,51.12431335449219,98.0257568359375,-36.45597839355469
226698,-0.0759124755859375,1.195175170898438,-0.314910888671875,0.366335928440094,0.2859550416469574,0.4305838644504547,51.35261535644531,97.90934753417967,-36.49983215332031
226699,-0.076507568359375,1.212753295898438,-0.23236083984375,0.3713074922561646,0.3482913970947266,0.4240775108337402,51.7266845703125,97.87754821777344,-36.69224548339844
226700,-0.076507568359375,1.212753295898438,-0.23236083984375,0.3713074922561646,0.3482913970947266,0.4240775108337402,51.7266845703125,97.87754821777344,-36.69224548339844
226701,-0.05133056640625,1.209625244140625,-0.1029052734375,0.3870486617088318,0.5085843801498413,0.4112599790096283,52.20945739746094,97.71199035644533,-37.36062622070312
226702,-0.044891357421875,1.165679931640625,-0.088531494140625,0.3820573389530182,0.5322684049606323,0.3821452260017395,52.52706909179688,97.61708068847656,-37.58653259277344
226703,-0.043243408203125,1.102020263671875,-0.0973968505859375,0.3822501599788666,0.4592868983745575,0.3585197925567627,52.7613525390625,97.57957458496094,-37.83018493652344
226704,-0.043243408203125,1.102020263671875,-0.0973968505859375,0.3822501599788666,0.4592868983745575,0.3585197925567627,52.7613525390625,97.57957458496094,-37.83018493652344
226705,0.0024261474609375,0.98065185546875,-0.052886962890625,0.337087482213974,0.1945846676826477,0.3504778444766998,53.23612976074219,97.35162353515624,-38.25556945800781
226706,0.0566558837890625,0.925811767578125,-0.00018310546875,0.2423721551895142,0.0432864874601364,0.3937315940856934,53.49215698242188,97.17869567871094,-38.476806640625
226707,0.145111083984375,0.8180694580078125,0.1181640625,0.0107072386890649,-0.3347497582435608,0.5023896098136902,53.85115051269531,96.94325256347656,-38.5848388671875
226708,0.145111083984375,0.8180694580078125,0.1181640625,0.0107072386890649,-0.3347497582435608,0.5023896098136902,53.85115051269531,96.94325256347656,-38.5848388671875
226709,0.174957275390625,0.7861785888671875,0.14300537109375,-0.0745631828904151,-0.4057831764221191,0.5711750984191895,54.17529296875,96.82485961914062,-38.5594482421875
226710,0.1997833251953125,0.7833251953125,0.12335205078125,-0.1224830374121666,-0.4463188946247101,0.6396138072013855,54.26997375488281,96.76596069335938,-38.61453247070312
226711,0.214508056640625,0.8147735595703125,0.103546142578125,-0.1279497146606445,-0.4759843945503235,0.6640805006027222,54.45095825195312,96.83206176757812,-38.7667236328125
226712,0.214508056640625,0.8147735595703125,0.103546142578125,-0.1279497146606445,-0.4759843945503235,0.6640805006027222,54.45095825195312,96.83206176757812,-38.7667236328125
226713,0.1864013671875,0.9356536865234376,0.096405029296875,0.0218845251947641,-0.4084884226322174,0.5043518543243408,54.83377075195312,96.75604248046876,-38.75495910644531
226714,0.125518798828125,0.9622650146484376,0.07781982421875,0.0218845251947641,-0.4084884226322174,0.5043518543243408,54.99722290039062,96.7232666015625,-38.78721618652344
226715,0.0582275390625,0.935760498046875,0.0549163818359375,0.0874861702322959,-0.3858544826507568,0.4253009557723999,55.23361206054688,96.65275573730467,-38.82952880859375
226716,0.0582275390625,0.935760498046875,0.0549163818359375,0.0874861702322959,-0.3858544826507568,0.4253009557723999,55.23361206054688,96.65275573730467,-38.82952880859375
226717,0.0514068603515625,0.904815673828125,0.0337371826171875,0.1495508700609207,-0.2820588648319244,0.2602808475494385,55.45263671875,96.61508178710938,-38.87303161621094
226718,0.0448455810546875,0.8628997802734375,-0.02008056640625,0.1433305293321609,-0.2071494609117508,0.1840009987354279,55.67999267578125,96.20095825195312,-38.66677856445312
226719,0.0199432373046875,0.88916015625,-0.0390472412109375,0.107901431620121,-0.1450533270835876,0.1152144744992256,55.77072143554688,96.16419982910156,-38.84599304199219
226720,0.0199432373046875,0.88916015625,-0.0390472412109375,0.107901431620121,-0.1450533270835876,0.1152144744992256,55.77072143554688,96.16419982910156,-38.84599304199219
226721,-0.0449371337890625,0.9770050048828124,-0.030548095703125,-0.0232794899493455,-0.1998278945684433,-0.0283802431076765,55.72132873535156,96.09994506835938,-39.03524780273438
226722,-0.0712738037109375,1.010482788085938,0.010345458984375,-0.0631214454770088,-0.2633831799030304,-0.0940450057387352,55.75080871582031,96.22625732421876,-39.1568603515625
226723,-0.107086181640625,1.027999877929688,0.0664520263671875,-0.0701945349574089,-0.3213047981262207,-0.1532191187143326,55.69842529296875,96.20240783691406,-39.03428649902344
