time_idx,accelerometerAccelerationX(G),accelerometerAccelerationY(G),accelerometerAccelerationZ(G),gyroRotationX(rad/s),gyroRotationY(rad/s),gyroRotationZ(rad/s),magnetometerX(µT),magnetometerY(µT),magnetometerZ(µT)
59989,-0.0640716552734375,1.526092529296875,-0.67230224609375,0.4225128889083862,0.3836275637149811,0.2294973731040955,53.14437866210938,92.58116149902344,-33.99273681640625
59990,0.0017547607421875,1.578262329101562,-0.7365875244140625,0.7186329960823059,0.4616467356681824,0.3940591514110565,53.32476806640625,92.3810577392578,-34.068115234375
59991,0.0017547607421875,1.578262329101562,-0.7365875244140625,0.7186329960823059,0.4616467356681824,0.3940591514110565,53.32476806640625,92.3810577392578,-34.068115234375
59992,0.0110015869140625,1.592239379882812,-0.7425384521484375,0.774369478225708,0.4420442581176758,0.3993852138519287,53.63014221191406,92.31246948242188,-34.31706237792969
59993,-0.05535888671875,1.548614501953125,-0.7412872314453125,0.8292449712753296,0.5137285590171814,0.4117595851421356,53.90731811523438,92.0430145263672,-34.49221801757812
59994,-0.1392364501953125,1.472885131835938,-0.696746826171875,0.8958032131195068,0.6633548140525818,0.4529501795768738,54.18557739257812,91.86833190917967,-34.80560302734375
59995,-0.2007598876953125,1.255279541015625,-0.5273590087890625,0.8501547574996948,0.9392420649528505,0.4765242040157318,54.83866882324219,91.7039031982422,-35.80712890625
59996,-0.2007598876953125,1.255279541015625,-0.5273590087890625,0.8501547574996948,0.9392420649528505,0.4765242040157318,54.83866882324219,91.7039031982422,-35.80712890625
59997,-0.2307891845703125,1.202545166015625,-0.4557037353515625,0.724993109703064,0.9382436275482178,0.4499783515930176,55.21478271484375,91.5098876953125,-36.09811401367188
59998,-0.229827880859375,1.143264770507812,-0.3938751220703125,0.5520764589309692,0.8515867590904236,0.4211621582508087,55.64765930175781,91.42604064941406,-36.49249267578125
59999,-0.2259063720703125,1.0848388671875,-0.330718994140625,0.326179176568985,0.6458753943443298,0.4237304925918579,56.10845947265625,91.26213073730467,-36.8131103515625
60000,-0.23828125,1.085861206054688,-0.26116943359375,0.0909293740987777,0.3712396025657654,0.4758307039737701,56.40254211425781,91.09585571289062,-37.13145446777344
60001,-0.2609405517578125,1.13385009765625,-0.1845855712890625,-0.0486796535551548,0.057400707155466,0.5946955680847168,56.81138610839844,91.14817810058594,-37.37506103515625
60002,-0.25164794921875,1.176589965820312,-0.0574493408203125,-0.0316631197929382,-0.1559270173311234,0.6881288886070251,57.22879028320312,91.19856262207033,-37.42481994628906
60003,-0.1882171630859375,1.142440795898438,0.103240966796875,0.5556049346923828,-0.3619435727596283,0.791408896446228,58.02130126953125,91.25495910644533,-37.16954040527344
60004,-0.1882171630859375,1.142440795898438,0.103240966796875,0.5556049346923828,-0.3619435727596283,0.791408896446228,58.02130126953125,91.25495910644533,-37.16954040527344
60005,-0.2045440673828125,1.070205688476562,0.195526123046875,0.9716500639915466,-0.3646171092987061,0.8267229795455933,58.39007568359375,91.2694091796875,-37.35649108886719
60006,-0.2001190185546875,0.9761505126953124,0.2659454345703125,1.271106839179993,-0.2524269223213196,0.8234667181968689,58.74195861816406,91.1913604736328,-37.65101623535156
60007,-0.1694183349609375,0.7927398681640625,0.36822509765625,1.390288352966309,0.0583631731569767,0.7790939211845398,59.38861083984375,90.71800231933594,-38.80072021484375
60008,-0.1694183349609375,0.7927398681640625,0.36822509765625,1.390288352966309,0.0583631731569767,0.7790939211845398,59.38861083984375,90.71800231933594,-38.80072021484375
60009,-0.140655517578125,0.6844024658203125,0.4106903076171875,1.239186644554138,0.2834402322769165,0.7385385036468506,59.78257751464844,90.33340454101562,-39.22760009765625
60010,-0.1096649169921875,0.597625732421875,0.40179443359375,1.007722020149231,0.4909694492816925,0.6685855388641357,60.17642211914062,89.97514343261719,-39.76258850097656
60011,-0.0852508544921875,0.521026611328125,0.372955322265625,0.7695715427398682,0.6053231954574585,0.6408116817474365,60.60879516601562,89.707275390625,-40.33729553222656
60012,-0.0683135986328125,0.4775848388671875,0.3571014404296875,0.5571234226226807,0.6629747748374939,0.6236752867698669,61.12763977050781,89.359619140625,-40.71014404296875
60013,-0.0472259521484375,0.4463348388671875,0.3286895751953125,0.3870640993118286,0.6460660696029663,0.6192299723625183,61.66307067871094,89.02876281738281,-40.90589904785156
60014,-0.034515380859375,0.433868408203125,0.2744293212890625,0.2280874997377396,0.524146556854248,0.568967878818512,62.13685607910156,88.72824096679688,-40.99180603027344
60015,-0.0408782958984375,0.4454193115234375,0.2197265625,0.0869724452495575,0.3333872854709625,0.4922706782817841,62.60647583007812,88.48448181152344,-41.09562683105469
60016,-0.07635498046875,0.479217529296875,0.1564483642578125,-0.0538491159677505,0.0949888303875923,0.4162541925907135,62.98687744140625,88.38526916503906,-41.14302062988281
60017,-0.1420440673828125,0.6204681396484375,0.104827880859375,-0.198112815618515,-0.1654707193374634,0.280046820640564,63.28434753417969,88.30023193359375,-41.06935119628906
60018,-0.1991424560546875,0.741668701171875,0.0942840576171875,-0.3678275644779205,-0.3649713099002838,0.1331143826246262,63.47373962402344,88.24183654785156,-41.13796997070312
60019,-0.2473297119140625,0.81903076171875,0.1099700927734375,-0.5239918828010559,-0.396007776260376,0.0070536485873162,63.50575256347656,88.19612121582031,-41.02833557128906
60020,-0.2802276611328125,0.876678466796875,0.127105712890625,-0.6244329810142517,-0.2514607310295105,-0.1060473397374153,63.47360229492188,88.20120239257812,-40.99580383300781
60021,-0.2831573486328125,0.913238525390625,0.1448822021484375,-0.6311390995979309,-0.0412864536046981,-0.214064359664917,63.27726745605469,88.30671691894531,-40.88006591796875
60022,-0.2649993896484375,0.93048095703125,0.1807403564453125,-0.5504016280174255,0.1480650901794434,-0.3027742505073547,63.07742309570312,88.38232421875,-40.62548828125
60023,-0.2374420166015625,0.9051666259765624,0.2379150390625,-0.4687674939632416,0.3220427632331848,-0.3554864525794983,63.02577209472656,88.53303527832031,-40.39570617675781
60024,-0.210662841796875,0.8731689453125,0.281707763671875,-0.467132031917572,0.4695163667201996,-0.369210809469223,62.90541076660156,88.73065185546875,-40.20977783203125
60025,-0.200897216796875,0.8518524169921875,0.3063812255859375,-0.5399433970451355,0.5461466908454895,-0.3817369639873505,62.694091796875,88.92127990722656,-39.95497131347656
60026,-0.2147979736328125,0.8531341552734375,0.3072509765625,-0.638086199760437,0.5471264719963074,-0.3953239023685455,62.62773132324219,89.13973999023438,-39.68814086914062
60027,-0.23529052734375,0.8423309326171875,0.290283203125,-0.7160353064537048,0.4288581609725952,-0.4244783222675323,62.52554321289062,89.28103637695312,-39.42146301269531
60028,-0.2541961669921875,0.8192138671875,0.2820281982421875,-0.7758331298828125,0.2710874378681183,-0.4529173970222473,62.5255126953125,89.47967529296875,-39.23542785644531
60029,-0.2598876953125,0.7847442626953125,0.267791748046875,-0.827429473400116,0.1698305755853653,-0.4752632081508636,62.4267578125,89.72705078125,-38.94029235839844
60030,-0.251739501953125,0.7558441162109375,0.223236083984375,-0.8735506534576416,0.14659184217453,-0.4989307224750519,62.28787231445312,89.93455505371094,-38.56260681152344
60031,-0.24359130859375,0.7357940673828125,0.165191650390625,-0.8912228345870972,0.1707616150379181,-0.5249095559120178,62.15156555175781,90.05636596679688,-38.24992370605469
60032,-0.2318572998046875,0.7256927490234375,0.1083984375,-0.9122304320335388,0.2161842286586761,-0.5476689338684082,61.9783935546875,90.25006103515624,-37.77508544921875
60033,-0.2253265380859375,0.7247161865234375,0.0535888671875,-0.9349410533905028,0.1903374493122101,-0.5765035152435303,61.71435546875,90.42170715332033,-37.36912536621094
60034,-0.2146759033203125,0.7353668212890625,0.0095977783203125,-0.965649425983429,0.0687686800956726,-0.6041151881217957,61.47886657714844,90.65834045410156,-36.83807373046875
60035,-0.1551513671875,0.835784912109375,-0.0549163818359375,-1.070970773696899,-0.3982725441455841,-0.6497932076454163,60.92697143554688,91.18197631835938,-35.85987854003906
60036,-0.1551513671875,0.835784912109375,-0.0549163818359375,-1.070970773696899,-0.3982725441455841,-0.6497932076454163,60.92697143554688,91.18197631835938,-35.85987854003906
60037,-0.1297760009765625,0.8827972412109375,-0.0709075927734375,-1.123354315757751,-0.5577189326286316,-0.6579360961914062,60.52445983886719,91.36282348632812,-35.60951232910156
60038,-0.0869140625,0.9357452392578124,-0.049163818359375,-1.194178462028503,-0.6297606229782104,-0.5737239718437195,60.07223510742188,91.5151824951172,-35.18966674804688
60039,-0.0406951904296875,1.017044067382812,0.0095367431640625,-1.272699952125549,-0.5688408017158508,-0.476844310760498,59.60357666015625,91.49089050292967,-34.73768615722656
60040,-0.0123748779296875,1.10845947265625,0.0208740234375,-1.335466623306274,-0.4392761588096619,-0.4383664429187775,59.15805053710938,91.66905212402344,-34.25929260253906
60041,-0.010528564453125,1.24493408203125,-0.0419158935546875,-1.316235423088074,-0.356587678194046,-0.4544647037982941,58.75758361816406,91.95822143554688,-33.72756958007812
60042,0.003631591796875,1.370986938476562,-0.14208984375,-1.155673980712891,-0.3514879941940308,-0.5020737648010254,58.34770202636719,92.2722625732422,-33.07723999023438
60043,0.022705078125,1.44561767578125,-0.2262420654296875,-0.8974592089653015,-0.3992555141448975,-0.5216855406761169,58.07049560546875,92.54661560058594,-32.50315856933594
60044,0.020721435546875,1.520126342773438,-0.292388916015625,-0.5742955207824707,-0.4378617703914642,-0.4962417185306549,57.64334106445312,92.8114776611328,-31.88505554199219
60045,0.0276947021484375,1.58221435546875,-0.388458251953125,-0.188640221953392,-0.4507594406604767,-0.396669864654541,57.3575439453125,92.94480895996094,-31.40159606933594
60046,0.04461669921875,1.592254638671875,-0.496978759765625,0.2762227952480316,-0.3948133587837219,-0.2596792578697205,56.92964172363281,92.97378540039062,-31.20196533203125
60047,0.07568359375,1.5472412109375,-0.620452880859375,0.7274667024612427,-0.3080326616764069,-0.0793195888400077,56.60736083984375,92.96003723144533,-30.94963073730469
60048,0.1077728271484375,1.505096435546875,-0.7396240234375,1.073129296302795,-0.2305535823106766,0.1013388708233833,56.37100219726562,92.89877319335938,-30.98033142089844
60049,0.148193359375,1.466232299804688,-0.7816314697265625,1.248185753822327,-0.184119775891304,0.2683350443840027,56.2716064453125,92.81423950195312,-31.17388916015625
60050,0.1655120849609375,1.420394897460938,-0.7415771484375,1.238608241081238,-0.0980599895119667,0.3618578016757965,56.204345703125,92.60845947265624,-31.59095764160156
60051,0.163330078125,1.368637084960938,-0.67779541015625,1.127962708473206,-0.0252592843025922,0.4053618907928467,56.24742126464844,92.29806518554688,-32.1827392578125
60052,0.1561737060546875,1.323883056640625,-0.6116943359375,1.014794826507568,0.0378323346376419,0.4450834691524506,56.41314697265625,92.20564270019533,-32.7822265625
60053,0.1439208984375,1.286712646484375,-0.54632568359375,0.9401081204414368,0.1366641074419022,0.4672302901744843,56.61566162109375,92.03337097167967,-33.32325744628906
60054,0.11614990234375,1.297515869140625,-0.4625091552734375,0.8729645013809204,0.237020269036293,0.4496270716190338,56.88986206054688,91.84243774414062,-33.8651123046875
60055,0.0748138427734375,1.32635498046875,-0.357940673828125,0.7515496611595154,0.3225975036621094,0.3933033645153046,57.2091064453125,91.78494262695312,-34.51301574707031
60056,0.0307769775390625,1.36346435546875,-0.226715087890625,0.6150221824645996,0.3394278585910797,0.2665605843067169,57.58833312988281,91.67758178710938,-35.00022888183594
60057,-0.0196380615234375,1.413681030273438,-0.0991058349609375,0.4854945242404938,0.2973640263080597,0.0714728534221649,57.83866882324219,91.49508666992188,-35.53266906738281
60058,-0.086334228515625,1.461746215820312,-0.007659912109375,0.4274301528930664,0.1567976027727127,-0.1226018145680428,58.0782470703125,91.34742736816406,-35.90737915039062
60059,-0.2333526611328125,1.554763793945312,0.1340484619140625,0.5374067425727844,-0.1329993307590485,-0.3048525750637054,58.52784729003906,91.48062133789062,-36.49006652832031
60060,-0.2333526611328125,1.554763793945312,0.1340484619140625,0.5374067425727844,-0.1329993307590485,-0.3048525750637054,58.52784729003906,91.48062133789062,-36.49006652832031
60061,-0.26605224609375,1.55804443359375,0.154510498046875,0.7102221846580505,-0.1534015387296677,-0.2615514397621155,58.53327941894531,91.37193298339844,-36.77362060546875
60062,-0.252716064453125,1.495254516601562,0.0769805908203125,0.8323712348937988,-0.1930173933506012,-0.1247736215591431,58.5599365234375,91.4177703857422,-37.06918334960938
60063,-0.2206878662109375,1.418426513671875,-0.00079345703125,0.9324371218681335,-0.2798111438751221,0.0251026898622512,58.49064636230469,91.42698669433594,-37.47763061523438
60064,-0.2141571044921875,1.30023193359375,-0.08514404296875,1.064801096916199,-0.5493563413619995,0.11594258248806,58.45881652832031,91.2044677734375,-37.82009887695312
60065,-0.2957763671875,1.11151123046875,-0.072357177734375,1.224388837814331,-0.9467809200286864,0.2378722131252289,58.58601379394531,91.1577606201172,-38.22200012207031
60066,-0.363189697265625,0.9488525390625,0.0478057861328125,1.375139474868774,-1.229189395904541,0.3957270979881287,58.57218933105469,91.05690002441406,-38.58163452148438
60067,-0.383392333984375,0.817657470703125,0.17193603515625,1.495514392852783,-1.300430655479431,0.4257201552391052,58.63841247558594,90.82371520996094,-38.67259216308594
60068,-0.367889404296875,0.690155029296875,0.24664306640625,1.551070809364319,-1.223319530487061,0.4012947082519531,58.75245666503906,90.658935546875,-39.19845581054688
60069,-0.338043212890625,0.5882720947265625,0.26629638671875,1.531890153884888,-1.077171683311462,0.3421725332736969,58.79393005371094,90.4716339111328,-39.91078186035156
60070,-0.3111419677734375,0.5034027099609375,0.2856903076171875,1.424492120742798,-0.8436143398284912,0.2331661432981491,58.79411315917969,90.27105712890624,-40.63442993164062
60071,-0.29168701171875,0.4279937744140625,0.2846527099609375,1.283330678939819,-0.563514232635498,0.1066279113292694,58.8255615234375,89.88067626953125,-41.36798095703125
60072,-0.2786865234375,0.3639373779296875,0.284332275390625,1.128595471382141,-0.2816375494003296,-0.0221290048211813,58.83879089355469,89.49623107910156,-41.99041748046875
60073,-0.28021240234375,0.31219482421875,0.2743377685546875,0.9639524817466736,-0.0521212592720985,-0.1201085671782494,58.92778015136719,89.21293640136719,-42.73527526855469
60074,-0.2804107666015625,0.284332275390625,0.2535858154296875,0.779897928237915,0.1035407707095146,-0.1718338131904602,58.91278076171875,88.87022399902344,-43.18624877929688
60075,-0.2649688720703125,0.28594970703125,0.2152099609375,0.5573055744171143,0.1907941848039627,-0.2074147015810013,58.88027954101562,88.61521911621094,-43.66926574707031
60076,-0.2164306640625,0.316070556640625,0.1542205810546875,0.2870762348175049,0.1767968833446503,-0.1850212514400482,58.91554260253906,88.40896606445312,-44.17898559570312
60077,-0.1441192626953125,0.3956146240234375,0.1022186279296875,-0.0091096088290214,0.0809260085225105,-0.1000195443630219,58.80068969726562,88.20918273925781,-44.37101745605469
60078,-0.107421875,0.4882354736328125,0.101531982421875,-0.2464028596878052,-0.0186621006578207,-0.0214038249105215,58.74710083007812,88.17715454101562,-44.66612243652344
60079,-0.112579345703125,0.5682830810546875,0.1612701416015625,-0.3858249187469482,-0.0209132712334394,0.0449419096112251,58.76567077636719,88.04341125488281,-44.60646057128906
60080,-0.15240478515625,0.6811370849609375,0.2492828369140625,-0.471165657043457,0.0997875779867172,0.0586582534015178,58.62725830078125,88.07417297363281,-44.47012329101562
60081,-0.20135498046875,0.8133544921875,0.3246612548828125,-0.568304181098938,0.2820923924446106,0.0264281444251537,58.60137939453125,88.07568359375,-44.46931457519531
60082,-0.2608184814453125,0.9055938720703124,0.37646484375,-0.7146270275115967,0.3959422707557678,-0.0594279058277607,58.61888122558594,88.00129699707031,-44.30912780761719
60083,-0.3101043701171875,0.94989013671875,0.4210357666015625,-0.8837830424308777,0.4006464779376984,-0.12882961332798,58.68711853027344,88.39292907714844,-43.8555908203125
60084,-0.3190155029296875,0.9730072021484376,0.4703521728515625,-1.058665156364441,0.3338988721370697,-0.165459007024765,58.68711853027344,88.39292907714844,-43.8555908203125
60085,-0.3035125732421875,0.995941162109375,0.48968505859375,-1.225403547286987,0.2228669077157974,-0.189836785197258,58.69302368164062,88.657958984375,-43.61627197265625
60086,-0.2590789794921875,1.00445556640625,0.4637908935546875,-1.46693754196167,-0.1104655265808105,-0.2394559979438782,58.69294738769531,89.18861389160156,-42.68141174316406
60087,-0.2590789794921875,1.00445556640625,0.4637908935546875,-1.46693754196167,-0.1104655265808105,-0.2394559979438782,58.69294738769531,89.18861389160156,-42.68141174316406
60088,-0.24853515625,1.01214599609375,0.4451141357421875,-1.517874479293823,-0.2338130176067352,-0.3061529994010925,58.56919860839844,89.39016723632812,-42.07421875
60089,-0.24029541015625,1.00836181640625,0.4106903076171875,-1.53203272819519,-0.2279287725687027,-0.3851969540119171,58.42721557617188,89.74885559082031,-41.57366943359375
60090,-0.25732421875,0.9992218017578124,0.30633544921875,-1.523397088050842,-0.0643560886383056,-0.4359869062900543,57.93016052246094,90.32687377929688,-40.13101196289062
60091,-0.281951904296875,0.9698638916015624,0.1693115234375,-1.465373277664185,0.109663113951683,-0.4673320353031158,57.69004821777344,90.68180847167967,-39.50486755371094
60092,-0.28973388671875,0.902374267578125,0.0662078857421875,-1.359792232513428,0.2330644130706787,-0.4654161632061005,57.50405883789062,90.8306121826172,-38.90708923339844
60093,-0.2739410400390625,0.8409271240234375,0.00555419921875,-1.230500817298889,0.2976559102535248,-0.442960113286972,57.17671203613281,91.08432006835938,-38.22062683105469
60094,-0.2513275146484375,0.8169403076171875,-0.0424041748046875,-1.149546504020691,0.257254958152771,-0.4405992329120636,56.9925537109375,91.2928466796875,-37.50358581542969
60095,-0.2289886474609375,0.8171234130859375,-0.079193115234375,-1.16438090801239,0.1946491152048111,-0.4502494633197784,56.86564636230469,91.5302276611328,-36.78981018066406
60096,-0.1917877197265625,0.879608154296875,-0.1443634033203125,-1.212597131729126,0.1388516277074814,-0.475656270980835,56.5224609375,91.76092529296876,-36.24429321289062
60097,-0.152191162109375,0.98321533203125,-0.2353515625,-1.205050349235535,0.0596486814320087,-0.5146380066871643,56.26376342773438,91.9345245361328,-35.68269348144531
60098,-0.121612548828125,1.074676513671875,-0.2812652587890625,-1.126805782318115,0.0028354676906019,-0.5443751811981201,55.83653259277344,92.0373077392578,-34.91488647460938
60099,-0.1055145263671875,1.224746704101562,-0.298553466796875,-0.910581350326538,0.1582442373037338,-0.5044170618057251,55.14607238769531,92.21052551269533,-33.62242126464844
60100,-0.1055145263671875,1.224746704101562,-0.298553466796875,-0.910581350326538,0.1582442373037338,-0.5044170618057251,55.14607238769531,92.21052551269533,-33.62242126464844
60101,-0.116424560546875,1.312530517578125,-0.339385986328125,-0.8111562728881836,0.1616019457578659,-0.4183977842330933,54.81497192382812,92.44558715820312,-33.24552917480469
60102,-0.129730224609375,1.395843505859375,-0.38568115234375,-0.6890495419502258,0.1422556787729263,-0.3224230408668518,54.52371215820312,92.46514892578124,-32.80364990234375
60103,-0.1017303466796875,1.430526733398438,-0.449310302734375,-0.4931098520755768,0.0881149470806121,-0.1601462662220001,54.31230163574219,92.5510711669922,-32.41558837890625
60104,-0.064117431640625,1.46417236328125,-0.4900360107421875,-0.2095020860433578,0.1286852806806564,0.0162402223795652,54.13804626464844,92.59133911132812,-32.01907348632812
60105,-0.00555419921875,1.477813720703125,-0.525726318359375,0.1210167035460472,0.2702900767326355,0.2129911035299301,54.02418518066406,92.64683532714844,-31.67091369628906
60106,0.0377044677734375,1.522048950195312,-0.5604705810546875,0.4308017194271088,0.466726154088974,0.3769273161888123,54.078857421875,92.58868408203124,-31.51957702636719
60107,0.0484771728515625,1.621261596679688,-0.5872955322265625,0.6923608779907227,0.6287222504615784,0.4891092479228973,54.34487915039062,92.56199645996094,-31.75021362304688
60108,0.0484771728515625,1.621261596679688,-0.5872955322265625,0.6923608779907227,0.6287222504615784,0.4891092479228973,54.34487915039062,92.56199645996094,-31.75021362304688
60109,-0.0254364013671875,1.6160888671875,-0.551055908203125,0.7083755731582642,0.6154501438140869,0.4771985113620758,54.60614013671875,92.6282196044922,-32.10269165039062
60110,-0.1309967041015625,1.541275024414062,-0.49517822265625,0.816741943359375,0.7091406583786011,0.5010348558425903,54.93806457519531,92.48301696777344,-32.35899353027344
60111,-0.1719818115234375,1.437042236328125,-0.4549560546875,0.9737694263458252,0.8898686170578003,0.5223966240882874,55.28498840332031,92.25881958007812,-32.70021057128906
60112,-0.1696014404296875,1.330596923828125,-0.4154205322265625,1.065729141235352,1.039044499397278,0.5286611914634705,55.76849365234375,92.13995361328124,-33.10552978515625
60113,-0.166046142578125,1.239151000976562,-0.378082275390625,1.048348546028137,1.092596173286438,0.514575719833374,56.2025146484375,91.9450225830078,-33.43356323242188
60114,-0.15618896484375,1.149856567382812,-0.3402862548828125,0.9431249499320984,1.026776194572449,0.4737209677696228,56.57879638671875,91.73306274414062,-33.90565490722656
60115,-0.157379150390625,0.9803924560546876,-0.2285308837890625,0.5954910516738892,0.5178788304328918,0.4388612508773804,57.466064453125,91.23501586914062,-34.84071350097656
60116,-0.157379150390625,0.9803924560546876,-0.2285308837890625,0.5954910516738892,0.5178788304328918,0.4388612508773804,57.466064453125,91.23501586914062,-34.84071350097656
60117,-0.1837615966796875,0.99041748046875,-0.1914215087890625,0.4808036386966705,0.1606322824954987,0.5240914821624756,57.82846069335938,91.14430236816406,-35.38558959960938
60118,-0.18804931640625,1.051513671875,-0.128997802734375,0.4246863126754761,-0.1555882543325424,0.6353034377098083,58.18681335449219,90.96734619140624,-35.62232971191406
60119,-0.17169189453125,1.109542846679688,-0.0516510009765625,0.3765068054199219,-0.3198701441287994,0.6799047589302063,58.46157836914062,90.9664306640625,-36.05427551269531
60120,-0.1686859130859375,1.157379150390625,0.0226287841796875,0.3614671230316162,-0.394881010055542,0.7389776706695557,58.80003356933594,90.91340637207033,-36.32107543945312
60121,-0.1544647216796875,1.171096801757812,0.1024627685546875,0.4206846356391907,-0.3450916111469269,0.8070549964904785,59.245361328125,90.75914001464844,-36.41549682617188
60122,-0.130767822265625,1.141204833984375,0.159820556640625,0.6029564738273621,-0.257398784160614,0.8072163462638855,59.67379760742188,90.69004821777344,-36.43994140625
60123,-0.1136016845703125,1.079849243164062,0.2478485107421875,0.888763964176178,-0.1630507111549377,0.754570484161377,59.9908447265625,90.8521728515625,-36.72109985351562
60124,-0.1056365966796875,0.9830474853515624,0.3413543701171875,1.175623178482056,0.0464820154011249,0.64742112159729,60.39468383789062,90.67816162109376,-36.98715209960938
60125,-0.111907958984375,0.8192596435546875,0.3602294921875,1.314020156860352,0.2181922495365143,0.604306161403656,60.76939392089844,90.5039520263672,-37.24612426757812
60126,-0.110809326171875,0.6881561279296875,0.3509674072265625,1.280074954032898,0.2845520973205566,0.6393914222717285,61.28817749023438,90.2813720703125,-37.56382751464844
60127,-0.091217041015625,0.6043548583984375,0.351715087890625,1.112473964691162,0.2520034909248352,0.6427227854728699,61.75450134277344,89.99038696289062,-38.0340576171875
60128,-0.081207275390625,0.540130615234375,0.370758056640625,0.8534315228462219,0.2168044745922089,0.6206973791122437,62.15202331542969,89.58961486816406,-38.30711364746094
60129,-0.0633392333984375,0.5184783935546875,0.3696746826171875,0.5592920780181885,0.1840643733739853,0.5931858420372009,62.67254638671875,89.17752075195312,-38.64006042480469
60130,-0.0329742431640625,0.5060577392578125,0.345977783203125,0.3287083804607391,0.1047988533973694,0.5566999912261963,63.10917663574219,88.90129089355469,-38.84039306640625
60131,0.03338623046875,0.4585418701171875,0.24493408203125,0.0486445017158985,-0.1432367861270905,0.5117202997207642,63.83177185058594,88.386962890625,-39.04225158691406
60132,0.03338623046875,0.4585418701171875,0.24493408203125,0.0486445017158985,-0.1432367861270905,0.5117202997207642,63.83177185058594,88.386962890625,-39.04225158691406
60133,0.02960205078125,0.5338134765625,0.1834869384765625,-0.0722430348396301,-0.2721172571182251,0.4464347362518311,64.02703857421875,88.20278930664062,-39.16937255859375
60134,-0.153350830078125,0.7320404052734375,0.1735382080078125,-0.444640576839447,-0.3161348104476929,0.2375105619430542,64.35549926757812,87.91433715820312,-39.06463623046875
60135,-0.153350830078125,0.7320404052734375,0.1735382080078125,-0.444640576839447,-0.3161348104476929,0.2375105619430542,64.35549926757812,87.91433715820312,-39.06463623046875
60136,-0.2376861572265625,0.82293701171875,0.1661529541015625,-0.5830274820327759,-0.3618026673793793,0.0759091451764106,64.31546020507812,87.93025207519531,-39.26828002929688
60137,-0.2934112548828125,0.886932373046875,0.1949005126953125,-0.6392571926116943,-0.3844856321811676,-0.1402306109666824,64.21690368652344,88.04908752441406,-39.42189025878906
60138,-0.3332366943359375,0.8962554931640625,0.2187652587890625,-0.6377725005149841,-0.3635425269603729,-0.3562316298484802,64.15011596679688,88.19529724121094,-39.26190185546875
60139,-0.3542022705078125,0.858245849609375,0.253692626953125,-0.5856826305389404,-0.2961041033267975,-0.4865555465221405,63.80976867675781,88.41278076171875,-39.19728088378906
60140,-0.3683013916015625,0.845672607421875,0.2706451416015625,-0.5129634141921997,-0.1783369779586792,-0.533484160900116,63.50265502929688,88.68885803222656,-39.13600158691406
60141,-0.3817596435546875,0.8917388916015625,0.2377166748046875,-0.4909252524375916,-0.0872819051146507,-0.5197600722312927,63.17762756347656,88.87734985351562,-38.978271484375
60142,-0.382598876953125,0.950714111328125,0.1808929443359375,-0.5441762208938599,-0.0829803720116615,-0.497732549905777,62.88214111328125,89.19351196289062,-38.76515197753906
60143,-0.363311767578125,1.011688232421875,0.1674041748046875,-0.6258761286735535,-0.089889146387577,-0.4909446835517883,62.60147094726562,89.35275268554688,-38.59640502929688
60144,-0.344451904296875,1.024993896484375,0.1656951904296875,-0.6885954737663269,0.0489710047841072,-0.4641492962837219,62.30477905273438,89.55607604980469,-38.54367065429688
60145,-0.311279296875,0.9835205078125,0.146087646484375,-0.6497237086296082,0.2303716838359833,-0.4191099107265472,62.00137329101562,89.71324157714844,-38.27015686035156
60146,-0.2774200439453125,0.9242401123046876,0.159942626953125,-0.583994448184967,0.3855181336402893,-0.3817457556724548,61.74365234375,89.96603393554688,-37.96052551269531
60147,-0.2768096923828125,0.855712890625,0.1566314697265625,-0.5592867136001587,0.5169104933738708,-0.3712385296821594,61.58180236816406,90.0574951171875,-37.62480163574219
60148,-0.28070068359375,0.795928955078125,0.1085662841796875,-0.5797661542892456,0.5113453269004822,-0.3984091579914093,61.48835754394531,90.2427978515625,-37.33099365234375
60149,-0.278076171875,0.7512359619140625,0.0464630126953125,-0.6330571174621582,0.3884279131889343,-0.4555914998054504,61.43885803222656,90.24371337890624,-36.92742919921875
60150,-0.253692626953125,0.728912353515625,-0.01324462890625,-0.7083057761192322,0.1986883282661438,-0.5283903479576111,61.27862548828125,90.40650939941406,-36.49374389648438
60151,-0.150787353515625,0.7393646240234375,-0.067840576171875,-0.8492844700813293,-0.1491343528032303,-0.617315411567688,60.77116394042969,90.71670532226562,-35.97560119628906
60152,-0.150787353515625,0.7393646240234375,-0.067840576171875,-0.8492844700813293,-0.1491343528032303,-0.617315411567688,60.77116394042969,90.71670532226562,-35.97560119628906
60153,-0.0993194580078125,0.79144287109375,-0.0859375,-0.9349900484085084,-0.3066984117031097,-0.6055991053581238,60.57359313964844,90.84922790527344,-35.585693359375
60154,-0.0292816162109375,0.9309234619140624,-0.054443359375,-1.142307281494141,-0.436201274394989,-0.5171858668327332,59.81867980957031,91.09829711914062,-34.58021545410156
60155,-0.0292816162109375,0.9309234619140624,-0.054443359375,-1.142307281494141,-0.436201274394989,-0.5171858668327332,59.81867980957031,91.09829711914062,-34.58021545410156
60156,-0.020782470703125,1.022018432617188,-0.0215301513671875,-1.235674738883972,-0.364732414484024,-0.4577329456806183,59.43313598632812,91.25634765625,-34.16427612304688
60157,-0.0287933349609375,1.107101440429688,-0.0202178955078125,-1.287467360496521,-0.2906446158885956,-0.4490297436714172,59.00482177734375,91.45098876953124,-33.80882263183594
60158,-0.0330810546875,1.19134521484375,-0.0528411865234375,-1.284940004348755,-0.2528927028179169,-0.4588368237018585,58.62974548339844,91.71922302246094,-33.10810852050781
60159,-0.0398712158203125,1.28790283203125,-0.13336181640625,-1.184196710586548,-0.2748917639255524,-0.4821256399154663,58.29985046386719,92.02850341796876,-32.45368957519531
60160,-0.044586181640625,1.394775390625,-0.24005126953125,-0.9290309548377992,-0.362498551607132,-0.5020759105682373,58.00447082519531,92.2902374267578,-31.70088195800781
60161,-0.016571044921875,1.438034057617188,-0.318389892578125,-0.5731660723686218,-0.4674087464809418,-0.469334214925766,57.66893005371094,92.6151885986328,-31.30941772460938
60162,0.0052947998046875,1.454025268554688,-0.3809356689453125,-0.2146710157394409,-0.4642384946346283,-0.3800826072692871,57.32884216308594,92.71931457519533,-30.66410827636719
60163,0.0344696044921875,1.4610595703125,-0.4810791015625,0.0866057351231575,-0.3976016938686371,-0.2724887728691101,56.99711608886719,92.77581787109376,-30.25315856933594
60164,0.0703277587890625,1.45758056640625,-0.5929718017578125,0.3112486898899078,-0.3367175757884979,-0.1460264474153519,56.67683410644531,92.6136474609375,-30.05244445800781
60165,0.1088714599609375,1.4552001953125,-0.65838623046875,0.4668681025505066,-0.2687140107154846,-0.0347031205892562,56.38311767578125,92.6241455078125,-30.21253967285156
60166,0.155914306640625,1.463409423828125,-0.6573638916015625,0.6020504236221313,-0.2242192476987839,0.0583149716258049,56.21286010742188,92.6805419921875,-30.43595886230469
60167,0.207244873046875,1.489944458007812,-0.5100860595703125,0.8339957594871521,-0.1641082465648651,0.2269489914178848,56.17584228515625,92.57728576660156,-31.00735473632812
60168,0.207244873046875,1.489944458007812,-0.5100860595703125,0.8339957594871521,-0.1641082465648651,0.2269489914178848,56.17584228515625,92.57728576660156,-31.00735473632812
60169,0.20263671875,1.4837646484375,-0.4426422119140625,0.9380063414573668,-0.1057868823409081,0.3059471249580383,56.244873046875,92.5371551513672,-31.27633666992188
60170,0.186279296875,1.437225341796875,-0.3784942626953125,1.007543325424194,-0.0450897142291069,0.3604825437068939,56.49131774902344,92.39932250976562,-31.63253784179688
60171,0.15386962890625,1.401535034179688,-0.287872314453125,1.032741069793701,0.0175795257091522,0.3905264735221863,56.64022827148438,92.28956604003906,-32.18669128417969
60172,0.1132354736328125,1.386993408203125,-0.1979522705078125,1.007333159446716,0.0717546120285987,0.3742252588272095,56.85101318359375,92.0445556640625,-32.76487731933594
60173,0.075103759765625,1.368911743164062,-0.119354248046875,0.9664558172225952,0.0626910775899887,0.31456059217453,57.16213989257812,92.00047302246094,-33.37112426757812
60174,0.0210113525390625,1.353103637695312,-0.0563507080078125,0.9474786520004272,0.00389194348827,0.2082144618034363,57.49432373046875,91.89390563964844,-33.7587890625
60175,-0.1053924560546875,1.371734619140625,0.047332763671875,1.054239988327026,-0.2335973083972931,0.0081785675138235,57.89915466308594,91.60653686523438,-34.75596618652344
60176,-0.1053924560546875,1.371734619140625,0.047332763671875,1.054239988327026,-0.2335973083972931,0.0081785675138235,57.89915466308594,91.60653686523438,-34.75596618652344
60177,-0.16162109375,1.399246215820312,0.08953857421875,1.081168293952942,-0.3227950930595398,-0.0430247001349926,58.00862121582031,91.46412658691406,-35.43910217285156
60178,-0.2088470458984375,1.399398803710938,0.1233978271484375,1.053405046463013,-0.3072526156902313,-0.0072278189472854,58.09890747070312,91.29281616210938,-36.02647399902344
60179,-0.1952667236328125,1.365478515625,0.15179443359375,1.03411340713501,-0.2358950823545456,0.0746404156088829,58.05235290527344,91.2428741455078,-36.64805603027344
60180,-0.1575775146484375,1.296401977539062,0.1292877197265625,1.029227614402771,-0.1328067779541016,0.1411885470151901,58.21199035644531,91.2299346923828,-37.20704650878906
60181,-0.161865234375,1.191253662109375,0.062469482421875,1.093624949455261,-0.1677855402231216,0.2322995513677597,58.24221801757812,91.09063720703124,-37.62272644042969
60182,-0.2115936279296875,1.065872192382812,0.02923583984375,1.198937773704529,-0.3142258524894714,0.3477286696434021,58.31356811523438,90.98088073730467,-38.02650451660156
60183,-0.261474609375,0.9550323486328124,0.0279998779296875,1.255207777023315,-0.5519590377807617,0.4401518106460571,58.45037841796875,90.72930908203124,-38.50373840332031
60184,-0.2810516357421875,0.8778533935546875,0.0976715087890625,1.195215225219727,-0.7685605883598328,0.4322600662708282,58.66181945800781,90.40422058105467,-38.83584594726562
60185,-0.261383056640625,0.769256591796875,0.19525146484375,1.087102055549622,-0.8499513268470764,0.3628447651863098,58.83718872070312,90.2550811767578,-39.37150573730469
60186,-0.253082275390625,0.6604461669921875,0.30645751953125,0.9997307062149048,-0.7626153230667114,0.2542088329792023,58.96237182617188,90.05708312988281,-39.82089233398438
60187,-0.26385498046875,0.5520477294921875,0.37481689453125,0.9305531978607178,-0.4499738216400146,0.1505974978208542,59.05339050292969,89.90953063964844,-40.34709167480469
60188,-0.2738189697265625,0.4476776123046875,0.3502044677734375,0.8668512105941772,-0.1283909976482391,0.0646050944924354,59.11314392089844,89.8175048828125,-40.87179565429688
60189,-0.2957305908203125,0.367095947265625,0.3037872314453125,0.7863659262657166,0.1148051470518112,-0.0151126403361558,59.22976684570312,89.57978820800781,-41.12374877929688
60190,-0.33856201171875,0.3271636962890625,0.2435302734375,0.6738455295562744,0.2030956000089645,-0.0659167021512985,59.35134887695312,89.20779418945312,-41.44221496582031
60191,-0.387298583984375,0.31781005859375,0.17779541015625,0.579215943813324,0.1351002901792526,-0.0917885079979896,59.53297424316406,88.88360595703125,-41.72991943359375
60192,-0.415069580078125,0.321685791015625,0.1406402587890625,0.4993051588535309,-0.036266129463911,-0.1435811370611191,59.67678833007812,88.62663269042969,-41.9559326171875
60193,-0.420867919921875,0.3373565673828125,0.1341705322265625,0.4182161688804626,-0.2166793048381805,-0.1989557147026062,59.78843688964844,88.35084533691406,-42.17919921875
60194,-0.4001007080078125,0.35821533203125,0.1008758544921875,0.3165505230426788,-0.3440982401371002,-0.2383028417825699,59.7801513671875,88.2451171875,-42.475341796875
60195,-0.3498382568359375,0.4202880859375,0.0490570068359375,0.2029533833265305,-0.4535882472991943,-0.2465637028217316,59.70991516113281,88.0228271484375,-42.79115295410156
60196,-0.2953643798828125,0.4806060791015625,0.0305938720703125,0.0969619676470756,-0.4925231337547302,-0.2554954290390015,59.49653625488281,87.81611633300781,-42.83139038085938
60197,-0.2636260986328125,0.514801025390625,0.0647125244140625,0.0006902913446538,-0.4136213958263397,-0.2618020474910736,59.2452392578125,87.89494323730469,-43.12612915039062
60198,-0.2616424560546875,0.57147216796875,0.1166229248046875,-0.1279854029417038,-0.2178851962089539,-0.2609929740428925,59.05648803710938,87.87022399902344,-43.26261901855469
60199,-0.2814483642578125,0.65087890625,0.1510772705078125,-0.272800624370575,0.0143725480884313,-0.2775906026363373,58.76432800292969,87.91419982910156,-43.35908508300781
60200,-0.318023681640625,0.7333221435546875,0.172882080078125,-0.4123913049697876,0.1519213616847992,-0.3128942549228668,58.5670166015625,87.99935913085938,-43.30642700195312
60201,-0.3465728759765625,0.8242034912109375,0.21551513671875,-0.5519720911979675,0.1967990845441818,-0.3389242589473724,58.4176025390625,88.27204895019531,-43.25215148925781
60202,-0.3438720703125,0.919647216796875,0.224212646484375,-0.7280451059341431,0.182290717959404,-0.3494535982608795,58.29733276367188,88.313720703125,-43.00477600097656
60203,-0.3012542724609375,0.995391845703125,0.212890625,-0.935905396938324,0.0524834468960762,-0.3014788925647736,58.17951965332031,88.68006896972656,-42.88716125488281
60204,-0.229522705078125,1.04608154296875,0.2532958984375,-1.121418237686157,0.0209697298705577,-0.2242482751607895,58.0953369140625,88.97726440429688,-42.63934326171875
60205,-0.161346435546875,1.050537109375,0.268829345703125,-1.189629197120667,0.117696538567543,-0.15737284719944,57.86265563964844,89.22987365722656,-42.22392272949219
60206,-0.1143341064453125,1.011016845703125,0.2601165771484375,-1.134714841842651,0.2885023653507233,-0.1139899492263794,57.62405395507812,89.39572143554688,-41.90444946289062
60207,-0.110870361328125,0.9458465576171876,0.228424072265625,-1.014533638954163,0.4157924056053162,-0.1335974782705307,57.3922119140625,89.64454650878906,-41.46290588378906
60208,-0.14031982421875,0.8872833251953125,0.209381103515625,-0.917387068271637,0.4535147547721863,-0.178815558552742,57.30987548828125,89.83334350585938,-40.98162841796875
60209,-0.1773834228515625,0.86663818359375,0.1942596435546875,-0.9078527092933656,0.4147513806819916,-0.2468467950820923,57.28878784179688,90.03871154785156,-40.51310729980469
60210,-0.209869384765625,0.8807220458984375,0.1691436767578125,-0.9885699152946472,0.3262180685997009,-0.3245415985584259,57.41456604003906,90.13668823242188,-39.94760131835938
60211,-0.2284393310546875,0.9131317138671876,0.1386871337890625,-1.120417714118958,0.1884474009275436,-0.4056079387664795,57.35029602050781,90.246826171875,-39.53968811035156
60212,-0.2504425048828125,0.9672088623046876,0.104644775390625,-1.24500572681427,0.0645614191889762,-0.4809855222702026,57.28317260742188,90.58332824707033,-39.13577270507812
60213,-0.250091552734375,1.03448486328125,0.038543701171875,-1.306340456008911,-0.0206666626036167,-0.5344071984291077,57.14181518554688,90.80838012695312,-38.57913208007812
60214,-0.2453460693359375,1.184112548828125,-0.0995025634765625,-1.129622340202332,-0.0678818449378013,-0.545128583908081,56.59922790527344,91.12330627441406,-37.43768310546875
60215,-0.2453460693359375,1.184112548828125,-0.0995025634765625,-1.129622340202332,-0.0678818449378013,-0.545128583908081,56.59922790527344,91.12330627441406,-37.43768310546875
60216,-0.2052154541015625,1.196762084960938,-0.1357879638671875,-0.9713603258132936,-0.0288721285760402,-0.5385460257530212,56.1405029296875,91.33226013183594,-36.94853210449219
60217,-0.1501007080078125,1.183135986328125,-0.171051025390625,-0.8556438088417053,-0.0331867150962352,-0.4959040284156799,55.76475524902344,91.52236938476562,-36.41236877441406
60218,-0.118133544921875,1.20086669921875,-0.2082061767578125,-0.8063319325447083,-0.0678671970963478,-0.4053688049316406,55.380615234375,91.67243957519533,-35.78005981445312
60219,-0.1023101806640625,1.246231079101562,-0.2862091064453125,-0.7851395606994629,-0.126363530755043,-0.2917058765888214,55.05293273925781,91.83522033691406,-35.30610656738281
60220,-0.0986328125,1.312362670898438,-0.3947296142578125,-0.7310965657234192,-0.1865227371454239,-0.1901683360338211,54.77915954589844,91.93324279785156,-34.83184814453125
60221,-0.0811920166015625,1.3824462890625,-0.4946441650390625,-0.569128692150116,-0.2205102741718292,-0.0637081414461135,54.55110168457031,92.0502471923828,-34.34147644042969
60222,-0.0474853515625,1.477096557617188,-0.5790252685546875,-0.3141291737556458,-0.1548548340797424,0.0899250954389572,54.33992004394531,91.94198608398438,-33.97492980957031
60223,0.00244140625,1.593154907226562,-0.653472900390625,-0.0094808535650372,0.0212016906589269,0.2473607957363129,54.18429565429688,92.18264770507812,-33.76730346679688
60224,0.0544586181640625,1.713226318359375,-0.669189453125,0.2477538734674454,0.2345445901155472,0.3860134780406952,54.05593872070312,92.19085693359376,-33.507080078125
60225,0.0840606689453125,1.791275024414062,-0.6328887939453125,0.3889714479446411,0.4270333647727966,0.4143513739109039,54.16250610351562,92.27049255371094,-33.37757873535156
60226,0.0973968505859375,1.802154541015625,-0.592132568359375,0.4451566934585571,0.5227563977241516,0.3439608216285706,54.44105529785156,92.1574249267578,-33.29713439941406
60227,0.0647125244140625,1.728515625,-0.6205902099609375,0.5411223769187927,0.5344309210777283,0.2863878309726715,54.66696166992188,92.22042846679688,-33.27365112304688
60228,-0.0106048583984375,1.577804565429688,-0.64349365234375,0.7895441651344299,0.6606674194335938,0.3193998336791992,54.96702575683594,92.15451049804688,-33.39302062988281
60229,-0.039093017578125,1.410400390625,-0.616668701171875,1.035012245178223,0.8296761512756348,0.3811436295509338,55.18838500976562,92.06150817871094,-33.72322082519531
60230,-0.0687103271484375,1.295486450195312,-0.5546112060546875,1.150878667831421,0.9316555261611938,0.4354502558708191,55.38990783691406,92.03353881835938,-34.18099975585938
60231,-0.094573974609375,1.194503784179688,-0.5017547607421875,1.171366572380066,0.97341388463974,0.4527144730091095,55.65008544921875,92.04612731933594,-34.70713806152344
60232,-0.0933837890625,1.070297241210938,-0.47784423828125,1.095493674278259,0.845794677734375,0.4481950998306274,55.92976379394531,91.7449951171875,-35.14810180664062
60233,-0.1158447265625,0.925201416015625,-0.44293212890625,0.9334036111831664,0.5170913338661194,0.4260184168815613,56.38067626953125,91.43185424804688,-35.49533081054688
60234,-0.171295166015625,0.822235107421875,-0.3809051513671875,0.7613322138786316,0.1249592453241348,0.4452299177646637,56.84501647949219,91.12994384765624,-36.0728759765625
60235,-0.213104248046875,0.83917236328125,-0.2749786376953125,0.5968053340911865,-0.1688273698091507,0.5434401035308838,57.16847229003906,90.8477783203125,-36.37046813964844
60236,-0.2244415283203125,0.9315643310546876,-0.174652099609375,0.4309436678886414,-0.4175224006175995,0.6888279318809509,57.53187561035156,90.70474243164062,-36.91444396972656
60237,-0.2313232421875,1.040802001953125,-0.0191802978515625,0.3048706948757172,-0.4767745435237885,0.8043689131736755,57.81790161132812,90.46707153320312,-37.53489685058594
60238,-0.1868133544921875,1.162521362304688,0.21331787109375,0.2984314262866974,-0.1813351660966873,0.796640932559967,58.50428771972656,90.45533752441406,-38.17263793945312
60239,-0.1868133544921875,1.162521362304688,0.21331787109375,0.2984314262866974,-0.1813351660966873,0.796640932559967,58.50428771972656,90.45533752441406,-38.17263793945312
60240,-0.2302093505859375,1.16900634765625,0.250396728515625,0.4734708964824677,-0.0918108820915222,0.7655128836631775,58.83511352539062,90.66058349609376,-38.30548095703125
60241,-0.2613067626953125,1.122055053710938,0.278961181640625,0.7331562638282776,-0.0011914982460439,0.7462400794029236,59.293701171875,90.6982879638672,-38.21293640136719
60242,-0.260589599609375,1.004776000976562,0.277313232421875,0.9747920632362366,0.0897727608680725,0.698090672492981,59.74668884277344,90.73818969726562,-38.37849426269531
60243,-0.1997222900390625,0.7042694091796875,0.2830963134765625,1.12799596786499,0.2559079527854919,0.612980306148529,60.52926635742188,90.35348510742188,-38.81634521484375
60244,-0.1997222900390625,0.7042694091796875,0.2830963134765625,1.12799596786499,0.2559079527854919,0.612980306148529,60.52926635742188,90.35348510742188,-38.81634521484375
60245,-0.1685333251953125,0.5950469970703125,0.312713623046875,1.022335886955261,0.3745943903923035,0.6183540225028992,60.96041870117188,90.01991271972656,-39.23399353027344
60246,-0.1413116455078125,0.52117919921875,0.330902099609375,0.8481971025466919,0.5022961497306824,0.6134341359138489,61.29812622070312,89.7344970703125,-39.69404602050781
60247,-0.1312713623046875,0.4774627685546875,0.3400726318359375,0.6664959788322449,0.5813946723937988,0.6116857528686523,62.07182312011719,89.20814514160156,-40.35861206054688
60248,-0.145965576171875,0.4703216552734375,0.35101318359375,0.479571133852005,0.6486133933067322,0.6146788597106934,62.07182312011719,89.20814514160156,-40.35861206054688
60249,-0.17022705078125,0.4973602294921875,0.3433380126953125,0.3036514818668365,0.6805625557899475,0.5884968042373657,62.53146362304688,88.91990661621094,-40.57684326171875
60250,-0.2038726806640625,0.54583740234375,0.2910919189453125,0.1479726880788803,0.5901293158531189,0.5058677196502686,63.07044982910156,88.57225036621094,-40.7205810546875
60251,-0.2247467041015625,0.6299591064453125,0.220062255859375,0.0053819823078811,0.3240656852722168,0.3829436600208282,63.46768188476562,88.3944091796875,-40.88775634765625
60252,-0.23614501953125,0.7284393310546875,0.180694580078125,-0.1418410241603851,0.0328618101775646,0.2406136691570282,63.93002319335938,88.2447509765625,-40.94546508789062
60253,-0.2498626708984375,0.8018951416015625,0.1592559814453125,-0.2871998250484467,-0.1946080923080444,0.0704235658049583,64.20179748535156,88.13664245605469,-40.98272705078125
60254,-0.263519287109375,0.8514404296875,0.1864013671875,-0.3997071981430054,-0.277690201997757,-0.0886726081371307,64.2686767578125,88.11811828613281,-40.94551086425781
60255,-0.278717041015625,0.8725433349609375,0.231231689453125,-0.4546644389629364,-0.198353037238121,-0.2243870347738266,64.08132934570312,88.16043090820312,-40.86949157714844
60256,-0.2861175537109375,0.8651580810546875,0.2292938232421875,-0.4603534936904907,-0.0718832463026046,-0.3473766148090363,63.98762512207031,88.22151184082031,-40.8636474609375
60257,-0.284942626953125,0.87054443359375,0.1902618408203125,-0.4583481252193451,-0.0610516369342804,-0.4352129697799683,63.75315856933594,88.33981323242188,-40.61906433105469
60258,-0.2891693115234375,0.8791656494140625,0.18133544921875,-0.4941287636756897,-0.1046608984470367,-0.4914956986904144,63.48014831542969,88.4827880859375,-40.32478332519531
60259,-0.2831878662109375,0.8718414306640625,0.1909332275390625,-0.5920678377151489,-0.127521738409996,-0.5252552628517151,63.22502136230469,88.72711181640625,-40.00010681152344
60260,-0.264068603515625,0.862518310546875,0.1982421875,-0.7285606861114502,-0.1034001559019089,-0.5417964458465576,62.88888549804688,88.79400634765625,-39.83106994628906
60261,-0.224945068359375,0.84967041015625,0.1927032470703125,-0.8418073654174805,-0.0231529902666807,-0.5455690622329712,62.60516357421875,89.03327941894531,-39.70651245117188
60262,-0.184051513671875,0.8467559814453125,0.158050537109375,-0.8406720757484436,0.0443914346396923,-0.5303173661231995,62.37690734863281,89.16636657714844,-39.34628295898438
60263,-0.179443359375,0.800140380859375,0.114471435546875,-0.7031807899475098,0.1762836873531342,-0.4829605221748352,61.84022521972656,89.6014404296875,-38.61248779296875
60264,-0.179443359375,0.800140380859375,0.114471435546875,-0.7031807899475098,0.1762836873531342,-0.4829605221748352,61.84022521972656,89.6014404296875,-38.61248779296875
60265,-0.1797637939453125,0.760009765625,0.1078338623046875,-0.6839961409568787,0.249311551451683,-0.4745188355445862,61.6197509765625,89.8646240234375,-38.33621215820312
60266,-0.1648406982421875,0.7136688232421875,0.0563201904296875,-0.7827816009521484,0.2763168215751648,-0.4908877015113831,61.28990173339844,90.2592315673828,-37.83306884765625
60267,-0.1648406982421875,0.7136688232421875,0.0563201904296875,-0.7827816009521484,0.2763168215751648,-0.4908877015113831,61.28990173339844,90.2592315673828,-37.83306884765625
60268,-0.1582794189453125,0.7432861328125,-0.00439453125,-0.8654139041900635,0.1611492037773132,-0.5160481929779053,61.06918334960938,90.41520690917967,-37.35121154785156
60269,-0.146820068359375,0.7769012451171875,-0.0632171630859375,-0.9314834475517272,-0.0281887613236904,-0.542751669883728,60.7742919921875,90.6158447265625,-36.95802307128906
60270,-0.129241943359375,0.8295135498046875,-0.111724853515625,-0.9856412410736084,-0.2414435148239136,-0.5665728449821472,60.54048156738281,90.79251098632812,-36.4927978515625
60271,-0.0977783203125,0.8929290771484375,-0.1519927978515625,-1.034152030944824,-0.467991977930069,-0.5632764101028442,60.23336791992188,90.94815063476562,-36.12763977050781
60272,-0.0660247802734375,0.982757568359375,-0.1642913818359375,-1.085743308067322,-0.6363106966018677,-0.5314977169036865,59.90925598144531,90.98268127441406,-35.61839294433594
60273,-0.0406646728515625,1.080459594726562,-0.15960693359375,-1.146787762641907,-0.7340513467788696,-0.4967586398124695,59.51637268066406,91.13540649414062,-35.06275939941406
60274,-0.0145416259765625,1.160202026367188,-0.114715576171875,-1.180300712585449,-0.6995695233345032,-0.4785346388816833,58.98817443847656,91.45558166503906,-34.65647888183594
60275,0.012725830078125,1.232879638671875,-0.072174072265625,-1.13720440864563,-0.5247234106063843,-0.4544788300991058,58.57325744628906,91.6958465576172,-34.06643676757812
60276,0.030914306640625,1.32757568359375,-0.084197998046875,-0.9560521841049194,-0.3404510617256165,-0.461493045091629,58.15080261230469,92.16876220703124,-33.6064453125
60277,0.04815673828125,1.380447387695312,-0.128265380859375,-0.671480119228363,-0.2611176073551178,-0.5028628706932068,57.81210327148438,92.47996520996094,-33.1812744140625
60278,0.060882568359375,1.377838134765625,-0.1946258544921875,-0.3538520932197571,-0.2775186896324158,-0.4816625118255615,57.44725036621094,92.7785186767578,-32.71119689941406
60279,0.0592498779296875,1.3511962890625,-0.3024444580078125,-0.0189151018857955,-0.29184490442276,-0.4040558636188507,57.17469787597656,92.81306457519533,-32.51412963867188
60280,0.0585174560546875,1.314544677734375,-0.4553375244140625,0.3583166003227234,-0.2872584164142609,-0.2869042158126831,56.84403991699219,92.85578918457033,-32.40261840820312
60281,0.0679779052734375,1.272445678710938,-0.6065673828125,0.7449279427528381,-0.2559257745742798,-0.1235786601901054,56.64115905761719,92.72267150878906,-32.50418090820312
60282,0.0673370361328125,1.26947021484375,-0.72442626953125,1.08809494972229,-0.1556026488542557,0.0534722805023193,56.40803527832031,92.5121612548828,-32.47686767578125
60283,0.06732177734375,1.294586181640625,-0.7937164306640625,1.288752436637878,-0.049283392727375,0.2098741382360458,56.28012084960938,92.25018310546876,-32.80020141601562
60284,0.07977294921875,1.329360961914062,-0.8112335205078125,1.265340209007263,-0.0153081165626645,0.329431414604187,56.32388305664062,92.0459442138672,-33.28501892089844
60285,0.0890655517578125,1.354293823242188,-0.7757720947265625,1.028884053230286,-0.0760513544082641,0.3926365077495575,56.37617492675781,91.84733581542967,-33.99713134765625
60286,0.0830535888671875,1.381607055664062,-0.679779052734375,0.7088623642921448,-0.1230630725622177,0.4302078485488892,56.54869079589844,91.6024169921875,-34.57958984375
60287,0.0792694091796875,1.415145874023438,-0.5513763427734375,0.4649474322795868,-0.063078299164772,0.4700596332550049,56.7703857421875,91.45347595214844,-35.09779357910156
60288,0.0755462646484375,1.453704833984375,-0.4237060546875,0.3260252475738525,0.0303946565836668,0.46848464012146,56.91664123535156,91.3214111328125,-35.57472229003906
60289,0.0578460693359375,1.486419677734375,-0.2871856689453125,0.2606251835823059,0.1233224645256996,0.4163492918014526,57.27285766601562,91.287353515625,-35.82928466796875
60290,0.03314208984375,1.510330200195312,-0.15850830078125,0.2461370676755905,0.1533698439598083,0.3276042342185974,57.56915283203125,91.22898864746094,-35.91004943847656
60291,-0.0172882080078125,1.532470703125,-0.0369110107421875,0.2697241604328156,0.1443899422883987,0.1940203458070755,57.8526611328125,91.27366638183594,-36.09634399414062
60292,-0.087890625,1.537811279296875,0.0594024658203125,0.3751624226570129,0.0649121552705764,0.077611967921257,58.11314392089844,91.22990417480467,-36.25502014160156
60293,-0.1463165283203125,1.544464111328125,0.0957794189453125,0.50628662109375,-0.1119275987148285,-0.0502312108874321,58.40390014648438,91.3292999267578,-36.67098999023438
60294,-0.22674560546875,1.470382690429688,0.1172943115234375,0.8367825150489807,-0.4526415169239044,-0.1204198896884918,58.64073181152344,91.27586364746094,-37.27339172363281
60295,-0.22674560546875,1.470382690429688,0.1172943115234375,0.8367825150489807,-0.4526415169239044,-0.1204198896884918,58.64073181152344,91.27586364746094,-37.27339172363281
60296,-0.214935302734375,1.366989135742188,0.074859619140625,1.03010618686676,-0.4717779159545898,-0.0399820357561111,58.6583251953125,91.21006774902344,-37.69381713867188
60297,-0.1833038330078125,1.233001708984375,0.0194244384765625,1.129019737243652,-0.4460445940494537,0.0264020469039678,58.5589599609375,91.03097534179688,-38.14566040039062
60298,-0.22723388671875,1.111740112304688,0.00927734375,1.141538143157959,-0.4453500509262085,0.1001548320055008,58.53729248046875,90.80145263671876,-38.43345642089844
60299,-0.3792572021484375,0.9725341796875,0.0780029296875,1.014923810958862,-0.6617449522018433,0.3434593677520752,58.59843444824219,90.56211853027344,-39.26431274414062
60300,-0.3792572021484375,0.9725341796875,0.0780029296875,1.014923810958862,-0.6617449522018433,0.3434593677520752,58.59843444824219,90.56211853027344,-39.26431274414062
60301,-0.396484375,0.92132568359375,0.14678955078125,1.06949508190155,-0.8286356329917908,0.3522683084011078,58.68536376953125,90.50469970703124,-39.788818359375
60302,-0.3448486328125,0.696136474609375,0.30279541015625,1.290639519691467,-0.7217968106269836,0.1690793037414551,58.85884094238281,90.12435913085938,-40.67372131347656
60303,-0.3448486328125,0.696136474609375,0.30279541015625,1.290639519691467,-0.7217968106269836,0.1690793037414551,58.85884094238281,90.12435913085938,-40.67372131347656
60304,-0.3133392333984375,0.584320068359375,0.2901611328125,1.306931972503662,-0.5063795447349548,0.0674850344657897,58.95065307617188,90.02714538574219,-41.24009704589844
60305,-0.299835205078125,0.50079345703125,0.2449493408203125,1.248415350914001,-0.3370587229728699,-0.0197180453687906,58.99037170410156,89.6177978515625,-41.88395690917969
60306,-0.2936248779296875,0.4478607177734375,0.2305145263671875,1.12409496307373,-0.1676869988441467,-0.1072172671556473,59.01051330566406,89.1229248046875,-42.20729064941406
60307,-0.305389404296875,0.4017791748046875,0.1979217529296875,0.9611505270004272,-0.0421205572783947,-0.1793199628591537,59.05865478515625,88.72128295898438,-42.72828674316406
60308,-0.3232269287109375,0.347930908203125,0.136962890625,0.8085727095603943,0.0046815709210932,-0.2222913950681686,58.98956298828125,88.51104736328125,-43.20378112792969
60309,-0.32672119140625,0.3001556396484375,0.0627288818359375,0.6949934363365173,-0.0585370808839798,-0.2401758432388306,59.02737426757812,88.31761169433594,-43.64202880859375
60310,-0.2090301513671875,0.2606658935546875,0.020233154296875,0.5282087326049805,-0.1962949484586716,-0.150913342833519,58.81794738769531,87.73599243164062,-44.34907531738281
60311,-0.2090301513671875,0.2606658935546875,0.020233154296875,0.5282087326049805,-0.1962949484586716,-0.150913342833519,58.81794738769531,87.73599243164062,-44.34907531738281
60312,-0.1522979736328125,0.2686920166015625,0.0724334716796875,0.3245256245136261,0.0122638568282127,-0.0764865204691886,58.68722534179688,87.50946044921875,-44.60615539550781
60313,-0.1151123046875,0.3393402099609375,0.07489013671875,0.0444217920303344,0.3173771500587463,-0.0062650865875184,58.574951171875,87.16207885742188,-44.92617797851562
60314,-0.1771087646484375,0.65850830078125,0.1497955322265625,-0.341568261384964,0.373659610748291,-0.0124481478706002,58.53489685058594,86.9208984375,-45.03057861328125
60315,-0.1771087646484375,0.65850830078125,0.1497955322265625,-0.341568261384964,0.373659610748291,-0.0124481478706002,58.53489685058594,86.9208984375,-45.03057861328125
60316,-0.2409515380859375,0.7734832763671875,0.2275238037109375,-0.5550845265388489,0.3282218277454376,-0.1272311955690384,58.63735961914062,87.08415222167969,-45.04019165039062
60317,-0.3048248291015625,0.8550262451171875,0.262176513671875,-0.778636634349823,0.2440813779830933,-0.2193901389837265,58.74124145507812,87.1224365234375,-44.73686218261719
60318,-0.3138275146484375,0.8985595703125,0.3054962158203125,-0.9678430557250975,0.0743282958865165,-0.2722767889499664,58.75279235839844,87.31454467773438,-44.49467468261719
60319,-0.3178863525390625,0.9381561279296876,0.3778076171875,-1.126260638237,-0.0429253615438938,-0.306862473487854,58.72560119628906,87.65200805664062,-44.22178649902344
60320,-0.30322265625,0.987335205078125,0.375762939453125,-1.271961450576782,-0.1510089486837387,-0.2937309443950653,58.56977844238281,87.91758728027344,-43.85121154785156
60321,-0.2625274658203125,1.01324462890625,0.35516357421875,-1.36297070980072,-0.243914395570755,-0.29413041472435,58.31434631347656,88.27896118164062,-43.42100524902344
60322,-0.227020263671875,1.018875122070312,0.3487396240234375,-1.388539910316467,-0.1951692253351212,-0.2738286256790161,58.12478637695312,88.57469177246094,-42.86579895019531
60323,-0.217803955078125,1.035049438476562,0.30548095703125,-1.344356298446655,0.021329790353775,-0.2702200412750244,57.90690612792969,88.85462951660156,-42.22013854980469
60324,-0.2306365966796875,1.031814575195312,0.230072021484375,-1.276052832603455,0.2143133580684662,-0.291023850440979,57.66122436523438,89.17179870605469,-41.58631896972656
60325,-0.26605224609375,0.9974822998046876,0.184417724609375,-1.217999696731567,0.3428449630737305,-0.315498560667038,57.47445678710938,89.49214172363281,-41.00778198242188
60326,-0.2777862548828125,0.9651336669921876,0.143951416015625,-1.191096425056458,0.356476902961731,-0.3456958830356598,57.26411437988281,89.75013732910156,-40.54373168945312
60327,-0.277313232421875,0.974395751953125,-0.000732421875,-1.204543471336365,0.1034454330801964,-0.4433324337005615,57.11164855957031,90.30426025390624,-39.52394104003906
60328,-0.277313232421875,0.974395751953125,-0.000732421875,-1.204543471336365,0.1034454330801964,-0.4433324337005615,57.11164855957031,90.30426025390624,-39.52394104003906
60329,-0.250274658203125,1.015121459960938,-0.1281280517578125,-1.218545079231262,-0.1571795046329498,-0.4770557582378387,56.90081787109375,90.55311584472656,-38.83937072753906
60330,-0.2146148681640625,1.065841674804688,-0.2269134521484375,-1.187623620033264,-0.4277012646198273,-0.4628118574619293,56.65255737304688,90.64317321777344,-38.26548767089844
60331,-0.16094970703125,1.106430053710938,-0.241363525390625,-1.123210072517395,-0.4849840104579926,-0.4011367857456207,56.27890014648438,90.7859344482422,-37.69905090332031
60332,-0.12091064453125,1.130645751953125,-0.228118896484375,-1.060834765434265,-0.3318000435829163,-0.3744734823703766,55.96543884277344,91.10418701171876,-37.14570617675781
60333,-0.091949462890625,1.131088256835938,-0.22674560546875,-1.013181805610657,-0.0829888954758644,-0.3727360367774963,55.53955078125,91.29313659667967,-36.41885375976562
60334,-0.073272705078125,1.203536987304688,-0.3820037841796875,-0.9227094054222108,0.0627816244959831,-0.388418048620224,54.93785095214844,91.70590209960938,-35.10972595214844
60335,-0.073272705078125,1.203536987304688,-0.3820037841796875,-0.9227094054222108,0.0627816244959831,-0.388418048620224,54.93785095214844,91.70590209960938,-35.10972595214844
60336,-0.0884246826171875,1.274734497070312,-0.472412109375,-0.7953011393547058,-0.0569439753890037,-0.3507801294326782,54.76341247558594,91.84616088867188,-34.64997863769531
60337,-0.093109130859375,1.355545043945312,-0.535491943359375,-0.5714906454086304,-0.109266571700573,-0.2595221102237701,54.52128601074219,92.21484375,-34.4139404296875
60338,-0.066436767578125,1.449249267578125,-0.5869293212890625,-0.2730685472488403,-0.0300455167889595,-0.1425715237855911,54.2476806640625,92.22850036621094,-34.03042602539062
60339,-0.0286407470703125,1.54803466796875,-0.6147613525390625,0.0465989261865615,0.1508736610412598,0.0248973593115806,54.09613037109375,92.25408935546876,-33.73246765136719
60340,-0.0031280517578125,1.65313720703125,-0.6119384765625,0.3224243819713593,0.3845854997634888,0.1780336499214172,53.98500061035156,92.3051300048828,-33.48727416992188
60341,-0.001953125,1.726181030273438,-0.5652008056640625,0.5061966180801392,0.5438262820243835,0.280714750289917,53.96138000488281,92.36607360839844,-33.38652038574219
60342,-0.0462799072265625,1.724746704101562,-0.5219268798828125,0.6244524121284485,0.5839380025863647,0.3726470768451691,54.08926391601562,92.4463348388672,-33.47700500488281
60343,-0.1187286376953125,1.65313720703125,-0.527252197265625,0.7923679351806641,0.6665005087852478,0.4456579089164734,54.29142761230469,92.49583435058594,-33.67709350585938
60344,-0.1465911865234375,1.500213623046875,-0.5341796875,0.9724801778793336,0.7847228050231934,0.4900277554988861,54.51359558105469,92.50289916992188,-33.98507690429688
60345,-0.1572113037109375,1.354949951171875,-0.4806060791015625,1.05676281452179,0.8645462393760681,0.5101785659790039,54.8707275390625,92.37190246582033,-34.28857421875
60346,-0.171844482421875,1.263412475585938,-0.4148101806640625,1.038028597831726,0.9159649610519408,0.4908669292926788,55.27960205078125,92.18795776367188,-34.72337341308594
60347,-0.1709747314453125,1.165237426757812,-0.3789825439453125,0.9401808381080629,0.8886968493461609,0.4243832528591156,55.771484375,91.99406433105467,-35.22660827636719
60348,-0.169708251953125,1.035232543945312,-0.344085693359375,0.790054440498352,0.7057717442512512,0.3498200476169586,56.1031494140625,91.78952026367188,-35.8463134765625
60349,-0.2177734375,0.9355926513671876,-0.291412353515625,0.6437441110610962,0.4484022855758667,0.3057346045970917,56.55036926269531,91.64289855957033,-36.27406311035156
60350,-0.24951171875,0.923919677734375,-0.22796630859375,0.5338132977485657,0.1647135764360428,0.3041942417621613,56.94976806640625,91.41700744628906,-36.71534729003906
60351,-0.2568511962890625,0.955291748046875,-0.144256591796875,0.410980612039566,-0.0760822519659996,0.3373807072639465,57.25117492675781,91.18806457519533,-37.07386779785156
60352,-0.23992919921875,0.984344482421875,-0.043121337890625,0.2661384642124176,-0.1745941787958145,0.3721141815185547,57.52702331542969,91.11770629882812,-37.49978637695312
60353,-0.22314453125,1.010818481445312,0.0290069580078125,0.175475686788559,-0.180700808763504,0.4430285692214966,57.68185424804688,91.14382934570312,-37.61320495605469
60354,-0.236419677734375,1.121170043945312,0.1435394287109375,0.4837197959423065,-0.2114973366260529,0.6698347926139832,58.06765747070312,90.96066284179688,-37.79167175292969
60355,-0.236419677734375,1.121170043945312,0.1435394287109375,0.4837197959423065,-0.2114973366260529,0.6698347926139832,58.06765747070312,90.96066284179688,-37.79167175292969
60356,-0.2113800048828125,1.109954833984375,0.1837921142578125,0.7787282466888428,-0.2520112097263336,0.7442815899848938,58.3824462890625,90.76731872558594,-37.78030395507812
60357,-0.16900634765625,1.075439453125,0.19256591796875,0.9967804551124572,-0.3813601434230804,0.7475682497024536,58.64515686035156,90.742431640625,-38.03594970703125
60358,-0.133270263671875,0.9997711181640624,0.2089385986328125,1.092569231987,-0.4519235193729401,0.6865461468696594,58.85307312011719,90.67120361328124,-38.30543518066406
60359,-0.0995635986328125,0.847015380859375,0.20660400390625,1.082767486572266,-0.4165871143341064,0.6003808975219727,59.19854736328125,90.31678771972656,-38.65731811523438
60360,-0.0834503173828125,0.682373046875,0.210113525390625,1.000030279159546,-0.3394909799098969,0.5200892686843872,59.38365173339844,90.10182189941406,-39.15446472167969
60361,-0.061859130859375,0.5479278564453125,0.222564697265625,0.8713951110839844,-0.2152326852083206,0.4990817010402679,59.62002563476562,89.85881042480469,-39.64122009277344
60362,-0.0392608642578125,0.47222900390625,0.21173095703125,0.7273766398429871,-0.0673196539282798,0.5159648060798645,59.86102294921875,89.57504272460938,-40.10791015625
60363,-0.02301025390625,0.4483184814453125,0.179046630859375,0.5840620994567871,0.0494610257446765,0.5063776969909668,60.0794677734375,89.30274963378906,-40.44525146484375
60364,-0.029541015625,0.4523162841796875,0.154022216796875,0.4434413611888885,0.1312477737665176,0.4894615709781647,60.30462646484375,89.07974243164062,-40.87181091308594
60365,-0.0563507080078125,0.4849395751953125,0.15106201171875,0.2986783087253571,0.200489416718483,0.4597287178039551,60.59674072265625,88.99542236328125,-41.19979858398438
60366,-0.1381988525390625,0.5687408447265625,0.1591033935546875,0.1687847524881363,0.2251391112804413,0.395783007144928,60.82698059082031,88.90788269042969,-41.21942138671875
60367,-0.2449188232421875,0.699859619140625,0.1746826171875,0.038680549710989,0.2115695029497147,0.2690711617469788,61.17579650878906,88.70896911621094,-41.42366027832031
60368,-0.3392486572265625,0.75787353515625,0.1817779541015625,-0.104138121008873,0.2229201644659042,0.1197684779763222,61.35626220703125,88.6983642578125,-41.62577819824219
60369,-0.3948822021484375,0.7874603271484375,0.198028564453125,-0.2168042212724686,0.2685427665710449,-0.022245917469263,61.53561401367188,88.67507934570312,-41.55340576171875
60370,-0.4194793701171875,0.8212738037109375,0.25323486328125,-0.2862890064716339,0.4135761260986328,-0.1671088337898254,61.58378601074219,88.55412292480469,-41.39939880371094
60371,-0.406341552734375,0.8372802734375,0.2855072021484375,-0.3280995786190033,0.5767741203308105,-0.2726744115352631,61.73170471191406,88.52925109863281,-41.31521606445312
60372,-0.373199462890625,0.85101318359375,0.3106231689453125,-0.3716337382793427,0.6800094246864319,-0.3181414902210236,61.78912353515625,88.64617919921875,-41.23538208007812
60373,-0.33673095703125,0.8625335693359375,0.3321990966796875,-0.4409622251987457,0.7171269655227661,-0.3172802329063416,61.64326477050781,88.8641357421875,-41.1474609375
60374,-0.3137664794921875,0.875,0.3396453857421875,-0.5372863411903381,0.7057952284812927,-0.326028436422348,61.67475891113281,88.96424865722656,-41.02790832519531
60375,-0.2948150634765625,0.903594970703125,0.3369903564453125,-0.6384012699127197,0.6390806436538696,-0.3363833427429199,61.66239929199219,89.17889404296875,-40.85736083984375
60376,-0.2965850830078125,0.93023681640625,0.3296966552734375,-0.7318885922431946,0.506279706954956,-0.3630532920360565,61.62815856933594,89.18891906738281,-40.64497375488281
60377,-0.2984466552734375,0.9315643310546876,0.32452392578125,-0.7933902740478516,0.3715013861656189,-0.3920295536518097,61.64033508300781,89.33659362792969,-40.27313232421875
60378,-0.2264251708984375,0.85546875,0.268035888671875,-0.8213950395584106,0.2861755788326263,-0.456934005022049,61.48439025878906,89.59219360351562,-39.39932250976562
60379,-0.2264251708984375,0.85546875,0.268035888671875,-0.8213950395584106,0.2861755788326263,-0.456934005022049,61.48439025878906,89.59219360351562,-39.39932250976562
60380,-0.208648681640625,0.80792236328125,0.1869049072265625,-0.8138779997825623,0.3467534184455872,-0.4812960624694824,61.32466125488281,89.79109191894531,-39.0447998046875
60381,-0.206390380859375,0.763153076171875,0.092010498046875,-0.7890578508377075,0.3677569627761841,-0.5057204365730286,61.16291809082031,89.89503479003906,-38.68788146972656
60382,-0.2011566162109375,0.73980712890625,0.0147552490234375,-0.7793908715248108,0.3176855444908142,-0.5317879915237427,60.94422912597656,90.03143310546875,-38.19306945800781
60383,-0.185272216796875,0.72607421875,-0.0516510009765625,-0.794325590133667,0.1812376976013184,-0.5631272792816162,60.74311828613281,90.2019500732422,-37.70352172851562
60384,-0.148468017578125,0.721405029296875,-0.09417724609375,-0.8455222249031067,-0.0512344241142272,-0.5844064354896545,60.58027648925781,90.40036010742188,-37.23904418945312
60385,-0.12152099609375,0.737274169921875,-0.105133056640625,-0.9391408562660216,-0.2402288466691971,-0.5875111818313599,60.34994506835938,90.6289520263672,-36.74301147460938
60386,-0.10260009765625,0.7725067138671875,-0.1181793212890625,-1.053779244422913,-0.3373388946056366,-0.6022496223449707,60.07040405273438,90.9312744140625,-36.40000915527344
60387,-0.0815277099609375,0.8010101318359375,-0.0771331787109375,-1.19801127910614,-0.3157947063446045,-0.596245288848877,59.75389099121094,91.07997131347656,-35.92578125
60388,-0.07183837890625,0.8555145263671875,-0.00115966796875,-1.340329527854919,-0.1683519929647446,-0.5712099671363831,59.34555053710938,91.25929260253906,-35.4305419921875
60389,-0.0898895263671875,0.9451141357421876,0.037567138671875,-1.44619607925415,-0.0208160653710365,-0.5763828754425049,58.83088684082031,91.55897521972656,-34.78448486328125
60390,-0.1439361572265625,1.174118041992188,-0.067718505859375,-1.482717037200928,0.0063950484618544,-0.6144652962684631,58.10946655273438,92.19728088378906,-33.4737548828125
60391,-0.1439361572265625,1.174118041992188,-0.067718505859375,-1.482717037200928,0.0063950484618544,-0.6144652962684631,58.10946655273438,92.19728088378906,-33.4737548828125
60392,-0.139678955078125,1.293869018554688,-0.2030487060546875,-1.279979109764099,-0.1537003517150879,-0.5870874524116516,57.73526000976562,92.474609375,-32.67503356933594
60393,-0.089691162109375,1.371124267578125,-0.3147430419921875,-0.9357498288154602,-0.2833076119422913,-0.5045638084411621,57.37107849121094,92.8621826171875,-31.94403076171875
60394,-0.0388641357421875,1.425811767578125,-0.4279022216796875,-0.5021267533302307,-0.3006652891635895,-0.3475723564624786,57.03384399414062,93.04835510253906,-31.25849914550781
60395,0.0051116943359375,1.480056762695312,-0.5540618896484375,-0.050835482776165,-0.2369728684425354,-0.1799178421497345,56.71505737304688,93.10585021972656,-30.7352294921875
60396,0.0461578369140625,1.519561767578125,-0.667205810546875,0.3404087126255035,-0.1267864406108856,-0.0009472863748669,56.31005859375,93.168212890625,-30.30220031738281
60397,0.105255126953125,1.54693603515625,-0.7226409912109375,0.6152474880218506,-0.0366525538265705,0.1709792017936707,56.13632202148438,93.15089416503906,-30.02447509765625
60398,0.16741943359375,1.565658569335938,-0.6973114013671875,0.7570863366127014,0.0368735939264297,0.319160133600235,56.06838989257812,92.97361755371094,-29.97299194335938
60399,0.218475341796875,1.578338623046875,-0.618621826171875,0.7885351181030273,0.1214199066162109,0.4019114971160889,56.08163452148438,92.87356567382812,-30.22767639160156
60400,0.2565155029296875,1.577072143554688,-0.548309326171875,0.8022543787956238,0.1041232049465179,0.4660167098045349,56.09754943847656,92.66545104980467,-30.55921936035156
60401,0.2704315185546875,1.552688598632812,-0.5081634521484375,0.8492149710655212,0.0955864414572715,0.5514652729034424,56.25132751464844,92.5517578125,-31.00999450683594
60402,0.1994476318359375,1.4847412109375,-0.410491943359375,0.942038118839264,0.2629445493221283,0.6268319487571716,56.76220703125,92.49618530273438,-31.91011047363281
60403,0.1994476318359375,1.4847412109375,-0.410491943359375,0.942038118839264,0.2629445493221283,0.6268319487571716,56.76220703125,92.49618530273438,-31.91011047363281
60404,0.142578125,1.463455200195312,-0.323455810546875,0.9057202935218812,0.3457084000110626,0.5827007293701172,57.17327880859375,92.35891723632812,-32.39308166503906
60405,0.0945281982421875,1.459075927734375,-0.2450103759765625,0.851695716381073,0.3714438676834106,0.4810803532600403,57.49418640136719,92.314697265625,-32.94187927246094
60406,0.045135498046875,1.433334350585938,-0.1764678955078125,0.8368850350379944,0.2797123491764069,0.329060971736908,58.00167846679688,92.2240753173828,-33.50216674804688
60407,-0.02001953125,1.419418334960938,-0.0995635986328125,0.8329627513885498,0.1026185229420662,0.1619444340467453,58.33413696289062,91.97923278808594,-33.84085083007812
60408,-0.0923004150390625,1.436813354492188,-0.02001953125,0.8505353331565857,-0.1189980283379555,0.0065369950607419,58.62956237792969,91.90333557128906,-34.40745544433594
60409,-0.1667022705078125,1.447128295898438,0.053314208984375,0.9087997078895568,-0.2768081724643707,-0.1024608612060547,58.85345458984375,91.7646026611328,-34.90422058105469
60410,-0.2136993408203125,1.451950073242188,0.064849853515625,0.9399563074111938,-0.3561879396438599,-0.1540028750896454,59.01083374023438,91.71005249023438,-35.44071960449219
60411,-0.2429962158203125,1.446090698242188,0.0506744384765625,0.8987593650817871,-0.4169737994670868,-0.1338898837566376,59.03752136230469,91.68174743652344,-35.97721862792969
60412,-0.2528076171875,1.41143798828125,0.0362091064453125,0.8367367386817932,-0.5010849237442017,-0.0730044320225715,58.90457153320312,91.34675598144533,-37.03373718261719
60413,-0.2610321044921875,1.351608276367188,0.0009613037109375,0.8950706124305725,-0.6671738028526306,-0.0031342741567641,58.90457153320312,91.34675598144533,-37.03373718261719
60414,-0.4040069580078125,1.10736083984375,-0.0130157470703125,1.331815481185913,-1.239705681800842,0.2393326908349991,58.91183471679688,91.21926879882812,-37.71992492675781
60415,-0.4040069580078125,1.10736083984375,-0.0130157470703125,1.331815481185913,-1.239705681800842,0.2393326908349991,58.91183471679688,91.21926879882812,-37.71992492675781
60416,-0.433563232421875,0.95660400390625,0.0644683837890625,1.519847393035889,-1.445847988128662,0.3105935454368591,58.88941955566406,91.15524291992188,-38.11305236816406
60417,-0.4320068359375,0.827301025390625,0.149688720703125,1.575569272041321,-1.530314922332764,0.2879369854927063,58.89230346679688,90.95594787597656,-38.66178894042969
60418,-0.4091796875,0.7244415283203125,0.24072265625,1.562877655029297,-1.477737188339233,0.2070743590593338,58.83580017089844,90.35661315917967,-39.88047790527344
60419,-0.386688232421875,0.607208251953125,0.3049774169921875,1.485595345497131,-1.297573804855347,0.0856275558471679,58.79855346679688,90.08506774902344,-40.76847839355469
60420,-0.3701019287109375,0.4853973388671875,0.313323974609375,1.375239610671997,-0.9975130558013916,-0.0214142110198736,58.76316833496094,89.56869506835938,-41.42434692382812
60421,-0.35052490234375,0.3599395751953125,0.2716217041015625,1.226349234580994,-0.698905885219574,-0.1031133383512497,58.61769104003906,89.29051208496094,-41.93777465820312
60422,-0.34393310546875,0.262847900390625,0.237335205078125,1.068450331687927,-0.4589646458625793,-0.1817215979099274,58.47096252441406,88.98873901367188,-42.62351989746094
60423,-0.3549346923828125,0.178741455078125,0.207000732421875,0.9105437994003296,-0.2562395036220551,-0.2109394073486328,58.43809509277344,88.6737060546875,-43.08349609375
60424,-0.3728485107421875,0.1275634765625,0.1786346435546875,0.7622073292732239,-0.0778532549738884,-0.1975309103727341,58.37388610839844,88.2796630859375,-43.58648681640625
60425,-0.3733978271484375,0.1034088134765625,0.1515655517578125,0.5997949838638306,0.0691463127732276,-0.1477681547403336,58.33662414550781,87.99082946777344,-43.94123840332031
60426,-0.3592681884765625,0.12506103515625,0.139190673828125,0.3900447189807892,0.2335656136274338,-0.0646588876843452,58.25184631347656,87.77799987792969,-44.13040161132812
60427,-0.29241943359375,0.246551513671875,0.1434326171875,0.0681662708520889,0.3905040919780731,0.0664266943931579,58.20976257324219,87.54864501953125,-44.40087890625
60428,-0.221832275390625,0.470794677734375,0.2218170166015625,-0.2414027750492096,0.5252012014389038,0.1271611452102661,58.15953063964844,87.46426391601562,-44.64912414550781
60429,-0.2337493896484375,0.6217041015625,0.3280487060546875,-0.4692508578300476,0.7173799872398376,0.0973691642284393,58.2557373046875,87.40177917480469,-44.63185119628906
60430,-0.33831787109375,0.8549652099609375,0.3860015869140625,-0.7927607297897339,1.043055534362793,-0.0495204143226146,58.56105041503906,87.70620727539062,-44.30165100097656
60431,-0.33831787109375,0.8549652099609375,0.3860015869140625,-0.7927607297897339,1.043055534362793,-0.0495204143226146,58.56105041503906,87.70620727539062,-44.30165100097656
60432,-0.3737640380859375,0.90020751953125,0.3887786865234375,-0.9192092418670654,0.996054470539093,-0.1413336843252182,58.83572387695312,87.82879638671875,-43.97050476074219
60433,-0.3805694580078125,0.9178924560546876,0.4130096435546875,-1.071276307106018,0.8437946438789368,-0.177772119641304,58.97869873046875,88.04808044433594,-43.54582214355469
60434,-0.3445587158203125,0.9532928466796876,0.426727294921875,-1.241432547569275,0.6326070427894592,-0.2006380259990692,59.09674072265625,88.25395202636719,-43.07670593261719
60435,-0.2158050537109375,0.9837188720703124,0.422088623046875,-1.563255071640015,0.1114676743745804,-0.2462212294340134,59.01565551757812,88.81228637695312,-42.31318664550781
60436,-0.2158050537109375,0.9837188720703124,0.422088623046875,-1.563255071640015,0.1114676743745804,-0.2462212294340134,59.01565551757812,88.81228637695312,-42.31318664550781
60437,-0.159820556640625,0.9709625244140624,0.40386962890625,-1.639567613601685,-0.0995859801769256,-0.2737143635749817,58.91926574707031,89.24235534667969,-41.77447509765625
60438,-0.1046905517578125,0.9584808349609376,0.3597564697265625,-1.604422211647034,-0.1899217367172241,-0.3078923225402832,58.69430541992188,89.54078674316406,-41.18898010253906
60439,-0.0838623046875,0.9850006103515624,0.2572784423828125,-1.50789487361908,-0.1360521167516708,-0.3177793025970459,58.41859436035156,89.90679931640625,-40.63504028320312
60440,-0.1107635498046875,0.99725341796875,0.13214111328125,-1.365653872489929,-0.0166423600167036,-0.3302580714225769,58.15156555175781,90.15367126464844,-40.00416564941406
60441,-0.1565704345703125,0.96734619140625,0.0312957763671875,-1.219191431999207,0.1536809056997299,-0.3298865556716919,57.89500427246094,90.43942260742188,-39.17306518554688
60442,-0.1912078857421875,0.9089202880859376,-0.083160400390625,-1.089783310890198,0.2068985849618912,-0.3325084447860718,57.6812744140625,90.56263732910156,-38.65528869628906
60443,-0.19879150390625,0.86724853515625,-0.132476806640625,-1.043583154678345,0.1084508448839188,-0.3396057784557343,57.53091430664062,90.65602111816406,-38.18089294433594
60444,-0.1849212646484375,0.8609466552734375,-0.142669677734375,-1.086762309074402,-0.0303081050515174,-0.3751371204853058,57.37672424316406,90.92253112792967,-37.64248657226562
60445,-0.159912109375,0.897735595703125,-0.1744537353515625,-1.181486964225769,-0.1472176760435104,-0.4170867204666138,57.1717529296875,91.16786193847656,-37.0322265625
60446,-0.1354522705078125,0.993927001953125,-0.2189788818359375,-1.258762240409851,-0.2068501114845276,-0.4638467729091644,56.8758544921875,91.38917541503906,-36.45597839355469
60447,-0.1190185546875,1.110183715820312,-0.2559661865234375,-1.24737536907196,-0.1728149205446243,-0.5288963317871094,56.6185302734375,91.56509399414062,-35.70201110839844
60448,-0.1016082763671875,1.189010620117188,-0.2666778564453125,-1.153290152549744,-0.0889977812767028,-0.5805291533470154,56.25686645507812,91.7143096923828,-35.10743713378906
60449,-0.1064605712890625,1.2479248046875,-0.26806640625,-1.012658476829529,0.0098576908931136,-0.5780454874038696,55.84922790527344,91.92491149902344,-34.44352722167969
60450,-0.1172332763671875,1.315841674804688,-0.2968292236328125,-0.8609749674797058,0.0391375496983528,-0.5145320296287537,55.45193481445312,92.054931640625,-33.80778503417969
60451,-0.1334075927734375,1.402114868164062,-0.3415374755859375,-0.6940423846244812,0.0247263852506876,-0.3949638307094574,55.06498718261719,92.19309997558594,-33.31349182128906
60452,-0.1365203857421875,1.479278564453125,-0.4048614501953125,-0.4626323580741882,0.0349910072982311,-0.241653636097908,54.86764526367188,92.22781372070312,-32.83387756347656
60453,-0.122802734375,1.512405395507812,-0.479156494140625,-0.1576391607522964,0.0967156216502189,-0.0540690943598747,54.62345886230469,92.37022399902344,-32.56394958496094
60454,-0.0384063720703125,1.557571411132812,-0.5743865966796875,0.4971522390842438,0.3569527864456177,0.3594063818454742,54.44406127929688,92.29315185546876,-32.22358703613281
60455,-0.0384063720703125,1.557571411132812,-0.5743865966796875,0.4971522390842438,0.3569527864456177,0.3594063818454742,54.44406127929688,92.29315185546876,-32.22358703613281
60456,-0.0149993896484375,1.583648681640625,-0.56402587890625,0.6984472870826721,0.5131048560142517,0.5062187314033508,54.54496765136719,92.28575134277344,-32.26347351074219
60457,-0.0115509033203125,1.597625732421875,-0.540191650390625,0.7737468481063843,0.5619325637817383,0.5576260089874268,54.77180480957031,92.12960815429688,-32.29954528808594
60458,-0.0595703125,1.5760498046875,-0.538848876953125,0.8022783398628235,0.5459488034248352,0.5692826509475708,55.03280639648438,91.98908996582033,-32.63584899902344
60459,-0.1229248046875,1.501434326171875,-0.5608978271484375,0.8899980783462524,0.5766518712043762,0.5881127715110779,55.38824462890625,91.94953918457033,-32.94569396972656
60460,-0.15582275390625,1.403228759765625,-0.535125732421875,0.9710532426834106,0.7193363308906555,0.5924113988876343,55.82559204101562,91.71604919433594,-33.25068664550781
60461,-0.1529693603515625,1.287521362304688,-0.5008087158203125,0.9642238020896912,0.844460666179657,0.5706400275230408,56.1669921875,91.49688720703124,-33.68760681152344
60462,-0.1376953125,1.183395385742188,-0.4537353515625,0.8749850392341614,0.8709679245948792,0.5209372043609619,56.55609130859375,91.4010009765625,-34.28370666503906
60463,-0.1180419921875,1.079498291015625,-0.41009521484375,0.7279106378555298,0.7811442613601685,0.4368225932121277,57.12237548828125,91.11947631835938,-34.64022827148438
60464,-0.11767578125,0.976226806640625,-0.3616943359375,0.5463474988937378,0.5699364542961121,0.3546097576618195,57.47125244140625,91.0916748046875,-35.0816650390625
60465,-0.1377410888671875,0.9201202392578124,-0.27593994140625,0.3719197511672974,0.3263227045536041,0.3036943674087524,57.8829345703125,91.01095581054688,-35.388427734375
60466,-0.1472015380859375,0.9232025146484376,-0.180999755859375,0.2505946755409241,0.0809758082032203,0.3072536885738373,58.12684631347656,90.9967041015625,-36.15011596679688
60467,-0.14471435546875,0.957611083984375,-0.087249755859375,0.2094903737306595,-0.1349682062864304,0.3384917676448822,58.44792175292969,90.87002563476562,-36.37458801269531
60468,-0.14776611328125,0.977813720703125,-0.018646240234375,0.1670081615447998,-0.2566762566566467,0.3884569406509399,58.57865905761719,90.74177551269533,-36.52023315429688
60469,-0.157257080078125,1.010787963867188,0.0282440185546875,0.1405531167984009,-0.3264180719852448,0.4694761335849762,58.81507873535156,90.6564483642578,-36.61848449707031
60470,-0.1671295166015625,1.0751953125,0.068023681640625,0.1983623504638672,-0.4253587424755096,0.5739258527755737,59.04460144042969,90.59657287597656,-36.71163940429688
60471,-0.1837158203125,1.159683227539062,0.1141510009765625,0.3457491397857666,-0.5159426927566528,0.6406625509262085,59.35638427734375,90.60955810546876,-36.77210998535156
60472,-0.1617279052734375,1.186508178710938,0.1414642333984375,0.5446268320083618,-0.5738052129745483,0.6669937372207642,59.5716552734375,90.56568908691406,-37.01252746582031
60473,-0.1225128173828125,1.135162353515625,0.168670654296875,0.7333652973175049,-0.6073789000511169,0.6497945189476013,59.76657104492188,90.44499206542967,-37.12664794921875
60474,-0.0839080810546875,1.021881103515625,0.213623046875,0.842353880405426,-0.4810363948345184,0.5819792747497559,59.94175720214844,90.36654663085938,-37.28010559082031
60475,0.0065765380859375,0.781036376953125,0.24810791015625,0.8171518445014954,0.0762678757309913,0.4899073839187622,60.36282348632812,90.03814697265625,-37.96992492675781
60476,0.0065765380859375,0.781036376953125,0.24810791015625,0.8171518445014954,0.0762678757309913,0.4899073839187622,60.36282348632812,90.03814697265625,-37.96992492675781
60477,0.0376739501953125,0.6868896484375,0.2862396240234375,0.7774576544761658,0.3949489295482635,0.4803932309150696,60.49916076660156,89.82377624511719,-38.389404296875
60478,0.0580596923828125,0.54730224609375,0.28057861328125,0.7510105967521667,0.6744311451911926,0.5366535782814026,61.23249816894531,89.34129333496094,-38.86747741699219
60479,0.0580596923828125,0.54730224609375,0.28057861328125,0.7510105967521667,0.6744311451911926,0.5366535782814026,61.23249816894531,89.34129333496094,-38.86747741699219
60480,0.0507659912109375,0.5276336669921875,0.279327392578125,0.7190188765525818,0.5756348371505737,0.5705910325050354,61.70248413085938,89.25425720214844,-39.08535766601562
60481,0.035888671875,0.51422119140625,0.2910919189453125,0.5956932306289673,0.4568844437599182,0.5428470373153687,62.19197082519531,88.96784973144531,-39.22050476074219
60482,0.002197265625,0.491943359375,0.3091888427734375,0.3678824007511139,0.3422851860523224,0.4908626675605774,62.73759460449219,88.7515869140625,-39.48283386230469
60483,-0.0849761962890625,0.53656005859375,0.3042755126953125,0.0930130332708358,0.2696621119976044,0.4053286015987396,63.1424560546875,88.58303833007812,-39.6356201171875
60484,-0.2071685791015625,0.6347198486328125,0.258880615234375,-0.1713592410087585,0.1251752227544785,0.2507936060428619,63.46585083007812,88.27513122558594,-39.72203063964844
60485,-0.3273468017578125,0.76348876953125,0.257049560546875,-0.3993817567825317,-0.0397194512188434,0.0915179327130317,63.76828002929688,88.24150085449219,-39.78158569335938
60486,-0.41937255859375,0.8716888427734375,0.343841552734375,-0.6832517981529236,0.0156434085220098,-0.1709443181753159,63.91058349609375,88.27198791503906,-39.565673828125
60487,-0.41937255859375,0.8716888427734375,0.343841552734375,-0.6832517981529236,0.0156434085220098,-0.1709443181753159,63.91058349609375,88.27198791503906,-39.565673828125
60488,-0.411376953125,0.8561859130859375,0.3898468017578125,-0.6710010170936584,0.2058916389942169,-0.2686346471309662,63.8837890625,88.45335388183594,-39.4227294921875
60489,-0.388671875,0.8248138427734375,0.4000701904296875,-0.5995433330535889,0.4095510244369507,-0.3163606226444244,63.76487731933594,88.52560424804688,-39.17341613769531
60490,-0.3749542236328125,0.8160400390625,0.3807525634765625,-0.5074389576911926,0.5380839705467224,-0.338102400302887,63.63768005371094,88.75570678710938,-38.98106384277344
60491,-0.3817596435546875,0.8154296875,0.3501434326171875,-0.4478377103805542,0.54258793592453,-0.379898339509964,63.46328735351562,88.95161437988281,-38.80084228515625
60492,-0.402923583984375,0.81298828125,0.2930145263671875,-0.4791482090950012,0.4378257989883423,-0.4336720705032349,63.39089965820312,89.08317565917969,-38.61526489257812
60493,-0.405517578125,0.79510498046875,0.252838134765625,-0.5575578212738037,0.2299234718084335,-0.48599573969841,63.33074951171875,89.25422668457031,-38.44837951660156
60494,-0.399383544921875,0.76416015625,0.2531280517578125,-0.6532955169677734,0.0279775727540254,-0.53834468126297,63.17962646484375,89.49424743652344,-38.17552185058594
60495,-0.3496551513671875,0.7428131103515625,0.2683868408203125,-0.7594581842422485,-0.0690115615725517,-0.5815430283546448,62.93168640136719,89.6337890625,-37.8975830078125
60496,-0.2908935546875,0.7654571533203125,0.2454071044921875,-0.8897426724433899,0.0046639940701425,-0.5863603949546814,62.73439025878906,89.7862548828125,-37.67364501953125
60497,-0.2439117431640625,0.815032958984375,0.110321044921875,-0.9587310552597046,0.0825907513499259,-0.5974189043045044,62.40032958984375,89.91159057617188,-37.4007568359375
60498,-0.1916046142578125,0.8354644775390625,-0.0183868408203125,-0.928293526172638,-0.0264832731336355,-0.572624921798706,61.99081420898438,90.13760375976562,-37.15910339355469
60499,-0.1569061279296875,0.8372955322265625,-0.0363006591796875,-0.7667860984802246,-0.1091390028595924,-0.5277149677276611,61.65426635742188,90.26734924316406,-36.62637329101562
60500,-0.1511077880859375,0.8123931884765625,-0.0153350830078125,-0.6360573768615723,-0.1623473614454269,-0.5088818669319153,61.34902954101562,90.43580627441406,-36.24395751953125
60501,-0.149810791015625,0.80657958984375,0.0081634521484375,-0.6144970059394836,-0.2221566289663315,-0.5118683576583862,60.96624755859375,90.4584503173828,-35.95269775390625
60502,-0.1317901611328125,0.8284759521484375,0.005401611328125,-0.7261433601379395,-0.3788679540157318,-0.5109961628913879,60.592529296875,90.38641357421876,-35.45208740234375
60503,-0.1151885986328125,0.9059906005859376,-0.01068115234375,-0.9181413054466248,-0.5930793285369873,-0.5101284980773926,60.33695983886719,90.4578857421875,-35.23548889160156
60504,-0.116912841796875,1.042617797851562,-0.023040771484375,-1.071359395980835,-0.8009741902351379,-0.5055103302001953,59.96794128417969,90.5751953125,-34.97254943847656
60505,-0.1280059814453125,1.185699462890625,-0.0415802001953125,-1.096365094184875,-0.8515018224716187,-0.5231812000274658,59.5555419921875,90.77108764648438,-34.3778076171875
60506,-0.1093902587890625,1.277938842773438,-0.07745361328125,-0.9960837364196776,-0.8093149662017822,-0.5363094806671143,59.11302185058594,90.84779357910156,-33.83767700195312
60507,-0.088134765625,1.333099365234375,-0.115264892578125,-0.8099074959754944,-0.7398778200149536,-0.5295243263244629,58.61959838867188,90.9587860107422,-33.44096374511719
60508,-0.0748138427734375,1.352493286132812,-0.152191162109375,-0.5967763066291809,-0.6558359265327454,-0.5071702599525452,58.22059631347656,91.13223266601562,-33.05902099609375
60509,-0.03277587890625,1.323089599609375,-0.236328125,-0.3812898397445679,-0.5548813343048096,-0.457642138004303,57.67066955566406,91.33297729492188,-32.65171813964844
60510,0.00128173828125,1.322906494140625,-0.377227783203125,-0.1451265662908554,-0.5478236675262451,-0.3621054887771606,57.27018737792969,91.37681579589844,-32.25457763671875
60511,0.021209716796875,1.347854614257812,-0.5303192138671875,0.1583302468061447,-0.5792444348335266,-0.2517446279525757,56.98068237304688,91.28923034667967,-31.82972717285156
60512,0.06390380859375,1.378860473632812,-0.641937255859375,0.5444129705429077,-0.6064915060997009,-0.1033634096384048,56.58181762695312,91.14285278320312,-31.65379333496094
60513,0.1272430419921875,1.431594848632812,-0.6845550537109375,0.9271318316459656,-0.5310308337211609,0.0667867511510849,56.41566467285156,91.0134735107422,-31.68252563476562
60514,0.1893310546875,1.486465454101562,-0.6884613037109375,1.203575968742371,-0.3721807599067688,0.2512189149856567,56.24075317382812,90.95773315429688,-31.81123352050781
60515,0.1893310546875,1.486465454101562,-0.6884613037109375,1.203575968742371,-0.3721807599067688,0.2512189149856567,56.24075317382812,90.95773315429688,-31.81123352050781
60516,0.307037353515625,1.580764770507812,-0.664276123046875,1.401912450790405,-0.1975591480731964,0.5095234513282776,56.26362609863281,90.64427185058594,-33.02590942382812
60517,0.3130950927734375,1.592376708984375,-0.63232421875,1.360174059867859,-0.1200350597500801,0.5110576748847961,56.44252014160156,90.38743591308594,-33.61126708984375
60518,0.2969207763671875,1.529998779296875,-0.612884521484375,1.276568174362183,0.0747493356466293,0.4661874175071716,56.64421081542969,90.2159423828125,-34.35690307617188
60519,0.233123779296875,1.454193115234375,-0.5958251953125,1.124016404151917,0.2220458537340164,0.4404077529907227,56.84738159179688,89.90704345703125,-35.05973815917969
60520,0.154388427734375,1.419692993164062,-0.523651123046875,0.9028605818748474,0.2549681067466736,0.4385227560997009,57.11041259765625,89.60923767089844,-35.69424438476562
60521,0.1011505126953125,1.447463989257812,-0.4267578125,0.6368014812469482,0.2101154178380966,0.3488591909408569,57.39634704589844,89.323486328125,-36.27140808105469
60522,0.0196990966796875,1.410415649414062,-0.2285919189453125,0.2426075786352158,-0.1064793020486832,0.0070208916440606,57.96217346191406,89.20100402832031,-37.2672119140625
60523,0.0196990966796875,1.410415649414062,-0.2285919189453125,0.2426075786352158,-0.1064793020486832,0.0070208916440606,57.96217346191406,89.20100402832031,-37.2672119140625
60524,-0.04913330078125,1.391555786132812,-0.098388671875,0.1983828693628311,-0.2059957683086395,-0.1837083101272583,58.07722473144531,89.12214660644531,-37.46578979492188
60525,-0.12017822265625,1.378387451171875,-0.0097808837890625,0.2726483047008514,-0.240608885884285,-0.296818882226944,58.16230773925781,89.23013305664062,-37.70671081542969
60526,-0.2731170654296875,1.351394653320312,0.1076202392578125,0.4946012198925018,-0.0758846476674079,-0.260353296995163,58.14642333984375,89.12281799316406,-38.25798034667969
60527,-0.2731170654296875,1.351394653320312,0.1076202392578125,0.4946012198925018,-0.0758846476674079,-0.260353296995163,58.14642333984375,89.12281799316406,-38.25798034667969
60528,-0.300445556640625,1.318252563476562,0.091400146484375,0.597210168838501,0.1687541306018829,-0.1027791053056717,58.03523254394531,89.13182067871094,-38.56207275390625
60529,-0.2425079345703125,1.237274169921875,-0.02032470703125,0.6734468340873718,0.2077590525150299,0.0889325365424156,57.97677612304688,88.99122619628906,-38.74200439453125
60530,-0.16107177734375,1.135986328125,-0.1444091796875,0.6630038022994995,-0.1142996773123741,0.175047442317009,57.99217224121094,88.9052734375,-38.89292907714844
60531,-0.1724853515625,1.01531982421875,-0.148712158203125,0.5610241889953613,-0.5742944478988647,0.2021690756082535,58.31600952148438,88.947998046875,-39.14436340332031
60532,-0.262969970703125,0.9106597900390624,-0.0258636474609375,0.4717033505439758,-0.967444896697998,0.2946606576442719,58.65087890625,89.08404541015625,-39.18824768066406
60533,-0.31939697265625,0.83123779296875,0.122039794921875,0.5627325773239136,-1.106775879859924,0.3264529407024384,58.74758911132812,89.16799926757812,-39.13815307617188
60534,-0.3480224609375,0.629974365234375,0.2465057373046875,1.271847724914551,-1.052001118659973,0.2680543661117554,58.86305236816406,89.14039611816406,-39.45774841308594
60535,-0.3480224609375,0.629974365234375,0.2465057373046875,1.271847724914551,-1.052001118659973,0.2680543661117554,58.86305236816406,89.14039611816406,-39.45774841308594
60536,-0.3271331787109375,0.5843505859375,0.337371826171875,1.619284510612488,-0.824504554271698,0.2193339467048645,58.896484375,89.08512878417969,-39.94778442382812
60537,-0.2801055908203125,0.5387115478515625,0.364837646484375,1.715320467948914,-0.5387697219848633,0.0854091718792915,58.86943054199219,89.08717346191406,-40.617431640625
60538,-0.2433319091796875,0.471954345703125,0.3584136962890625,1.555783033370972,-0.258636087179184,-0.0694741457700729,58.79844665527344,88.9281005859375,-41.22129821777344
60539,-0.2443389892578125,0.396728515625,0.332916259765625,1.282702684402466,-0.0218224748969078,-0.1720101088285446,59.00198364257812,88.57603454589844,-42.03215026855469
60540,-0.250396728515625,0.3134613037109375,0.27734375,1.030643343925476,0.0966186821460723,-0.2218977808952332,59.10302734375,88.16976928710938,-42.56019592285156
60541,-0.260589599609375,0.246917724609375,0.21630859375,0.8367868065834045,0.0839465633034706,-0.2453341335058212,59.13803100585938,87.70687866210938,-43.21995544433594
60542,-0.286102294921875,0.186065673828125,0.1967010498046875,0.6468711495399475,0.0673984810709953,-0.2559811770915985,59.26741027832031,87.28868103027344,-43.72831726074219
60543,-0.2953643798828125,0.135986328125,0.16485595703125,0.4070015847682953,0.1105462163686752,-0.2266467213630676,59.33146667480469,86.82225036621094,-44.07118225097656
60544,-0.27801513671875,0.1682586669921875,0.114837646484375,0.172280415892601,0.0952239856123924,-0.1703674793243408,59.36393737792969,86.58460998535156,-44.50083923339844
60545,-0.2320556640625,0.3380279541015625,0.1302490234375,-0.0619113035500049,0.0518309734761714,-0.0897298827767372,59.36329650878906,86.40867614746094,-44.65179443359375
60546,-0.2308349609375,0.775543212890625,0.2681121826171875,-0.4601409733295441,0.212702140212059,-0.0975723639130592,59.22114562988281,86.37916564941406,-44.59562683105469
60547,-0.2308349609375,0.775543212890625,0.2681121826171875,-0.4601409733295441,0.212702140212059,-0.0975723639130592,59.22114562988281,86.37916564941406,-44.59562683105469
60548,-0.293121337890625,0.9310455322265624,0.33428955078125,-0.6566095352172852,0.3346397578716278,-0.2060208022594452,59.16880798339844,86.48204040527344,-44.45587158203125
60549,-0.3636016845703125,1.027633666992188,0.398529052734375,-0.844981849193573,0.453572541475296,-0.3191268444061279,59.13078308105469,86.64295959472656,-44.37026977539062
60550,-0.4665985107421875,1.053329467773438,0.44482421875,-1.120816588401794,0.568457841873169,-0.4434770345687866,59.10353088378906,87.21232604980469,-43.69798278808594
60551,-0.4665985107421875,1.053329467773438,0.44482421875,-1.120816588401794,0.568457841873169,-0.4434770345687866,59.10353088378906,87.21232604980469,-43.69798278808594
60552,-0.4652252197265625,1.0384521484375,0.4098968505859375,-1.176857590675354,0.4334920346736908,-0.4070527255535126,59.02757263183594,87.7261962890625,-43.51545715332031
60553,-0.43121337890625,1.034103393554688,0.4027252197265625,-1.187520027160645,0.2040191739797592,-0.3374512791633606,58.86982727050781,88.12237548828125,-43.06358337402344
60554,-0.377471923828125,1.009857177734375,0.4140472412109375,-1.180101037025452,-0.002167813014239,-0.2718677222728729,58.75030517578125,88.50149536132812,-42.63435363769531
60555,-0.331573486328125,0.9515228271484376,0.4174346923828125,-1.166153192520142,-0.129445880651474,-0.2299647629261017,58.60566711425781,88.80325317382812,-42.10093688964844
60556,-0.2934112548828125,0.8874359130859375,0.402587890625,-1.157413840293884,-0.2354623228311539,-0.2124574035406113,58.39590454101562,89.04290771484375,-41.67347717285156
60557,-0.27471923828125,0.85101318359375,0.389007568359375,-1.16204047203064,-0.304209440946579,-0.2386637032032013,58.25177001953125,89.28240966796875,-41.24609375
60558,-0.2720489501953125,0.8443756103515625,0.251312255859375,-1.206210613250732,-0.1979543566703796,-0.3404723703861237,57.84245300292969,89.76925659179688,-40.26028442382812
60559,-0.2720489501953125,0.8443756103515625,0.251312255859375,-1.206210613250732,-0.1979543566703796,-0.3404723703861237,57.84245300292969,89.76925659179688,-40.26028442382812
60560,-0.27032470703125,0.9091339111328124,0.053131103515625,-1.167951941490173,-0.2979491353034973,-0.4080037474632263,57.6123046875,90.07467651367188,-39.76065063476562
60561,-0.2296295166015625,1.049087524414062,-0.1927032470703125,-0.9814446568489076,-0.7905135750770569,-0.443710595369339,57.32302856445312,90.3536376953125,-39.25227355957031
60562,-0.181396484375,1.212310791015625,-0.2464752197265625,-0.6447765827178955,-1.262677907943726,-0.4635487496852875,56.97927856445312,90.39154052734376,-38.66940307617188
60563,-0.1423492431640625,1.335067749023438,-0.091217041015625,-0.096744917333126,-0.7716871500015259,-0.3070909678936005,55.96875,90.34700012207033,-37.94952392578125
60564,-0.1423492431640625,1.335067749023438,-0.091217041015625,-0.096744917333126,-0.7716871500015259,-0.3070909678936005,55.96875,90.34700012207033,-37.94952392578125
60565,-0.11529541015625,1.317779541015625,-0.1469573974609375,0.0189646370708942,-0.2527883052825928,-0.294042557477951,55.30191040039062,90.20787048339844,-37.83584594726562
60566,-0.0212249755859375,1.260787963867188,-0.3568115234375,0.0148793468251824,0.1617505550384521,-0.2601082921028137,54.41845703125,90.03231811523438,-37.62274169921875
60567,-0.0212249755859375,1.260787963867188,-0.3568115234375,0.0148793468251824,0.1617505550384521,-0.2601082921028137,54.41845703125,90.03231811523438,-37.62274169921875
60568,-0.0074005126953125,1.217025756835938,-0.46392822265625,-0.0071029169484972,0.0878446325659751,-0.199230283498764,54.197265625,90.10031127929688,-37.60203552246094
60569,0.0112152099609375,1.181167602539062,-0.55029296875,0.0047590686008334,-0.0381212867796421,-0.0855380669236183,53.95294189453125,90.01310729980469,-37.43531799316406
60570,0.0242462158203125,1.184173583984375,-0.61602783203125,0.0821755602955818,-0.1216081902384758,0.02425367385149,53.79405212402344,89.88650512695312,-37.22637939453125
60571,0.0114898681640625,1.249786376953125,-0.6649627685546875,0.2698727548122406,-0.0595440194010734,0.1406607180833817,53.71565246582031,89.85481262207031,-37.32281494140625
60572,0.008026123046875,1.335128784179688,-0.7095489501953125,0.523392379283905,0.1453420221805573,0.238258108496666,53.72615051269531,89.82234191894531,-37.41848754882812
60573,0.014739990234375,1.425323486328125,-0.73675537109375,0.781025767326355,0.3821564316749573,0.3705386519432068,53.7296142578125,89.56251525878906,-37.47679138183594
60574,0.01123046875,1.499114990234375,-0.729156494140625,0.9451984763145448,0.5679275989532471,0.4168486297130585,53.84336853027344,89.43069458007812,-37.63009643554688
60575,-0.0068359375,1.522903442382812,-0.731475830078125,0.993132710456848,0.6476600170135498,0.4074447453022003,54.11534118652344,89.24055480957031,-37.73655700683594
60576,-0.062286376953125,1.472915649414062,-0.7782440185546875,0.9944767951965332,0.6343042254447937,0.3799667656421661,54.29043579101562,89.02000427246094,-38.09634399414062
60577,-0.1184234619140625,1.3592529296875,-0.7815399169921875,1.031017184257507,0.6865141987800598,0.3814901113510132,54.96025085449219,88.7503662109375,-38.71485900878906
60578,-0.0681915283203125,1.144088745117188,-0.6893768310546875,1.058534383773804,0.8566113710403442,0.3736146092414856,55.57832336425781,88.3828125,-39.74195861816406
60579,-0.0681915283203125,1.144088745117188,-0.6893768310546875,1.058534383773804,0.8566113710403442,0.3736146092414856,55.57832336425781,88.3828125,-39.74195861816406
60580,-0.048492431640625,1.047760009765625,-0.624481201171875,0.964304268360138,0.7985147833824158,0.3288487195968628,55.922607421875,88.11904907226562,-40.21017456054688
60581,-0.0503692626953125,0.96832275390625,-0.5631561279296875,0.8343198895454407,0.7032923698425293,0.2897244989871979,56.35565185546875,87.90805053710938,-40.62226867675781
60582,-0.0471343994140625,0.894683837890625,-0.4583740234375,0.4336185455322266,0.4661948680877686,0.2162849009037018,56.9820556640625,87.56138610839844,-41.39988708496094
60583,-0.0471343994140625,0.894683837890625,-0.4583740234375,0.4336185455322266,0.4661948680877686,0.2162849009037018,56.9820556640625,87.56138610839844,-41.39988708496094
60584,-0.086151123046875,0.8655548095703125,-0.39569091796875,0.0917781218886375,0.3078382611274719,0.2001051306724548,57.2100830078125,87.52903747558594,-41.71395874023438
60585,-0.143096923828125,0.8916473388671875,-0.3505859375,-0.2697457373142242,0.2197467386722565,0.2140062898397446,57.40840148925781,87.3687744140625,-41.71876525878906
60586,-0.2217559814453125,1.021835327148438,-0.325775146484375,-0.804333508014679,-0.0820096507668495,0.3451065123081207,57.73095703125,87.57110595703125,-41.53384399414062
60587,-0.2217559814453125,1.021835327148438,-0.325775146484375,-0.804333508014679,-0.0820096507668495,0.3451065123081207,57.73095703125,87.57110595703125,-41.53384399414062
60588,-0.258056640625,1.072113037109375,-0.1072235107421875,-0.789014995098114,-0.0499758161604404,0.4815964698791504,57.88810729980469,87.820068359375,-41.2420654296875
60589,-0.2515106201171875,1.119476318359375,0.0706329345703125,-0.5033236145973206,0.1317353993654251,0.5923056602478027,58.08084106445312,88.24212646484375,-40.90573120117188
60590,-0.2107391357421875,1.143356323242188,0.193603515625,0.4147431254386902,0.1335857510566711,0.7701371908187866,58.82658386230469,89.06645202636719,-40.49394226074219
60591,-0.2107391357421875,1.143356323242188,0.193603515625,0.4147431254386902,0.1335857510566711,0.7701371908187866,58.82658386230469,89.06645202636719,-40.49394226074219
60592,-0.200714111328125,1.084457397460938,0.2072906494140625,0.8010093569755554,-0.0210264548659324,0.7896996736526489,59.19985961914062,89.27479553222656,-40.4129638671875
60593,-0.18707275390625,0.9737091064453124,0.2557373046875,1.077595710754395,-0.1632887870073318,0.747022271156311,59.61639404296875,89.25808715820312,-40.61045837402344
60594,-0.142547607421875,0.841094970703125,0.3397979736328125,1.18329119682312,-0.1774871647357941,0.7066857814788818,59.99044799804688,88.9114990234375,-40.96238708496094
60595,-0.083404541015625,0.730438232421875,0.398834228515625,1.097343802452087,-0.0358959473669529,0.6959511041641235,60.36715698242188,88.65559387207031,-41.23704528808594
60596,-0.0353851318359375,0.6364898681640625,0.3957061767578125,0.8777709603309631,0.1971199959516525,0.6802000999450684,60.69966125488281,88.54981994628906,-41.89137268066406
60597,0.0179901123046875,0.5417327880859375,0.3309783935546875,0.6155428290367126,0.3786583542823792,0.6694909930229187,60.92658996582031,88.31251525878906,-42.37319946289062
60598,0.0642242431640625,0.487884521484375,0.242767333984375,0.3482897877693176,0.4777841567993164,0.6549592018127441,61.27468872070312,88.14459228515625,-42.62876892089844
60599,0.10107421875,0.4578399658203125,0.1248016357421875,0.1220872923731804,0.4049408435821533,0.5896033644676208,61.64241027832031,87.96180725097656,-42.905517578125
60600,0.12994384765625,0.4753265380859375,0.057647705078125,0.0124694528058171,0.1418569982051849,0.5019246339797974,62.11013793945312,87.77317810058594,-42.93136596679688
60601,0.0593414306640625,0.651275634765625,0.11322021484375,-0.0053228600881993,-0.0426353439688682,0.3184554874897003,62.4896240234375,87.68138122558594,-42.89604187011719
60602,-0.244598388671875,0.9722900390625,0.20379638671875,-0.1580876410007477,-0.1241408586502075,-0.076330192387104,62.88983154296875,87.17706298828125,-42.57498168945312
60603,-0.244598388671875,0.9722900390625,0.20379638671875,-0.1580876410007477,-0.1241408586502075,-0.076330192387104,62.88983154296875,87.17706298828125,-42.57498168945312
60604,-0.30804443359375,1.006546020507812,0.2213897705078125,-0.2852834165096283,-0.0459235496819019,-0.2066586315631866,62.74577331542969,87.32357788085938,-42.63310241699219
60605,-0.33251953125,1.010055541992188,0.2168121337890625,-0.402017205953598,0.0730912536382675,-0.3072630167007446,62.60874938964844,87.35911560058594,-42.62750244140625
60606,-0.31658935546875,0.9803009033203124,0.205841064453125,-0.4778360724449158,0.147562563419342,-0.3763206303119659,62.53639221191406,87.45039367675781,-42.61549377441406
60607,-0.30682373046875,0.942138671875,0.2310028076171875,-0.5146114230155945,0.1696894317865372,-0.4142179489135742,62.44520568847656,87.61299133300781,-42.55213928222656
60608,-0.3193359375,0.91668701171875,0.2802581787109375,-0.5325395464897156,0.2143272012472153,-0.4194484055042267,62.36260986328125,87.84672546386719,-42.40060424804688
60609,-0.3375244140625,0.8994903564453125,0.3056182861328125,-0.551569938659668,0.270628035068512,-0.417449951171875,62.21235656738281,88.03950500488281,-41.99819946289062
60610,-0.3668365478515625,0.8559417724609375,0.285064697265625,-0.635029137134552,0.2698378562927246,-0.4372066259384155,62.10267639160156,88.4415283203125,-41.48112487792969
60611,-0.3668365478515625,0.8559417724609375,0.285064697265625,-0.635029137134552,0.2698378562927246,-0.4372066259384155,62.10267639160156,88.4415283203125,-41.48112487792969
60612,-0.372650146484375,0.8183746337890625,0.2427520751953125,-0.7150233387947083,0.2182553708553314,-0.4514737129211426,61.97305297851562,88.62515258789062,-41.30390930175781
60613,-0.36328125,0.7751312255859375,0.1908721923828125,-0.7945029735565186,0.1695600003004074,-0.4693834781646729,61.83888244628906,88.85014343261719,-41.14434814453125
60614,-0.3073272705078125,0.7393035888671875,0.049346923828125,-0.8408291935920715,0.188396543264389,-0.5207403898239136,61.33187866210938,89.07913208007812,-40.57057189941406
60615,-0.3073272705078125,0.7393035888671875,0.049346923828125,-0.8408291935920715,0.188396543264389,-0.5207403898239136,61.33187866210938,89.07913208007812,-40.57057189941406
60616,-0.27008056640625,0.719512939453125,0.0068206787109375,-0.8210560083389282,0.1794973164796829,-0.5348700881004333,61.20510864257812,89.36875915527344,-40.32200622558594
60617,-0.2347564697265625,0.7205657958984375,-0.0111541748046875,-0.8243338465690613,0.1820925772190094,-0.5582537055015564,60.95486450195312,89.61859130859375,-39.89906311035156
60618,-0.200469970703125,0.7328033447265625,-0.028533935546875,-0.872770369052887,0.1119374558329582,-0.595048189163208,60.69406127929688,89.81277465820312,-39.37083435058594
60619,-0.1618194580078125,0.7756805419921875,-0.047027587890625,-0.9622527956962584,-0.0568619519472122,-0.62217116355896,60.46578979492188,90.08888244628906,-38.85835266113281
60620,-0.1058502197265625,0.8454132080078125,-0.0611724853515625,-1.068050384521484,-0.3497564196586609,-0.6180240511894226,60.20191955566406,90.36953735351562,-38.520263671875
60621,-0.0805511474609375,0.9250030517578124,-0.0599517822265625,-1.1631920337677,-0.5434520840644836,-0.613957405090332,59.95220947265625,90.5748291015625,-38.06245422363281
60622,-0.0805511474609375,0.9837188720703124,-0.075469970703125,-1.240098237991333,-0.628664493560791,-0.6110284924507141,59.49261474609375,90.85359191894533,-37.60916137695312
60623,-0.0655975341796875,1.034042358398438,-0.0688018798828125,-1.27369749546051,-0.6384076476097107,-0.6131188273429871,59.09030151367188,91.0057373046875,-36.97743225097656
60624,-0.024505615234375,1.061614990234375,-0.05517578125,-1.280575633049011,-0.6503804326057434,-0.5775541663169861,58.65324401855469,91.3013916015625,-36.47416687011719
60625,-0.008056640625,1.109268188476562,-0.0677032470703125,-1.249757289886475,-0.6807178258895874,-0.5181587338447571,58.24234008789062,91.44476318359376,-35.94406127929688
60626,-0.02496337890625,1.188995361328125,-0.1248931884765625,-1.133246660232544,-0.6807125210762024,-0.4700388610363007,57.78713989257812,91.86647033691406,-35.475341796875
60627,-0.0221710205078125,1.2442626953125,-0.2214813232421875,-0.9013452529907228,-0.6716785430908203,-0.4316190481185913,57.34730529785156,92.0978546142578,-34.94699096679688
60628,-0.002197265625,1.251571655273438,-0.316864013671875,-0.5928020477294922,-0.6726204752922058,-0.3925811052322388,57.06478881835938,92.330322265625,-34.4329833984375
60629,0.0054473876953125,1.259765625,-0.386444091796875,-0.2430214434862137,-0.6526060104370117,-0.3175686299800873,56.66259765625,92.48898315429688,-34.09996032714844
60630,-0.0041961669921875,1.342010498046875,-0.5711517333984375,0.4188033938407898,-0.3629052340984344,-0.1161210164427757,55.95645141601562,92.75743103027344,-33.62303161621094
60631,-0.0041961669921875,1.342010498046875,-0.5711517333984375,0.4188033938407898,-0.3629052340984344,-0.1161210164427757,55.95645141601562,92.75743103027344,-33.62303161621094
60632,0.0067901611328125,1.397232055664062,-0.6995697021484375,0.7002891302108765,-0.1735033392906189,0.0149722918868064,55.82427978515625,92.68820190429688,-33.47671508789062
60633,0.0279388427734375,1.474716186523438,-0.7882080078125,0.8702560663223267,0.0036261600907891,0.1746897846460342,55.77366638183594,92.49871826171876,-33.57344055175781
60634,0.0365142822265625,1.545455932617188,-0.801666259765625,0.882860541343689,0.1983889937400818,0.3126561641693115,55.70436096191406,92.35003662109376,-33.61358642578125
60635,0.022430419921875,1.592880249023438,-0.763946533203125,0.7634813785552979,0.3099791705608368,0.3929118514060974,55.74627685546875,92.25802612304688,-34.15153503417969
60636,0.010833740234375,1.55072021484375,-0.6690521240234375,0.6375013589859009,0.3345247209072113,0.4399949610233307,55.82978820800781,92.14332580566406,-34.73263549804688
60637,0.07537841796875,1.376815795898438,-0.588714599609375,0.6416849493980408,0.4121199250221252,0.5290539860725403,56.08627319335938,92.06654357910156,-35.26235961914062
60638,0.2166748046875,1.1944580078125,-0.4025421142578125,0.7786164283752441,0.376728355884552,0.6672848463058472,56.72503662109375,92.00360107421876,-36.01809692382812
60639,0.2166748046875,1.1944580078125,-0.4025421142578125,0.7786164283752441,0.376728355884552,0.6672848463058472,56.72503662109375,92.00360107421876,-36.01809692382812
60640,0.2268218994140625,1.139190673828125,-0.2900238037109375,0.7723561525344849,0.2005922198295593,0.6005082130432129,57.1712646484375,91.84933471679688,-36.44879150390625
60641,0.2034759521484375,1.171630859375,-0.2097320556640625,0.7203983664512634,0.002125735161826,0.4567877948284149,57.55473327636719,91.76866149902344,-36.90292358398438
60642,0.096466064453125,1.495620727539062,0.08062744140625,0.4080215692520142,-0.2355941534042358,0.151081919670105,58.17573547363281,91.40798950195312,-37.58064270019531
60643,0.096466064453125,1.495620727539062,0.08062744140625,0.4080215692520142,-0.2355941534042358,0.151081919670105,58.17573547363281,91.40798950195312,-37.58064270019531
60644,-0.0283660888671875,1.615676879882812,0.1874237060546875,0.2761626243591309,-0.2903314232826233,0.0063676182180643,58.34628295898438,91.306396484375,-38.00672912597656
60645,-0.1352691650390625,1.689743041992188,0.295745849609375,0.3592258095741272,-0.3719352185726166,-0.0575980469584465,58.52169799804688,91.37161254882812,-38.32194519042969
60646,-0.257354736328125,1.4974365234375,0.1683502197265625,0.8695716261863708,-0.4893846213817596,0.0465632416307926,58.66050720214844,91.38552856445312,-38.59471130371094
60647,-0.257354736328125,1.4974365234375,0.1683502197265625,0.8695716261863708,-0.4893846213817596,0.0465632416307926,58.66050720214844,91.38552856445312,-38.59471130371094
60648,-0.35595703125,1.290740966796875,0.0595855712890625,1.043879985809326,-0.8497004508972168,0.168487548828125,58.70936584472656,91.4259033203125,-38.89633178710938
60649,-0.428466796875,1.110488891601562,0.0873870849609375,1.196745276451111,-1.210991024971008,0.2810761332511902,58.682861328125,91.2541046142578,-39.37007141113281
60650,-0.2987060546875,0.7962188720703125,0.103057861328125,1.454306244850159,-1.635804653167725,0.3652820885181427,58.69453430175781,90.96095275878906,-40.45103454589844
60651,-0.2987060546875,0.7962188720703125,0.103057861328125,1.454306244850159,-1.635804653167725,0.3652820885181427,58.69453430175781,90.96095275878906,-40.45103454589844
60652,-0.213531494140625,0.6931304931640625,0.1460418701171875,1.468841671943665,-1.652513861656189,0.3141739070415497,58.65460205078125,90.74485778808594,-41.00656127929688
60653,-0.171905517578125,0.6435699462890625,0.2443084716796875,1.41321063041687,-1.371910333633423,0.1927995383739471,58.50946044921875,90.44523620605467,-41.70564270019531
60654,-0.142913818359375,0.5621185302734375,0.17724609375,1.186436414718628,-0.6446985602378845,-0.0633938834071159,58.11553955078125,89.63699340820312,-43.0657958984375
60655,-0.142913818359375,0.5621185302734375,0.17724609375,1.186436414718628,-0.6446985602378845,-0.0633938834071159,58.11553955078125,89.63699340820312,-43.0657958984375
60656,-0.1537933349609375,0.539947509765625,0.1431884765625,1.050164341926575,-0.5330101251602173,-0.1345010846853256,57.97271728515625,89.37098693847656,-43.61080932617188
60657,-0.194610595703125,0.528076171875,0.1475067138671875,0.9095099568367004,-0.481588214635849,-0.1788304597139359,57.87625122070312,89.05387878417969,-44.1859130859375
60658,-0.232177734375,0.4485931396484375,0.0276947021484375,0.5985073447227478,-0.4482241272926331,-0.225407287478447,57.59979248046875,88.54447937011719,-45.00625610351562
60659,-0.232177734375,0.4485931396484375,0.0276947021484375,0.5985073447227478,-0.4482241272926331,-0.225407287478447,57.59979248046875,88.54447937011719,-45.00625610351562
60660,-0.24005126953125,0.392852783203125,-0.09765625,0.4494380056858063,-0.5853191018104553,-0.2370261251926422,57.36973571777344,88.28451538085938,-45.32514953613281
60661,-0.2437286376953125,0.3380279541015625,-0.1325225830078125,0.3320685029029846,-0.7422949075698853,-0.2507840096950531,57.21878051757812,88.08943176269531,-45.61471557617188
60662,-0.2317047119140625,0.3142852783203125,-0.0286102294921875,0.2284044176340103,-0.6595584750175476,-0.2365430295467377,56.94721984863281,87.90785217285156,-45.85585021972656
60663,-0.1856842041015625,0.364166259765625,0.1014556884765625,0.0933017209172248,-0.293746680021286,-0.1710284650325775,56.66358947753906,87.69741821289062,-46.01622009277344
60664,-0.158416748046875,0.5334320068359375,0.1873016357421875,-0.0830791741609573,0.0531961098313331,-0.0578419938683509,56.30549621582031,87.81449890136719,-46.32289123535156
60665,-0.1753387451171875,0.6703338623046875,0.2728729248046875,-0.2691190838813782,0.3135371506214142,-0.0404938980937004,56.15678405761719,87.61521911621094,-46.38578796386719
60666,-0.3115081787109375,0.838714599609375,0.299468994140625,-0.6823002696037292,0.5811419486999512,-0.0724494308233261,56.33709716796875,87.6690673828125,-46.07868957519531
60667,-0.3115081787109375,0.838714599609375,0.299468994140625,-0.6823002696037292,0.5811419486999512,-0.0724494308233261,56.33709716796875,87.6690673828125,-46.07868957519531
60668,-0.35137939453125,0.906646728515625,0.2875213623046875,-0.8456846475601196,0.4592101871967316,-0.0950237140059471,56.58889770507812,87.86216735839844,-45.86930847167969
60669,-0.3480682373046875,0.9505157470703124,0.3222503662109375,-0.9793851971626282,0.2746976017951965,-0.1068923622369766,56.78692626953125,88.01046752929688,-45.55398559570312
60670,-0.24298095703125,0.9964141845703124,0.4189910888671875,-1.22693932056427,0.1214377507567406,-0.1098426133394241,56.78849792480469,88.50143432617188,-44.90299987792969
60671,-0.24298095703125,0.9964141845703124,0.4189910888671875,-1.22693932056427,0.1214377507567406,-0.1098426133394241,56.78849792480469,88.50143432617188,-44.90299987792969
60672,-0.18743896484375,1.025177001953125,0.4117431640625,-1.357596158981323,0.1849922239780426,-0.1204726174473763,56.76467895507812,88.59234619140625,-44.4970703125
60673,-0.166229248046875,1.052291870117188,0.372772216796875,-1.437940001487732,0.2437341064214706,-0.1529432088136673,56.61494445800781,88.77391052246094,-43.91548156738281
60674,-0.1967620849609375,1.081405639648438,0.2996978759765625,-1.452359437942505,0.280827134847641,-0.2585442066192627,56.45382690429688,89.294189453125,-42.605712890625
60675,-0.2282562255859375,1.0626220703125,0.2711334228515625,-1.426377296447754,0.2587932050228119,-0.3129642903804779,56.3145751953125,89.58949279785156,-41.846435546875
60676,-0.2282562255859375,1.0626220703125,0.2711334228515625,-1.426377296447754,0.2587932050228119,-0.3129642903804779,56.3145751953125,89.58949279785156,-41.846435546875
60677,-0.25823974609375,1.043121337890625,0.23919677734375,-1.41218638420105,0.2400733232498169,-0.347549170255661,56.35115051269531,89.81227111816406,-41.13819885253906
60678,-0.2978057861328125,1.035110473632812,0.0910491943359375,-1.342445731163025,0.1027309074997902,-0.4358468055725098,56.14698791503906,90.36915588378906,-39.90010070800781
60679,-0.2978057861328125,1.035110473632812,0.0910491943359375,-1.342445731163025,0.1027309074997902,-0.4358468055725098,56.14698791503906,90.36915588378906,-39.90010070800781
