time_idx,accelerometerAccelerationX(G),accelerometerAccelerationY(G),accelerometerAccelerationZ(G),gyroRotationX(rad/s),gyroRotationY(rad/s),gyroRotationZ(rad/s),magnetometerX(µT),magnetometerY(µT),magnetometerZ(µT)
48468,-0.2643280029296875,1.240859985351562,0.1777801513671875,0.5112124085426331,0.5107189416885376,0.1537805050611496,32.60641479492188,87.33387756347656,-28.63154602050781
48469,-0.2562408447265625,1.239990234375,0.1651153564453125,0.4419308006763458,0.226501852273941,0.0728089585900306,32.77714538574219,87.503662109375,-28.83039855957031
48470,-0.143585205078125,1.228958129882812,0.1945953369140625,0.6979939937591553,-0.2786380350589752,0.3216627240180969,33.00497436523438,87.92408752441406,-29.52201843261719
48471,-0.0858612060546875,1.282073974609375,0.191497802734375,0.9423419833183287,-0.3701050877571106,0.3513926565647125,33.17660522460938,87.95840454101562,-29.77146911621094
48472,-0.0858612060546875,1.282073974609375,0.191497802734375,0.9423419833183287,-0.3701050877571106,0.3513926565647125,33.17660522460938,87.95840454101562,-29.77146911621094
48473,-0.1062164306640625,1.342758178710938,0.1993408203125,1.123077630996704,-0.372575968503952,0.3100886344909668,33.30000305175781,87.94926452636719,-30.1610107421875
48474,-0.2246856689453125,1.411026000976562,0.1337127685546875,1.019494771957397,-0.3138660490512848,0.1151825115084648,33.59963989257812,87.54454040527344,-30.7171630859375
48475,-0.2246856689453125,1.411026000976562,0.1337127685546875,1.019494771957397,-0.3138660490512848,0.1151825115084648,33.59963989257812,87.54454040527344,-30.7171630859375
48476,-0.2918701171875,1.454727172851562,0.09539794921875,0.8098140358924866,-0.4947290420532227,0.0013946974650025,33.75991821289062,87.38395690917969,-31.48983764648438
48477,-0.3812713623046875,1.544708251953125,0.13653564453125,0.5960577726364136,-0.6373090744018555,-0.2139032334089279,33.93365478515625,87.26483154296875,-32.04112243652344
48478,-0.36865234375,1.4481201171875,0.1496734619140625,0.2610094845294952,-0.783567488193512,-0.4227621853351593,33.91567993164062,87.06649780273438,-32.18363952636719
48479,-0.36865234375,1.4481201171875,0.1496734619140625,0.2610094845294952,-0.783567488193512,-0.4227621853351593,33.91567993164062,87.06649780273438,-32.18363952636719
48480,-0.311920166015625,1.303848266601562,0.1590576171875,0.2807272672653198,-0.6717381477355957,-0.336559385061264,33.7850341796875,87.02751159667969,-32.16363525390625
48481,-0.228759765625,1.167922973632812,0.09759521484375,0.3910929262638092,-0.4888879358768463,-0.1962502002716064,33.65850830078125,87.18220520019531,-32.18470764160156
48482,-0.0434722900390625,0.9384765625,-0.029296875,0.6589153409004211,-0.323899507522583,0.1081475093960762,33.39741516113281,87.21537780761719,-32.09278869628906
48483,-0.0434722900390625,0.9384765625,-0.029296875,0.6589153409004211,-0.323899507522583,0.1081475093960762,33.39741516113281,87.21537780761719,-32.09278869628906
48484,0.0052032470703125,0.8722381591796875,-0.0225830078125,0.6471154093742371,-0.1819562166929245,0.1564934700727463,33.34492492675781,87.10536193847656,-32.2620849609375
48485,0.02362060546875,0.8253326416015625,-0.0587921142578125,0.4952012300491333,-0.1256716400384903,0.1493593901395798,33.35757446289062,86.90773010253906,-32.48014831542969
48486,0.01470947265625,0.7931365966796875,-0.0829010009765625,0.0734462514519691,-0.2383971214294434,0.085424356162548,33.30265808105469,86.56661987304688,-33.13160705566406
48487,0.01470947265625,0.7931365966796875,-0.0829010009765625,0.0734462514519691,-0.2383971214294434,0.085424356162548,33.30265808105469,86.56661987304688,-33.13160705566406
48488,0.0150299072265625,0.7720184326171875,-0.0648345947265625,-0.0954924374818801,-0.274102658033371,0.01558268815279,33.19912719726562,86.4693603515625,-33.19735717773438
48489,0.0085906982421875,0.7848663330078125,-0.04046630859375,-0.2040101289749146,-0.3163068294525146,-0.0356418825685977,33.13162231445312,86.33522033691406,-33.10365295410156
48490,-0.05657958984375,0.9031219482421876,-0.002410888671875,-0.302828311920166,-0.2880573570728302,-0.2672191858291626,32.97738647460938,86.61175537109375,-32.55966186523438
48491,-0.05657958984375,0.9031219482421876,-0.002410888671875,-0.302828311920166,-0.2880573570728302,-0.2672191858291626,32.97738647460938,86.61175537109375,-32.55966186523438
48492,-0.128265380859375,0.9928436279296876,-0.000518798828125,-0.3141427636146545,-0.2565710544586182,-0.3552923202514648,32.77449035644531,86.66471862792969,-32.35089111328125
48493,-0.2279815673828125,1.05621337890625,-0.008270263671875,-0.2555827796459198,-0.2129287868738174,-0.3649002015590668,32.62089538574219,86.86018371582031,-32.23042297363281
48494,-0.3779449462890625,1.007904052734375,-0.0216064453125,0.0059380503371357,-0.1347820460796356,-0.1811013370752335,32.31306457519531,87.0567626953125,-31.80174255371094
48495,-0.3812408447265625,0.91015625,-0.0458831787109375,0.0881977677345275,-0.1088766828179359,-0.0190924685448408,32.04318237304688,87.25926208496094,-31.703857421875
48496,-0.3812408447265625,0.91015625,-0.0458831787109375,0.0881977677345275,-0.1088766828179359,-0.0190924685448408,32.04318237304688,87.25926208496094,-31.703857421875
48497,-0.3143310546875,0.8402252197265625,-0.0385284423828125,0.086781769990921,-0.0520307086408138,0.0959552899003028,31.98851013183594,87.32266235351562,-31.76626586914062
48498,-0.194366455078125,0.840179443359375,-0.0333251953125,0.0215178094804287,0.023771908134222,0.123938724398613,31.95988464355469,87.29505920410156,-31.6407470703125
48499,-0.1058807373046875,0.82440185546875,-0.0524444580078125,-0.0483491569757461,-0.0311746969819068,0.1035338491201401,31.94415283203125,87.38128662109375,-31.6282958984375
48500,-0.0828094482421875,0.8035888671875,-0.0229339599609375,-0.0929642915725708,-0.1174262315034866,0.0455062314867973,32.09512329101562,87.41087341308594,-31.62617492675781
48501,-0.07818603515625,0.7989959716796875,0.0134735107421875,-0.1017452701926231,-0.1131087094545364,-0.0089074745774269,32.12933349609375,87.47013854980469,-31.63236999511719
48502,-0.068817138671875,0.7812957763671875,-0.0201263427734375,-0.0763056874275207,-0.1128059104084969,-0.0382954590022563,32.16159057617188,87.36654663085938,-31.54838562011719
48503,-0.0712432861328125,0.7915802001953125,-0.054443359375,-0.0701977312564849,-0.1707459092140198,-0.0693452507257461,32.134033203125,87.45292663574219,-31.54618835449219
48504,-0.0919952392578125,0.80889892578125,-0.0377655029296875,-0.0887351930141449,-0.2061624825000763,-0.082755334675312,32.15200805664062,87.48486328125,-31.66392517089844
48505,-0.1180419921875,0.822113037109375,-0.0088043212890625,-0.1239706799387932,-0.1958555281162262,-0.0851239487528801,32.07426452636719,87.3978271484375,-31.459228515625
48506,-0.189483642578125,0.8626556396484375,0.0456390380859375,-0.1470837295055389,-0.122202605009079,-0.0690685510635376,32.0765380859375,87.35543823242188,-31.17184448242188
48507,-0.189483642578125,0.8626556396484375,0.0456390380859375,-0.1470837295055389,-0.122202605009079,-0.0690685510635376,32.0765380859375,87.35543823242188,-31.17184448242188
48508,-0.2241058349609375,0.8947296142578125,0.059967041015625,-0.1491700410842896,-0.0713104009628295,-0.053753774613142,32.0977783203125,87.41140747070312,-31.11538696289062
48509,-0.2508544921875,0.9270782470703124,0.0821075439453125,-0.1574093252420425,8.681904728291556e-05,-0.0350168384611606,32.08576965332031,87.42481994628906,-31.17166137695312
48510,-0.2933197021484375,0.9473724365234376,0.1312103271484375,-0.1978571563959122,0.1591779291629791,0.0141807999461889,32.01812744140625,87.36111450195312,-30.99203491210938
48511,-0.2933197021484375,0.9473724365234376,0.1312103271484375,-0.1978571563959122,0.1591779291629791,0.0141807999461889,32.01812744140625,87.36111450195312,-30.99203491210938
48512,-0.307708740234375,0.965179443359375,0.1412811279296875,-0.2573340535163879,0.1815136075019836,0.0277392193675041,32.05351257324219,87.43101501464844,-30.96397399902344
48513,-0.3151397705078125,0.969757080078125,0.156524658203125,-0.3304884433746338,0.1847986131906509,0.031661257147789,32.07350158691406,87.545654296875,-30.75364685058594
48514,-0.3052215576171875,0.9486236572265624,0.188751220703125,-0.4236716330051422,0.1915619820356369,0.02513731084764,32.17861938476562,87.54747009277344,-30.65272521972656
48515,-0.3052215576171875,0.9486236572265624,0.188751220703125,-0.4236716330051422,0.1915619820356369,0.02513731084764,32.17861938476562,87.54747009277344,-30.65272521972656
48516,-0.3026123046875,0.925994873046875,0.217803955078125,-0.4438504278659821,0.2034545838832855,0.0177214723080396,32.17340087890625,87.56211853027344,-30.50987243652344
48517,-0.3067169189453125,0.9037628173828124,0.2542724609375,-0.4790638089179993,0.2534818053245544,0.0149816125631332,32.28434753417969,87.60794067382812,-30.55545043945312
48518,-0.3247222900390625,0.8515625,0.302947998046875,-0.6267608404159546,0.4523861110210419,-0.0052094091661274,32.33918762207031,87.73283386230469,-30.33540344238281
48519,-0.3247222900390625,0.8515625,0.302947998046875,-0.6267608404159546,0.4523861110210419,-0.0052094091661274,32.33918762207031,87.73283386230469,-30.33540344238281
48520,-0.323760986328125,0.816131591796875,0.2960052490234375,-0.7213656306266785,0.5183286666870117,-0.0150780193507671,32.50042724609375,87.85713195800781,-30.18728637695312
48521,-0.3131866455078125,0.7838287353515625,0.280792236328125,-0.8103272318840027,0.5369824767112732,-0.0242944210767746,32.42825317382812,88.06196594238281,-29.94960021972656
48522,-0.235687255859375,0.7391510009765625,0.2485504150390625,-0.9048563838005066,0.3776154816150665,-0.0012383698485791,32.60493469238281,88.22906494140625,-29.59451293945312
48523,-0.235687255859375,0.7391510009765625,0.2485504150390625,-0.9048563838005066,0.3776154816150665,-0.0012383698485791,32.60493469238281,88.22906494140625,-29.59451293945312
48524,-0.172698974609375,0.7588958740234375,0.258392333984375,-0.911995530128479,0.2696272134780884,0.0124955521896481,32.74183654785156,88.28495788574219,-29.26911926269531
48525,-0.1217498779296875,0.807098388671875,0.289459228515625,-0.895268440246582,0.2167781144380569,0.0451903827488422,32.815673828125,88.29483032226562,-28.85244750976562
48526,-0.0596923828125,0.928009033203125,0.2896575927734375,-0.9028300046920776,0.1569784283638,0.0384579114615917,32.91656494140625,88.50616455078125,-28.2803955078125
48527,-0.0596923828125,0.928009033203125,0.2896575927734375,-0.9028300046920776,0.1569784283638,0.0384579114615917,32.91656494140625,88.50616455078125,-28.2803955078125
48528,-0.0542755126953125,0.93206787109375,0.3165740966796875,-0.9098799228668212,0.1549994349479675,0.0159310288727283,32.97134399414062,88.4705810546875,-28.043701171875
48529,-0.0643157958984375,0.9403839111328124,0.3070526123046875,-0.9282788634300232,0.1418737769126892,0.0026485137641429,33.03018188476562,88.59092712402344,-27.85476684570312
48530,-0.1078948974609375,0.9501800537109376,0.3162384033203125,-0.9644717574119568,0.1803673803806305,-0.0276563949882984,33.28346252441406,88.83525085449219,-27.21649169921875
48531,-0.1078948974609375,0.9501800537109376,0.3162384033203125,-0.9644717574119568,0.1803673803806305,-0.0276563949882984,33.28346252441406,88.83525085449219,-27.21649169921875
48532,-0.1355133056640625,0.963714599609375,0.3191680908203125,-0.9024204015731812,0.2742682993412018,-0.0274305585771799,33.23483276367188,88.91795349121094,-26.90361022949219
48533,-0.1661529541015625,0.9990386962890624,0.2902374267578125,-0.7529376745223999,0.3535905480384827,-0.0265373345464468,33.2974853515625,89.00204467773438,-26.53956604003906
48534,-0.1749725341796875,1.065505981445312,0.1722564697265625,-0.3139544725418091,0.2359776496887207,-0.0270880758762359,33.42387390136719,89.08782958984375,-26.01905822753906
48535,-0.1749725341796875,1.065505981445312,0.1722564697265625,-0.3139544725418091,0.2359776496887207,-0.0270880758762359,33.42387390136719,89.08782958984375,-26.01905822753906
48536,-0.166107177734375,1.095794677734375,0.142333984375,-0.114064522087574,0.0922766700387001,-0.0170029513537883,33.45652770996094,88.95233154296875,-25.8026123046875
48537,-0.1714324951171875,1.114120483398438,0.1620025634765625,-0.0152287539094686,-0.0020642161834985,0.015606390312314,33.46371459960938,88.85580444335938,-25.76383972167969
48538,-0.2105712890625,1.150070190429688,0.306915283203125,-0.0789994746446609,0.1895824521780014,0.0616375319659709,33.45027160644531,88.43389892578125,-25.6309814453125
48539,-0.2105712890625,1.150070190429688,0.306915283203125,-0.0789994746446609,0.1895824521780014,0.0616375319659709,33.45027160644531,88.43389892578125,-25.6309814453125
48540,-0.2176513671875,1.142669677734375,0.3361053466796875,-0.1565067917108536,0.3975194096565247,0.0472340919077396,33.44978332519531,88.29582214355469,-25.57351684570312
48541,-0.20849609375,1.108383178710938,0.3202362060546875,-0.1989804804325104,0.573232114315033,0.0373052954673767,33.59471130371094,88.18861389160156,-25.57472229003906
48542,-0.213409423828125,1.0771484375,0.294403076171875,-0.1297324299812317,0.7069600820541382,0.0129525503143668,33.60801696777344,88.25843811035156,-25.54635620117188
48543,-0.213409423828125,1.0771484375,0.294403076171875,-0.1297324299812317,0.7069600820541382,0.0129525503143668,33.60801696777344,88.25843811035156,-25.54635620117188
48544,-0.2351226806640625,1.083847045898438,0.3040618896484375,-0.0568883158266544,0.7728165984153748,0.0044370926916599,33.56838989257812,88.24848937988281,-25.68223571777344
48545,-0.234130859375,1.058486938476562,0.30560302734375,-0.0243490152060985,0.7948686480522156,0.0228123720735311,33.56362915039062,88.20143127441406,-25.94407653808594
48546,-0.151397705078125,0.9825286865234376,0.248443603515625,-0.1242638975381851,0.6082351207733154,0.0594071336090564,33.5926513671875,87.90815734863281,-26.29653930664062
48547,-0.151397705078125,0.9825286865234376,0.248443603515625,-0.1242638975381851,0.6082351207733154,0.0594071336090564,33.5926513671875,87.90815734863281,-26.29653930664062
48548,-0.0821075439453125,0.9658203125,0.236083984375,-0.2227774113416672,0.3742348551750183,0.0383045114576816,33.64488220214844,87.78982543945312,-26.47396850585938
48549,-0.0260467529296875,0.954010009765625,0.2233428955078125,-0.309815376996994,0.1257747113704681,0.0069790799170732,33.76948547363281,87.81443786621094,-26.71244812011719
48550,-0.01123046875,0.95806884765625,0.161163330078125,-0.3140439391136169,-0.050805389881134,0.0170229263603687,33.94209289550781,87.88114929199219,-26.84225463867188
48551,-0.01123046875,0.95806884765625,0.161163330078125,-0.3140439391136169,-0.050805389881134,0.0170229263603687,33.94209289550781,87.88114929199219,-26.84225463867188
48552,-0.0221099853515625,0.9862518310546876,0.11505126953125,-0.273165225982666,-0.0471304953098297,0.0344501174986362,34.09539794921875,87.82255554199219,-26.7005615234375
48553,-0.0400543212890625,1.01318359375,0.094573974609375,-0.231900081038475,-0.0605618804693222,0.0322572737932205,34.12364196777344,87.86085510253906,-26.68290710449219
48554,-0.078643798828125,0.983062744140625,0.0871429443359375,-0.0314780324697494,-0.0073865433223545,0.0482612736523151,34.18463134765625,87.97224426269531,-26.39372253417969
48555,-0.078643798828125,0.983062744140625,0.0871429443359375,-0.0314780324697494,-0.0073865433223545,0.0482612736523151,34.18463134765625,87.97224426269531,-26.39372253417969
48556,-0.0855255126953125,0.98175048828125,0.0855712890625,0.0522573441267013,0.031851939857006,0.0714925602078437,34.13807678222656,88.00160217285156,-26.42897033691406
48557,-0.09478759765625,0.9949951171875,0.098602294921875,0.0767696127295494,0.0549420788884162,0.0856991931796073,34.15487670898438,88.01170349121094,-26.26542663574219
48558,-0.1080780029296875,1.0006103515625,0.1513214111328125,-0.0221282057464122,0.0583445318043232,0.090530164539814,34.20164489746094,88.18717956542969,-26.23272705078125
48559,-0.1080780029296875,1.0006103515625,0.1513214111328125,-0.0221282057464122,0.0583445318043232,0.090530164539814,34.20164489746094,88.18717956542969,-26.23272705078125
48560,-0.0974578857421875,0.9693145751953124,0.1806793212890625,-0.1017828211188316,0.0552941486239433,0.0759642720222473,34.22354125976562,88.28965759277344,-26.40077209472656
48561,-0.089569091796875,0.9282073974609376,0.1999664306640625,-0.1445515900850296,0.0596611984074115,0.0375700108706951,34.29667663574219,88.20755004882812,-26.31002807617188
48562,-0.093994140625,0.8341217041015625,0.2345123291015625,-0.0004372910480014,-0.0026927222497761,0.0068192901089787,34.42390441894531,88.24288940429688,-26.19239807128906
48563,-0.093994140625,0.8341217041015625,0.2345123291015625,-0.0004372910480014,-0.0026927222497761,0.0068192901089787,34.42390441894531,88.24288940429688,-26.19239807128906
48564,-0.10687255859375,0.8090667724609375,0.250579833984375,0.1278205513954163,-0.0152838816866278,0.0131927672773599,34.47714233398438,88.36604309082031,-26.19717407226562
48565,-0.132537841796875,0.793914794921875,0.260589599609375,0.2085321694612503,-0.037444844841957,0.0176237355917692,34.49617004394531,88.32615661621094,-26.2293701171875
48566,-0.19793701171875,0.775360107421875,0.2596435546875,0.1745148152112961,-0.0789339616894722,0.0193156413733959,34.67266845703125,88.33753967285156,-26.15449523925781
48567,-0.2092132568359375,0.7655029296875,0.260345458984375,0.117332749068737,-0.1157692074775696,0.0239114575088024,34.67996215820312,88.40655517578125,-26.25057983398438
48568,-0.2092132568359375,0.7655029296875,0.260345458984375,0.117332749068737,-0.1157692074775696,0.0239114575088024,34.67996215820312,88.40655517578125,-26.25057983398438
48569,-0.1964111328125,0.7611846923828125,0.2562103271484375,0.070268839597702,-0.1616687923669815,0.0491007007658481,34.85328674316406,88.42691040039062,-26.2628173828125
48570,-0.1434478759765625,0.768035888671875,0.274261474609375,0.019915385171771,-0.1808581948280334,0.1089294105768204,35.0289306640625,88.36256408691406,-26.14755249023438
48571,-0.1434478759765625,0.768035888671875,0.274261474609375,0.019915385171771,-0.1808581948280334,0.1089294105768204,35.0289306640625,88.36256408691406,-26.14755249023438
48572,-0.1134796142578125,0.7718353271484375,0.2922821044921875,-0.0047321710735559,-0.1337087899446487,0.1502507477998734,35.0289306640625,88.36256408691406,-26.14755249023438
48573,-0.100555419921875,0.793212890625,0.3161468505859375,-0.0325856395065784,-0.051381167024374,0.1857773214578629,34.89054870605469,88.40327453613281,-26.08242797851562
48574,-0.1458587646484375,0.8702239990234375,0.3227386474609375,-0.1453518718481064,0.0808285400271415,0.1890221238136292,35.08656311035156,88.57008361816406,-26.00082397460938
48575,-0.1458587646484375,0.8702239990234375,0.3227386474609375,-0.1453518718481064,0.0808285400271415,0.1890221238136292,35.08656311035156,88.57008361816406,-26.00082397460938
48576,-0.1869354248046875,0.889739990234375,0.336395263671875,-0.1992009878158569,0.1057506650686264,0.1724942773580551,35.08656311035156,88.57008361816406,-26.00082397460938
48577,-0.2328338623046875,0.891998291015625,0.36798095703125,-0.2102869302034378,0.1678454577922821,0.1700889021158218,35.18461608886719,88.706787109375,-25.95309448242188
48578,-0.3101806640625,0.93792724609375,0.3630218505859375,-0.1556753516197205,0.39084392786026,0.2085345685482025,35.40234375,88.61422729492188,-25.62295532226562
48579,-0.3101806640625,0.93792724609375,0.3630218505859375,-0.1556753516197205,0.39084392786026,0.2085345685482025,35.40234375,88.61422729492188,-25.62295532226562
48580,-0.3083648681640625,1.01483154296875,0.3172149658203125,-0.1423398405313492,0.4434149861335754,0.2056517004966736,35.52728271484375,88.77828979492188,-25.64738464355469
48581,-0.28155517578125,1.081680297851562,0.2614898681640625,-0.1035737991333008,0.446438193321228,0.2014154046773911,35.594482421875,88.8197021484375,-25.59739685058594
48582,-0.227325439453125,1.237106323242188,0.195098876953125,0.0913980901241302,0.3965960741043091,0.1946970522403717,35.74031066894531,88.91777038574219,-25.75843811035156
48583,-0.227325439453125,1.237106323242188,0.195098876953125,0.0913980901241302,0.3965960741043091,0.1946970522403717,35.74031066894531,88.91777038574219,-25.75843811035156
48584,-0.220001220703125,1.297836303710938,0.21173095703125,0.1614035367965698,0.4129417538642883,0.1706058233976364,35.83871459960938,88.89324951171875,-25.825439453125
48585,-0.2120208740234375,1.319366455078125,0.2411956787109375,0.1700255274772644,0.4554157257080078,0.138614609837532,35.93357849121094,88.84136962890625,-25.83137512207031
48586,-0.169189453125,1.2579345703125,0.2761077880859375,0.0681969001889228,0.5006508231163025,0.0868611261248588,36.12330627441406,88.70065307617188,-26.18692016601562
48587,-0.169189453125,1.2579345703125,0.2761077880859375,0.0681969001889228,0.5006508231163025,0.0868611261248588,36.12330627441406,88.70065307617188,-26.18692016601562
48588,-0.147735595703125,1.205322265625,0.2739410400390625,0.0143427206203341,0.4531919956207275,0.0626671090722084,36.16989135742188,88.6361083984375,-26.31802368164062
48589,-0.148162841796875,1.16265869140625,0.2886505126953125,-0.0307400692254304,0.3459613919258118,0.0235165115445852,36.31333923339844,88.45426940917969,-26.41770935058594
48590,-0.197906494140625,1.060638427734375,0.29315185546875,-0.0594649240374565,0.0598963573575019,-0.0717474222183227,36.50798034667969,88.27165222167969,-26.5906982421875
48591,-0.197906494140625,1.060638427734375,0.29315185546875,-0.0594649240374565,0.0598963573575019,-0.0717474222183227,36.50798034667969,88.27165222167969,-26.5906982421875
48592,-0.2275848388671875,1.005157470703125,0.2600860595703125,-0.0431309603154659,-0.1831652969121933,-0.1047051101922989,36.53662109375,88.28863525390625,-26.66407775878906
48593,-0.2312469482421875,0.9584503173828124,0.2178497314453125,-0.0415157526731491,-0.4974039196968079,-0.1452842205762863,36.55517578125,88.11506652832031,-26.65934753417969
48594,-0.2022247314453125,0.906768798828125,0.2705535888671875,-0.1764522641897202,-0.9216665029525756,-0.2685078978538513,36.35748291015625,88.098876953125,-26.54721069335938
48595,-0.2022247314453125,0.906768798828125,0.2705535888671875,-0.1764522641897202,-0.9216665029525756,-0.2685078978538513,36.35748291015625,88.098876953125,-26.54721069335938
48596,-0.1825408935546875,0.881439208984375,0.2770233154296875,-0.2230024486780167,-0.9145944714546204,-0.3395154774188995,36.20120239257812,88.02084350585938,-26.36747741699219
48597,-0.16436767578125,0.825164794921875,0.234832763671875,-0.2346266210079193,-0.893397331237793,-0.3922886848449707,36.05274963378906,88.22932434082031,-26.11335754394531
48598,-0.2009429931640625,0.789398193359375,0.20037841796875,-0.1924235075712204,-0.7804121971130371,-0.4245134592056274,35.60374450683594,88.26190185546875,-25.67289733886719
48599,-0.22357177734375,0.8075103759765625,0.1571807861328125,-0.1201112270355225,-0.7153061628341675,-0.4342209696769714,35.35176086425781,88.26899719238281,-25.43788146972656
48600,-0.22357177734375,0.8075103759765625,0.1571807861328125,-0.1201112270355225,-0.7153061628341675,-0.4342209696769714,35.35176086425781,88.26899719238281,-25.43788146972656
48601,-0.2427825927734375,0.80450439453125,0.138916015625,-0.0151169011369347,-0.6544427871704102,-0.4399036169052124,35.06654357910156,88.25120544433594,-25.13949584960938
48602,-0.251129150390625,0.7732696533203125,0.130767822265625,0.1365514546632767,-0.4645961821079254,-0.4582762122154236,34.55384826660156,88.10223388671875,-24.5233154296875
48603,-0.251129150390625,0.7732696533203125,0.130767822265625,0.1365514546632767,-0.4645961821079254,-0.4582762122154236,34.55384826660156,88.10223388671875,-24.5233154296875
48604,-0.2264251708984375,0.781402587890625,0.1220245361328125,0.1175023913383484,-0.4905710518360138,-0.4856157004833221,34.31639099121094,88.13485717773438,-24.4774169921875
48605,-0.20623779296875,0.7985382080078125,0.1389312744140625,0.0314423441886901,-0.5119189620018005,-0.5344841480255127,34.07833862304688,87.97700500488281,-24.38046264648438
48606,-0.07904052734375,0.8196563720703125,0.0283966064453125,-0.4134000837802887,-0.7231142520904541,-0.6497191786766052,33.41047668457031,87.67800903320312,-24.09942626953125
48607,-0.07904052734375,0.8196563720703125,0.0283966064453125,-0.4134000837802887,-0.7231142520904541,-0.6497191786766052,33.41047668457031,87.67800903320312,-24.09942626953125
48608,-0.0294189453125,0.82568359375,0.04144287109375,-0.7757402062416077,-0.9482989311218262,-0.6416476368904114,33.14016723632812,87.49847412109375,-23.92884826660156
48609,-0.092498779296875,0.8953704833984375,0.12127685546875,-1.096201300621033,-1.095434546470642,-0.6314480304718018,32.75662231445312,87.33830261230469,-23.68464660644531
48610,-0.1445159912109375,1.053863525390625,0.228363037109375,-1.258851170539856,-1.253270268440247,-0.5045377016067505,32.17507934570312,87.2860107421875,-22.56111145019531
48611,-0.1445159912109375,1.053863525390625,0.228363037109375,-1.258851170539856,-1.253270268440247,-0.5045377016067505,32.17507934570312,87.2860107421875,-22.56111145019531
48612,-0.1483154296875,1.11932373046875,0.2889862060546875,-1.050051689147949,-1.235232949256897,-0.4032902121543884,31.88960266113281,87.59017944335938,-21.79002380371094
48613,-0.17132568359375,1.15826416015625,0.3706512451171875,-0.7826021313667297,-1.077971935272217,-0.3027630746364594,31.70315551757812,87.6591796875,-20.99029541015625
48614,-0.230804443359375,1.117813110351562,0.489898681640625,-0.2712546586990356,-0.3473084270954132,-0.0876163989305496,31.38555908203125,87.74734497070312,-19.58549499511719
48615,-0.230804443359375,1.117813110351562,0.489898681640625,-0.2712546586990356,-0.3473084270954132,-0.0876163989305496,31.38555908203125,87.74734497070312,-19.58549499511719
48616,-0.242828369140625,1.096176147460938,0.442291259765625,-0.0972815454006195,-0.1439928561449051,-0.0228528510779142,31.33952331542969,87.77854919433594,-19.24688720703125
48617,-0.262542724609375,1.095657348632812,0.394927978515625,-0.0050293798558413,-0.1136570572853088,0.0074400729499757,31.28372192382812,87.96357727050781,-18.97651672363281
48618,-0.254119873046875,1.0565185546875,0.33990478515625,0.0521686635911464,-0.2428182363510132,0.0319784395396709,31.43571472167969,88.09323120117188,-18.86856079101562
48619,-0.254119873046875,1.0565185546875,0.33990478515625,0.0521686635911464,-0.2428182363510132,0.0319784395396709,31.43571472167969,88.09323120117188,-18.86856079101562
48620,-0.2405853271484375,1.033050537109375,0.3312530517578125,0.1054856777191162,-0.2441562116146088,0.0488229319453239,31.40472412109375,88.16154479980469,-18.94705200195312
48621,-0.2252960205078125,0.9995880126953124,0.3147125244140625,0.2085441499948502,-0.1915989965200424,0.075609803199768,31.5345458984375,88.23310852050781,-18.99281311035156
48622,-0.211639404296875,0.92108154296875,0.23846435546875,0.481627345085144,-0.0126476185396313,0.1705221980810165,31.73503112792969,88.26741027832031,-19.21159362792969
48623,-0.211639404296875,0.92108154296875,0.23846435546875,0.481627345085144,-0.0126476185396313,0.1705221980810165,31.73503112792969,88.26741027832031,-19.21159362792969
48624,-0.22442626953125,0.8785858154296875,0.184906005859375,0.5776457786560059,0.0422164276242256,0.2408903688192368,31.80126953125,88.17326354980469,-19.16148376464844
48625,-0.234039306640625,0.84686279296875,0.1584320068359375,0.6109573841094971,0.0687284618616104,0.3138612508773804,32.04837036132812,88.08296203613281,-19.31925964355469
48626,-0.212432861328125,0.851959228515625,0.1633453369140625,0.5500940084457397,0.1606815606355667,0.4187450706958771,32.36090087890625,87.95010375976562,-19.89117431640625
48627,-0.212432861328125,0.851959228515625,0.1633453369140625,0.5500940084457397,0.1606815606355667,0.4187450706958771,32.36090087890625,87.95010375976562,-19.89117431640625
48628,-0.1915435791015625,0.859039306640625,0.17230224609375,0.5336740612983704,0.2072546482086182,0.445833683013916,32.44511413574219,87.97129821777344,-20.18318176269531
48629,-0.1753387451171875,0.8683624267578125,0.20440673828125,0.5445868968963623,0.2907926738262177,0.4702244997024536,32.62150573730469,88.00469970703125,-20.59294128417969
48630,-0.1369476318359375,0.8887481689453125,0.2713470458984375,0.6016017198562622,0.5581367611885071,0.4594695866107941,33.11991882324219,88.14044189453125,-21.33174133300781
48631,-0.1369476318359375,0.8887481689453125,0.2713470458984375,0.6016017198562622,0.5581367611885071,0.4594695866107941,33.11991882324219,88.14044189453125,-21.33174133300781
48632,-0.1095123291015625,0.8984375,0.2983551025390625,0.6051833629608154,0.6808009147644043,0.4302022457122803,33.27949523925781,88.18797302246094,-21.72090148925781
48633,-0.0904388427734375,0.91998291015625,0.326629638671875,0.5941653251647949,0.7821946144104004,0.3917880058288574,33.45228576660156,88.20228576660156,-22.05732727050781
48634,-0.1008453369140625,0.9939117431640624,0.376373291015625,0.532141923904419,0.7875640988349915,0.2963672280311584,33.69979858398438,88.35487365722656,-22.97872924804688
48635,-0.1008453369140625,0.9939117431640624,0.376373291015625,0.532141923904419,0.7875640988349915,0.2963672280311584,33.69979858398438,88.35487365722656,-22.97872924804688
48636,-0.12493896484375,1.035964965820312,0.403533935546875,0.5077542662620544,0.6804171204566956,0.2501134276390076,33.76889038085938,88.50859069824219,-23.44560241699219
48637,-0.1537322998046875,1.079666137695312,0.429595947265625,0.4995347261428833,0.5424970984458923,0.1982116252183914,33.94979858398438,88.62236022949219,-23.88261413574219
48638,-0.2130279541015625,1.137908935546875,0.44366455078125,0.5494199991226196,0.2493600249290466,0.0781318172812461,34.25300598144531,88.68511962890625,-24.536376953125
48639,-0.2374420166015625,1.137619018554688,0.4130859375,0.611864447593689,0.0741615816950798,0.0189382713288068,34.32664489746094,88.83102416992188,-24.61076354980469
48640,-0.2374420166015625,1.137619018554688,0.4130859375,0.611864447593689,0.0741615816950798,0.0189382713288068,34.32664489746094,88.83102416992188,-24.61076354980469
48641,-0.2582855224609375,1.123123168945312,0.3744354248046875,0.6926096081733704,-0.0947853624820709,-0.0203753132373094,34.41215515136719,88.909912109375,-24.8294677734375
48642,-0.273529052734375,1.106369018554688,0.2191009521484375,0.8550240993499756,-0.3721107244491577,-0.072157546877861,34.42271423339844,88.78329467773438,-25.31787109375
48643,-0.273529052734375,1.106369018554688,0.2191009521484375,0.8550240993499756,-0.3721107244491577,-0.072157546877861,34.42271423339844,88.78329467773438,-25.31787109375
48644,-0.2786865234375,1.086700439453125,0.1522064208984375,0.9505437016487122,-0.5614897012710571,-0.1099691092967987,34.45863342285156,88.6663818359375,-25.91877746582031
48645,-0.273345947265625,1.03643798828125,0.1565093994140625,1.021574974060059,-0.6933233737945557,-0.123353622853756,34.26121520996094,88.55287170410156,-26.231689453125
48646,-0.2346954345703125,0.932861328125,0.17529296875,1.072163581848145,-0.64555424451828,-0.106097936630249,34.13346862792969,88.12565612792969,-27.22119140625
48647,-0.2346954345703125,0.932861328125,0.17529296875,1.072163581848145,-0.64555424451828,-0.106097936630249,34.13346862792969,88.12565612792969,-27.22119140625
48648,-0.2089996337890625,0.87298583984375,0.1444549560546875,1.068267464637756,-0.6974728107452393,-0.0988916903734207,33.94194030761719,87.924072265625,-27.41981506347656
48649,-0.1938629150390625,0.830810546875,0.139312744140625,1.053202390670776,-0.8021531701087952,-0.0974421352148056,33.87876892089844,87.78660583496094,-27.85865783691406
48650,-0.2027587890625,0.7653961181640625,0.166748046875,1.035563826560974,-0.9298365712165833,-0.1030219867825508,33.62091064453125,87.74981689453125,-28.375
48651,-0.2027587890625,0.7653961181640625,0.166748046875,1.035563826560974,-0.9298365712165833,-0.1030219867825508,33.62091064453125,87.74981689453125,-28.375
48652,-0.208892822265625,0.7566986083984375,0.1756591796875,1.02191424369812,-0.9478080868721008,-0.1110223904252052,33.54069519042969,87.57524108886719,-28.65547180175781
48653,-0.2174224853515625,0.761932373046875,0.1977691650390625,0.9933667778968812,-0.9340715408325196,-0.1183623299002647,33.3458251953125,87.50645446777344,-28.8427734375
48654,-0.228424072265625,0.797454833984375,0.25360107421875,0.8503936529159546,-0.8612367510795593,-0.1424351781606674,33.11868286132812,87.18679809570312,-29.33909606933594
48655,-0.228424072265625,0.797454833984375,0.25360107421875,0.8503936529159546,-0.8612367510795593,-0.1424351781606674,33.11868286132812,87.18679809570312,-29.33909606933594
48656,-0.22906494140625,0.8189697265625,0.283782958984375,0.7419992685317993,-0.8407000303268433,-0.1412974745035172,33.15147399902344,86.95399475097656,-29.63206481933594
48657,-0.2302093505859375,0.830078125,0.3145904541015625,0.6383621096611023,-0.8208640217781067,-0.1437510401010513,32.99385070800781,86.78245544433594,-29.76924133300781
48658,-0.2520751953125,0.8494720458984375,0.372283935546875,0.4497828781604767,-0.738881528377533,-0.127560093998909,32.74165344238281,86.68876647949219,-30.02558898925781
48659,-0.2520751953125,0.8494720458984375,0.372283935546875,0.4497828781604767,-0.738881528377533,-0.127560093998909,32.74165344238281,86.68876647949219,-30.02558898925781
48660,-0.2752227783203125,0.857208251953125,0.3796844482421875,0.3671708106994629,-0.7196545600891113,-0.1142639890313148,32.75486755371094,86.5836181640625,-30.04618835449219
48661,-0.307586669921875,0.8670654296875,0.386627197265625,0.2817778885364532,-0.7489359974861145,-0.1179793700575829,32.64895629882812,86.45709228515625,-30.08061218261719
48662,-0.356201171875,0.8598785400390625,0.3964080810546875,0.0989351049065589,-0.742991030216217,-0.1266365051269531,32.61271667480469,86.34872436523438,-30.175537109375
48663,-0.356201171875,0.8598785400390625,0.3964080810546875,0.0989351049065589,-0.742991030216217,-0.1266365051269531,32.61271667480469,86.34872436523438,-30.175537109375
48664,-0.3564300537109375,0.8202056884765625,0.371307373046875,-0.0175491664558649,-0.6926844716072083,-0.110443688929081,32.53471374511719,86.29161071777344,-30.14089965820312
48665,-0.335174560546875,0.788482666015625,0.3378448486328125,-0.139183983206749,-0.6209612488746643,-0.0689875930547714,32.48739624023438,86.13386535644531,-30.08634948730469
48666,-0.249969482421875,0.82464599609375,0.3333892822265625,-0.3682312965393066,-0.3092215061187744,-0.0122798355296254,32.22834777832031,85.97616577148438,-29.66938781738281
48667,-0.249969482421875,0.82464599609375,0.3333892822265625,-0.3682312965393066,-0.3092215061187744,-0.0122798355296254,32.22834777832031,85.97616577148438,-29.66938781738281
48668,-0.2231292724609375,0.853240966796875,0.3377532958984375,-0.4546180963516235,-0.0921509638428688,-0.0375961102545261,32.11923217773438,85.90142822265625,-29.43516540527344
48669,-0.2169952392578125,0.87835693359375,0.3342742919921875,-0.5012572407722473,0.0367252565920352,-0.0920806601643562,32.0982666015625,85.96397399902344,-29.34855651855469
48670,-0.218231201171875,0.8804473876953125,0.3344573974609375,-0.5282217264175415,0.0103985788300633,-0.227679505944252,31.99165344238281,86.20684814453125,-28.9395751953125
48671,-0.218231201171875,0.8804473876953125,0.3344573974609375,-0.5282217264175415,0.0103985788300633,-0.227679505944252,31.99165344238281,86.20684814453125,-28.9395751953125
48672,-0.1982879638671875,0.8871307373046875,0.3252716064453125,-0.522415280342102,-0.028368791565299,-0.2698658406734467,31.94392395019531,86.364990234375,-28.72340393066406
48673,-0.1613922119140625,0.9068756103515624,0.289520263671875,-0.5371295213699341,-0.0620692297816276,-0.2961517572402954,31.8299560546875,86.34140014648438,-28.49592590332031
48674,-0.0695648193359375,1.020614624023438,0.172210693359375,-0.5014524459838867,-0.2121559381484985,-0.2765767276287079,31.44992065429688,86.279541015625,-27.64303588867188
48675,-0.0695648193359375,1.020614624023438,0.172210693359375,-0.5014524459838867,-0.2121559381484985,-0.2765767276287079,31.44992065429688,86.279541015625,-27.64303588867188
48676,-0.0695648193359375,1.020614624023438,0.172210693359375,-0.5014524459838867,-0.2121559381484985,-0.2765767276287079,31.44992065429688,86.279541015625,-27.64303588867188
48677,-0.0548553466796875,1.048583984375,0.1780548095703125,-0.4676015377044678,-0.1995048522949219,-0.2686463594436646,31.32493591308594,86.25692749023438,-27.46014404296875
48678,-0.0883636474609375,1.084365844726562,0.23162841796875,-0.4490041732788086,0.0318918861448764,-0.2723242044448853,30.95628356933594,86.1702880859375,-26.9847412109375
48679,-0.0883636474609375,1.084365844726562,0.23162841796875,-0.4490041732788086,0.0318918861448764,-0.2723242044448853,30.95628356933594,86.1702880859375,-26.9847412109375
48680,-0.117645263671875,1.066055297851562,0.1992950439453125,-0.4203328490257263,0.1407427340745926,-0.3005856573581696,30.69325256347656,86.11532592773438,-26.93403625488281
48681,-0.14251708984375,1.068191528320312,0.1654052734375,-0.3826113045215607,0.1485077142715454,-0.3384273052215576,30.51779174804688,86.03971862792969,-26.78364562988281
48682,-0.182586669921875,1.084228515625,0.120635986328125,-0.3151736557483673,0.0304543115198612,-0.3764332830905914,30.21571350097656,85.864501953125,-26.202392578125
48683,-0.182586669921875,1.084228515625,0.120635986328125,-0.3151736557483673,0.0304543115198612,-0.3764332830905914,30.21571350097656,85.864501953125,-26.202392578125
48684,-0.202056884765625,1.086837768554688,0.0964813232421875,-0.2623645067214966,-0.0264425259083509,-0.3584886491298676,30.0943603515625,85.84552001953125,-26.08262634277344
48685,-0.2027740478515625,1.077560424804688,0.0856475830078125,-0.1862146109342575,-0.0457357950508594,-0.3107858300209045,29.8876953125,85.90586853027344,-25.93594360351562
48686,-0.164825439453125,1.027740478515625,0.0886688232421875,-0.0904374867677688,0.0565791241824626,-0.15402552485466,29.53515625,85.70420837402344,-25.6719970703125
48687,-0.164825439453125,1.027740478515625,0.0886688232421875,-0.0904374867677688,0.0565791241824626,-0.15402552485466,29.53515625,85.70420837402344,-25.6719970703125
48688,-0.1477203369140625,1.011566162109375,0.08551025390625,-0.0784782990813255,0.108809307217598,-0.0774513781070709,29.40203857421875,85.67912292480469,-25.70191955566406
48689,-0.1371917724609375,1.000747680664062,0.0881500244140625,-0.0852326080203056,0.128904715180397,-0.0166135970503091,29.28851318359375,85.70053100585938,-25.7259521484375
48690,-0.140625,0.9992218017578124,0.0937347412109375,-0.0936471298336982,0.1389541625976562,0.0276721082627773,29.23028564453125,85.60704040527344,-25.49272155761719
48691,-0.1506500244140625,1.005966186523438,0.0868682861328125,-0.0789251774549484,0.1434242725372314,0.0555298365652561,29.24369812011719,85.50215148925781,-25.37046813964844
48692,-0.1592864990234375,1.019393920898438,0.0750579833984375,-0.0366879738867282,0.149526908993721,0.0705364868044853,29.28382873535156,85.55621337890625,-25.31558227539062
48693,-0.1652984619140625,1.044082641601562,0.0727081298828125,0.0126513466238975,0.1674923300743103,0.0646655485033989,29.2784423828125,85.6383056640625,-25.48329162597656
48694,-0.189544677734375,1.0921630859375,0.07861328125,0.0766508355736732,0.2828966677188873,0.0174767281860113,29.20455932617188,85.84713745117188,-25.74336242675781
48695,-0.2147674560546875,1.09259033203125,0.077911376953125,0.092006891965866,0.3403685092926025,-0.0085261100903153,29.22039794921875,85.83682250976562,-25.71638488769531
48696,-0.2147674560546875,1.09259033203125,0.077911376953125,0.092006891965866,0.3403685092926025,-0.0085261100903153,29.22039794921875,85.83682250976562,-25.71638488769531
48697,-0.249908447265625,1.08258056640625,0.072906494140625,0.107211671769619,0.3787071108818054,-0.0310271587222814,29.2421875,85.81736755371094,-25.65931701660156
48698,-0.313201904296875,1.039306640625,0.0615997314453125,0.1219306960701942,0.3827241957187653,-0.0512298978865146,29.33404541015625,85.68345642089844,-25.72308349609375
48699,-0.313201904296875,1.039306640625,0.0615997314453125,0.1219306960701942,0.3827241957187653,-0.0512298978865146,29.33404541015625,85.68345642089844,-25.72308349609375
48700,-0.335906982421875,1.015029907226562,0.060089111328125,0.1138706430792809,0.3577954173088074,-0.0478857681155204,29.39372253417969,85.7684326171875,-25.9849853515625
48701,-0.3495635986328125,0.9937744140625,0.0577545166015625,0.0954929664731025,0.3034954369068146,-0.0348048508167266,29.34968566894531,85.74246215820312,-26.0118408203125
48702,-0.3347625732421875,0.9448089599609376,0.070068359375,0.0388930700719356,0.1682398766279221,0.0119815617799758,29.40798950195312,85.49832153320312,-26.24748229980469
48703,-0.3347625732421875,0.9448089599609376,0.070068359375,0.0388930700719356,0.1682398766279221,0.0119815617799758,29.40798950195312,85.49832153320312,-26.24748229980469
48704,-0.313995361328125,0.9169921875,0.0855255126953125,-0.0049574743025004,0.0976099148392677,0.0460745505988597,29.43380737304688,85.48439025878906,-26.42733764648438
48705,-0.2908782958984375,0.8938140869140625,0.101165771484375,-0.0480341054499149,0.0313792265951633,0.0880640819668769,29.51097106933594,85.38848876953125,-26.501708984375
48706,-0.244537353515625,0.8630523681640625,0.13873291015625,-0.1172174364328384,-0.0884241387248039,0.1693632006645203,29.56796264648438,85.25640869140625,-26.57192993164062
48707,-0.244537353515625,0.8630523681640625,0.13873291015625,-0.1172174364328384,-0.0884241387248039,0.1693632006645203,29.56796264648438,85.25640869140625,-26.57192993164062
48708,-0.2183074951171875,0.8538055419921875,0.15478515625,-0.1382215172052383,-0.1362885981798172,0.2090698629617691,29.59803771972656,85.26045227050781,-26.55683898925781
48709,-0.189300537109375,0.8473052978515625,0.169891357421875,-0.1577776521444321,-0.1733075976371765,0.247554674744606,29.78340148925781,85.22489929199219,-26.55972290039062
48710,-0.1171722412109375,0.8473358154296875,0.17559814453125,-0.1997799575328827,-0.2885151505470276,0.3103216588497162,29.87869262695312,85.27316284179688,-26.35693359375
48711,-0.1171722412109375,0.8473358154296875,0.17559814453125,-0.1997799575328827,-0.2885151505470276,0.3103216588497162,29.87869262695312,85.27316284179688,-26.35693359375
48712,-0.081512451171875,0.85784912109375,0.1864013671875,-0.2328044921159744,-0.3541543483734131,0.3287073075771332,30.03321838378906,85.25331115722656,-26.28213500976562
48713,-0.0467376708984375,0.8690948486328125,0.1968841552734375,-0.2750158607959747,-0.3978120684623718,0.3330253660678864,30.09056091308594,85.381591796875,-26.12556457519531
48714,0.0026092529296875,0.908111572265625,0.20880126953125,-0.3429009020328522,-0.4446285963058472,0.3284585773944855,30.37986755371094,85.44660949707031,-25.73336791992188
48715,0.0026092529296875,0.908111572265625,0.20880126953125,-0.3429009020328522,-0.4446285963058472,0.3284585773944855,30.37986755371094,85.44660949707031,-25.73336791992188
48716,0.00811767578125,0.9232177734375,0.2077789306640625,-0.3276319205760956,-0.4523863792419434,0.3049636483192444,30.43893432617188,85.61370849609375,-25.50859069824219
48717,-0.001861572265625,0.92596435546875,0.2073974609375,-0.2624441385269165,-0.4390237033367157,0.2722570896148682,30.52278137207031,85.60658264160156,-25.14767456054688
48718,-0.0182647705078125,0.9230804443359376,0.2174224853515625,-0.1873762905597687,-0.3995620310306549,0.2431213110685349,30.63778686523438,85.65220642089844,-24.93391418457031
48719,-0.03533935546875,0.9383392333984376,0.22412109375,-0.1401584446430206,-0.3424785137176514,0.2179256677627563,30.76739501953125,85.69459533691406,-24.75827026367188
48720,-0.057525634765625,0.9892578125,0.2292633056640625,-0.1245270147919655,-0.2844311892986298,0.1689698398113251,30.96405029296875,85.93864440917969,-24.55055236816406
48721,-0.0868377685546875,1.047988891601562,0.245361328125,-0.1425717920064926,-0.2227824777364731,0.094477504491806,30.98579406738281,85.98689270019531,-24.35177612304688
48722,-0.1839447021484375,1.132369995117188,0.2896881103515625,-0.2036111801862717,-0.0450913123786449,-0.0696509853005409,31.13761901855469,86.140869140625,-24.15727233886719
48723,-0.1839447021484375,1.132369995117188,0.2896881103515625,-0.2036111801862717,-0.0450913123786449,-0.0696509853005409,31.13761901855469,86.140869140625,-24.15727233886719
48724,-0.2435760498046875,1.15826416015625,0.295013427734375,-0.1879957318305969,0.0115645108744502,-0.150197759270668,31.15756225585938,86.07722473144531,-24.11187744140625
48725,-0.2958221435546875,1.158599853515625,0.2999267578125,-0.138021245598793,0.0295216739177703,-0.218681737780571,31.26254272460938,85.990966796875,-24.06910705566406
48726,-0.3516693115234375,1.103805541992188,0.314788818359375,-0.0098821921274065,0.0576491802930831,-0.3003952503204346,31.17416381835938,85.94273376464844,-23.94767761230469
48727,-0.3516693115234375,1.103805541992188,0.314788818359375,-0.0098821921274065,0.0576491802930831,-0.3003952503204346,31.17416381835938,85.94273376464844,-23.94767761230469
48728,-0.3585662841796875,1.0721435546875,0.3294677734375,0.0365702621638774,0.0781688392162323,-0.2958889007568359,31.07994079589844,85.79505920410156,-23.89263916015625
48729,-0.361480712890625,1.035781860351562,0.35400390625,0.054987084120512,0.1249398067593575,-0.278808206319809,31.06678771972656,85.7410888671875,-23.84033203125
48730,-0.36834716796875,0.9782562255859376,0.3678131103515625,6.684534309897572e-05,0.1143545359373093,-0.2256544381380081,30.95718383789062,85.56646728515625,-23.82131958007812
48731,-0.36834716796875,0.9782562255859376,0.3678131103515625,6.684534309897572e-05,0.1143545359373093,-0.2256544381380081,30.95718383789062,85.56646728515625,-23.82131958007812
48732,-0.372711181640625,0.9667816162109376,0.364837646484375,-0.0281541403383016,0.0209468267858028,-0.2000055313110352,30.84770202636719,85.50350952148438,-23.79330444335938
48733,-0.3672027587890625,0.9420166015625,0.359954833984375,-0.0453355237841606,-0.1223062053322792,-0.1868657618761063,30.7445068359375,85.55313110351562,-23.9354248046875
48734,-0.289093017578125,0.8900146484375,0.3643035888671875,-0.0966794043779373,-0.3565293550491333,-0.167183130979538,30.6861572265625,85.36299133300781,-24.1026611328125
48735,-0.289093017578125,0.8900146484375,0.3643035888671875,-0.0966794043779373,-0.3565293550491333,-0.167183130979538,30.6861572265625,85.36299133300781,-24.1026611328125
48736,-0.228485107421875,0.90057373046875,0.3572998046875,-0.1279486417770386,-0.4019117653369904,-0.1845067292451859,30.6861572265625,85.36299133300781,-24.1026611328125
48737,-0.1834259033203125,0.8892364501953125,0.3409423828125,-0.1570234447717667,-0.4231352806091309,-0.2122315615415573,30.61390686035156,85.35598754882812,-23.85475158691406
48738,-0.1501312255859375,0.8227996826171875,0.3203125,-0.2265497893095016,-0.4188249409198761,-0.2456915229558945,30.45713806152344,85.25514221191406,-23.16450500488281
48739,-0.1501312255859375,0.8227996826171875,0.3203125,-0.2265497893095016,-0.4188249409198761,-0.2456915229558945,30.45713806152344,85.25514221191406,-23.16450500488281
48740,-0.17694091796875,0.792236328125,0.29840087890625,-0.2730829417705536,-0.4122796952724457,-0.2510426044464111,30.47128295898438,85.32200622558594,-22.95616149902344
48741,-0.2239532470703125,0.7779693603515625,0.270660400390625,-0.3237959146499634,-0.4229691028594971,-0.2505848109722137,30.35708618164062,85.25643920898438,-22.64897155761719
48742,-0.3089752197265625,0.7889251708984375,0.2525787353515625,-0.406425803899765,-0.36152383685112,-0.2548373639583588,30.10040283203125,84.9254150390625,-22.27694702148438
48743,-0.3089752197265625,0.7889251708984375,0.2525787353515625,-0.406425803899765,-0.36152383685112,-0.2548373639583588,30.10040283203125,84.9254150390625,-22.27694702148438
48744,-0.3501129150390625,0.79754638671875,0.251800537109375,-0.4058010280132294,-0.2508434057235718,-0.2652186155319214,29.96751403808594,84.860107421875,-22.22984313964844
48745,-0.3917388916015625,0.79754638671875,0.2602996826171875,-0.3527732193470001,-0.1071434989571571,-0.2607149481773376,29.97294616699219,84.75216674804688,-22.06796264648438
48746,-0.419525146484375,0.7914276123046875,0.281463623046875,-0.2713204622268677,0.054184939712286,-0.2555020749568939,29.7991943359375,84.67367553710938,-21.82246398925781
48747,-0.432342529296875,0.7775421142578125,0.309417724609375,-0.1904154866933823,0.2246655970811844,-0.2336210161447525,29.84228515625,84.66354370117188,-21.72872924804688
48748,-0.4227294921875,0.7661285400390625,0.3269805908203125,-0.1486866772174835,0.3620322346687317,-0.1970193237066269,29.6751708984375,84.5714111328125,-21.62620544433594
48749,-0.3989410400390625,0.7625274658203125,0.3449249267578125,-0.1649141162633896,0.432090699672699,-0.1667905747890472,29.60450744628906,84.60862731933594,-21.62994384765625
48750,-0.355712890625,0.7792816162109375,0.37103271484375,-0.3014945983886719,0.4303830862045288,-0.1240481808781624,29.43888854980469,84.58345031738281,-21.75169372558594
48751,-0.355712890625,0.7792816162109375,0.37103271484375,-0.3014945983886719,0.4303830862045288,-0.1240481808781624,29.43888854980469,84.58345031738281,-21.75169372558594
48752,-0.345001220703125,0.7908935546875,0.3779449462890625,-0.3631499707698822,0.3735200464725494,-0.1149806454777718,29.40016174316406,84.46327209472656,-21.760498046875
48753,-0.336944580078125,0.806732177734375,0.391387939453125,-0.3903488516807556,0.3156575560569763,-0.1007356643676758,29.48211669921875,84.3974609375,-21.71595764160156
48754,-0.29754638671875,0.859222412109375,0.364288330078125,-0.3740659952163696,0.3281895816326141,-0.0766335278749465,29.30838012695312,84.36370849609375,-21.3551025390625
48755,-0.29754638671875,0.859222412109375,0.364288330078125,-0.3740659952163696,0.3281895816326141,-0.0766335278749465,29.30838012695312,84.36370849609375,-21.3551025390625
48756,-0.271636962890625,0.8639984130859375,0.29595947265625,-0.3328397274017334,0.3012945950031281,-0.070523701608181,29.35052490234375,84.25698852539062,-21.29647827148438
48757,-0.2447052001953125,0.8632049560546875,0.22845458984375,-0.263717919588089,0.2007943540811539,-0.0674088671803474,29.36282348632812,84.24832153320312,-21.17962646484375
48758,-0.2081451416015625,0.87445068359375,0.2428436279296875,-0.1437819302082062,0.1080425828695297,-0.0481824427843093,29.25489807128906,84.26034545898438,-21.0667724609375
48759,-0.2081451416015625,0.87445068359375,0.2428436279296875,-0.1437819302082062,0.1080425828695297,-0.0481824427843093,29.25489807128906,84.26034545898438,-21.0667724609375
48760,-0.18927001953125,0.8865509033203125,0.249359130859375,-0.1275571584701538,0.1461699903011322,-0.0435557328164577,29.25674438476562,84.33738708496094,-20.89909362792969
48761,-0.1679229736328125,0.90216064453125,0.2294921875,-0.1236399188637733,0.1483370065689087,-0.0371929071843624,29.26776123046875,84.22561645507812,-20.71977233886719
48762,-0.12481689453125,0.9219512939453124,0.196044921875,-0.0844344571232795,0.0148900002241134,0.016146745532751,29.28298950195312,84.45346069335938,-20.59669494628906
48763,-0.12481689453125,0.9219512939453124,0.196044921875,-0.0844344571232795,0.0148900002241134,0.016146745532751,29.28298950195312,84.45346069335938,-20.59669494628906
48764,-0.129150390625,0.9127197265625,0.1840667724609375,-0.0035579830873757,0.0405405014753341,0.0380946546792984,29.38668823242188,84.52943420410156,-20.6685791015625
48765,-0.1374664306640625,0.8618316650390625,0.15655517578125,0.1438301354646683,0.1612261682748795,0.0429748967289924,29.29350280761719,84.49429321289062,-20.61566162109375
48766,-0.1447601318359375,0.77484130859375,0.1198272705078125,0.3859338462352753,0.3873394727706909,0.0751216486096382,29.14706420898438,84.52806091308594,-20.94126892089844
48767,-0.1447601318359375,0.77484130859375,0.1198272705078125,0.3859338462352753,0.3873394727706909,0.0751216486096382,29.14706420898438,84.52806091308594,-20.94126892089844
48768,-0.142303466796875,0.787322998046875,0.149383544921875,0.3495803773403168,0.3844302296638489,0.0826506689190864,29.11004638671875,84.5006103515625,-21.17672729492188
48769,-0.14581298828125,0.8190460205078125,0.2041168212890625,0.2181509733200073,0.3411908745765686,0.0735796764492988,29.06346130371094,84.36009216308594,-21.28060913085938
48770,-0.1476898193359375,0.92791748046875,0.337677001953125,-0.0651984438300132,0.239940419793129,0.0828054025769233,29.10745239257812,84.51606750488281,-21.72271728515625
48771,-0.1476898193359375,0.92791748046875,0.337677001953125,-0.0651984438300132,0.239940419793129,0.0828054025769233,29.10745239257812,84.51606750488281,-21.72271728515625
48772,-0.1457366943359375,1.01824951171875,0.398773193359375,-0.132121279835701,0.1973176002502441,0.0837468281388282,29.09358215332031,84.63801574707031,-21.94915771484375
48773,-0.1459503173828125,1.113677978515625,0.4365692138671875,-0.1362017840147018,0.1415558010339737,0.0782540589570999,29.06797790527344,84.75149536132812,-21.98294067382812
48774,-0.1617279052734375,1.288070678710938,0.468292236328125,0.0039191078394651,-0.0687393844127655,0.0138175450265407,28.97607421875,84.9002685546875,-22.18115234375
48775,-0.1617279052734375,1.288070678710938,0.468292236328125,0.0039191078394651,-0.0687393844127655,0.0138175450265407,28.97607421875,84.9002685546875,-22.18115234375
48776,-0.1976318359375,1.353591918945312,0.4844207763671875,0.1138717085123062,-0.165215328335762,-0.0484269224107265,28.92658996582031,84.93070983886719,-22.12907409667969
48777,-0.2476959228515625,1.383499145507812,0.4841461181640625,0.2200567275285721,-0.1942613571882248,-0.1263163983821869,28.99653625488281,84.92030334472656,-22.23495483398438
48778,-0.378692626953125,1.268905639648438,0.321990966796875,0.5623882412910461,-0.1936267167329788,-0.2905836403369904,28.79466247558594,85.09562683105469,-22.14028930664062
48779,-0.378692626953125,1.268905639648438,0.321990966796875,0.5623882412910461,-0.1936267167329788,-0.2905836403369904,28.79466247558594,85.09562683105469,-22.14028930664062
48780,-0.419677734375,1.142913818359375,0.2691802978515625,0.795062780380249,-0.2543148398399353,-0.2950050234794617,28.79449462890625,84.98916625976562,-22.3504638671875
48781,-0.43768310546875,1.066009521484375,0.252777099609375,0.9652249217033386,-0.2504774928092957,-0.2676359713077545,28.64630126953125,84.92100524902344,-22.49592590332031
48782,-0.3934326171875,0.9649505615234376,0.1249847412109375,0.9497634172439576,-0.4383603036403656,-0.233456164598465,28.51446533203125,84.44001770019531,-22.96974182128906
48783,-0.3934326171875,0.9649505615234376,0.1249847412109375,0.9497634172439576,-0.4383603036403656,-0.233456164598465,28.51446533203125,84.44001770019531,-22.96974182128906
48784,-0.3545684814453125,0.91766357421875,0.100006103515625,0.8585994243621826,-0.5201409459114075,-0.2241611927747726,28.32810974121094,84.28758239746094,-23.28488159179688
48785,-0.3185882568359375,0.8781585693359375,0.0739288330078125,0.7720911502838135,-0.537670373916626,-0.221778467297554,28.17892456054688,84.10992431640625,-23.513916015625
48786,-0.26409912109375,0.84161376953125,0.043243408203125,0.7260522842407227,-0.5077471137046814,-0.2281143963336945,28.00874328613281,83.69270324707031,-23.89251708984375
48787,-0.26409912109375,0.84161376953125,0.043243408203125,0.7260522842407227,-0.5077471137046814,-0.2281143963336945,28.00874328613281,83.69270324707031,-23.89251708984375
48788,-0.2489471435546875,0.8287811279296875,0.045196533203125,0.7537515759468079,-0.4698095619678497,-0.2251822501420975,27.885986328125,83.44451904296875,-24.07148742675781
48789,-0.23211669921875,0.8211212158203125,0.05072021484375,0.7790473103523254,-0.4374838471412659,-0.2064815312623978,27.75576782226562,83.33705139160156,-24.26708984375
48790,-0.1831512451171875,0.7928619384765625,0.08563232421875,0.730294942855835,-0.4755518734455109,-0.1347050815820694,27.68440246582031,83.11131286621094,-24.70693969726562
48791,-0.1831512451171875,0.7928619384765625,0.08563232421875,0.730294942855835,-0.4755518734455109,-0.1347050815820694,27.68440246582031,83.11131286621094,-24.70693969726562
48792,-0.167755126953125,0.7783203125,0.1190032958984375,0.6740151643753052,-0.4876234531402588,-0.0963417142629623,27.60292053222656,82.95217895507812,-24.69767761230469
48793,-0.1616668701171875,0.7721710205078125,0.161834716796875,0.6023239493370056,-0.4670257866382599,-0.0497936569154262,27.52854919433594,82.96699523925781,-24.90364074707031
48794,-0.175750732421875,0.8178863525390625,0.2396087646484375,0.4010259807109833,-0.3591997027397156,0.0469438061118125,27.42388916015625,82.86817932128906,-25.27647399902344
48795,-0.175750732421875,0.8178863525390625,0.2396087646484375,0.4010259807109833,-0.3591997027397156,0.0469438061118125,27.42388916015625,82.86817932128906,-25.27647399902344
48796,-0.192626953125,0.862396240234375,0.2784271240234375,0.2838112115859985,-0.3164993822574615,0.086098663508892,27.49563598632812,82.73074340820312,-25.22148132324219
48797,-0.2114715576171875,0.9034423828125,0.327239990234375,0.167969822883606,-0.2828854918479919,0.1110567450523376,27.54647827148438,82.72770690917969,-25.32347106933594
48798,-0.2439117431640625,0.955230712890625,0.41387939453125,-0.0160607248544693,-0.2184705585241318,0.1506148129701614,27.68876647949219,82.85626220703125,-25.4410400390625
48799,-0.2439117431640625,0.955230712890625,0.41387939453125,-0.0160607248544693,-0.2184705585241318,0.1506148129701614,27.68876647949219,82.85626220703125,-25.4410400390625
48800,-0.2572174072265625,0.957427978515625,0.4344482421875,-0.071910411119461,-0.2212184071540833,0.170283317565918,27.8870849609375,82.83961486816406,-25.37606811523438
48801,-0.2688140869140625,0.94512939453125,0.448699951171875,-0.0975971296429634,-0.2371065616607666,0.1813610047101974,28.00018310546875,82.81130981445312,-25.17184448242188
48802,-0.271392822265625,0.9019622802734376,0.4665069580078125,-0.1160954460501671,-0.2867760956287384,0.1678531765937805,28.2484130859375,82.85105895996094,-24.85235595703125
48803,-0.271392822265625,0.9019622802734376,0.4665069580078125,-0.1160954460501671,-0.2867760956287384,0.1678531765937805,28.2484130859375,82.85105895996094,-24.85235595703125
48804,-0.2697601318359375,0.8377227783203125,0.4831085205078125,-0.1777960956096649,-0.2633336186408997,0.102447010576725,28.36906433105469,82.95587158203125,-24.60466003417969
48805,-0.2697601318359375,0.8377227783203125,0.4831085205078125,-0.1777960956096649,-0.2633336186408997,0.102447010576725,28.36906433105469,82.95587158203125,-24.60466003417969
48806,-0.2771148681640625,0.805938720703125,0.4844970703125,-0.2523614168167114,-0.2108432650566101,0.0584425367414951,28.51161193847656,83.07257080078125,-24.61473083496094
48807,-0.2973785400390625,0.7880401611328125,0.476348876953125,-0.3451475501060486,-0.1635284721851349,0.0109913982450962,28.54310607910156,83.11750793457031,-24.41644287109375
48808,-0.3227691650390625,0.78546142578125,0.4610748291015625,-0.4330462217330933,-0.1444983333349228,-0.0409607477486133,28.46281433105469,83.18846130371094,-24.27505493164062
48809,-0.3413543701171875,0.79217529296875,0.4372100830078125,-0.4959506392478943,-0.1721725612878799,-0.0856848135590553,28.52857971191406,83.18827819824219,-24.08836364746094
48810,-0.3325653076171875,0.810821533203125,0.4105377197265625,-0.5131402611732483,-0.2298683524131775,-0.1128104403614998,28.46572875976562,83.18751525878906,-23.97843933105469
48811,-0.30615234375,0.8233184814453125,0.400421142578125,-0.4938797652721405,-0.2507302165031433,-0.1283619701862335,28.48185729980469,83.3094482421875,-23.78530883789062
48812,-0.2793426513671875,0.828948974609375,0.3961181640625,-0.4453125,-0.20704185962677,-0.1290085762739182,28.35772705078125,83.34278869628906,-23.59405517578125
48813,-0.2610321044921875,0.8420562744140625,0.39434814453125,-0.4037117958068848,-0.1180571317672729,-0.1406655013561249,28.37725830078125,83.38578796386719,-23.28146362304688
48814,-0.2723388671875,0.8905487060546875,0.377716064453125,-0.418340802192688,0.0395479425787925,-0.2060234695672989,28.25433349609375,83.35385131835938,-22.79759216308594
48815,-0.2723388671875,0.8905487060546875,0.377716064453125,-0.418340802192688,0.0395479425787925,-0.2060234695672989,28.25433349609375,83.35385131835938,-22.79759216308594
48816,-0.2870941162109375,0.9136199951171876,0.3606414794921875,-0.4641964435577393,0.0446992926299572,-0.241372138261795,28.16258239746094,83.37893676757812,-22.51992797851562
48817,-0.299774169921875,0.9404449462890624,0.3543853759765625,-0.5082848072052002,0.0300660226494073,-0.2673917710781097,28.11763000488281,83.46966552734375,-22.30010986328125
48818,-0.2886505126953125,1.030670166015625,0.3050689697265625,-0.5289027094841003,0.0416422523558139,-0.2670223712921143,27.916259765625,83.62284851074219,-22.18186950683594
48819,-0.2886505126953125,1.030670166015625,0.3050689697265625,-0.5289027094841003,0.0416422523558139,-0.2670223712921143,27.916259765625,83.62284851074219,-22.18186950683594
48820,-0.2596282958984375,1.07080078125,0.2525787353515625,-0.4813490509986877,0.0020503676496446,-0.2454220056533813,27.71748352050781,83.70124816894531,-21.98208618164062
48821,-0.2303466796875,1.083694458007812,0.23077392578125,-0.3993892073631287,0.007056844420731,-0.2023259401321411,27.52694702148438,83.68215942382812,-21.80339050292969
48822,-0.18438720703125,1.073959350585938,0.2130584716796875,-0.2019648104906082,0.1576077342033386,-0.1096561923623085,27.29547119140625,83.56259155273438,-21.48240661621094
48823,-0.18438720703125,1.073959350585938,0.2130584716796875,-0.2019648104906082,0.1576077342033386,-0.1096561923623085,27.29547119140625,83.56259155273438,-21.48240661621094
48824,-0.17767333984375,1.061111450195312,0.203155517578125,-0.130116730928421,0.212872326374054,-0.0644053518772125,27.13687133789062,83.52496337890625,-21.30180358886719
48825,-0.17724609375,1.042770385742188,0.1923828125,-0.0853220894932746,0.2086645215749741,-0.0179105568677187,26.98307800292969,83.43202209472656,-21.15177917480469
48826,-0.1760711669921875,1.01361083984375,0.1701812744140625,0.0202192515134811,0.1416652500629425,0.0835036784410476,26.99349975585938,83.53846740722656,-21.05924987792969
48827,-0.1760711669921875,1.01361083984375,0.1701812744140625,0.0202192515134811,0.1416652500629425,0.0835036784410476,26.99349975585938,83.53846740722656,-21.05924987792969
48828,-0.1679534912109375,0.988677978515625,0.1426239013671875,0.104940265417099,0.1316578984260559,0.1364782154560089,26.94400024414062,83.56259155273438,-21.17550659179688
48829,-0.15740966796875,0.9644927978515624,0.11181640625,0.19228795170784,0.1362084448337555,0.186604231595993,26.9727783203125,83.70429992675781,-21.29512023925781
48830,-0.158782958984375,0.9327392578125,0.0908355712890625,0.287360668182373,0.2248299121856689,0.2501944005489349,27.13804626464844,83.818603515625,-21.52813720703125
48831,-0.158782958984375,0.9327392578125,0.0908355712890625,0.287360668182373,0.2248299121856689,0.2501944005489349,27.13804626464844,83.818603515625,-21.52813720703125
48832,-0.18572998046875,0.9321441650390624,0.086944580078125,0.2941378951072693,0.2933972477912903,0.2596001327037811,27.158203125,83.8787841796875,-21.67369079589844
48833,-0.2224273681640625,0.946685791015625,0.0858001708984375,0.2824439406394958,0.3585813343524933,0.2571937143802643,27.16941833496094,83.79061889648438,-21.790283203125
48834,-0.30413818359375,1.007415771484375,0.0980072021484375,0.2773168385028839,0.4486763179302216,0.2226839363574982,27.34567260742188,83.91014099121094,-21.9998779296875
48835,-0.30413818359375,1.007415771484375,0.0980072021484375,0.2773168385028839,0.4486763179302216,0.2226839363574982,27.34567260742188,83.91014099121094,-21.9998779296875
48836,-0.337005615234375,1.041152954101562,0.1097869873046875,0.294761598110199,0.4585699737071991,0.1971639394760132,27.42832946777344,83.97187805175781,-22.21533203125
48837,-0.3670501708984375,1.077682495117188,0.121673583984375,0.3164591789245605,0.4598304331302643,0.1736849695444107,27.55784606933594,84.13467407226562,-22.46626281738281
48838,-0.37725830078125,1.059967041015625,0.1650390625,0.338547945022583,0.4020667374134064,0.1271715313196182,27.97184753417969,84.09516906738281,-22.36488342285156
48839,-0.37725830078125,1.059967041015625,0.1650390625,0.338547945022583,0.4020667374134064,0.1271715313196182,27.97184753417969,84.09516906738281,-22.36488342285156
48840,-0.37725830078125,1.059967041015625,0.1650390625,0.338547945022583,0.4020667374134064,0.1271715313196182,27.97184753417969,84.09516906738281,-22.36488342285156
48841,-0.360198974609375,1.013473510742188,0.17578125,0.3425738513469696,0.3514810800552368,0.1538151353597641,28.00125122070312,84.09381103515625,-22.50772094726562
48842,-0.3131866455078125,0.9432525634765624,0.18731689453125,0.3524877429008484,0.2320476174354553,0.2420382052659988,28.10504150390625,84.18798828125,-23.56906127929688
48843,-0.3131866455078125,0.9432525634765624,0.18731689453125,0.3524877429008484,0.2320476174354553,0.2420382052659988,28.10504150390625,84.18798828125,-23.56906127929688
48844,-0.2900238037109375,0.9170074462890624,0.18792724609375,0.3577011525630951,0.1416138559579849,0.2905287742614746,28.22532653808594,84.17910766601562,-24.05352783203125
48845,-0.265228271484375,0.8945770263671875,0.1998443603515625,0.3603328764438629,0.0452178120613098,0.3357239365577698,28.27218627929688,84.14506530761719,-24.29403686523438
48846,-0.2183837890625,0.8683929443359375,0.251983642578125,0.2952984869480133,-0.0737895369529724,0.4287814497947693,28.520751953125,84.26109313964844,-24.869140625
48847,-0.2183837890625,0.8683929443359375,0.251983642578125,0.2952984869480133,-0.0737895369529724,0.4287814497947693,28.520751953125,84.26109313964844,-24.869140625
48848,-0.195404052734375,0.8675689697265625,0.268402099609375,0.2376333326101303,-0.1190382391214371,0.4587313532829285,28.6702880859375,84.36361694335938,-25.02302551269531
48849,-0.1769561767578125,0.871185302734375,0.2787933349609375,0.1912053823471069,-0.1725382208824158,0.4743353426456451,28.94322204589844,84.29544067382812,-25.14041137695312
48850,-0.1402130126953125,0.864532470703125,0.29290771484375,0.1611548066139221,-0.2650178074836731,0.4692939817905426,29.31134033203125,84.2921142578125,-25.09065246582031
48851,-0.1402130126953125,0.864532470703125,0.29290771484375,0.1611548066139221,-0.2650178074836731,0.4692939817905426,29.31134033203125,84.2921142578125,-25.09065246582031
48852,-0.1190948486328125,0.857757568359375,0.29345703125,0.1587441116571426,-0.2740912139415741,0.4577316045761108,29.52677917480469,84.4171142578125,-25.2479248046875
48853,-0.099273681640625,0.8414764404296875,0.2871246337890625,0.1681621074676514,-0.2478193938732147,0.439789891242981,29.73611450195312,84.31787109375,-25.18316650390625
48854,-0.07025146484375,0.7992706298828125,0.2656707763671875,0.1844542622566223,-0.1221421509981155,0.4070279598236084,30.04513549804688,84.56930541992188,-25.16365051269531
48855,-0.07025146484375,0.7992706298828125,0.2656707763671875,0.1844542622566223,-0.1221421509981155,0.4070279598236084,30.04513549804688,84.56930541992188,-25.16365051269531
48856,-0.0607757568359375,0.780181884765625,0.2405548095703125,0.1787785291671753,-0.0567407757043838,0.3961843550205231,30.27586364746094,84.67510986328125,-25.34831237792969
48857,-0.0600128173828125,0.7745361328125,0.219146728515625,0.1596455872058868,-0.0016210661269724,0.3801428079605103,30.36660766601562,84.64515686035156,-25.36495971679688
48858,-0.0695343017578125,0.7869110107421875,0.208953857421875,0.1333950757980347,0.0366232581436634,0.3549453020095825,30.43423461914062,84.60665893554688,-25.39286804199219
48859,-0.0914764404296875,0.822296142578125,0.2105255126953125,0.1000461727380753,0.08234653621912,0.3144391477108002,30.59283447265625,84.80400085449219,-25.64747619628906
48860,-0.1291351318359375,0.869720458984375,0.215057373046875,0.0587522611021995,0.1304565370082855,0.2578693628311157,30.68507385253906,84.96665954589844,-25.66868591308594
48861,-0.1766204833984375,0.9199981689453124,0.2148895263671875,0.0282103326171636,0.1621939688920975,0.192732959985733,30.77497863769531,85.03569030761719,-25.66615295410156
48862,-0.273406982421875,1.010421752929688,0.2259521484375,-0.0109003186225891,0.2160896807909012,0.0214222017675638,31.1219482421875,85.14483642578125,-25.69743347167969
48863,-0.273406982421875,1.010421752929688,0.2259521484375,-0.0109003186225891,0.2160896807909012,0.0214222017675638,31.1219482421875,85.14483642578125,-25.69743347167969
48864,-0.3159637451171875,1.03662109375,0.244720458984375,-0.0242502111941576,0.232278510928154,-0.0804570242762565,31.1820068359375,85.08612060546875,-25.68608093261719
48865,-0.3414459228515625,1.048797607421875,0.2778167724609375,-0.0486927032470703,0.2413673549890518,-0.1744192093610764,31.18975830078125,85.16986083984375,-25.74580383300781
48866,-0.3495635986328125,1.044937133789062,0.3216094970703125,-0.0918460339307785,0.2517062723636627,-0.2446933686733246,31.21759033203125,85.27964782714844,-25.86973571777344
48867,-0.3458251953125,1.038833618164062,0.3603515625,-0.1618155241012573,0.2421820014715195,-0.2906590104103088,31.15545654296875,85.38529968261719,-25.83906555175781
48868,-0.3449554443359375,1.04052734375,0.38580322265625,-0.2456100285053253,0.1794424653053284,-0.3078648746013641,31.13894653320312,85.3275146484375,-25.85629272460938
48869,-0.3488006591796875,1.0457763671875,0.3933563232421875,-0.317961186170578,0.0543689653277397,-0.3085809946060181,30.99360656738281,85.30995178222656,-25.8851318359375
48870,-0.3570556640625,1.037246704101562,0.3580474853515625,-0.3845077157020569,-0.3653095364570618,-0.2514886856079102,30.90274047851562,85.38243103027344,-25.65792846679688
48871,-0.3570556640625,1.037246704101562,0.3580474853515625,-0.3845077157020569,-0.3653095364570618,-0.2514886856079102,30.90274047851562,85.38243103027344,-25.65792846679688
48872,-0.3380584716796875,1.00762939453125,0.3203582763671875,-0.3601837456226349,-0.5706427097320557,-0.2082701176404953,30.77546691894531,85.49665832519531,-25.57756042480469
48873,-0.2901153564453125,0.9478302001953124,0.2872314453125,-0.3056773543357849,-0.6970003843307495,-0.1633820086717606,30.62022399902344,85.55075073242188,-25.35858154296875
48874,-0.2011871337890625,0.7923431396484375,0.213043212890625,-0.2272240966558456,-0.706002950668335,-0.1291452050209045,30.39425659179688,85.6005859375,-25.09320068359375
48875,-0.2011871337890625,0.7923431396484375,0.213043212890625,-0.2272240966558456,-0.706002950668335,-0.1291452050209045,30.39425659179688,85.6005859375,-25.09320068359375
48876,-0.1754608154296875,0.73284912109375,0.186065673828125,-0.24163419008255,-0.6952679753303528,-0.1589459776878357,30.2921142578125,85.53279113769531,-24.78056335449219
48877,-0.163299560546875,0.7024993896484375,0.17083740234375,-0.2901511192321777,-0.6878814697265625,-0.1986635625362396,30.25650024414062,85.36494445800781,-24.37933349609375
48878,-0.181396484375,0.72076416015625,0.130218505859375,-0.4470486044883728,-0.648245096206665,-0.2756904363632202,30.08805847167969,85.21615600585938,-23.78221130371094
48879,-0.181396484375,0.72076416015625,0.130218505859375,-0.4470486044883728,-0.648245096206665,-0.2756904363632202,30.08805847167969,85.21615600585938,-23.78221130371094
48880,-0.2113037109375,0.7512969970703125,0.1197967529296875,-0.5336804389953613,-0.6372994780540466,-0.2954505681991577,29.94245910644531,85.26509094238281,-23.53581237792969
48881,-0.24273681640625,0.7749786376953125,0.1266937255859375,-0.6098865270614624,-0.6036744117736816,-0.3025105893611908,29.76615905761719,85.24069213867188,-23.196044921875
48882,-0.29058837890625,0.805023193359375,0.1787872314453125,-0.6554055213928223,-0.4507807493209839,-0.3041670918464661,29.56112670898438,85.02839660644531,-22.44070434570312
48883,-0.29058837890625,0.805023193359375,0.1787872314453125,-0.6554055213928223,-0.4507807493209839,-0.3041670918464661,29.56112670898438,85.02839660644531,-22.44070434570312
48884,-0.3109893798828125,0.83001708984375,0.21014404296875,-0.6615697145462036,-0.35352423787117,-0.2930017709732056,29.50108337402344,85.02967834472656,-22.22305297851562
48885,-0.329132080078125,0.8706817626953125,0.225128173828125,-0.6844563484191895,-0.2821379601955414,-0.2848266661167145,29.37367248535156,85.10833740234375,-21.73931884765625
48886,-0.347076416015625,0.976654052734375,0.2354278564453125,-0.7181658744812012,-0.2932534515857697,-0.2702024579048157,29.07867431640625,85.19338989257812,-20.83644104003906
48887,-0.347076416015625,0.976654052734375,0.2354278564453125,-0.7181658744812012,-0.2932534515857697,-0.2702024579048157,29.07867431640625,85.19338989257812,-20.83644104003906
48888,-0.33349609375,1.02490234375,0.2618408203125,-0.6971585750579834,-0.3288497924804688,-0.2471016645431519,28.95646667480469,85.40313720703125,-20.60134887695312
48889,-0.3044281005859375,1.065689086914062,0.293426513671875,-0.6415749192237854,-0.3345633447170258,-0.2080972790718079,28.80296325683594,85.4173583984375,-20.21096801757812
48890,-0.2100982666015625,1.093673706054688,0.32867431640625,-0.4507141709327698,-0.3038797378540039,-0.1062537357211113,28.64433288574219,85.55946350097656,-19.45201110839844
48891,-0.2100982666015625,1.093673706054688,0.32867431640625,-0.4507141709327698,-0.3038797378540039,-0.1062537357211113,28.64433288574219,85.55946350097656,-19.45201110839844
48892,-0.16253662109375,1.093612670898438,0.3161773681640625,-0.3514949083328247,-0.3137981295585632,-0.0710289031267166,28.49786376953125,85.58984375,-19.09748840332031
48893,-0.119354248046875,1.082244873046875,0.290069580078125,-0.2579186260700226,-0.3632349371910095,-0.0645142793655395,28.48167419433594,85.64048767089844,-18.871826171875
48894,-0.0860137939453125,1.036407470703125,0.2326812744140625,-0.1086385995149612,-0.4753668010234833,-0.1476448476314545,28.41011047363281,85.69218444824219,-18.3876953125
48895,-0.0860137939453125,1.036407470703125,0.2326812744140625,-0.1086385995149612,-0.4753668010234833,-0.1476448476314545,28.41011047363281,85.69218444824219,-18.3876953125
48896,-0.097503662109375,1.037429809570312,0.1956939697265625,-0.0492716766893863,-0.4875331819057465,-0.1818821877241135,28.23991394042969,85.54512023925781,-18.11369323730469
48897,-0.1132659912109375,1.030563354492188,0.14697265625,0.0273879487067461,-0.4799783229827881,-0.1941979676485062,28.20803833007812,85.57017517089844,-17.86618041992188
48898,-0.1203460693359375,0.985137939453125,0.0956268310546875,0.1782866567373276,-0.4618011713027954,-0.1399001181125641,28.04200744628906,85.30819702148438,-17.72735595703125
48899,-0.1203460693359375,0.985137939453125,0.0956268310546875,0.1782866567373276,-0.4618011713027954,-0.1399001181125641,28.04200744628906,85.30819702148438,-17.72735595703125
48900,-0.1144561767578125,0.96319580078125,0.10784912109375,0.2017557621002197,-0.4180001616477966,-0.0907245799899101,28.02908325195312,85.11085510253906,-17.65525817871094
48901,-0.1053619384765625,0.9430999755859376,0.1238555908203125,0.1927286982536316,-0.3834786713123322,-0.0419631637632846,28.07179260253906,85.07156372070312,-17.55166625976562
48902,-0.086944580078125,0.9416046142578124,0.2003936767578125,0.1322168856859207,-0.3273943662643433,0.0448042228817939,28.01417541503906,85.14930725097656,-17.59281921386719
48903,-0.0847625732421875,0.97064208984375,0.254638671875,0.0855268836021423,-0.2702354788780212,0.0850547030568122,28.06201171875,85.04296875,-17.56256103515625
48904,-0.0847625732421875,0.97064208984375,0.254638671875,0.0855268836021423,-0.2702354788780212,0.0850547030568122,28.06201171875,85.04296875,-17.56256103515625
48905,-0.0919189453125,1.018630981445312,0.304595947265625,0.0385061129927635,-0.2184814661741257,0.1123808696866035,28.09072875976562,85.01057434082031,-17.60433959960938
48906,-0.1038818359375,1.070709228515625,0.3490753173828125,0.0072571136988699,-0.1771779805421829,0.1302429586648941,28.12162780761719,85.13052368164062,-17.5714111328125
48907,-0.1147918701171875,1.1217041015625,0.388702392578125,0.0059881177730858,-0.1659823060035706,0.1390263289213181,28.21772766113281,85.18023681640625,-17.51852416992188
48908,-0.1309814453125,1.166702270507812,0.4290771484375,0.0180232096463441,-0.1589459776878357,0.1425307840108871,28.24005126953125,85.28929138183594,-17.53369140625
48909,-0.1540069580078125,1.204254150390625,0.4676361083984375,0.038972433656454,-0.1411134451627731,0.1429536938667297,28.33323669433594,85.33990478515625,-17.48603820800781
48910,-0.2060699462890625,1.235260009765625,0.5044097900390625,0.1278876513242722,-0.0320950858294963,0.1093746945261955,28.51591491699219,85.41719055175781,-17.54228210449219
48911,-0.2060699462890625,1.235260009765625,0.5044097900390625,0.1278876513242722,-0.0320950858294963,0.1093746945261955,28.51591491699219,85.41719055175781,-17.54228210449219
48912,-0.234588623046875,1.225341796875,0.4964599609375,0.2082895487546921,0.0316274352371692,0.0818639770150184,28.65194702148438,85.32797241210938,-17.63339233398438
48913,-0.259552001953125,1.197616577148438,0.4787750244140625,0.3190158009529114,0.0939099863171577,0.0554384924471378,28.74655151367188,85.38267517089844,-17.63368225097656
48914,-0.297210693359375,1.069793701171875,0.4080352783203125,0.5257295370101929,0.1939457654953003,0.0173044223338365,28.96697998046875,85.40975952148438,-18.04023742675781
48915,-0.297210693359375,1.069793701171875,0.4080352783203125,0.5257295370101929,0.1939457654953003,0.0173044223338365,28.96697998046875,85.40975952148438,-18.04023742675781
48916,-0.30926513671875,1.014114379882812,0.3713226318359375,0.5689992904663086,0.2146025747060776,0.0102553004398942,29.06544494628906,85.20220947265625,-18.0972900390625
48917,-0.310211181640625,0.9635467529296876,0.334197998046875,0.5706775784492493,0.2068248242139816,0.0067354007624089,29.09153747558594,85.17266845703125,-18.40730285644531
48918,-0.29351806640625,0.860687255859375,0.2548065185546875,0.5495374202728271,0.1520151048898697,0.037516750395298,29.07206726074219,85.03875732421875,-19.02531433105469
48919,-0.29351806640625,0.860687255859375,0.2548065185546875,0.5495374202728271,0.1520151048898697,0.037516750395298,29.07206726074219,85.03875732421875,-19.02531433105469
48920,-0.268585205078125,0.8160247802734375,0.2230072021484375,0.5484372973442078,0.1002038344740868,0.0686016976833343,29.12496948242188,84.89913940429688,-19.29438781738281
48921,-0.231414794921875,0.783172607421875,0.2057037353515625,0.5526762008666992,0.0356069952249527,0.105465441942215,29.16346740722656,84.767578125,-19.3641357421875
48922,-0.189544677734375,0.7620697021484375,0.195343017578125,0.5540967583656311,-0.0395948141813278,0.1329822838306427,29.25389099121094,84.76124572753906,-19.74070739746094
48923,-0.15020751953125,0.747833251953125,0.1910552978515625,0.5611373782157898,-0.1264266520738602,0.144840270280838,29.23919677734375,84.74018859863281,-19.97647094726562
48924,-0.1132354736328125,0.74029541015625,0.19818115234375,0.5722158551216125,-0.2035246342420578,0.1288964599370956,29.30963134765625,84.64622497558594,-20.20079040527344
48925,-0.0901947021484375,0.74127197265625,0.212188720703125,0.5808077454566956,-0.2476071268320084,0.0994714647531509,29.41691589355469,84.56053161621094,-20.38130187988281
48926,-0.0614013671875,0.73187255859375,0.2388153076171875,0.5744547843933105,-0.2896169126033783,0.0391101166605949,29.54672241210938,84.5361328125,-20.88394165039062
48927,-0.0614013671875,0.73187255859375,0.2388153076171875,0.5744547843933105,-0.2896169126033783,0.0391101166605949,29.54672241210938,84.5361328125,-20.88394165039062
48928,-0.06158447265625,0.7335968017578125,0.2596588134765625,0.5420613884925842,-0.2782574594020844,0.020004067569971,29.52072143554688,84.54696655273438,-21.11805725097656
48929,-0.061065673828125,0.732177734375,0.2857818603515625,0.4895593225955963,-0.2534924447536469,0.0090174637734889,29.52903747558594,84.43898010253906,-21.014404296875
48930,-0.06787109375,0.7446746826171875,0.3741455078125,0.3427802622318268,-0.1851333677768707,0.0322543419897556,29.71588134765625,84.16737365722656,-21.20384216308594
48931,-0.06787109375,0.7446746826171875,0.3741455078125,0.3427802622318268,-0.1851333677768707,0.0322543419897556,29.71588134765625,84.16737365722656,-21.20384216308594
48932,-0.0760345458984375,0.759002685546875,0.4201507568359375,0.2513291537761688,-0.1655173301696777,0.0538970530033111,29.75152587890625,84.14511108398438,-21.428466796875
48933,-0.0895843505859375,0.769439697265625,0.4595184326171875,0.1563445925712585,-0.1838063150644302,0.0837132707238197,29.82450866699219,84.23703002929688,-21.48583984375
48934,-0.1368408203125,0.815887451171875,0.5194091796875,-0.0357763729989528,-0.3862124085426331,0.1016994640231133,29.91802978515625,84.40853881835938,-21.58364868164062
48935,-0.1368408203125,0.815887451171875,0.5194091796875,-0.0357763729989528,-0.3862124085426331,0.1016994640231133,29.91802978515625,84.40853881835938,-21.58364868164062
48936,-0.1820220947265625,0.8480987548828125,0.575408935546875,-0.135615348815918,-0.5230041146278381,0.0761078149080276,29.95448303222656,84.51200866699219,-21.55218505859375
48937,-0.23895263671875,0.8928375244140625,0.6573333740234375,-0.2410179376602173,-0.5854355096817017,0.0450966395437717,29.97645568847656,84.58992004394531,-21.36106872558594
48938,-0.3260345458984375,0.9671630859375,0.76104736328125,-0.4955431818962097,-0.4104756712913513,-0.0311885457485914,30.14277648925781,84.69114685058594,-20.91229248046875
48939,-0.3260345458984375,0.9671630859375,0.76104736328125,-0.4955431818962097,-0.4104756712913513,-0.0311885457485914,30.14277648925781,84.69114685058594,-20.91229248046875
48940,-0.3279266357421875,0.9549560546875,0.7420806884765625,-0.6336269974708557,-0.2657238245010376,-0.0641323775053024,30.32781982421875,84.63272094726562,-20.40463256835938
48941,-0.311279296875,0.91766357421875,0.6956787109375,-0.7337072491645813,-0.1309787929058075,-0.0817305520176887,30.21409606933594,84.72523498535156,-19.93939208984375
48942,-0.27191162109375,0.8579559326171875,0.572021484375,-0.7922052145004272,0.0641006901860237,-0.0710749775171279,30.16896057128906,84.69017028808594,-19.46235656738281
48943,-0.27191162109375,0.8579559326171875,0.572021484375,-0.7922052145004272,0.0641006901860237,-0.0710749775171279,30.16896057128906,84.69017028808594,-19.46235656738281
48944,-0.2476806640625,0.8555145263671875,0.5027923583984375,-0.7907982468605042,0.1063575968146324,-0.0602633394300937,30.12191772460938,84.63206481933594,-19.16525268554688
48945,-0.214630126953125,0.865203857421875,0.428558349609375,-0.7823701500892639,0.109791211783886,-0.0524416379630565,29.95437622070312,84.625,-18.97268676757812
48946,-0.1727294921875,0.8788299560546875,0.35382080078125,-0.7580403089523315,0.0939680412411689,-0.0382065065205097,29.88348388671875,84.53590393066406,-18.66642761230469
48947,-0.122039794921875,0.897674560546875,0.247406005859375,-0.7033690810203552,0.0393282324075698,-0.0182325337082147,29.74702453613281,84.53846740722656,-18.46295166015625
48948,-0.071502685546875,0.9251251220703124,0.150238037109375,-0.5923399925231934,-0.1057629138231277,-0.0138098215684294,29.6396484375,84.4210205078125,-18.20883178710938
48949,-0.0480804443359375,0.953033447265625,0.210601806640625,-0.4752421677112579,-0.1300986111164093,-0.0276691783219575,29.50148010253906,84.30828857421875,-17.96769714355469
48950,-0.0733184814453125,0.969482421875,0.3904571533203125,-0.4198215007781982,0.4008874893188477,-0.1069317758083344,29.34169006347656,84.25823974609375,-17.59848022460938
48951,-0.121795654296875,0.9722442626953124,0.3996429443359375,-0.4287910461425781,0.5303704142570496,-0.1677525192499161,29.29641723632812,84.36724853515625,-17.50094604492188
48952,-0.121795654296875,0.9722442626953124,0.3996429443359375,-0.4287910461425781,0.5303704142570496,-0.1677525192499161,29.29641723632812,84.36724853515625,-17.50094604492188
48953,-0.1654052734375,0.98876953125,0.409271240234375,-0.4296528398990631,0.5520309209823608,-0.2271822839975357,29.27993774414062,84.45375061035156,-17.33833312988281
48954,-0.1946868896484375,1.017990112304688,0.396728515625,-0.3515223562717438,0.3449973464012146,-0.2779629230499268,29.19209289550781,84.71403503417969,-17.09814453125
48955,-0.1946868896484375,1.017990112304688,0.396728515625,-0.3515223562717438,0.3449973464012146,-0.2779629230499268,29.19209289550781,84.71403503417969,-17.09814453125
48956,-0.1835174560546875,1.02880859375,0.386993408203125,-0.2756907045841217,0.2304318696260452,-0.2638292610645294,29.09783935546875,84.79505920410156,-17.19607543945312
48957,-0.171630859375,1.044662475585938,0.346160888671875,-0.1600794196128845,0.159333735704422,-0.2311874181032181,28.8924560546875,84.74697875976562,-17.14532470703125
48958,-0.1595611572265625,1.06036376953125,0.248565673828125,0.1600021868944168,0.1047535762190819,-0.1792054325342178,28.64186096191406,84.77294921875,-17.20236206054688
48959,-0.1595611572265625,1.06036376953125,0.248565673828125,0.1600021868944168,0.1047535762190819,-0.1792054325342178,28.64186096191406,84.77294921875,-17.20236206054688
48960,-0.1726226806640625,1.03924560546875,0.215087890625,0.3157584965229034,0.139015406370163,-0.14894899725914,28.47662353515625,84.74839782714844,-17.18193054199219
48961,-0.19354248046875,1.000045776367188,0.189239501953125,0.4457849264144897,0.1937273889780045,-0.109090268611908,28.3458251953125,84.72293090820312,-17.24069213867188
48962,-0.2558441162109375,0.9315185546875,0.1455230712890625,0.5762825012207031,0.2868924736976624,-0.0184301398694515,28.15252685546875,84.48847961425781,-17.45860290527344
48963,-0.2558441162109375,0.9315185546875,0.1455230712890625,0.5762825012207031,0.2868924736976624,-0.0184301398694515,28.15252685546875,84.48847961425781,-17.45860290527344
48964,-0.2789154052734375,0.9188079833984376,0.117919921875,0.6133164167404175,0.280264675617218,0.0221524406224489,28.10833740234375,84.5885009765625,-17.75634765625
48965,-0.29046630859375,0.9238128662109376,0.1121826171875,0.6435618996620178,0.2882389724254608,0.0671990141272544,28.09417724609375,84.65756225585938,-18.05288696289062
48966,-0.303375244140625,0.9797210693359376,0.1240234375,0.6523788571357727,0.4971890151500702,0.1382481604814529,28.10444641113281,84.61044311523438,-18.80197143554688
48967,-0.303375244140625,0.9797210693359376,0.1240234375,0.6523788571357727,0.4971890151500702,0.1382481604814529,28.10444641113281,84.61044311523438,-18.80197143554688
48968,-0.3001556396484375,1.010574340820312,0.1314544677734375,0.6255776286125183,0.6128860116004944,0.1615462899208069,28.16938781738281,84.65919494628906,-18.98236083984375
48969,-0.2925262451171875,1.038330078125,0.155975341796875,0.5888592600822449,0.665056049823761,0.1666185408830643,28.22735595703125,84.58993530273438,-19.43006896972656
48970,-0.2638397216796875,1.060531616210938,0.2333831787109375,0.5322282314300537,0.5833531618118286,0.176776111125946,28.31149291992188,84.81727600097656,-20.13185119628906
48971,-0.2638397216796875,1.060531616210938,0.2333831787109375,0.5322282314300537,0.5833531618118286,0.176776111125946,28.31149291992188,84.81727600097656,-20.13185119628906
48972,-0.2374725341796875,1.06011962890625,0.255157470703125,0.528179407119751,0.4857499301433563,0.1904786080121994,28.30879211425781,84.88458251953125,-20.473876953125
48973,-0.2071533203125,1.049285888671875,0.2646484375,0.5578845739364624,0.3548523783683777,0.2222165614366531,28.38681030273438,84.82194519042969,-20.8577880859375
48974,-0.16046142578125,1.013656616210938,0.264892578125,0.63592529296875,0.1198779344558716,0.3146719336509705,28.57908630371094,84.92286682128906,-21.61375427246094
48975,-0.16046142578125,1.013656616210938,0.264892578125,0.63592529296875,0.1198779344558716,0.3146719336509705,28.57908630371094,84.92286682128906,-21.61375427246094
48976,-0.152099609375,0.9891510009765624,0.258453369140625,0.6668035984039307,0.0201422870159149,0.3699652850627899,28.680419921875,84.95411682128906,-21.83168029785156
48977,-0.147705078125,0.967926025390625,0.26190185546875,0.6738876104354858,-0.0572931170463562,0.4221640229225159,28.82852172851562,84.93476867675781,-22.07980346679688
48978,-0.138275146484375,0.9515228271484376,0.271575927734375,0.671852171421051,-0.1249334141612053,0.4573241472244263,29.02020263671875,84.99873352050781,-22.25437927246094
48979,-0.1255645751953125,0.9388580322265624,0.282867431640625,0.6587952375411987,-0.1789817363023758,0.4698090553283691,29.215576171875,84.95619201660156,-22.46554565429688
48980,-0.1050262451171875,0.9258575439453124,0.2889862060546875,0.6537663340568542,-0.2378245443105698,0.4615846574306488,29.42095947265625,84.95039367675781,-22.92282104492188
48981,-0.078765869140625,0.8995208740234375,0.2898101806640625,0.6433848142623901,-0.2900004088878632,0.4363789260387421,29.65628051757812,85.01191711425781,-23.34738159179688
48982,-0.038665771484375,0.8261871337890625,0.296234130859375,0.5903144478797913,-0.2965757548809052,0.3896377682685852,30.00357055664062,85.22991943359375,-23.66635131835938
48983,-0.038665771484375,0.8261871337890625,0.296234130859375,0.5903144478797913,-0.2965757548809052,0.3896377682685852,30.00357055664062,85.22991943359375,-23.66635131835938
48984,-0.0192413330078125,0.7891845703125,0.2826385498046875,0.555303692817688,-0.2510796189308167,0.3782295882701874,30.20762634277344,85.19525146484375,-23.95394897460938
48985,-0.01910400390625,0.7761077880859375,0.2801361083984375,0.5251772403717041,-0.165875256061554,0.3642213642597198,30.39588928222656,85.20693969726562,-24.0028076171875
48986,-0.082366943359375,0.803253173828125,0.237701416015625,0.5090624690055847,0.0966740772128105,0.310821533203125,30.69282531738281,85.12005615234375,-24.23980712890625
48987,-0.082366943359375,0.803253173828125,0.237701416015625,0.5090624690055847,0.0966740772128105,0.310821533203125,30.69282531738281,85.12005615234375,-24.23980712890625
48988,-0.119873046875,0.8302764892578125,0.2076568603515625,0.5145205855369568,0.150494173169136,0.2872440218925476,30.80113220214844,85.12527465820312,-24.59019470214844
48989,-0.1329193115234375,0.848480224609375,0.19158935546875,0.5136723518371582,0.1822132170200348,0.2668388783931732,31.00489807128906,85.20280456542969,-25.08349609375
48990,-0.1344451904296875,0.86480712890625,0.1857452392578125,0.5039435625076294,0.2225356101989746,0.2452752739191055,31.04847717285156,85.19244384765625,-25.23056030273438
48991,-0.136138916015625,0.8839111328125,0.172515869140625,0.4850399196147919,0.2966146171092987,0.2199392914772034,31.13064575195312,85.245361328125,-25.59681701660156
48992,-0.147918701171875,0.9117279052734376,0.156829833984375,0.4683152735233307,0.3672586977481842,0.1745489090681076,31.23171997070312,85.44522094726562,-25.90478515625
48993,-0.175201416015625,0.9419403076171876,0.1557159423828125,0.4529696106910706,0.4450578987598419,0.1061048656702042,31.33087158203125,85.304931640625,-25.96769714355469
48994,-0.2795257568359375,0.9924468994140624,0.218597412109375,0.3885442912578583,0.6495828032493591,-0.0622279532253742,31.49742126464844,85.31129455566406,-26.46368408203125
48995,-0.2795257568359375,0.9924468994140624,0.218597412109375,0.3885442912578583,0.6495828032493591,-0.0622279532253742,31.49742126464844,85.31129455566406,-26.46368408203125
48996,-0.3344879150390625,0.99951171875,0.2700347900390625,0.3095381557941437,0.7879268527030945,-0.1720258295536041,31.57804870605469,85.385009765625,-26.88868713378906
48997,-0.3713531494140625,0.9755706787109376,0.274200439453125,0.2311277538537979,0.88181471824646,-0.2616872787475586,31.59135437011719,85.44007873535156,-27.19813537597656
48998,-0.41851806640625,0.8354949951171875,0.293670654296875,0.1632863879203796,0.8941046595573425,-0.2923676669597626,31.64637756347656,85.36508178710938,-27.8126220703125
48999,-0.41851806640625,0.8354949951171875,0.293670654296875,0.1632863879203796,0.8941046595573425,-0.2923676669597626,31.64637756347656,85.36508178710938,-27.8126220703125
49000,-0.403656005859375,0.7744598388671875,0.2716827392578125,0.1084583029150963,0.9148858189582824,-0.2394671887159348,31.55653381347656,85.37217712402344,-28.11444091796875
49001,-0.3882598876953125,0.7364654541015625,0.1812286376953125,0.0383793450891971,0.7942944765090942,-0.1768011450767517,31.46501159667969,85.33415222167969,-28.29191589355469
49002,-0.3652801513671875,0.7619781494140625,0.0302734375,-0.0882246643304824,0.2832032144069672,-0.0690882578492164,31.3431396484375,85.29071044921875,-28.51298522949219
49003,-0.3652801513671875,0.7619781494140625,0.0302734375,-0.0882246643304824,0.2832032144069672,-0.0690882578492164,31.3431396484375,85.29071044921875,-28.51298522949219
49004,-0.33538818359375,0.817474365234375,0.00103759765625,-0.0987734496593475,-0.0007299724384211,-0.0408976301550865,31.29512023925781,85.34565734863281,-28.54974365234375
49005,-0.2649688720703125,0.889190673828125,0.0130767822265625,-0.1126522421836853,-0.226899728178978,-0.0255764666944742,31.23959350585938,85.40901184082031,-28.77432250976562
49006,-0.105133056640625,1.024078369140625,0.109588623046875,-0.261361300945282,-0.4349895417690277,-0.0320258438587188,31.037353515625,85.49247741699219,-28.7110595703125
49007,-0.105133056640625,1.024078369140625,0.109588623046875,-0.261361300945282,-0.4349895417690277,-0.0320258438587188,31.037353515625,85.49247741699219,-28.7110595703125
49008,-0.0436248779296875,1.083221435546875,0.193023681640625,-0.4118482768535614,-0.4150725603103638,-0.0687793269753456,30.9287109375,85.55523681640625,-28.67958068847656
49009,-0.0318756103515625,1.126724243164062,0.259429931640625,-0.5637475252151489,-0.3490826189517975,-0.1147987544536591,30.79244995117188,85.52189636230469,-28.36837768554688
49010,-0.1279449462890625,1.102676391601562,0.2306060791015625,-0.617167592048645,-0.3688403367996216,-0.2494782656431198,30.60635375976562,85.71820068359375,-27.89146423339844
49011,-0.1279449462890625,1.102676391601562,0.2306060791015625,-0.617167592048645,-0.3688403367996216,-0.2494782656431198,30.60635375976562,85.71820068359375,-27.89146423339844
49012,-0.2028350830078125,0.99615478515625,0.1489715576171875,-0.4518633186817169,-0.4089747071266174,-0.2923256158828735,30.50413513183594,85.78364562988281,-27.67355346679688
49013,-0.263092041015625,0.8812713623046875,0.10345458984375,-0.2327570766210556,-0.4295646846294403,-0.2920217514038086,30.33589172363281,85.88679504394531,-27.30282592773438
49014,-0.30584716796875,0.8007354736328125,0.1180877685546875,-0.1112005561590195,-0.242399588227272,-0.2807459235191345,30.04164123535156,85.87016296386719,-26.95173645019531
49015,-0.30584716796875,0.8007354736328125,0.1180877685546875,-0.1112005561590195,-0.242399588227272,-0.2807459235191345,30.04164123535156,85.87016296386719,-26.95173645019531
49016,-0.3438873291015625,0.8140869140625,0.09161376953125,-0.2294270694255829,-0.1961977332830429,-0.2876181900501251,29.97254943847656,85.76670837402344,-26.73692321777344
49017,-0.38153076171875,0.845458984375,0.068939208984375,-0.3808514773845673,-0.220654085278511,-0.2897583246231079,29.843994140625,85.5543212890625,-26.40718078613281
49018,-0.4181671142578125,1.008697509765625,0.097412109375,-0.6075948476791382,-0.2752185165882111,-0.2849939167499542,29.52592468261719,85.51158142089844,-25.87004089355469
49019,-0.4181671142578125,1.008697509765625,0.097412109375,-0.6075948476791382,-0.2752185165882111,-0.2849939167499542,29.52592468261719,85.51158142089844,-25.87004089355469
49020,-0.432403564453125,1.092391967773438,0.0737457275390625,-0.6114926934242249,-0.3735453486442566,-0.3201825320720673,29.46490478515625,85.53790283203125,-25.67189025878906
49021,-0.4175872802734375,1.14556884765625,0.07513427734375,-0.5320401787757874,-0.4983602464199066,-0.3326882123947144,29.25653076171875,85.60829162597656,-25.32966613769531
49022,-0.3527069091796875,1.152053833007812,0.124114990234375,-0.4118290841579437,-0.4623956084251404,-0.2828578054904938,29.04631042480469,85.75227355957031,-25.10791015625
49023,-0.276092529296875,1.132415771484375,0.12615966796875,-0.2602989673614502,-0.326557070016861,-0.2084434926509857,28.86741638183594,85.72013854980469,-24.73335266113281
49024,-0.1968231201171875,1.099197387695312,0.0691986083984375,-0.097232811152935,-0.2540109753608704,-0.137688621878624,28.73625183105469,85.85409545898438,-24.426513671875
49025,-0.1183013916015625,1.06060791015625,0.0145111083984375,0.0353039279580116,-0.2770920693874359,-0.0830794423818588,28.57231140136719,85.81712341308594,-24.11204528808594
49026,0.01104736328125,1.008453369140625,-0.09429931640625,0.2912592589855194,-0.4504731595516205,-0.010335462167859,28.43560791015625,85.81700134277344,-23.90548706054688
49027,0.01104736328125,1.008453369140625,-0.09429931640625,0.2912592589855194,-0.4504731595516205,-0.010335462167859,28.43560791015625,85.81700134277344,-23.90548706054688
49028,0.0572967529296875,0.994171142578125,-0.1490936279296875,0.4529975652694702,-0.533549964427948,0.0119725065305829,28.38824462890625,85.73934936523438,-23.85789489746094
49029,0.0854949951171875,0.98944091796875,-0.1796417236328125,0.6353612542152405,-0.5672722458839417,0.0435751751065254,28.32839965820312,85.62986755371094,-23.77548217773438
49030,0.1136474609375,1.015396118164062,-0.181121826171875,0.8970999121665955,-0.4812965989112854,0.1290237605571747,28.27949523925781,85.59219360351562,-23.96194458007812
49031,0.1136474609375,1.015396118164062,-0.181121826171875,0.8970999121665955,-0.4812965989112854,0.1290237605571747,28.27949523925781,85.59219360351562,-23.96194458007812
49032,0.11114501953125,1.031539916992188,-0.1624908447265625,0.92604660987854,-0.4322872459888458,0.1479649692773819,28.28382873535156,85.5208740234375,-24.11991882324219
49033,0.092926025390625,1.044662475585938,-0.115997314453125,0.881813645362854,-0.4022015035152435,0.1506161391735077,28.19393920898438,85.435302734375,-24.33213806152344
49034,0.0619659423828125,1.070343017578125,-0.046875,0.7991648316383362,-0.3735016882419586,0.1444157660007477,28.3065185546875,85.4102783203125,-24.56259155273438
49035,0.0312042236328125,1.113555908203125,0.023834228515625,0.7030673027038574,-0.3349446952342987,0.1272666156291962,28.32980346679688,85.38673400878906,-24.811767578125
49036,0.0012359619140625,1.171615600585938,0.1060791015625,0.592437207698822,-0.2781703770160675,0.1074380427598953,28.44052124023438,85.32466125488281,-25.18415832519531
49037,-0.0379638671875,1.242111206054688,0.1943206787109375,0.4801090955734253,-0.1920000612735748,0.0856754928827285,28.4583740234375,85.34178161621094,-25.55531311035156
49038,-0.087738037109375,1.318038940429688,0.2621307373046875,0.3828046321868896,-0.1212196350097656,0.0618287473917007,28.43235778808594,85.41839599609375,-25.78648376464844
49039,-0.1442718505859375,1.3935546875,0.314361572265625,0.3300972282886505,-0.0649965777993202,0.0233974680304527,28.61149597167969,85.3460693359375,-25.92820739746094
49040,-0.207672119140625,1.4403076171875,0.3568115234375,0.3356123566627502,-0.0097477016970515,-0.019915385171771,28.68003845214844,85.25224304199219,-26.10704040527344
49041,-0.2728271484375,1.43780517578125,0.370635986328125,0.3920125067234039,0.0549053251743316,-0.051712729036808,28.74592590332031,85.30381774902344,-26.07154846191406
49042,-0.3728179931640625,1.282440185546875,0.3365631103515625,0.691071093082428,0.1114208027720451,-0.0587738342583179,29.04769897460938,85.32379150390625,-26.22587585449219
49043,-0.3728179931640625,1.282440185546875,0.3365631103515625,0.691071093082428,0.1114208027720451,-0.0587738342583179,29.04769897460938,85.32379150390625,-26.22587585449219
49044,-0.388885498046875,1.177047729492188,0.2867431640625,0.8624103665351868,0.0792106688022613,-0.0372901149094104,29.09513854980469,85.3448486328125,-26.61843872070312
49045,-0.382720947265625,1.082717895507812,0.2286376953125,0.9317883849143982,0.0041020670905709,-0.0603331141173839,29.11900329589844,85.33299255371094,-27.02871704101562
49046,-0.3671875,0.986572265625,0.1819305419921875,0.9133784770965576,-0.0717250555753707,-0.094623178243637,29.19090270996094,85.33699035644531,-27.42127990722656
49047,-0.3671875,0.986572265625,0.1819305419921875,0.9133784770965576,-0.0717250555753707,-0.094623178243637,29.19090270996094,85.33699035644531,-27.42127990722656
49048,-0.3268585205078125,0.832000732421875,0.10052490234375,0.8090494275093079,-0.1232084855437279,-0.1330717653036118,29.29766845703125,84.78875732421875,-28.17289733886719
49049,-0.3120269775390625,0.7810821533203125,0.0631866455078125,0.7941871285438538,-0.1190382391214371,-0.144710049033165,29.31686401367188,84.55877685546875,-28.64312744140625
49050,-0.2985076904296875,0.7583770751953125,0.039794921875,0.7953706383705139,-0.1114338487386703,-0.1436503827571869,29.24595642089844,84.39021301269531,-28.67999267578125
49051,-0.283538818359375,0.756256103515625,0.0255889892578125,0.7863805890083313,-0.1057562530040741,-0.1450818181037903,29.18482971191406,84.06758117675781,-28.95248413085938
49052,-0.2578125,0.7486419677734375,0.0165557861328125,0.7432427406311035,-0.1095944046974182,-0.1406015902757645,29.13998413085938,83.57540893554688,-29.45677185058594
49053,-0.2243804931640625,0.7464599609375,0.007354736328125,0.6651881337165833,-0.1324930638074875,-0.1360782086849213,29.11279296875,83.19593811035156,-29.66629028320312
49054,-0.182159423828125,0.7222137451171875,0.0417633056640625,0.6082899570465088,-0.2322846353054047,-0.1436519771814346,29.09611511230469,82.93287658691406,-30.29177856445312
49055,-0.182159423828125,0.7222137451171875,0.0417633056640625,0.6082899570465088,-0.2322846353054047,-0.1436519771814346,29.09611511230469,82.93287658691406,-30.29177856445312
49056,-0.1611785888671875,0.70025634765625,0.071136474609375,0.5889314413070679,-0.2624720931053162,-0.1555387228727341,29.11105346679688,82.8883056640625,-30.43975830078125
49057,-0.15008544921875,0.6987152099609375,0.118499755859375,0.5385702848434448,-0.2716994285583496,-0.1649657785892487,29.15756225585938,82.74313354492188,-30.53802490234375
49058,-0.145355224609375,0.708282470703125,0.1667633056640625,0.4398189187049866,-0.2839164137840271,-0.1757358759641647,29.109375,82.61721801757812,-30.78773498535156
49059,-0.145355224609375,0.708282470703125,0.1667633056640625,0.4398189187049866,-0.2839164137840271,-0.1757358759641647,29.109375,82.61721801757812,-30.78773498535156
49060,-0.1277313232421875,0.70660400390625,0.2707366943359375,0.1224367022514343,-0.3944735527038574,-0.139649510383606,28.98385620117188,82.46963500976562,-31.01272583007812
49061,-0.1270294189453125,0.71466064453125,0.330413818359375,-0.0546083822846412,-0.4135396480560303,-0.0841385796666145,28.85945129394531,82.45872497558594,-30.8350830078125
49062,-0.144256591796875,0.7433013916015625,0.3709869384765625,-0.2095489650964737,-0.3794764876365662,-0.0216688103973865,28.84893798828125,82.2852783203125,-30.82974243164062
49063,-0.194793701171875,0.81591796875,0.396636962890625,-0.3376241028308868,-0.3079559504985809,0.0279709137976169,28.68754577636719,82.33404541015625,-30.6884765625
49064,-0.258056640625,0.91229248046875,0.402496337890625,-0.4422866106033325,-0.2223571687936783,0.0298436488956213,28.70530700683594,82.40347290039062,-30.60517883300781
49065,-0.294097900390625,0.9622344970703124,0.4040069580078125,-0.5051699876785278,-0.1719027906656265,0.0100140180438756,28.7158203125,82.42295837402344,-30.37193298339844
49066,-0.3026123046875,0.9722442626953124,0.4129486083984375,-0.5349614024162292,-0.1328467279672623,-0.0129227228462696,28.69737243652344,82.49160766601562,-30.12847900390625
49067,-0.3026123046875,0.9722442626953124,0.4129486083984375,-0.5349614024162292,-0.1328467279672623,-0.0129227228462696,28.69737243652344,82.49160766601562,-30.12847900390625
49068,-0.2576141357421875,0.9651641845703124,0.4060211181640625,-0.5796476602554321,-0.0607253983616828,-0.0608116835355758,28.60833740234375,82.57765197753906,-29.56086730957031
49069,-0.2156524658203125,0.951904296875,0.39105224609375,-0.6338784098625183,-0.0274814255535602,-0.1011428609490395,28.52633666992188,82.74015808105469,-29.2662353515625
49070,-0.188079833984375,0.9450225830078124,0.36322021484375,-0.6984757781028748,-0.0398624613881111,-0.1456360220909119,28.45489501953125,82.95588684082031,-29.10739135742188
49071,-0.1730804443359375,0.94512939453125,0.33868408203125,-0.762486457824707,-0.0729479789733886,-0.1970696598291397,28.44134521484375,82.9342041015625,-28.80720520019531
49072,-0.1615447998046875,0.9422607421875,0.324676513671875,-0.8203651905059814,-0.0841457694768905,-0.235078826546669,28.43089294433594,82.97842407226562,-28.47868347167969
49073,-0.1498870849609375,0.9302520751953124,0.30047607421875,-0.8517396450042725,-0.0661316141486167,-0.2479983568191528,28.38502502441406,83.13906860351562,-28.16386413574219
49074,-0.1485595703125,0.9014129638671876,0.2274169921875,-0.8101860880851746,0.0221076998859643,-0.2408970296382904,28.1129150390625,83.15261840820312,-27.13082885742188
49075,-0.1485595703125,0.9014129638671876,0.2274169921875,-0.8101860880851746,0.0221076998859643,-0.2408970296382904,28.1129150390625,83.15261840820312,-27.13082885742188
49076,-0.1645660400390625,0.898284912109375,0.2033233642578125,-0.7553355693817139,0.0914542824029922,-0.2494148910045624,27.86151123046875,83.19882202148438,-26.75514221191406
49077,-0.1883697509765625,0.90838623046875,0.1920166015625,-0.7046647071838379,0.1898831129074097,-0.2816529870033264,27.72914123535156,83.1923828125,-26.49986267089844
49078,-0.2142486572265625,0.92730712890625,0.18646240234375,-0.6745193004608154,0.299353688955307,-0.3235820531845093,27.54219055175781,83.18904113769531,-26.23475646972656
49079,-0.2406463623046875,0.94940185546875,0.183624267578125,-0.6528701782226562,0.4108463823795319,-0.3834384679794312,27.48231506347656,83.18800354003906,-26.10575866699219
49080,-0.26373291015625,0.971343994140625,0.171661376953125,-0.6421059966087341,0.4834803938865662,-0.43048295378685,27.32112121582031,83.2305908203125,-25.91989135742188
49081,-0.28485107421875,1.00653076171875,0.1519622802734375,-0.6266878843307495,0.5126699805259705,-0.4567545056343079,27.096435546875,83.3758544921875,-25.754638671875
49082,-0.300750732421875,1.031280517578125,0.12957763671875,-0.6152573227882385,0.4979099333286285,-0.4600426852703094,26.83364868164062,83.50030517578125,-25.60472106933594
49083,-0.304656982421875,1.032928466796875,0.1213531494140625,-0.5947057008743286,0.5068091154098511,-0.4277550578117371,26.62678527832031,83.4427490234375,-25.51222229003906
49084,-0.296112060546875,1.0294189453125,0.1099700927734375,-0.5628279447555542,0.5404605865478516,-0.3548406362533569,26.33009338378906,83.43435668945312,-25.36512756347656
49085,-0.2858428955078125,1.026336669921875,0.0814056396484375,-0.4991259276866913,0.5663132071495056,-0.2565335035324097,26.12043762207031,83.41156005859375,-25.28694152832031
49086,-0.2797088623046875,1.012374877929688,0.0626220703125,-0.414496511220932,0.5835907459259033,-0.1321732103824615,25.94091796875,83.32524108886719,-25.18266296386719
49087,-0.27838134765625,1.005523681640625,0.0328521728515625,-0.3224161267280579,0.5954104065895081,0.0148529820144176,25.7476806640625,83.48158264160156,-25.09767150878906
49088,-0.2774505615234375,1.00775146484375,-0.036712646484375,-0.2224069684743881,0.59064781665802,0.1366521269083023,25.52946472167969,83.59388732910156,-25.13516235351562
49089,-0.2721099853515625,1.03118896484375,-0.118621826171875,-0.113168366253376,0.5431346297264099,0.2427055835723877,25.6182861328125,83.60952758789062,-25.23054504394531
49090,-0.2554931640625,1.085968017578125,-0.178314208984375,0.0109085738658905,0.5541452169418335,0.3161132335662842,25.62496948242188,83.65235900878906,-25.11044311523438
49091,-0.2122039794921875,1.170501708984375,-0.2229766845703125,0.141538217663765,0.6162104606628418,0.3605027794837952,25.58317565917969,83.71237182617188,-25.19876098632812
49092,-0.16180419921875,1.26226806640625,-0.2384033203125,0.2262136936187744,0.6936948895454407,0.351696252822876,25.66703796386719,83.93234252929688,-25.38786315917969
49093,-0.12408447265625,1.331329345703125,-0.2282257080078125,0.2659986615180969,0.7375525832176208,0.3187641203403473,25.805908203125,83.89808654785156,-25.55009460449219
49094,-0.0947265625,1.387649536132812,-0.192901611328125,0.2958076894283295,0.7330449223518372,0.2621983289718628,26.05270385742188,84.02632141113281,-26.00273132324219
49095,-0.0802001953125,1.393630981445312,-0.1649322509765625,0.363057553768158,0.6772253513336182,0.2023017108440399,26.07965087890625,84.26756286621094,-26.2427978515625
49096,-0.0828704833984375,1.36083984375,-0.1414794921875,0.4734999239444733,0.589592695236206,0.1375589221715927,26.119140625,84.48200988769531,-26.53738403320312
49097,-0.1004791259765625,1.297683715820312,-0.127593994140625,0.5786809325218201,0.4941481947898865,0.0883058905601501,26.31103515625,84.55279541015625,-26.87788391113281
49098,-0.1832427978515625,1.121261596679688,-0.135223388671875,0.6985913515090942,0.2054167985916138,0.0905661210417747,26.5908203125,84.28903198242188,-27.61215209960938
49099,-0.1832427978515625,1.121261596679688,-0.135223388671875,0.6985913515090942,0.2054167985916138,0.0905661210417747,26.5908203125,84.28903198242188,-27.61215209960938
49100,-0.24981689453125,1.036834716796875,-0.0986785888671875,0.7033600211143494,0.0536621622741222,0.1375253647565842,26.72236633300781,84.26516723632812,-28.01371765136719
49101,-0.2988739013671875,0.9950408935546876,-0.0487213134765625,0.643993079662323,-0.06150384247303,0.194247767329216,26.74424743652344,84.20944213867188,-28.51637268066406
49102,-0.3225250244140625,0.9758453369140624,0.0016632080078125,0.5545915961265564,-0.1713578999042511,0.2344577759504318,26.78167724609375,84.07768249511719,-28.86396789550781
49103,-0.33343505859375,0.951507568359375,0.06201171875,0.4641218483448029,-0.2569913268089294,0.2660111784934998,26.99417114257812,83.91256713867188,-29.10345458984375
49104,-0.3299407958984375,0.922271728515625,0.10211181640625,0.379335343837738,-0.3161776661872864,0.2978894710540771,27.19088745117188,83.88558959960938,-29.2161865234375
49105,-0.2969512939453125,0.8985443115234375,0.1390380859375,0.2963547110557556,-0.3733967542648315,0.3219460844993591,27.37983703613281,83.8643798828125,-29.15196228027344
49106,-0.151519775390625,0.85736083984375,0.2068023681640625,0.0262097660452127,-0.280788242816925,0.3370493948459625,27.81307983398438,83.70433044433594,-28.73680114746094
49107,-0.151519775390625,0.85736083984375,0.2068023681640625,0.0262097660452127,-0.280788242816925,0.3370493948459625,27.81307983398438,83.70433044433594,-28.73680114746094
49108,-0.095855712890625,0.8456573486328125,0.2155914306640625,-0.0320253111422061,-0.3387583494186401,0.3653311133384705,28.02117919921875,83.71047973632812,-28.95864868164062
49109,-0.059051513671875,0.8405303955078125,0.235565185546875,0.0170330461114645,-0.4133071601390839,0.3838866651058197,28.26968383789062,83.80625915527344,-29.12141418457031
49110,-0.01025390625,0.8422698974609375,0.1921844482421875,0.2141676843166351,-0.4130522906780243,0.3951763510704041,28.65682983398438,83.94755554199219,-28.88307189941406
49111,-0.01025390625,0.8422698974609375,0.1921844482421875,0.2141676843166351,-0.4130522906780243,0.3951763510704041,28.65682983398438,83.94755554199219,-28.88307189941406
49112,0.0042877197265625,0.8353271484375,0.1550750732421875,0.2844415903091431,-0.3816506862640381,0.3798141777515411,28.91619873046875,83.93382263183594,-28.823486328125
49113,0.004730224609375,0.8199462890625,0.139801025390625,0.3233953714370728,-0.3240443766117096,0.3586170077323914,29.11875915527344,83.86898803710938,-28.75979614257812
49114,-0.0464019775390625,0.799041748046875,0.1187591552734375,0.312060683965683,-0.2025360614061356,0.3526121079921722,29.43734741210938,83.66740417480469,-28.7933349609375
49115,-0.0464019775390625,0.799041748046875,0.1187591552734375,0.312060683965683,-0.2025360614061356,0.3526121079921722,29.43734741210938,83.66740417480469,-28.7933349609375
49116,-0.0899810791015625,0.8069915771484375,0.11566162109375,0.2679313123226166,-0.1685392111539841,0.3422590792179108,29.52751159667969,83.70851135253906,-28.91165161132812
49117,-0.1471099853515625,0.8171539306640625,0.1253509521484375,0.2118478119373322,-0.128796324133873,0.315079391002655,29.64897155761719,83.65089416503906,-28.99725341796875
49118,-0.2775726318359375,0.8412628173828125,0.145233154296875,0.110492154955864,-0.0055172708816826,0.1949716210365295,30.06071472167969,83.71707153320312,-29.16409301757812
49119,-0.2775726318359375,0.8412628173828125,0.145233154296875,0.110492154955864,-0.0055172708816826,0.1949716210365295,30.06071472167969,83.71707153320312,-29.16409301757812
49120,-0.3518829345703125,0.8654327392578125,0.1412200927734375,0.0761176720261573,0.1131675690412521,0.1045759469270706,30.18971252441406,83.77424621582031,-29.25819396972656
49121,-0.4266204833984375,0.8887481689453125,0.163330078125,0.0669777020812034,0.2630153894424438,0.002870887517929,30.28709411621094,83.76324462890625,-29.2598876953125
49122,-0.51861572265625,0.90631103515625,0.2094879150390625,0.0818461328744888,0.5541417598724365,-0.1690412163734436,30.32862854003906,83.84187316894531,-29.11865234375
49123,-0.51861572265625,0.90631103515625,0.2094879150390625,0.0818461328744888,0.5541417598724365,-0.1690412163734436,30.32862854003906,83.84187316894531,-29.11865234375
49124,-0.5379180908203125,0.907501220703125,0.22149658203125,0.0899679735302925,0.622690737247467,-0.235880970954895,30.37190246582031,83.83795166015625,-29.33766174316406
49125,-0.5382843017578125,0.9019012451171876,0.2285308837890625,0.0772231519222259,0.5739468932151794,-0.2828066647052765,30.36526489257812,83.81768798828125,-29.47297668457031
49126,-0.529052734375,0.902435302734375,0.255584716796875,0.0442130006849765,0.4498547911643982,-0.3035228550434113,30.38626098632812,83.77227783203125,-29.60234069824219
49127,-0.497283935546875,0.917816162109375,0.290618896484375,-0.0100848581641912,0.2922377288341522,-0.2922092378139496,30.38154602050781,83.72381591796875,-29.80665588378906
49128,-0.4428863525390625,0.94635009765625,0.3150177001953125,-0.0765328556299209,0.119780994951725,-0.2654199600219727,30.26608276367188,83.65345764160156,-29.9974365234375
49129,-0.392181396484375,0.954864501953125,0.313507080078125,-0.1447563916444778,-0.068322867155075,-0.2484987676143646,30.19949340820312,83.58126831054688,-30.11746215820312
49130,-0.3534393310546875,0.93133544921875,0.2813262939453125,-0.1983631551265717,-0.2706067264080048,-0.2535374760627747,30.08554077148438,83.50808715820312,-29.99008178710938
49131,-0.32281494140625,0.8842926025390625,0.234710693359375,-0.2228724956512451,-0.4347290992736816,-0.2596643269062042,30.01860046386719,83.52865600585938,-30.06080627441406
49132,-0.2935943603515625,0.8348541259765625,0.1980133056640625,-0.2172476351261139,-0.5346223711967468,-0.260880321264267,29.88746643066406,83.45343017578125,-29.79153442382812
49133,-0.265167236328125,0.7931976318359375,0.180023193359375,-0.2025317996740341,-0.5716147422790527,-0.2631701231002808,29.70082092285156,83.60781860351562,-29.56002807617188
49134,-0.240570068359375,0.761077880859375,0.1729583740234375,-0.2034844160079956,-0.5714267492294312,-0.2722506821155548,29.52079772949219,83.623046875,-29.35049438476562
49135,-0.2220458984375,0.7407989501953125,0.175048828125,-0.2240794450044632,-0.5582595467567444,-0.2846237421035767,29.38584899902344,83.66525268554688,-29.22468566894531
49136,-0.2116241455078125,0.7378082275390625,0.18017578125,-0.2776475846767426,-0.547080934047699,-0.2975960075855255,29.23333740234375,83.63035583496094,-28.94038391113281
49137,-0.2077484130859375,0.7490234375,0.1837615966796875,-0.343519538640976,-0.5518416166305542,-0.3109405636787415,29.20431518554688,83.63432312011719,-28.71075439453125
49138,-0.2101593017578125,0.7715301513671875,0.1950836181640625,-0.4198918044567108,-0.5680911540985107,-0.3313808739185333,29.05787658691406,83.64778137207031,-28.47026062011719
49139,-0.216094970703125,0.805023193359375,0.2085723876953125,-0.4997621476650238,-0.5739937424659729,-0.3566854298114777,28.81651306152344,83.68289184570312,-28.0740966796875
49140,-0.2241668701171875,0.849029541015625,0.2122344970703125,-0.5850530862808228,-0.5629522800445557,-0.3739874362945557,28.66168212890625,83.763916015625,-27.71568298339844
49141,-0.2310638427734375,0.9065704345703124,0.2071685791015625,-0.6666227579116821,-0.5277532935142517,-0.3797928690910339,28.48133850097656,83.76258850097656,-27.13992309570312
49142,-0.24908447265625,1.030807495117188,0.205596923828125,-0.7435412406921387,-0.4057458937168121,-0.3330927491188049,28.05162048339844,83.72222900390625,-26.27009582519531
49143,-0.24908447265625,1.030807495117188,0.205596923828125,-0.7435412406921387,-0.4057458937168121,-0.3330927491188049,28.05162048339844,83.72222900390625,-26.27009582519531
49144,-0.2710418701171875,1.110580444335938,0.1787261962890625,-0.6984882950782776,-0.3473568856716156,-0.3068896234035492,27.86619567871094,83.67085266113281,-25.95460510253906
49145,-0.2835845947265625,1.16046142578125,0.154571533203125,-0.5978665947914124,-0.3581016957759857,-0.2751253247261047,27.63626098632812,83.73013305664062,-25.6219482421875
49146,-0.301971435546875,1.185684204101562,0.154541015625,-0.471357673406601,-0.3490701019763947,-0.2288084179162979,27.36358642578125,83.81301879882812,-25.25543212890625
49147,-0.3160400390625,1.202651977539062,0.11932373046875,-0.3299454152584076,-0.3309406340122223,-0.1785087585449219,27.25466918945312,83.9615478515625,-24.93667602539062
49148,-0.33367919921875,1.222640991210938,0.0545196533203125,-0.17033950984478,-0.3497247099876404,-0.1362875401973724,27.05911254882812,84.11520385742188,-24.76371765136719
49149,-0.33392333984375,1.228424072265625,-0.00775146484375,-0.0083311665803194,-0.3931547403335571,-0.1308584213256836,26.80636596679688,84.33584594726562,-24.57148742675781
49150,-0.2806396484375,1.186843872070312,-0.05767822265625,0.1378931552171707,-0.4600197970867157,-0.1215003356337547,26.69277954101562,84.34759521484375,-24.46673583984375
49151,-0.1938629150390625,1.099807739257812,-0.09326171875,0.2678884267807007,-0.5226722359657288,-0.0949752479791641,26.54827880859375,84.33433532714844,-24.332275390625
49152,-0.1271820068359375,1.03131103515625,-0.1217803955078125,0.4009066820144653,-0.5688570737838745,-0.0592630580067634,26.43098449707031,84.42469787597656,-24.24595642089844
49153,-0.0880584716796875,1.007339477539062,-0.1540985107421875,0.5276214480400085,-0.5764012932777405,-0.0200448147952556,26.32246398925781,84.34146118164062,-24.18351745605469
49154,-0.067779541015625,1.007186889648438,-0.201019287109375,0.6494584083557129,-0.5353201627731323,0.0265051107853651,26.28889465332031,84.24867248535156,-24.14131164550781
49155,-0.0712432861328125,1.024215698242188,-0.2381591796875,0.7555321455001831,-0.4685653448104858,0.0777904018759727,26.20977783203125,84.22723388671875,-24.20790100097656
49156,-0.0918731689453125,1.054000854492188,-0.2435760498046875,0.8266878128051758,-0.3671031594276428,0.121603399515152,26.25628662109375,84.0826416015625,-24.42007446289062
49157,-0.115631103515625,1.082992553710938,-0.22607421875,0.8382105231285095,-0.2790292501449585,0.1573137193918228,26.20051574707031,83.955322265625,-24.39483642578125
49158,-0.1276397705078125,1.110702514648438,-0.184417724609375,0.8120723962783813,-0.2291018962860107,0.1835186928510666,26.09126281738281,83.98721313476562,-24.74485778808594
49159,-0.12799072265625,1.14947509765625,-0.13043212890625,0.7884783744812012,-0.2079116553068161,0.2165722548961639,26.13700866699219,84.00163269042969,-24.91346740722656
