time_idx,accelerometerAccelerationX(G),accelerometerAccelerationY(G),accelerometerAccelerationZ(G),gyroRotationX(rad/s),gyroRotationY(rad/s),gyroRotationZ(rad/s),magnetometerX(µT),magnetometerY(µT),magnetometerZ(µT)
284358,-0.89508056640625,1.332199096679688,-0.372833251953125,-0.7365763187408447,0.1178744360804558,0.1374774277210236,11.06234741210938,80.90945434570312,-2.753005981445312
284359,-0.89508056640625,1.332199096679688,-0.372833251953125,-0.7365763187408447,0.1178744360804558,0.1374774277210236,11.06234741210938,80.90945434570312,-2.753005981445312
284360,-0.9203033447265624,1.29339599609375,-0.1580657958984375,-0.5347912311553955,0.2399683892726898,0.2454076260328293,11.25422668457031,80.83448791503906,-2.488113403320312
284361,-0.877838134765625,1.261016845703125,-0.11114501953125,-0.0138044953346252,0.3080252110958099,0.414228081703186,11.43528747558594,80.91348266601562,-2.49420166015625
284362,-0.877838134765625,1.261016845703125,-0.11114501953125,-0.0138044953346252,0.3080252110958099,0.414228081703186,11.43528747558594,80.91348266601562,-2.49420166015625
284363,-0.6982574462890625,1.046890258789062,-0.1469879150390625,0.1446509212255478,0.284492701292038,0.6414404511451721,11.65328979492188,81.24211120605469,-3.227035522460938
284364,-0.60003662109375,0.8846282958984375,-0.0943756103515625,0.1446509212255478,0.284492701292038,0.6414404511451721,11.99824523925781,81.3575439453125,-3.12481689453125
284365,-0.49566650390625,0.7046356201171875,-0.0537261962890625,0.184940829873085,0.325019896030426,0.7348098158836365,12.27116394042969,81.63525390625,-3.432861328125
284366,-0.49566650390625,0.7046356201171875,-0.0537261962890625,0.184940829873085,0.325019896030426,0.7348098158836365,12.27116394042969,81.63525390625,-3.432861328125
284367,-0.3969268798828125,0.525238037109375,-0.03375244140625,0.210780143737793,0.3355599045753479,0.7820111513137817,12.49427795410156,81.96202087402344,-3.8857421875
284368,-0.2966766357421875,0.3623504638671875,-0.0161285400390625,0.2070959210395813,0.2970865368843079,0.7721909880638123,12.88668823242188,82.35169982910156,-4.238693237304688
284369,-0.129425048828125,0.0986175537109375,-0.0015411376953125,0.1766003370285034,0.1829378604888916,0.7071046829223633,13.62255859375,82.57118225097656,-4.312164306640625
284370,-0.129425048828125,0.0986175537109375,-0.0015411376953125,0.1766003370285034,0.1829378604888916,0.7071046829223633,13.62255859375,82.57118225097656,-4.312164306640625
284371,-0.0203399658203125,-0.074798583984375,-0.039154052734375,0.1313260644674301,-0.0414883196353912,0.6560114026069641,14.38812255859375,82.91487121582031,-4.073043823242188
284372,0.015289306640625,-0.121795654296875,-0.0699005126953125,0.1313260644674301,-0.0414883196353912,0.6560114026069641,14.62284851074219,83.3271484375,-4.566619873046875
284373,0.0468292236328125,-0.1596221923828125,-0.081756591796875,0.1131433323025703,-0.1344664692878723,0.6583238244056702,14.86456298828125,83.609375,-4.710494995117188
284374,0.0468292236328125,-0.1596221923828125,-0.081756591796875,0.1131433323025703,-0.1344664692878723,0.6583238244056702,14.86456298828125,83.609375,-4.710494995117188
284375,0.074615478515625,-0.18109130859375,-0.0891876220703125,0.0935483276844024,-0.2017863839864731,0.6946275234222412,15.06765747070312,83.88087463378906,-4.5592041015625
284376,0.1009674072265625,-0.166748046875,-0.12335205078125,0.1648318320512772,-0.2553433477878571,0.8192573189735413,15.54484558105469,84.28341674804688,-4.485687255859375
284377,0.107513427734375,-0.149749755859375,-0.14178466796875,0.2643459141254425,-0.25672847032547,0.875533401966095,15.69007873535156,84.47166442871094,-4.289993286132812
284378,0.107513427734375,-0.149749755859375,-0.14178466796875,0.2643459141254425,-0.25672847032547,0.875533401966095,15.69007873535156,84.47166442871094,-4.289993286132812
284379,0.144195556640625,-0.1300201416015625,-0.2336273193359375,0.5082499384880066,-0.2181360572576523,0.9961921572685242,16.23533630371094,85.13032531738281,-4.09686279296875
284380,0.144195556640625,-0.1300201416015625,-0.2336273193359375,0.5082499384880066,-0.2181360572576523,0.9961921572685242,16.23533630371094,85.13032531738281,-4.09686279296875
284381,0.3149566650390625,-0.130584716796875,-0.736297607421875,0.5336610078811646,-0.5164204835891724,1.026695728302002,16.85989379882812,85.82673645019531,-3.860946655273438
284382,0.3149566650390625,-0.130584716796875,-0.736297607421875,0.5336610078811646,-0.5164204835891724,1.026695728302002,16.85989379882812,85.82673645019531,-3.860946655273438
284383,0.332794189453125,-0.0532684326171875,-0.6500091552734375,0.3278782665729523,-1.051032543182373,1.001422047615051,17.15444946289062,86.2169189453125,-3.819381713867188
284384,0.193359375,0.271697998046875,-0.182830810546875,-0.1754381358623505,-1.502370357513428,0.7856847047805786,18.06967163085938,86.83430480957031,-3.188217163085938
284385,0.093780517578125,0.395599365234375,-0.1070098876953125,-0.4007455408573151,-1.488766193389893,0.5524128675460815,18.510498046875,87.10733032226562,-2.50909423828125
284386,0.093780517578125,0.395599365234375,-0.1070098876953125,-0.4007455408573151,-1.488766193389893,0.5524128675460815,18.510498046875,87.10733032226562,-2.50909423828125
284387,0.003143310546875,0.5269012451171875,0.0991668701171875,-0.64818274974823,-1.235893130302429,0.2251076847314835,18.86087036132812,87.41386413574219,-1.959579467773438
284388,-0.2081298828125,1.395919799804688,0.4783172607421875,-1.438240170478821,0.1897259950637817,-1.211590170860291,18.96774291992188,87.75555419921875,-0.787139892578125
284389,-0.473876953125,2.594985961914062,0.355010986328125,-1.882259607315063,0.9932730793952942,-2.475685119628906,18.6258544921875,87.46598815917969,-0.4512481689453125
284390,-0.473876953125,2.594985961914062,0.355010986328125,-1.882259607315063,0.9932730793952942,-2.475685119628906,18.6258544921875,87.46598815917969,-0.4512481689453125
284391,-0.7315673828125,3.386642456054688,-0.1929473876953125,-1.602936625480652,-0.9891569018363952,-4.129262447357178,16.53273010253906,86.07901000976562,-0.2591705322265625
284392,-0.990081787109375,3.105239868164062,0.5762939453125,-1.070721507072449,-2.279266119003296,-3.842262029647827,15.0985107421875,84.69900512695312,-0.014923095703125
284393,-1.526412963867188,2.847320556640625,1.401702880859375,-0.2584664523601532,-2.162530422210693,-3.01349663734436,14.03900146484375,83.2161865234375,0.6044921875
284394,-1.526412963867188,2.847320556640625,1.401702880859375,-0.2584664523601532,-2.162530422210693,-3.01349663734436,14.03900146484375,83.2161865234375,0.6044921875
284395,-2.790130615234375,2.087631225585938,1.918746948242188,0.5248507261276245,2.567189455032349,0.1216694414615631,12.32225036621094,81.14216613769531,1.523529052734375
284396,-2.259292602539062,2.011825561523438,0.1961822509765625,0.6853163242340088,3.711828947067261,0.3926474153995514,11.81912231445312,80.86740112304688,1.27398681640625
284397,-1.679656982421875,1.745330810546875,-1.19635009765625,1.245592713356018,0.8137618899345398,0.2753490209579468,11.54692077636719,80.90028381347656,0.19390869140625
284398,-1.218887329101562,1.460311889648438,-0.78411865234375,1.012510657310486,-1.510064005851746,0.5700717568397522,11.37232971191406,81.17509460449219,-0.9580841064453124
284399,-1.218887329101562,1.460311889648438,-0.78411865234375,1.012510657310486,-1.510064005851746,0.5700717568397522,11.37232971191406,81.17509460449219,-0.9580841064453124
284400,-0.51617431640625,1.3350830078125,-0.6488189697265625,-0.2752893567085266,-0.705111563205719,0.7164366841316223,11.48245239257812,81.67317199707031,-1.665756225585938
284401,-0.39105224609375,1.166824340820312,-0.180084228515625,-0.0401261150836944,-0.1327668279409409,0.5499038696289062,11.98393249511719,81.785400390625,-1.199996948242188
284402,-0.39105224609375,1.166824340820312,-0.180084228515625,-0.0401261150836944,-0.1327668279409409,0.5499038696289062,11.98393249511719,81.785400390625,-1.199996948242188
284403,-0.356781005859375,0.6671905517578125,-0.023956298828125,0.2469040602445602,0.5974628925323486,0.2364386320114136,12.9818115234375,82.07095336914062,-0.9566497802734376
284404,-0.4256591796875,0.4531402587890625,-0.0983428955078125,0.1509149521589279,0.5493475198745728,0.1581164002418518,13.26318359375,82.27096557617188,-1.03497314453125
284405,-0.4613037109375,0.31732177734375,-0.1498565673828125,-0.0102494414895772,0.2392051219940186,0.1973466277122498,13.46908569335938,82.41378784179688,-1.274993896484375
284406,-0.4613037109375,0.31732177734375,-0.1498565673828125,-0.0102494414895772,0.2392051219940186,0.1973466277122498,13.46908569335938,82.41378784179688,-1.274993896484375
284407,-0.408660888671875,0.16827392578125,-0.1258087158203125,-0.3358499109745026,-0.5699758529663086,0.2943288385868073,14.0484619140625,82.47724914550781,-1.539932250976562
284408,-0.3572998046875,0.08380126953125,-0.12371826171875,-0.4716711342334747,-0.8661640882492065,0.3186006247997284,14.36785888671875,82.57624816894531,-1.261016845703125
284409,-0.310394287109375,0.003021240234375,-0.14813232421875,-0.5819094777107239,-1.073391914367676,0.3458647131919861,14.80876159667969,82.53288269042969,-0.924163818359375
284410,-0.310394287109375,0.003021240234375,-0.14813232421875,-0.5819094777107239,-1.073391914367676,0.3458647131919861,14.80876159667969,82.53288269042969,-0.924163818359375
284411,-0.255615234375,-0.0696258544921875,-0.213897705078125,-0.6350672245025635,-1.191012740135193,0.3821542859077454,15.16354370117188,82.40509033203125,-0.5309600830078125
284412,-0.18853759765625,-0.1322784423828125,-0.2965087890625,-0.5881186127662659,-1.308286428451538,0.4485951066017151,15.56828308105469,82.38417053222656,-0.1683807373046875
284413,-0.0615997314453125,-0.1543426513671875,-0.3989715576171875,-0.266443133354187,-0.9940147399902344,0.6331188678741455,16.43048095703125,82.33480834960938,0.97698974609375
284414,-0.0615997314453125,-0.1543426513671875,-0.3989715576171875,-0.266443133354187,-0.9940147399902344,0.6331188678741455,16.43048095703125,82.33480834960938,0.97698974609375
284415,0.0133819580078125,-0.1372833251953125,-0.4329071044921875,0.029369605705142,-0.7670702934265137,0.7392013669013977,16.83638000488281,82.40757751464844,1.541763305664062
284416,0.0437469482421875,-0.0050506591796875,-0.3719329833984375,0.6350196003913879,-0.10600845515728,0.7699169516563416,17.23263549804688,82.52717590332031,2.091705322265625
284417,0.0792083740234375,0.277557373046875,-0.29730224609375,0.7997068166732788,0.0752976834774017,0.7486478686332703,17.63858032226562,82.91952514648438,2.543441772460938
284418,0.0792083740234375,0.277557373046875,-0.29730224609375,0.7997068166732788,0.0752976834774017,0.7486478686332703,17.63858032226562,82.91952514648438,2.543441772460938
284419,0.09796142578125,0.36669921875,-0.2340850830078125,0.7576277852058411,0.1929867714643478,0.7544184327125549,17.80332946777344,83.2855224609375,2.511520385742188
284420,0.0859375,0.4801788330078125,0.012359619140625,0.1176701709628105,0.7133306264877319,0.7379630208015442,18.03958129882812,83.99043273925781,1.683578491210938
284421,0.01751708984375,0.5442657470703125,0.1449737548828125,-0.2684852480888367,1.058592915534973,0.6998465061187744,18.21803283691406,84.28192138671875,1.489013671875
284422,-0.0799560546875,0.614715576171875,0.264739990234375,-0.629493772983551,1.519864201545715,0.58758944272995,18.38255310058594,84.44085693359375,1.24420166015625
284423,-0.0799560546875,0.614715576171875,0.264739990234375,-0.629493772983551,1.519864201545715,0.58758944272995,18.38255310058594,84.44085693359375,1.24420166015625
284424,-0.303314208984375,0.8515777587890625,0.5904388427734375,-1.18851637840271,2.855805635452271,0.1645458042621613,18.3953857421875,84.93377685546875,0.632232666015625
284425,-0.4984130859375,1.0830078125,0.7002410888671875,-1.110777854919434,3.344316005706787,-0.1182257086038589,18.32643127441406,85.00137329101562,0.1226654052734375
284426,-0.7529296875,1.339874267578125,0.7145233154296875,-0.7857877612113953,3.3387451171875,-0.3950389325618744,18.16183471679688,84.91001892089844,-0.3593597412109375
284427,-0.7529296875,1.339874267578125,0.7145233154296875,-0.7857877612113953,3.3387451171875,-0.3950389325618744,18.16183471679688,84.91001892089844,-0.3593597412109375
284428,-1.262496948242188,1.713790893554688,0.788299560546875,0.0052179316990077,2.299806833267212,-0.7452446222305298,17.59304809570312,84.43193054199219,-2.089279174804688
284429,-1.413726806640625,1.798568725585938,0.8486480712890625,0.1961588561534882,1.587648272514343,-0.7000414729118347,17.11843872070312,84.22073364257812,-3.01580810546875
284430,-1.50054931640625,1.858428955078125,0.902191162109375,0.1691264361143112,0.9283824563026428,-0.5117639303207397,16.70065307617188,84.02952575683594,-4.071319580078125
284431,-1.5330810546875,1.889068603515625,0.939788818359375,-0.653778612613678,0.2656385898590088,-0.2599213123321533,16.15939331054688,83.93016052246094,-4.937118530273438
284432,-1.517868041992188,1.79608154296875,0.917572021484375,-0.653778612613678,0.2656385898590088,-0.2599213123321533,15.68804931640625,83.93243408203125,-5.441421508789062
284433,-1.427978515625,1.536026000976562,0.764556884765625,-1.181024551391602,0.1117004305124283,-0.3386901617050171,15.40501403808594,83.93756103515625,-5.665115356445312
284434,-1.427978515625,1.536026000976562,0.764556884765625,-1.181024551391602,0.1117004305124283,-0.3386901617050171,15.40501403808594,83.93756103515625,-5.665115356445312
284435,-1.252456665039062,1.280960083007812,0.53607177734375,-1.490517497062683,-0.3156210780143738,-0.4087419509887695,15.19450378417969,83.89547729492188,-5.658859252929688
284436,-1.078292846679688,1.1409912109375,0.375640869140625,-1.555604338645935,-1.487192988395691,-0.3379559516906738,15.02018737792969,83.76310729980469,-5.673873901367188
284437,-0.8011627197265625,1.0172119140625,0.0935821533203125,-1.425092339515686,-2.033412456512451,-0.3140053451061249,14.65702819824219,83.14808654785156,-4.481048583984375
284438,-0.8011627197265625,1.0172119140625,0.0935821533203125,-1.425092339515686,-2.033412456512451,-0.3140053451061249,14.65702819824219,83.14808654785156,-4.481048583984375
284439,-0.5543670654296875,0.9010467529296876,0.1896820068359375,-0.9980635643005372,-2.303482294082642,-0.3845279812812805,14.41641235351562,82.57907104492188,-2.317489624023438
284440,-0.43902587890625,0.8115692138671875,0.218505859375,-0.7594850659370422,-1.267744541168213,-0.4834718704223633,14.42977905273438,82.33853149414062,-0.9690704345703124
284441,-0.336334228515625,0.712860107421875,0.1580810546875,-0.7594850659370422,-1.267744541168213,-0.4834718704223633,14.41702270507812,82.05291748046875,0.34356689453125
284442,-0.336334228515625,0.712860107421875,0.1580810546875,-0.7594850659370422,-1.267744541168213,-0.4834718704223633,14.41702270507812,82.05291748046875,0.34356689453125
284443,-0.2354583740234375,0.600830078125,0.03546142578125,-0.6931965947151184,-0.5028237104415894,-0.4018965661525726,14.55474853515625,81.7327880859375,1.680953979492188
284444,-0.1598052978515625,0.4746551513671875,-0.1159820556640625,-0.6931965947151184,-0.5028237104415894,-0.4018965661525726,14.64979553222656,81.33523559570312,2.704757690429688
284445,-0.1109771728515625,0.266876220703125,-0.2599029541015625,-0.4512034058570862,-0.4851424694061279,-0.2717532217502594,14.60812377929688,80.53738403320312,4.04583740234375
284446,-0.1109771728515625,0.266876220703125,-0.2599029541015625,-0.4512034058570862,-0.4851424694061279,-0.2717532217502594,14.60812377929688,80.53738403320312,4.04583740234375
284447,-0.102142333984375,0.1958770751953125,-0.3096771240234375,-0.2796151340007782,-0.4299923777580261,-0.3450881540775299,14.32533264160156,79.96420288085938,4.81634521484375
284448,-0.0950164794921875,0.2750701904296875,-0.349365234375,-0.2316934168338776,-0.3414739668369293,-0.4204508066177368,14.11190795898438,80.05818176269531,4.833984375
284449,-0.08917236328125,0.3741302490234375,-0.3944244384765625,-0.1820038855075836,-0.2592560648918152,-0.4969146847724915,13.9049072265625,79.95233154296875,5.138595581054688
284450,-0.08917236328125,0.3741302490234375,-0.3944244384765625,-0.1820038855075836,-0.2592560648918152,-0.4969146847724915,13.9049072265625,79.95233154296875,5.138595581054688
284451,-0.0747528076171875,0.426849365234375,-0.416900634765625,-0.0975265577435493,-0.1834619641304016,-0.4862498044967651,13.74114990234375,79.74459838867188,5.473434448242188
284452,-0.0113067626953125,0.45977783203125,-0.3866729736328125,0.168037474155426,-0.0885248035192489,-0.2778012454509735,13.50790405273438,79.181640625,5.9420166015625
284453,0.023651123046875,0.4414825439453125,-0.3394622802734375,0.3323888778686523,-0.111369401216507,-0.1277060359716415,13.43009948730469,78.86012268066406,6.118179321289062
284454,0.023651123046875,0.4414825439453125,-0.3394622802734375,0.3323888778686523,-0.111369401216507,-0.1277060359716415,13.43009948730469,78.86012268066406,6.118179321289062
284455,0.060699462890625,0.4003753662109375,-0.276031494140625,0.6335417628288269,-0.2784720957279205,0.1011923998594284,13.56024169921875,78.63090515136719,6.257492065429688
284456,0.0609893798828125,0.3930816650390625,-0.2803497314453125,0.760779082775116,-0.4183439910411835,0.1478035748004913,13.640380859375,78.68405151367188,6.324508666992188
284457,0.0439605712890625,0.3945770263671875,-0.2725982666015625,0.8637619614601135,-0.5428633093833923,0.1282964497804642,13.77726745605469,78.75784301757812,6.326019287109375
284458,0.0439605712890625,0.3945770263671875,-0.2725982666015625,0.8637619614601135,-0.5428633093833923,0.1282964497804642,13.77726745605469,78.75784301757812,6.326019287109375
284459,0.0053863525390625,0.410919189453125,-0.2431488037109375,0.91102796792984,-0.5779011845588684,0.0372168757021427,13.90415954589844,79.05380249023438,6.119277954101562
284460,-0.078277587890625,0.4422149658203125,-0.2010345458984375,0.8347539901733398,-0.3340887725353241,-0.1277965754270554,13.983642578125,79.34861755371094,6.104263305664062
284461,-0.332916259765625,0.611297607421875,-0.01812744140625,0.7155378460884094,-0.064877800643444,-0.2477930188179016,14.02279663085938,79.90498352050781,5.901626586914062
284462,-0.332916259765625,0.611297607421875,-0.01812744140625,0.7155378460884094,-0.064877800643444,-0.2477930188179016,14.02279663085938,79.90498352050781,5.901626586914062
284463,-0.493408203125,1.015701293945312,0.2415008544921875,0.233151763677597,0.6910492777824402,-0.854770839214325,13.7923583984375,80.48800659179688,5.3138427734375
284464,-0.6029052734375,1.297195434570312,0.416015625,-0.3235085606575012,1.680572867393494,-1.915850877761841,13.56208801269531,80.66729736328125,5.025741577148438
284465,-0.77398681640625,1.480880737304688,0.482513427734375,-0.3235085606575012,1.680572867393494,-1.915850877761841,13.22335815429688,80.5888671875,4.90704345703125
284466,-0.77398681640625,1.480880737304688,0.482513427734375,-0.3235085606575012,1.680572867393494,-1.915850877761841,13.22335815429688,80.5888671875,4.90704345703125
284467,-1.47137451171875,1.751327514648438,0.949127197265625,-0.939860463142395,0.9717177152633668,-0.6569983959197998,12.12130737304688,79.73512268066406,3.478469848632812
284468,-1.642135620117188,2.223587036132812,1.1019287109375,-1.347419738769531,0.3631363809108734,-0.1555405855178833,11.61741638183594,79.23274230957031,2.507797241210938
284469,-1.752304077148438,2.428482055664062,1.242538452148438,-1.306625604629517,-0.3056105077266693,-0.1401786804199219,11.17964172363281,78.90225219726562,1.878021240234375
284470,-1.752304077148438,2.428482055664062,1.242538452148438,-1.306625604629517,-0.3056105077266693,-0.1401786804199219,11.17964172363281,78.90225219726562,1.878021240234375
284471,-1.674041748046875,1.56561279296875,1.551528930664062,0.7141836285591125,0.7835707068443298,-0.5049031376838684,10.75,78.51144409179688,1.2760009765625
284472,-1.417816162109375,1.17034912109375,1.132522583007812,0.7141836285591125,0.7835707068443298,-0.5049031376838684,10.55711364746094,78.43267822265625,1.2421875
284473,-1.233505249023438,0.98211669921875,0.7450714111328125,0.9807921648025512,0.2680463492870331,-0.6164631843566895,10.32279968261719,78.32054138183594,1.280487060546875
284474,-1.233505249023438,0.98211669921875,0.7450714111328125,0.9807921648025512,0.2680463492870331,-0.6164631843566895,10.32279968261719,78.32054138183594,1.280487060546875
284475,-1.1529541015625,0.985626220703125,0.6199798583984375,1.021984577178955,-0.5343278646469116,-0.7723915576934814,10.02629089355469,78.31607055664062,1.092254638671875
284476,-1.222488403320312,1.130355834960938,0.4398345947265625,0.8038293719291687,-1.748721361160278,-0.6958235502243042,9.585556030273438,78.24772644042969,0.8379974365234375
284477,-1.143417358398438,1.30419921875,0.2253875732421875,0.8927075862884521,-2.163251876831055,-0.4552860260009766,9.492141723632812,78.19404602050781,1.494979858398438
284478,-1.143417358398438,1.30419921875,0.2253875732421875,0.8927075862884521,-2.163251876831055,-0.4552860260009766,9.492141723632812,78.19404602050781,1.494979858398438
284479,-0.7938995361328125,1.563262939453125,-0.003387451171875,1.185951948165894,-1.31207263469696,0.0764071568846702,10.23246765136719,77.81999206542969,3.232025146484375
284480,-0.5688934326171875,1.2315673828125,-0.0759735107421875,1.189257740974426,-0.8363260626792908,0.3851420879364014,10.80787658691406,77.59414672851562,4.0986328125
284481,-0.6446533203125,0.799285888671875,-0.1275787353515625,1.078292369842529,-0.0556230470538139,0.4389896094799042,11.29910278320312,77.41619873046875,4.517776489257812
284482,-0.6446533203125,0.799285888671875,-0.1275787353515625,1.078292369842529,-0.0556230470538139,0.4389896094799042,11.29910278320312,77.41619873046875,4.517776489257812
284483,-0.6160430908203125,0.3925018310546875,-0.3178863525390625,0.8267272114753723,0.6028158068656921,0.4567446410655975,11.53204345703125,77.42131042480469,4.7926025390625
284484,-0.5355682373046875,0.2149810791015625,-0.4632415771484375,0.5699052810668945,0.8902484178543091,0.4821618497371674,11.7286376953125,77.73275756835938,4.598907470703125
284485,-0.319854736328125,0.1640167236328125,-0.5172119140625,0.1298762410879135,0.1975575536489487,0.3667220771312714,12.062255859375,78.300537109375,3.753341674804688
284486,-0.319854736328125,0.1640167236328125,-0.5172119140625,0.1298762410879135,0.1975575536489487,0.3667220771312714,12.062255859375,78.300537109375,3.753341674804688
284487,-0.23040771484375,0.1483612060546875,-0.5041046142578125,-0.0863079875707626,-0.3734566867351532,0.3097312152385712,12.36119079589844,78.41531372070312,3.334869384765625
284488,-0.150054931640625,0.095184326171875,-0.4626922607421875,-0.3278447091579437,-1.303702831268311,0.4345980584621429,12.80606079101562,78.40193176269531,3.105789184570312
284489,-0.031707763671875,-0.0267791748046875,-0.40631103515625,-0.2905333042144775,-1.457759022712708,0.614402711391449,13.77119445800781,78.16093444824219,3.547409057617188
284490,-0.031707763671875,-0.0267791748046875,-0.40631103515625,-0.2905333042144775,-1.457759022712708,0.614402711391449,13.77119445800781,78.16093444824219,3.547409057617188
284491,0.024139404296875,-0.0642547607421875,-0.4189910888671875,-0.0424244217574596,-1.450635075569153,0.8720438480377197,14.47590637207031,78.05986022949219,4.00360107421875
284492,0.0581512451171875,-0.0430145263671875,-0.4126434326171875,0.4005042612552643,-1.225551009178162,1.12669849395752,15.00473022460938,78.1004638671875,4.489486694335938
284493,0.116119384765625,0.1456451416015625,-0.377655029296875,1.255736947059631,-0.4194449484348297,1.40613067150116,15.86805725097656,78.67512512207031,5.64111328125
284494,0.1962890625,0.253936767578125,-0.396453857421875,0.6276466250419617,0.8117474913597107,0.9570812582969666,16.31301879882812,79.27734375,6.02032470703125
284495,0.1962890625,0.253936767578125,-0.396453857421875,0.6276466250419617,0.8117474913597107,0.9570812582969666,16.31301879882812,79.27734375,6.02032470703125
284496,0.1248779296875,0.4258880615234375,-0.3477630615234375,0.2626987397670746,0.682167649269104,0.7187467217445374,17.00668334960938,80.50558471679688,5.851898193359375
284497,-0.0350341796875,0.5021514892578125,0.0011749267578125,0.0063130231574177,0.6860446929931641,0.5104736685752869,17.27287292480469,80.89297485351562,5.349090576171875
284498,-0.0350341796875,0.5021514892578125,0.0011749267578125,0.0063130231574177,0.6860446929931641,0.5104736685752869,17.27287292480469,80.89297485351562,5.349090576171875
284499,-0.117095947265625,0.55712890625,0.266998291015625,-0.2127881646156311,1.054644823074341,0.3548683524131775,17.41387939453125,81.19486999511719,5.171875
284500,-0.20013427734375,0.7276763916015625,0.4676971435546875,-0.6139845848083496,2.561771392822266,0.2222778052091599,17.5052490234375,81.50794982910156,4.135452270507812
284501,-0.2951507568359375,0.8679962158203125,0.5200042724609375,-0.7606139779090881,3.339485168457031,0.1130546480417252,17.223388671875,81.62945556640625,3.54949951171875
284502,-0.2951507568359375,0.8679962158203125,0.5200042724609375,-0.7606139779090881,3.339485168457031,0.1130546480417252,17.223388671875,81.62945556640625,3.54949951171875
284503,-0.4588470458984375,1.060501098632812,0.5393524169921875,-0.7246277332305908,3.746449947357178,-0.0481659322977066,16.81716918945312,81.68763732910156,2.609390258789062
284504,-0.8906402587890625,1.464080810546875,0.7287445068359375,-0.0417511761188507,3.280809164047241,-0.2233776897192001,16.00576782226562,81.54774475097656,0.2270965576171875
284505,-1.057815551757812,1.567718505859375,0.8208770751953125,0.2205672562122345,2.82192587852478,-0.148334875702858,15.59004211425781,81.45063781738281,-0.985443115234375
284506,-1.156631469726562,1.65130615234375,0.8607330322265625,0.3906852006912231,2.156538724899292,0.0892316102981567,15.26863098144531,81.52322387695312,-2.246826171875
284507,-1.156631469726562,1.65130615234375,0.8607330322265625,0.3906852006912231,2.156538724899292,0.0892316102981567,15.26863098144531,81.52322387695312,-2.246826171875
284508,-1.30706787109375,1.92254638671875,1.08184814453125,0.4301146268844604,0.8225740194320679,0.6341298222541809,14.78363037109375,81.77340698242188,-4.206924438476562
284509,-1.4097900390625,1.918701171875,1.215896606445312,0.1219986081123352,0.7594344615936279,0.5282254815101624,14.70599365234375,82.06988525390625,-4.868927001953125
284510,-1.4097900390625,1.918701171875,1.215896606445312,0.1219986081123352,0.7594344615936279,0.5282254815101624,14.70599365234375,82.06988525390625,-4.868927001953125
284511,-1.229598999023438,1.368759155273438,0.7920989990234375,-0.9546266198158264,0.8346892595291138,-0.012172776274383,14.65643310546875,82.54823303222656,-5.7310791015625
284512,-1.054214477539062,1.129180908203125,0.490753173828125,-1.371688008308411,0.2255186140537262,-0.0682831853628158,14.58273315429688,82.55328369140625,-5.89019775390625
284513,-0.9298095703125,0.98699951171875,0.3296966552734375,-1.622310638427734,-0.4816481173038483,-0.0979406759142875,14.46920776367188,82.46107482910156,-5.70465087890625
284514,-0.8203277587890625,0.86077880859375,0.23602294921875,-1.718785285949707,-1.059838533401489,-0.1314166188240051,14.19955444335938,82.4053955078125,-5.24456787109375
284515,-0.8203277587890625,0.86077880859375,0.23602294921875,-1.718785285949707,-1.059838533401489,-0.1314166188240051,14.19955444335938,82.4053955078125,-5.24456787109375
284516,-0.6133575439453125,0.6159210205078125,-0.0659332275390625,-1.502012968063354,-2.195272445678711,-0.2634401619434357,13.68727111816406,82.24505615234375,-3.719329833984375
284517,-0.5513458251953125,0.5457916259765625,0.080352783203125,-1.276280760765076,-2.36628794670105,-0.3824517726898193,13.54493713378906,82.1712646484375,-2.671295166015625
284518,-0.5513458251953125,0.5457916259765625,0.080352783203125,-1.276280760765076,-2.36628794670105,-0.3824517726898193,13.54493713378906,82.1712646484375,-2.671295166015625
284519,-0.384979248046875,0.512176513671875,0.0901031494140625,-0.8587581515312195,-1.505429267883301,-0.5947735905647278,13.38021850585938,81.71707153320312,-0.205291748046875
284520,-0.3215179443359375,0.555816650390625,-0.0547637939453125,-0.6339617371559143,-1.192445278167725,-0.7092024683952332,13.46975708007812,81.3038330078125,0.83416748046875
284521,-0.243988037109375,0.5462493896484375,-0.176177978515625,-0.4096306562423706,-0.9424597024917604,-0.7839462161064148,13.47773742675781,80.79167175292969,1.740310668945312
284522,-0.243988037109375,0.5462493896484375,-0.176177978515625,-0.4096306562423706,-0.9424597024917604,-0.7839462161064148,13.47773742675781,80.79167175292969,1.740310668945312
284523,-0.158721923828125,0.4556884765625,-0.26043701171875,-0.1586900502443314,-0.7094852924346924,-0.7771958708763123,13.52809143066406,80.27033996582031,2.476303100585938
284524,9.1552734375e-05,0.2168426513671875,-0.2726898193359375,0.3306168019771576,-0.2130715250968933,-0.3894737362861633,13.53240966796875,79.39407348632812,3.035781860351562
284525,0.054962158203125,0.13323974609375,-0.279449462890625,0.4352249801158905,0.0278920847922563,-0.0557538084685802,13.38699340820312,79.11793518066406,3.290557861328125
284526,0.0814208984375,0.0889434814453125,-0.33648681640625,0.4682095348834991,0.0273615829646587,0.2452047020196915,13.17205810546875,78.9993896484375,3.372695922851562
284527,0.0814208984375,0.0889434814453125,-0.33648681640625,0.4682095348834991,0.0273615829646587,0.2452047020196915,13.17205810546875,78.9993896484375,3.372695922851562
284528,0.1094970703125,0.1006927490234375,-0.3399200439453125,0.4959671497344971,-0.572928249835968,0.5841667652130127,13.36045837402344,79.1590576171875,3.628829956054688
284529,0.1350250244140625,0.1383209228515625,-0.337799072265625,0.5136662721633911,-0.8987652063369751,0.5996271967887878,13.51612854003906,79.33392333984375,3.962570190429688
284530,0.1350250244140625,0.1383209228515625,-0.337799072265625,0.5136662721633911,-0.8987652063369751,0.5996271967887878,13.51612854003906,79.33392333984375,3.962570190429688
284531,0.2135162353515625,0.2848663330078125,-0.4143524169921875,0.4481237232685089,-0.7773942947387695,0.3692366182804108,14.23182678222656,79.86038208007812,4.725906372070312
284532,0.19189453125,0.3979034423828125,-0.47247314453125,0.4328640699386597,-0.5962772369384766,0.1674198806285858,14.5650634765625,80.1116943359375,5.078933715820312
284533,0.1197967529296875,0.481201171875,-0.38824462890625,0.4878711402416229,-0.5177733898162842,-0.0582776889204978,14.82485961914062,80.27603149414062,5.32501220703125
284534,0.1197967529296875,0.481201171875,-0.38824462890625,0.4878711402416229,-0.5177733898162842,-0.0582776889204978,14.82485961914062,80.27603149414062,5.32501220703125
284535,0.0231781005859375,0.503509521484375,-0.2928619384765625,0.6044877767562866,-0.4945639371871948,-0.2486060857772827,14.87843322753906,80.54371643066406,5.4140625
284536,-0.1675872802734375,0.5476226806640625,-0.1622161865234375,0.9497090578079224,-0.4991283118724823,-0.5392488241195679,14.7952880859375,80.92765808105469,5.548446655273438
284537,-0.2534027099609375,0.67376708984375,-0.0792083740234375,1.037637829780579,-0.3857527673244476,-0.7952686548233032,14.67979431152344,81.27043151855469,5.428817749023438
284538,-0.2534027099609375,0.67376708984375,-0.0792083740234375,1.037637829780579,-0.3857527673244476,-0.7952686548233032,14.67979431152344,81.27043151855469,5.428817749023438
284539,-0.5240020751953125,1.054824829101562,0.2379608154296875,0.7025117874145508,0.2988053262233734,-1.601913452148438,14.07394409179688,81.518798828125,4.873153686523438
284540,-0.70037841796875,1.319442749023438,0.402923583984375,-0.2837936282157898,1.593268871307373,-2.761778831481934,13.50492858886719,81.48074340820312,4.488616943359375
284541,-0.8703765869140625,1.634201049804688,0.3969573974609375,-0.4254141449928284,1.609208464622498,-3.070778131484985,12.71881103515625,81.16929626464844,3.980865478515625
284542,-0.8703765869140625,1.634201049804688,0.3969573974609375,-0.4254141449928284,1.609208464622498,-3.070778131484985,12.71881103515625,81.16929626464844,3.980865478515625
284543,-1.41015625,1.646377563476562,0.4308013916015625,-0.5899966955184937,1.261955976486206,-1.827710390090942,11.7222900390625,80.66532897949219,3.168960571289062
284544,-2.270004272460938,2.294219970703125,1.052474975585938,-0.9403416514396667,1.276989221572876,-0.4252322614192963,9.485626220703123,79.37039184570312,1.433929443359375
284545,-2.164642333984375,3.072845458984375,0.9215850830078124,-0.8729344010353088,-0.2623035311698914,0.0058855861425399,8.813034057617188,78.74685668945312,0.545501708984375
284546,-2.102249145507812,2.635940551757812,1.508163452148438,-0.4625300765037537,-1.597378969192505,-0.2926792800426483,8.46099853515625,78.44346618652344,-0.1011962890625
284547,-2.102249145507812,2.635940551757812,1.508163452148438,-0.4625300765037537,-1.597378969192505,-0.2926792800426483,8.46099853515625,78.44346618652344,-0.1011962890625
284548,-1.726669311523438,1.733673095703125,1.637893676757812,-0.1664880514144897,-0.7776366472244263,-0.5494902729988098,8.331924438476562,78.20358276367188,-0.1869659423828125
284549,-1.072952270507812,1.31903076171875,0.698089599609375,0.8238512873649597,-0.4362260401248932,-0.4745340347290039,8.10003662109375,78.09400939941406,0.801025390625
284550,-1.157073974609375,1.350341796875,0.4973907470703125,1.107793211936951,-0.6020326018333435,-0.5606233477592468,7.846649169921875,78.10176086425781,1.17608642578125
284551,-1.157073974609375,1.350341796875,0.4973907470703125,1.107793211936951,-0.6020326018333435,-0.5606233477592468,7.846649169921875,78.10176086425781,1.17608642578125
284552,-1.130508422851562,1.49530029296875,0.104766845703125,1.112577557563782,-1.342557072639465,-0.2149679660797119,7.713287353515625,78.14035034179688,1.957427978515625
284553,-1.0018310546875,1.474716186523438,0.0479888916015625,1.013719439506531,-1.404316306114197,-0.030239662155509,8.085723876953125,77.96249389648438,2.456817626953125
284554,-1.0018310546875,1.474716186523438,0.0479888916015625,1.013719439506531,-1.404316306114197,-0.030239662155509,8.085723876953125,77.96249389648438,2.456817626953125
284555,-0.815155029296875,1.2021484375,-0.0012054443359375,0.8707950711250305,-1.003305673599243,0.1206981912255287,8.54510498046875,77.7305908203125,2.86920166015625
284556,-0.7180328369140625,0.916534423828125,-0.0168914794921875,0.7747340798377991,-0.2476643919944763,0.2721966207027435,9.074371337890623,77.62594604492188,3.094680786132812
284557,-0.7180328369140625,0.916534423828125,-0.0168914794921875,0.7747340798377991,-0.2476643919944763,0.2721966207027435,9.074371337890623,77.62594604492188,3.094680786132812
284558,-0.6833953857421875,0.6684112548828125,-0.100189208984375,0.5741450190544128,0.6667668223381042,0.3618479669094086,9.470855712890623,77.68400573730469,3.373870849609375
284559,-0.39117431640625,0.0961761474609375,-0.35723876953125,0.0867913514375686,-0.2303567677736282,0.3731828927993774,10.49655151367188,77.90496826171875,3.011947631835938
284560,-0.2923431396484375,-0.0244598388671875,-0.386505126953125,-0.0063385898247361,-0.6010589599609375,0.3923600614070892,10.90400695800781,77.87135314941406,2.891204833984375
284561,-0.211822509765625,-0.10052490234375,-0.39068603515625,-0.0865194424986839,-0.850429356098175,0.4076202511787415,11.16532897949219,77.92681884765625,2.841110229492188
284562,-0.1485595703125,-0.1381072998046875,-0.3714752197265625,-0.0865194424986839,-0.850429356098175,0.4076202511787415,11.54263305664062,78.13145446777344,2.7257080078125
284563,-0.0938720703125,-0.1616058349609375,-0.3821258544921875,-0.0887908563017845,-1.177869319915771,0.5460164546966553,11.86106872558594,78.07400512695312,2.811416625976562
284564,-0.0310516357421875,-0.2003173828125,-0.4806671142578125,-0.0887908563017845,-1.177869319915771,0.5460164546966553,12.2579345703125,78.07449340820312,3.0693359375
284565,0.0371246337890625,-0.219207763671875,-0.6199798583984375,0.4298006296157837,-1.436762928962708,1.00067126750946,12.62930297851562,78.02749633789062,3.617568969726562
284566,0.0371246337890625,-0.219207763671875,-0.6199798583984375,0.4298006296157837,-1.436762928962708,1.00067126750946,12.62930297851562,78.02749633789062,3.617568969726562
284567,0.0877685546875,-0.023651123046875,-0.480621337890625,0.5537617206573486,-0.609912633895874,1.148852825164795,13.50021362304688,78.39166259765625,4.768173217773438
284568,0.109710693359375,0.173431396484375,-0.5720367431640625,0.6065434813499451,0.2816276848316193,1.119374752044678,13.96173095703125,78.62057495117188,5.30194091796875
284569,0.0887603759765625,0.3309783935546875,-0.5814056396484375,0.6856963038444519,0.5214836597442627,0.9728332757949828,14.31623840332031,79.09806823730469,5.302078247070312
284570,0.0887603759765625,0.3309783935546875,-0.5814056396484375,0.6856963038444519,0.5214836597442627,0.9728332757949828,14.31623840332031,79.09806823730469,5.302078247070312
284571,0.0380096435546875,0.42987060546875,-0.1875,0.5386733412742615,0.6466131210327148,0.6528230905532837,14.89599609375,79.89108276367188,4.730819702148438
284572,0.01123046875,0.4330596923828125,-0.0188751220703125,0.5386733412742615,0.6466131210327148,0.6528230905532837,15.20814514160156,80.14080810546875,4.863510131835938
284573,-0.0429534912109375,0.4681854248046875,0.138519287109375,0.2976468801498413,0.9553222060203552,0.6668861508369446,15.39315795898438,80.30990600585938,4.9732666015625
284574,-0.0429534912109375,0.4681854248046875,0.138519287109375,0.2976468801498413,0.9553222060203552,0.6668861508369446,15.39315795898438,80.30990600585938,4.9732666015625
284575,-0.183258056640625,0.684478759765625,0.4861602783203125,-0.735826849937439,2.982312917709351,0.4039376080036163,15.44488525390625,81.092041015625,3.352081298828125
284576,-0.285125732421875,0.8880462646484375,0.58819580078125,-0.735826849937439,2.982312917709351,0.4039376080036163,15.47001647949219,81.35662841796875,2.456634521484375
284577,-0.4953765869140625,1.17535400390625,0.6171417236328125,-0.8810807466506958,3.319322347640991,0.141594409942627,15.44862365722656,81.37730407714844,1.702056884765625
284578,-0.4953765869140625,1.17535400390625,0.6171417236328125,-0.8810807466506958,3.319322347640991,0.141594409942627,15.44862365722656,81.37730407714844,1.702056884765625
284579,-1.059036254882812,1.677444458007812,0.7296142578125,-0.2515880167484283,2.294358968734741,-0.4182254672050476,15.18309020996094,81.21661376953125,-0.1055755615234375
284580,-1.230789184570312,1.7183837890625,0.8168792724609375,0.0465496592223644,1.567920684814453,-0.5731514096260071,14.96270751953125,81.06489562988281,-0.9610137939453124
284581,-1.314239501953125,1.685440063476562,0.9094696044921876,0.3774021565914154,0.5425516963005066,-0.1777556091547012,14.8328857421875,80.86088562011719,-1.915481567382812
284582,-1.366928100585938,1.714019775390625,0.9852752685546876,0.3774021565914154,0.5425516963005066,-0.1777556091547012,14.50422668457031,80.74246215820312,-2.607803344726562
284583,-1.366928100585938,1.714019775390625,0.9852752685546876,0.3774021565914154,0.5425516963005066,-0.1777556091547012,14.50422668457031,80.74246215820312,-2.607803344726562
284584,-1.4390869140625,1.82733154296875,1.004592895507812,0.4204771816730499,0.3581530749797821,0.141627699136734,14.14794921875,80.72309875488281,-3.4215087890625
284585,-1.4390869140625,1.82733154296875,1.004592895507812,0.4204771816730499,0.3581530749797821,0.141627699136734,14.14794921875,80.72309875488281,-3.4215087890625
284586,-1.08966064453125,1.308975219726562,0.31512451171875,-0.4159093201160431,-0.1084961146116257,0.5296111106872559,13.52243041992188,81.04862976074219,-4.327850341796875
284587,-0.883056640625,1.131439208984375,0.234283447265625,-0.6846305131912231,-0.6852436065673828,0.5037962794303894,13.50456237792969,81.2498779296875,-4.227020263671875
284588,-0.770416259765625,0.972808837890625,0.3898162841796875,-0.8616141080856323,-0.835643470287323,0.4746506810188293,13.54885864257812,81.52388000488281,-4.135330200195312
284589,-0.65625,0.8329925537109375,0.4491729736328125,-0.928527057170868,-0.350653350353241,0.3309414386749268,13.54087829589844,81.85614013671875,-3.713302612304688
284590,-0.5513458251953125,0.71563720703125,0.389923095703125,-0.8642748594284058,-0.1545701324939728,0.2122936248779297,13.53169250488281,82.04376220703125,-3.308868408203125
284591,-0.5513458251953125,0.71563720703125,0.389923095703125,-0.8642748594284058,-0.1545701324939728,0.2122936248779297,13.53169250488281,82.04376220703125,-3.308868408203125
284592,-0.4806671142578125,0.6018218994140625,0.310882568359375,-0.8642748594284058,-0.1545701324939728,0.2122936248779297,13.68037414550781,82.1165771484375,-2.77801513671875
284593,-0.3906402587890625,0.3903961181640625,0.1495361328125,-0.7909785509109497,-0.0993212610483169,-0.0619464591145515,13.81953430175781,82.02552795410156,-1.630477905273438
284594,-0.3807220458984375,0.3028106689453125,0.0518951416015625,-0.8040855526924133,-0.2698530554771423,-0.2024332582950592,13.79774475097656,82.02960205078125,-1.2685546875
284595,-0.4012603759765625,0.27496337890625,-0.0460052490234375,-0.7999914884567261,-0.8009989261627197,-0.441243976354599,13.73277282714844,82.03192138671875,-0.9058837890625
284596,-0.41961669921875,0.415771484375,-0.0935211181640625,-0.7999914884567261,-0.8009989261627197,-0.441243976354599,13.51954650878906,81.99366760253906,-0.5338134765625
284597,-0.39642333984375,0.5421142578125,-0.1254425048828125,-0.7149524688720703,-0.8212389945983887,-0.4788582026958466,13.38786315917969,81.67787170410156,-0.110626220703125
284598,-0.3448638916015625,0.56005859375,-0.1031494140625,-0.5294196605682373,-0.5421988368034363,-0.4716668725013733,13.16458129882812,81.36692810058594,0.38409423828125
284599,-0.3448638916015625,0.56005859375,-0.1031494140625,-0.5294196605682373,-0.5421988368034363,-0.4716668725013733,13.16458129882812,81.36692810058594,0.38409423828125
284600,-0.1713104248046875,0.4075469970703125,-0.0758209228515625,0.1859877109527588,0.8036903738975525,-0.174166202545166,12.81474304199219,80.82493591308594,1.542236328125
284601,-0.096832275390625,0.2965850830078125,-0.1011962890625,0.1859877109527588,0.8036903738975525,-0.174166202545166,12.7559814453125,80.44352722167969,2.162490844726562
284602,-0.096832275390625,0.2965850830078125,-0.1011962890625,0.1859877109527588,0.8036903738975525,-0.174166202545166,12.7559814453125,80.44352722167969,2.162490844726562
284603,-0.0003204345703125,0.1277618408203125,-0.2208404541015625,0.3247362673282623,0.0305893346667289,0.2946508228778839,12.86982727050781,79.73826599121094,2.954132080078125
284604,0.0413818359375,0.0684814453125,-0.237762451171875,0.3247362673282623,0.0305893346667289,0.2946508228778839,12.79493713378906,79.55946350097656,2.486465454101562
284605,0.07293701171875,0.02459716796875,-0.216552734375,0.3569346964359283,-0.4044689238071442,0.4663621187210083,12.90049743652344,79.78080749511719,2.0775146484375
284606,0.07293701171875,0.02459716796875,-0.216552734375,0.3569346964359283,-0.4044689238071442,0.4663621187210083,12.90049743652344,79.78080749511719,2.0775146484375
284607,0.10986328125,0.014007568359375,-0.1605377197265625,0.6876377463340759,-1.038211822509766,0.8122353553771973,13.13674926757812,80.10585021972656,1.77923583984375
284608,0.1116180419921875,0.0478515625,-0.173675537109375,0.6876377463340759,-1.038211822509766,0.8122353553771973,13.39382934570312,80.39700317382812,1.801681518554688
284609,0.10577392578125,0.1128387451171875,-0.2392578125,0.8728324174880981,-1.156707763671875,0.7953943610191345,13.81376647949219,80.74551391601562,2.243087768554688
284610,0.089385986328125,0.2073211669921875,-0.323760986328125,1.050547242164612,-1.322185158729553,0.6484285593032837,14.15342712402344,81.00726318359375,2.553909301757812
284611,0.089385986328125,0.2073211669921875,-0.323760986328125,1.050547242164612,-1.322185158729553,0.6484285593032837,14.15342712402344,81.00726318359375,2.553909301757812
284612,0.0491943359375,0.3497314453125,-0.3837890625,1.1144939661026,-1.385111093521118,0.3314349353313446,14.39537048339844,81.50836181640625,2.711349487304688
284613,-0.23480224609375,0.698486328125,-0.4012298583984375,0.7177083492279053,-1.041879773139954,-0.5697848796844482,14.73216247558594,82.26512145996094,3.402267456054688
284614,-0.23480224609375,0.698486328125,-0.4012298583984375,0.7177083492279053,-1.041879773139954,-0.5697848796844482,14.73216247558594,82.26512145996094,3.402267456054688
284615,-0.527191162109375,1.162322998046875,0.1237640380859375,0.1870545744895935,-0.0095671396702528,-1.608950853347778,14.535888671875,82.5867919921875,3.726181030273438
284616,-0.6424560546875,1.491806030273438,0.250457763671875,-0.0693143606185913,0.6294761896133423,-2.253021478652954,14.22453308105469,82.48240661621094,3.719818115234375
284617,-0.6859130859375,1.762969970703125,0.2595367431640625,-0.4307990670204163,1.064494252204895,-2.744369983673096,13.50672912597656,82.14846801757812,3.663772583007812
284618,-0.7335662841796875,2.205184936523438,0.18475341796875,-0.9466165900230408,0.6308919191360474,-3.125398397445679,12.46174621582031,81.58335876464844,3.412460327148438
284619,-1.25506591796875,2.678878784179688,0.3590240478515625,-0.9466165900230408,0.6308919191360474,-3.125398397445679,11.22503662109375,80.67152404785156,2.892471313476562
284620,-2.255508422851562,3.090072631835938,0.877532958984375,-0.7818945050239563,0.9333341121673584,-2.123894453048706,9.789871215820312,79.83482360839844,2.39788818359375
284621,-2.577606201171875,3.230087280273438,0.843048095703125,-0.2906102538108826,0.6805713176727295,-0.9881216883659364,8.426162719726562,78.77041625976562,1.869979858398438
284622,-2.577606201171875,3.230087280273438,0.843048095703125,-0.2906102538108826,0.6805713176727295,-0.9881216883659364,8.426162719726562,78.77041625976562,1.869979858398438
284623,-2.1163330078125,2.243667602539062,1.59521484375,0.2150808870792389,-1.547449231147766,-0.2063222825527191,7.64373779296875,76.89985656738281,1.4915771484375
284624,-1.67852783203125,1.694290161132812,1.16180419921875,0.3795838057994843,-1.106038212776184,-0.16290183365345,7.68243408203125,76.74833679199219,2.156494140625
284625,-1.423309326171875,1.5125732421875,0.6235504150390625,0.7229592800140381,-1.030907034873962,0.0115983327850699,7.863784790039062,76.87750244140625,2.750564575195312
284626,-1.423309326171875,1.5125732421875,0.6235504150390625,0.7229592800140381,-1.030907034873962,0.0115983327850699,7.863784790039062,76.87750244140625,2.750564575195312
284627,-1.260284423828125,1.4305419921875,-0.03631591796875,1.584390640258789,-0.887489378452301,0.0712049379944801,8.21441650390625,76.94422912597656,3.689926147460938
284628,-1.129913330078125,1.268905639648438,-0.191864013671875,0.9426519870758056,1.087319612503052,0.3827111721038818,8.482025146484375,77.20025634765625,3.853485107421875
284629,-0.9504547119140624,1.1002197265625,-0.714599609375,0.5178514122962952,0.7010617256164551,0.465566098690033,8.931976318359375,77.45431518554688,3.766464233398438
284630,-0.9504547119140624,1.1002197265625,-0.714599609375,0.5178514122962952,0.7010617256164551,0.465566098690033,8.931976318359375,77.45431518554688,3.766464233398438
284631,-0.6536865234375,0.7479095458984375,-0.5841064453125,0.1370233595371246,0.1199295967817307,0.5240514874458313,9.814315795898438,77.5809326171875,2.700347900390625
284632,-0.5532379150390625,0.5779266357421875,-0.2937774658203125,-0.1010973230004311,-0.2864565253257751,0.6259070038795471,10.17813110351562,77.78147888183594,2.33087158203125
284633,-0.48260498046875,0.472015380859375,-0.169219970703125,-0.0632032006978988,-0.4672894179821014,0.6445251703262329,10.66822814941406,78.09428405761719,2.002899169921875
284634,-0.419189453125,0.3668365478515625,-0.1179351806640625,-0.0632032006978988,-0.4672894179821014,0.6445251703262329,11.11802673339844,78.29069519042969,1.983169555664062
284635,-0.419189453125,0.3668365478515625,-0.1179351806640625,-0.0632032006978988,-0.4672894179821014,0.6445251703262329,11.11802673339844,78.29069519042969,1.983169555664062
284636,-0.27679443359375,0.1534881591796875,-0.1086273193359375,0.0004865595255978,-0.8957315683364868,0.7262527942657471,12.06675720214844,78.53045654296875,1.963272094726562
284637,-0.214080810546875,0.0659637451171875,-0.137115478515625,0.1725629866123199,-1.226090550422668,0.8365364670753479,12.53713989257812,78.69462585449219,2.143600463867188
284638,-0.1500701904296875,-0.02569580078125,-0.1361236572265625,0.1725629866123199,-1.226090550422668,0.8365364670753479,13.14918518066406,78.85028076171875,2.417617797851562
284639,-0.08648681640625,-0.112762451171875,-0.15240478515625,0.1765153855085373,-1.199433445930481,0.9021553993225098,13.75942993164062,79.08572387695312,2.700637817382812
284640,-0.0118560791015625,-0.1884307861328125,-0.26904296875,0.2654263377189636,-1.17155921459198,0.9924176335334778,14.44450378417969,79.19706726074219,3.280975341796875
284641,0.085693359375,-0.2587432861328125,-0.417755126953125,0.4976678490638733,-1.278302431106567,1.165703177452087,14.99929809570312,79.32487487792969,3.754486083984375
284642,0.085693359375,-0.2587432861328125,-0.417755126953125,0.4976678490638733,-1.278302431106567,1.165703177452087,14.99929809570312,79.32487487792969,3.754486083984375
284643,0.1440277099609375,-0.28375244140625,-0.4287261962890625,0.8548731207847595,-1.35534679889679,1.392977356910706,15.54692077636719,79.61863708496094,4.0806884765625
284644,0.2223968505859375,-0.119384765625,-0.1865081787109375,1.193147778511047,0.0393250361084938,1.571656823158264,16.53996276855469,80.65267944335938,4.884429931640625
284645,0.2656402587890625,0.01214599609375,-0.3689117431640625,1.03637707233429,0.8790473937988281,1.394502997398376,17.06781005859375,81.22465515136719,5.0753173828125
284646,0.2656402587890625,0.01214599609375,-0.3689117431640625,1.03637707233429,0.8790473937988281,1.394502997398376,17.06781005859375,81.22465515136719,5.0753173828125
284647,0.1645050048828125,0.2300872802734375,-0.278411865234375,0.4402649998664856,0.2605895102024078,0.6509993076324463,17.86860656738281,82.68768310546875,4.354644775390625
284648,0.0789031982421875,0.26708984375,-0.0953826904296875,0.4402649998664856,0.2605895102024078,0.6509993076324463,18.27365112304688,83.13548278808594,3.706344604492188
284649,0.0067291259765625,0.2737884521484375,0.0546112060546875,0.2273708432912827,0.2266232818365097,0.4680236577987671,18.58827209472656,83.65618896484375,3.239913940429688
284650,0.0067291259765625,0.2737884521484375,0.0546112060546875,0.2273708432912827,0.2266232818365097,0.4680236577987671,18.58827209472656,83.65618896484375,3.239913940429688
284651,-0.090728759765625,0.4127655029296875,0.3638763427734375,-0.1879901438951492,1.016170144081116,0.1764250993728638,18.95756530761719,84.21858215332031,2.794631958007812
284652,-0.1563873291015625,0.57318115234375,0.5388031005859375,-0.7098661065101624,2.842741727828979,-0.071100540459156,18.98146057128906,84.42095947265625,2.457199096679688
284653,-0.25439453125,0.7996978759765625,0.6758575439453125,-0.7098661065101624,2.842741727828979,-0.071100540459156,18.89833068847656,84.45745849609375,2.26495361328125
284654,-0.25439453125,0.7996978759765625,0.6758575439453125,-0.7098661065101624,2.842741727828979,-0.071100540459156,18.89833068847656,84.45745849609375,2.26495361328125
284655,-0.7090606689453125,1.415008544921875,0.7025146484375,-0.7215339541435242,3.390161752700806,-0.5786678791046143,18.30366516113281,84.41583251953125,1.004913330078125
284656,-1.025955200195312,1.607513427734375,0.7048492431640625,-0.3783954977989197,2.605291604995728,-0.6637910604476929,18.03694152832031,84.09751892089844,0.085906982421875
284657,-1.302703857421875,1.682754516601562,0.713836669921875,-0.3783954977989197,2.605291604995728,-0.6637910604476929,17.6590576171875,83.82064819335938,-1.007064819335938
284658,-1.302703857421875,1.682754516601562,0.713836669921875,-0.3783954977989197,2.605291604995728,-0.6637910604476929,17.6590576171875,83.82064819335938,-1.007064819335938
284659,-1.611953735351562,1.860595703125,0.898681640625,0.0224656276404857,0.3815684020519257,-0.1750349253416061,16.86729431152344,83.3414306640625,-3.178604125976562
284660,-1.677719116210938,2.009078979492188,1.016983032226562,-0.3469691276550293,0.3236547708511353,0.1570665836334229,16.49545288085938,83.21624755859375,-4.1112060546875
284661,-1.630172729492188,1.900070190429688,1.039993286132812,-0.8962975144386292,0.4101441204547882,0.4777218401432037,16.15037536621094,83.10331726074219,-4.749893188476562
284662,-1.310623168945312,1.58233642578125,0.8020172119140625,-0.8962975144386292,0.4101441204547882,0.4777218401432037,15.8319091796875,83.10255432128906,-5.221817016601562
284663,-0.9621429443359376,1.35107421875,0.465545654296875,-1.246631860733032,0.0488575547933578,0.4630478024482727,15.55841064453125,83.26042175292969,-5.58697509765625
284664,-0.8009033203125,1.140487670898438,0.3187255859375,-1.359878540039062,-0.9518443942070008,0.3487553298473358,15.45431518554688,83.36442565917969,-5.654617309570312
284665,-0.7196044921875,0.9543609619140624,0.2919769287109375,-1.359878540039062,-0.9518443942070008,0.3487553298473358,15.42453002929688,83.51261901855469,-5.48199462890625
284666,-0.6484527587890625,0.7928314208984375,0.18994140625,-1.274652242660522,-1.195878386497498,0.3194243311882019,15.59739685058594,83.53199768066406,-4.937606811523438
284667,-0.5827484130859375,0.6708526611328125,0.075408935546875,-1.119481325149536,-1.512453079223633,0.2798058092594147,15.56394958496094,83.60513305664062,-3.437210083007812
284668,-0.52789306640625,0.625457763671875,0.1696624755859375,-0.965427041053772,-1.535926222801208,0.1725752353668213,15.66972351074219,83.64454650878906,-2.583511352539062
284669,-0.456695556640625,0.6012115478515625,0.2377166748046875,-0.8854269981384277,-1.181480526924133,-0.008061921223998,15.6875,83.53028869628906,-1.7281494140625
284670,-0.456695556640625,0.6012115478515625,0.2377166748046875,-0.8854269981384277,-1.181480526924133,-0.008061921223998,15.6875,83.53028869628906,-1.7281494140625
284671,-0.2950592041015625,0.540985107421875,0.0361480712890625,-0.8609288930892944,-0.5979233384132385,-0.3235011100769043,15.70187377929688,83.36289978027344,-0.270751953125
284672,-0.2549896240234375,0.5320892333984375,-0.089111328125,-0.8141083717346191,-0.6844744682312012,-0.4621506035327911,15.64779663085938,83.12055969238281,0.487396240234375
284673,-0.2303924560546875,0.4978485107421875,-0.16986083984375,-0.742548942565918,-0.9159441590309144,-0.6047993302345276,15.66502380371094,82.76762390136719,1.120895385742188
284674,-0.2303924560546875,0.4978485107421875,-0.16986083984375,-0.742548942565918,-0.9159441590309144,-0.6047993302345276,15.66502380371094,82.76762390136719,1.120895385742188
284675,-0.12896728515625,0.405303955078125,-0.2373809814453125,-0.5631104707717896,-1.132166266441345,-0.6984717845916748,15.423095703125,82.06832885742188,2.415847778320312
284676,-0.088104248046875,0.33538818359375,-0.2514495849609375,-0.3661878407001495,-0.9732828140258788,-0.5778460502624512,15.27714538574219,81.66426086425781,3.153793334960938
284677,-0.0688018798828125,0.249542236328125,-0.247344970703125,-0.1326179653406143,-0.6292711496353149,-0.3927022814750671,15.00521850585938,81.44734191894531,3.503738403320312
284678,-0.0688018798828125,0.249542236328125,-0.247344970703125,-0.1326179653406143,-0.6292711496353149,-0.3927022814750671,15.00521850585938,81.44734191894531,3.503738403320312
284679,-0.0231781005859375,0.102874755859375,-0.2451019287109375,0.1988497078418732,0.1512047052383423,0.0338077656924724,14.81918334960938,81.22993469238281,4.056915283203125
284680,0.0021820068359375,0.0791015625,-0.26953125,0.2654942572116852,0.1710236817598343,0.3067871034145355,14.8447265625,81.10238647460938,4.300369262695312
284681,0.0226898193359375,0.08917236328125,-0.2887420654296875,0.2654942572116852,0.1710236817598343,0.3067871034145355,14.92080688476562,81.03787231445312,4.448257446289062
284682,0.0226898193359375,0.08917236328125,-0.2887420654296875,0.2654942572116852,0.1710236817598343,0.3067871034145355,14.92080688476562,81.03787231445312,4.448257446289062
284683,0.0425567626953125,0.1866302490234375,-0.31256103515625,0.3212427496910095,-0.4777519106864929,0.3451488614082336,15.11305236816406,81.19869995117188,4.257095336914062
284684,0.0516815185546875,0.2582550048828125,-0.346588134765625,0.5238533616065979,-1.210491895675659,0.2008484154939651,15.27992248535156,81.36869812011719,4.511215209960938
284685,0.060577392578125,0.3455352783203125,-0.3638763427734375,0.5238533616065979,-1.210491895675659,0.2008484154939651,15.57585144042969,81.35794067382812,4.681121826171875
284686,0.060577392578125,0.3455352783203125,-0.3638763427734375,0.5238533616065979,-1.210491895675659,0.2008484154939651,15.57585144042969,81.35794067382812,4.681121826171875
284687,0.09552001953125,0.5001983642578125,-0.25738525390625,0.7881832718849182,-1.090425729751587,-0.0050837080925703,15.84971618652344,81.81736755371094,5.14678955078125
284688,0.0687103271484375,0.587646484375,-0.22027587890625,1.014514207839966,-0.402802050113678,-0.2593929469585419,15.97727966308594,82.04829406738281,5.450119018554688
284689,-0.0282745361328125,0.6830902099609375,-0.1624908447265625,1.014514207839966,-0.402802050113678,-0.2593929469585419,16.077880859375,82.35676574707031,5.422149658203125
284690,-0.0282745361328125,0.6830902099609375,-0.1624908447265625,1.014514207839966,-0.402802050113678,-0.2593929469585419,16.077880859375,82.35676574707031,5.422149658203125
284691,-0.3015899658203125,0.856414794921875,0.1016845703125,0.7296797633171082,0.3958735764026642,-1.240174770355225,15.77920532226562,82.93954467773438,5.1939697265625
284692,-0.42059326171875,1.0645751953125,0.252685546875,0.355954110622406,0.8114417195320129,-1.778332471847534,15.44874572753906,82.87840270996094,4.9835205078125
284693,-0.42059326171875,1.0645751953125,0.252685546875,0.355954110622406,0.8114417195320129,-1.778332471847534,15.44874572753906,82.87840270996094,4.9835205078125
284694,-0.640533447265625,1.876388549804688,0.325836181640625,-9.294431947637348e-05,1.132691144943237,-2.43195366859436,14.2142333984375,82.82363891601562,3.823379516601562
284695,-0.916229248046875,2.613998413085938,0.280487060546875,-0.4999152719974518,0.8916226029396057,-3.050617218017578,13.12934875488281,82.41127014160156,3.092025756835938
284696,-1.701736450195312,3.303741455078125,0.7813262939453125,-0.9493306279182434,0.6265302300453186,-2.523966073989868,12.04690551757812,81.52330017089844,2.319046020507812
284697,-2.510360717773438,3.373611450195312,1.468536376953125,-1.397814989089966,0.9256322383880616,-0.9264865517616272,11.08079528808594,80.39559936523438,1.15045166015625
284698,-2.723983764648438,2.951904296875,1.60614013671875,-1.12416398525238,1.812732458114624,0.013278255239129,10.52000427246094,79.51197814941406,-0.081298828125
284699,-2.723983764648438,2.951904296875,1.60614013671875,-1.12416398525238,1.812732458114624,0.013278255239129,10.52000427246094,79.51197814941406,-0.081298828125
284700,-2.342254638671875,2.223464965820312,1.103805541992188,-0.0841345861554145,1.537500143051147,-0.4812763631343842,10.26202392578125,79.0533447265625,-0.8611297607421875
284701,-1.548965454101562,1.303298950195312,0.9735107421875,0.964147925376892,-0.9099600315093994,-0.2917447686195374,9.732315063476562,78.67686462402344,-1.712203979492188
284702,-1.548965454101562,1.303298950195312,0.9735107421875,0.964147925376892,-0.9099600315093994,-0.2917447686195374,9.732315063476562,78.67686462402344,-1.712203979492188
284703,-1.25054931640625,1.308074951171875,0.787445068359375,1.007538318634033,-1.403804421424866,-0.2026055753231049,9.44573974609375,78.80052185058594,-1.78411865234375
284704,-0.9656829833984376,1.142471313476562,0.358123779296875,0.8797067999839783,-2.353981018066406,-0.1741670072078705,9.31640625,79.49172973632812,-0.4343719482421875
284705,-0.87841796875,1.303207397460938,0.1224822998046875,0.966764748096466,-2.110666513442993,0.1060012653470039,9.639404296875,79.73155212402344,0.8047332763671875
284706,-0.85089111328125,1.383987426757812,-0.057464599609375,1.164779305458069,-1.142218589782715,0.3108867704868317,10.23846435546875,79.86854553222656,2.053359985351562
284707,-0.7445831298828125,1.081466674804688,-0.3064727783203125,1.123284816741943,-0.0202408228069543,0.4680476188659668,10.87811279296875,79.87565612792969,2.843887329101562
284708,-0.6901702880859375,0.7587127685546875,-0.540130615234375,0.8050083518028259,0.5638316869735718,0.5821853876113892,11.33157348632812,79.99351501464844,3.044570922851562
284709,-0.6597900390625,0.5290374755859375,-0.611358642578125,0.4037024676799774,0.5068981051445007,0.5917567610740662,11.83341979980469,80.10478210449219,2.84124755859375
284710,-0.6597900390625,0.5290374755859375,-0.611358642578125,0.4037024676799774,0.5068981051445007,0.5917567610740662,11.83341979980469,80.10478210449219,2.84124755859375
284711,-0.595184326171875,0.3588409423828125,-0.51495361328125,0.0933640375733375,0.1816294491291046,0.5415412783622742,12.29974365234375,80.33511352539062,2.465133666992188
284712,-0.441192626953125,0.212860107421875,-0.3158721923828125,-0.1593963205814362,-0.3075434267520905,0.4603103399276733,13.31155395507812,80.64767456054688,2.024063110351562
284713,-0.36456298828125,0.1480865478515625,-0.2965087890625,-0.2403971552848816,-0.5113716721534729,0.4730581045150757,13.7733154296875,80.66033935546875,2.254379272460938
284714,-0.36456298828125,0.1480865478515625,-0.2965087890625,-0.2403971552848816,-0.5113716721534729,0.4730581045150757,13.7733154296875,80.66033935546875,2.254379272460938
284715,-0.285552978515625,0.08074951171875,-0.3082733154296875,-0.2698272168636322,-0.6680387854576111,0.5577772259712219,14.33502197265625,80.59669494628906,2.368301391601562
284716,-0.1484375,0.002105712890625,-0.313140869140625,-0.1231898441910744,-0.8460924029350281,0.7696303725242615,15.42884826660156,80.54673767089844,2.789215087890625
284717,-0.0890350341796875,-0.0296783447265625,-0.3120880126953125,-0.0136822564527392,-0.8511673212051392,0.8658136129379272,15.91523742675781,80.65898132324219,3.196487426757812
284718,-0.0890350341796875,-0.0296783447265625,-0.3120880126953125,-0.0136822564527392,-0.8511673212051392,0.8658136129379272,15.91523742675781,80.65898132324219,3.196487426757812
284719,-0.0167236328125,-0.07232666015625,-0.32958984375,0.1597025841474533,-0.8773161172866821,0.9820529222488404,16.328369140625,80.71629333496094,3.628402709960938
284720,0.078338623046875,-0.069854736328125,-0.267791748046875,0.765480637550354,-0.7111337780952454,1.259987831115723,16.913818359375,81.3106689453125,4.087066650390625
284721,0.1246490478515625,-0.013916015625,-0.2411956787109375,1.013543963432312,-0.3369117081165314,1.303542733192444,17.35296630859375,81.72848510742188,4.354446411132812
284722,0.1246490478515625,-0.013916015625,-0.2411956787109375,1.013543963432312,-0.3369117081165314,1.303542733192444,17.35296630859375,81.72848510742188,4.354446411132812
284723,0.19940185546875,0.0347442626953125,-0.2609405517578125,1.091653943061829,0.3059183657169342,1.247917056083679,17.72488403320312,82.27523803710938,4.450881958007812
284724,0.1854705810546875,0.2027130126953125,-0.336181640625,0.9737326502799988,0.8699798583984375,0.925373911857605,18.43931579589844,83.15992736816406,4.028884887695312
284725,0.1013946533203125,0.3066558837890625,-0.1972198486328125,0.8078981637954712,0.7846519351005554,0.6660299301147461,18.69635009765625,83.68211364746094,3.57061767578125
284726,0.0089111328125,0.379791259765625,-0.0140533447265625,0.3616804480552673,1.121516227722168,0.2966063618659973,18.82003784179688,84.18229675292969,2.991531372070312
284727,0.0089111328125,0.379791259765625,-0.0140533447265625,0.3616804480552673,1.121516227722168,0.2966063618659973,18.82003784179688,84.18229675292969,2.991531372070312
284728,-0.12677001953125,0.50897216796875,0.2766265869140625,0.1774293780326843,1.660646080970764,0.1671130955219269,18.94770812988281,84.58613586425781,2.255828857421875
284729,-0.18115234375,0.6178131103515625,0.4169921875,-0.017402958124876,2.408360242843628,0.0518970191478729,18.83531188964844,84.83242797851562,1.67547607421875
284730,-0.2639923095703125,0.7937469482421875,0.574371337890625,-0.2953903675079346,3.32196831703186,-0.1237051635980606,18.56289672851562,84.98056030273438,0.941619873046875
284731,-0.2639923095703125,0.7937469482421875,0.574371337890625,-0.2953903675079346,3.32196831703186,-0.1237051635980606,18.56289672851562,84.98056030273438,0.941619873046875
284732,-0.652496337890625,1.405899047851562,0.58966064453125,-0.9037322402000428,4.270182132720947,-0.8370192646980286,17.88719177246094,84.8292236328125,-1.09393310546875
284733,-0.9653472900390624,1.621383666992188,0.6538848876953125,-0.8648178577423096,3.834059953689575,-1.109966397285461,17.49913024902344,84.45771789550781,-2.32855224609375
284734,-0.9653472900390624,1.621383666992188,0.6538848876953125,-0.8648178577423096,3.834059953689575,-1.109966397285461,17.49913024902344,84.45771789550781,-2.32855224609375
284735,-1.623626708984375,1.816635131835938,0.7565155029296875,-0.0995556190609931,2.114268064498901,-1.101879119873047,16.41119384765625,83.56626892089844,-4.8287353515625
284736,-1.819259643554688,1.94293212890625,0.789398193359375,0.3563040494918823,1.229926347732544,-0.7132397890090942,15.76315307617188,83.25154113769531,-5.95343017578125
284737,-1.910537719726562,2.063858032226562,0.8112335205078125,0.451700359582901,0.8806522488594055,0.059035088866949,15.15168762207031,82.96707153320312,-6.891265869140625
284738,-1.910537719726562,2.063858032226562,0.8112335205078125,0.451700359582901,0.8806522488594055,0.059035088866949,15.15168762207031,82.96707153320312,-6.891265869140625
284739,-1.519134521484375,2.026763916015625,0.61474609375,0.1038885787129402,0.8177185654640198,0.6453166604042053,14.56271362304688,83.01905822753906,-7.745101928710938
284740,-0.8168487548828125,1.299591064453125,0.09619140625,-0.7350630760192871,0.0478655248880386,0.6008826494216919,13.8582763671875,83.72517395019531,-8.698150634765625
284741,-0.693817138671875,1.02001953125,0.0829925537109375,-0.9237864017486572,-0.4519951641559601,0.4812635779380798,13.83541870117188,83.9464111328125,-8.611236572265625
284742,-0.601348876953125,0.8462982177734375,0.2403564453125,-0.956907331943512,-0.3370597958564758,0.332866370677948,13.94532775878906,84.16665649414062,-8.4041748046875
284743,-0.601348876953125,0.8462982177734375,0.2403564453125,-0.956907331943512,-0.3370597958564758,0.332866370677948,13.94532775878906,84.16665649414062,-8.4041748046875
284744,-0.436431884765625,0.63507080078125,0.2736053466796875,-0.8719178438186646,-0.0751996785402298,0.2658244967460632,14.18547058105469,84.47257995605469,-7.615341186523438
284745,-0.38751220703125,0.5199127197265625,0.2187042236328125,-0.7785740494728088,0.1038520932197571,0.2090964913368225,14.2850341796875,84.38890075683594,-6.977188110351562
284746,-0.38751220703125,0.5199127197265625,0.2187042236328125,-0.7785740494728088,0.1038520932197571,0.2090964913368225,14.2850341796875,84.38890075683594,-6.977188110351562
284747,-0.3631439208984375,0.429168701171875,0.18389892578125,-0.7357917428016663,0.2175975739955902,0.129486620426178,14.38682556152344,84.48698425292969,-6.613571166992188
284748,-0.4180145263671875,0.334381103515625,0.1563262939453125,-0.8049113750457764,0.2194753587245941,-0.11721371114254,14.39082336425781,84.54739379882812,-6.404266357421875
284749,-0.4832611083984375,0.4344024658203125,0.1230316162109375,-0.963253617286682,0.1453598588705063,-0.3399828672409058,14.47305297851562,84.40988159179688,-6.173843383789062
284750,-0.5218048095703125,0.529541015625,0.050628662109375,-1.208527326583862,-0.0708427503705024,-0.5154585242271423,14.43385314941406,84.11581420898438,-5.832382202148438
284751,-0.5218048095703125,0.529541015625,0.050628662109375,-1.208527326583862,-0.0708427503705024,-0.5154585242271423,14.43385314941406,84.11581420898438,-5.832382202148438
284752,-0.5425262451171875,0.714141845703125,-0.3590240478515625,-1.675912380218506,-1.336287379264832,-0.9574127793312072,14.01443481445312,83.69940185546875,-5.006912231445312
284753,-0.4812469482421875,0.714324951171875,-0.3819122314453125,-1.005201101303101,-2.372862339019775,-1.066150188446045,13.69590759277344,83.29446411132812,-4.193740844726562
284754,-0.3401641845703125,0.579437255859375,-0.2290191650390625,-1.005201101303101,-2.372862339019775,-1.066150188446045,13.36982727050781,82.72834777832031,-3.083389282226562
284755,-0.3401641845703125,0.579437255859375,-0.2290191650390625,-1.005201101303101,-2.372862339019775,-1.066150188446045,13.36982727050781,82.72834777832031,-3.083389282226562
284756,-0.0104827880859375,0.3201141357421875,-0.0187225341796875,0.5979726314544678,-0.629051148891449,-0.2689395844936371,13.01078796386719,81.40109252929688,-0.49945068359375
284757,0.0799713134765625,0.230804443359375,-0.1327056884765625,1.104150891304016,0.4687919914722443,0.2420019805431366,12.9241943359375,81.10017395019531,0.27239990234375
284758,0.0799713134765625,0.230804443359375,-0.1327056884765625,1.104150891304016,0.4687919914722443,0.2420019805431366,12.9241943359375,81.10017395019531,0.27239990234375
284759,0.1224517822265625,0.1290130615234375,-0.31866455078125,1.272624254226685,0.904826521873474,0.7776337265968323,12.94783020019531,80.86163330078125,0.4020843505859375
284760,0.1303558349609375,0.0502471923828125,-0.3929290771484375,1.071859002113342,0.2027333974838257,1.418020844459534,13.08433532714844,81.406005859375,-0.32611083984375
284761,0.1466827392578125,0.0366363525390625,-0.3880157470703125,0.893546998500824,-0.9701658487319946,1.490154147148132,13.52174377441406,81.75251770019531,-0.652130126953125
284762,0.1784515380859375,0.0293121337890625,-0.412689208984375,0.893546998500824,-0.9701658487319946,1.490154147148132,13.94424438476562,82.42716979980469,-0.8199005126953125
284763,0.2083282470703125,0.0643310546875,-0.442626953125,0.8004820346832275,-1.533552765846252,1.189081430435181,14.48977661132812,82.98626708984375,-0.8463287353515625
284764,0.212310791015625,0.13653564453125,-0.4475555419921875,0.8004820346832275,-1.533552765846252,1.189081430435181,15.14974975585938,83.53852844238281,-0.5522003173828125
284765,0.17529296875,0.249725341796875,-0.4030609130859375,0.6522307991981506,-1.422736763954163,0.8053287267684937,15.72358703613281,84.0433349609375,-0.02301025390625
284766,0.077392578125,0.402435302734375,-0.2815399169921875,0.5357377529144287,-1.21090841293335,0.2802708148956299,16.25614929199219,84.54971313476562,0.3691253662109375
284767,0.077392578125,0.402435302734375,-0.2815399169921875,0.5357377529144287,-1.21090841293335,0.2802708148956299,16.25614929199219,84.54971313476562,0.3691253662109375
284768,-0.2153167724609375,0.8006744384765625,0.1323394775390625,0.3897466957569122,-0.5327911972999573,-0.8494647741317749,16.86625671386719,85.33024597167969,1.1512451171875
284769,-0.3444061279296875,1.257736206054688,0.2888946533203125,0.1415344923734665,0.0747474730014801,-1.678172826766968,16.78327941894531,85.53257751464844,1.204864501953125
284770,-0.3444061279296875,1.257736206054688,0.2888946533203125,0.1415344923734665,0.0747474730014801,-1.678172826766968,16.78327941894531,85.53257751464844,1.204864501953125
284771,-0.42803955078125,1.73541259765625,0.2877044677734375,-0.52019202709198,0.7793378829956055,-3.369238615036011,16.36061096191406,85.4417724609375,1.38031005859375
284772,-0.7600860595703125,3.349929809570312,0.1782684326171875,-0.8643020391464233,0.7980939745903015,-4.105078220367432,14.42401123046875,84.55288696289062,0.7433624267578125
284773,-1.67803955078125,3.318496704101562,0.46368408203125,-1.097464442253113,0.8008096218109131,-3.979902267456055,12.8990478515625,83.61991882324219,0.416229248046875
284774,-1.67803955078125,3.318496704101562,0.46368408203125,-1.097464442253113,0.8008096218109131,-3.979902267456055,12.8990478515625,83.61991882324219,0.416229248046875
284775,-2.961013793945312,2.8817138671875,0.985992431640625,-1.231478452682495,1.789598941802979,-1.879460453987122,11.05364990234375,82.56828308105469,-0.194976806640625
284776,-1.997268676757812,1.983383178710938,0.42169189453125,-0.3501870334148407,-0.8273882269859314,-0.196988970041275,8.727859497070312,80.31765747070312,-1.2852783203125
284777,-1.790115356445312,1.838088989257812,1.100250244140625,-0.4745784997940063,-2.594574451446533,-0.1293651759624481,8.713729858398438,79.74368286132812,-1.39935302734375
284778,-1.790115356445312,1.838088989257812,1.100250244140625,-0.4745784997940063,-2.594574451446533,-0.1293651759624481,8.713729858398438,79.74368286132812,-1.39935302734375
284779,-1.314056396484375,1.565597534179688,0.6795654296875,-0.0353843569755554,-1.385327935218811,-0.1890309005975723,9.111801147460938,79.64248657226562,-0.7338714599609375
284780,-1.2891845703125,1.544631958007812,0.23016357421875,1.213965535163879,-0.0622356757521629,-0.0245317090302705,9.439590454101562,79.69577026367188,0.2688751220703125
284781,-1.254989624023438,1.392410278320312,-0.1710052490234375,1.213965535163879,-0.0622356757521629,-0.0245317090302705,9.64227294921875,79.54769897460938,1.077377319335938
284782,-1.254989624023438,1.392410278320312,-0.1710052490234375,1.213965535163879,-0.0622356757521629,-0.0245317090302705,9.64227294921875,79.54769897460938,1.077377319335938
284783,-1.011993408203125,0.9908905029296876,-0.6059417724609375,1.41746985912323,0.273652583360672,0.4576152265071869,10.32977294921875,79.27700805664062,1.147964477539062
284784,-0.8018341064453125,0.82073974609375,-0.7799530029296875,1.003854632377625,0.4901803731918335,0.8005414009094238,10.76473999023438,79.36911010742188,0.6562957763671875
284785,-0.577606201171875,0.69207763671875,-1.150772094726562,0.4549762904644012,0.1361919194459915,0.9996071457862854,11.19027709960938,79.58670043945312,0.031585693359375
284786,-0.577606201171875,0.69207763671875,-1.150772094726562,0.4549762904644012,0.1361919194459915,0.9996071457862854,11.19027709960938,79.58670043945312,0.031585693359375
284787,-0.35137939453125,0.54010009765625,-0.3215484619140625,-0.5164135694503784,-0.5744044184684753,0.9455915689468384,12.00163269042969,80.44578552246094,-1.156707763671875
284788,-0.344482421875,0.4391021728515625,-0.1848602294921875,-0.5812128186225891,-0.6492829322814941,0.92185240983963,12.433837890625,80.85710144042969,-1.236434936523438
284789,-0.3412017822265625,0.370513916015625,-0.098480224609375,-0.4979048669338226,-0.8527801036834717,0.9314043521881104,13.01004028320312,81.04249572753906,-1.042572021484375
284790,-0.306671142578125,0.3045654296875,0.0175018310546875,-0.3716934025287628,-0.940984547138214,0.8978155255317688,13.68635559082031,81.15826416015625,-0.674407958984375
284791,-0.306671142578125,0.3045654296875,0.0175018310546875,-0.3716934025287628,-0.940984547138214,0.8978155255317688,13.68635559082031,81.15826416015625,-0.674407958984375
284792,-0.153472900390625,0.104705810546875,-0.0204925537109375,0.2294949740171432,-0.9156368374824524,0.8692137002944946,15.02967834472656,81.43280029296875,0.006439208984375
284793,-0.105987548828125,0.0185699462890625,-0.03167724609375,0.5732803344726562,-0.8612327575683594,0.863146185874939,15.5404052734375,81.566162109375,0.375457763671875
284794,-0.057342529296875,-0.081024169921875,-0.1223602294921875,1.174971461296082,-0.7556562423706055,0.9588040113449096,16.07051086425781,81.79287719726562,0.6247406005859375
284795,-0.057342529296875,-0.081024169921875,-0.1223602294921875,1.174971461296082,-0.7556562423706055,0.9588040113449096,16.07051086425781,81.79287719726562,0.6247406005859375
284796,0.0075836181640625,-0.2121124267578125,-0.3079376220703125,1.517404437065125,-0.9006813168525696,1.155865907669067,16.57351684570312,82.03125,0.6317138671875
284797,0.124053955078125,-0.322418212890625,-0.365631103515625,1.720946669578552,-0.8455333709716797,1.359574675559998,17.27033996582031,83.00755310058594,0.77154541015625
284798,0.1953887939453125,-0.2876129150390625,-0.207977294921875,1.149385213851929,1.122719168663025,1.307399868965149,17.54196166992188,83.49029541015625,0.852691650390625
284799,0.2457427978515625,-0.2255706787109375,-0.4130859375,1.149385213851929,1.122719168663025,1.307399868965149,17.90716552734375,84.188720703125,0.7044219970703125
284800,0.18927001953125,-0.066497802734375,-0.4251708984375,1.078679084777832,0.973848521709442,1.219454526901245,18.32539367675781,84.82154846191406,0.365325927734375
284801,0.1053466796875,0.1001739501953125,-0.140960693359375,0.9022808074951172,0.8103575706481934,0.9840763807296752,18.63606262207031,85.35890197753906,-0.278533935546875
284802,0.1053466796875,0.1001739501953125,-0.140960693359375,0.9022808074951172,0.8103575706481934,0.9840763807296752,18.63606262207031,85.35890197753906,-0.278533935546875
284803,0.0247955322265625,0.172821044921875,0.155975341796875,0.0863740369677543,1.476534485816956,0.4406865835189819,19.26383972167969,86.33393859863281,-1.464065551757812
284804,0.01251220703125,0.19744873046875,0.25579833984375,0.0863740369677543,1.476534485816956,0.4406865835189819,19.4857177734375,86.59002685546875,-1.834625244140625
284805,-0.0133056640625,0.2896881103515625,0.3534393310546875,-0.179980680346489,1.947366237640381,0.3061969578266144,19.60813903808594,86.79826354980469,-2.2041015625
284806,-0.0133056640625,0.2896881103515625,0.3534393310546875,-0.179980680346489,1.947366237640381,0.3061969578266144,19.60813903808594,86.79826354980469,-2.2041015625
284807,-0.1729888916015625,0.6693267822265625,0.5191650390625,-1.012601733207703,3.030110359191895,0.0868648588657379,19.53846740722656,87.05671691894531,-3.592147827148438
284808,-0.348388671875,0.9631805419921876,0.613372802734375,-1.480649352073669,3.304205417633057,-0.1075048893690109,19.45674133300781,87.13002014160156,-4.207733154296875
284809,-0.6112823486328125,1.272232055664062,0.73724365234375,-1.693437337875366,3.309522867202759,-0.3031643927097321,19.27790832519531,86.96369934082031,-4.870529174804688
284810,-0.9412841796875,1.562881469726562,0.854095458984375,-1.625352025032043,3.18860912322998,-0.5160068869590759,19.2037353515625,86.776123046875,-5.332931518554688
284811,-0.9412841796875,1.562881469726562,0.854095458984375,-1.625352025032043,3.18860912322998,-0.5160068869590759,19.2037353515625,86.776123046875,-5.332931518554688
284812,-1.591232299804688,1.969039916992188,0.8680572509765625,-0.8290479183197021,2.197966814041138,-0.602531909942627,18.63908386230469,86.30540466308594,-6.484359741210938
284813,-1.8494873046875,2.26800537109375,0.850982666015625,-0.4069680273532867,1.425479888916016,-0.475503146648407,18.24549865722656,86.26533508300781,-7.179916381835938
284814,-2.010223388671875,2.499053955078125,0.8208770751953125,-0.2652700245380402,0.8576571941375732,-0.2237689197063446,17.81558227539062,86.00312805175781,-7.856201171875
284815,-2.010223388671875,2.499053955078125,0.8208770751953125,-0.2652700245380402,0.8576571941375732,-0.2237689197063446,17.81558227539062,86.00312805175781,-7.856201171875
284816,-1.139129638671875,1.84033203125,0.3644866943359375,-0.931504249572754,0.2153000682592392,0.4469114542007446,16.88616943359375,85.99502563476562,-9.068115234375
284817,-0.73443603515625,1.426055908203125,0.1625213623046875,-1.28604257106781,-0.229028657078743,0.4882351756095886,16.54081726074219,86.0318603515625,-9.359207153320312
284818,-0.73443603515625,1.426055908203125,0.1625213623046875,-1.28604257106781,-0.229028657078743,0.4882351756095886,16.54081726074219,86.0318603515625,-9.359207153320312
284819,-0.5580291748046875,1.159194946289062,0.0928802490234375,-1.500455260276794,-0.7592515349388123,0.4869217276573181,16.51210021972656,86.04202270507812,-9.31744384765625
284820,-0.39801025390625,0.926055908203125,0.2931976318359375,-1.545944452285767,-1.11393928527832,0.3639521300792694,16.70390319824219,86.24848937988281,-8.257858276367188
284821,-0.3518524169921875,0.8917236328125,0.3463592529296875,-1.148641347885132,-0.6817367672920227,0.1330382078886032,16.86163330078125,86.27557373046875,-7.346176147460938
284822,-0.3518524169921875,0.8917236328125,0.3463592529296875,-1.148641347885132,-0.6817367672920227,0.1330382078886032,16.86163330078125,86.27557373046875,-7.346176147460938
284823,-0.2538604736328125,0.813201904296875,0.2863006591796875,-0.7489434480667114,-0.2417881339788437,-0.0732739493250846,17.07234191894531,86.29147338867188,-5.509796142578125
284824,-0.2283782958984375,0.76776123046875,0.2399749755859375,-0.7489434480667114,-0.2417881339788437,-0.0732739493250846,17.19169616699219,86.27322387695312,-4.726470947265625
284825,-0.22283935546875,0.695465087890625,0.1921844482421875,-0.7194290161132812,-0.057005763053894,-0.202918753027916,17.21800231933594,86.2484130859375,-4.094863891601562
284826,-0.218414306640625,0.591064453125,0.1027069091796875,-0.7202564477920532,-0.0385239571332931,-0.5349374413490295,17.21144104003906,86.16923522949219,-3.589828491210938
284827,-0.218414306640625,0.591064453125,0.1027069091796875,-0.7202564477920532,-0.0385239571332931,-0.5349374413490295,17.21144104003906,86.16923522949219,-3.589828491210938
284828,-0.1908111572265625,0.2941131591796875,-0.2094879150390625,-0.3099557161331177,-1.011235594749451,-0.7273393869400024,16.98124694824219,85.65841674804688,-2.72589111328125
284829,-0.1570892333984375,0.1317138671875,-0.4903411865234375,-0.3099557161331177,-1.011235594749451,-0.7273393869400024,16.83665466308594,85.436767578125,-2.327804565429688
284830,-0.1570892333984375,0.1317138671875,-0.4903411865234375,-0.3099557161331177,-1.011235594749451,-0.7273393869400024,16.83665466308594,85.436767578125,-2.327804565429688
284831,-0.11407470703125,0.0360260009765625,-0.4523162841796875,0.1439782083034515,-1.744380116462708,-0.6364489197731018,16.71975708007812,85.20375061035156,-1.93603515625
284832,-0.0630340576171875,-0.0202484130859375,-0.099029541015625,0.1734668612480164,-1.306808590888977,-0.5117703676223755,16.30160522460938,84.29362487792969,-0.2657318115234375
284833,-0.0418853759765625,-0.0221099853515625,-0.1195220947265625,0.1654829680919647,-0.7434584498405457,-0.3398473262786865,16.10679626464844,84.0906982421875,0.270782470703125
284834,-0.0418853759765625,-0.0221099853515625,-0.1195220947265625,0.1654829680919647,-0.7434584498405457,-0.3398473262786865,16.10679626464844,84.0906982421875,0.270782470703125
284835,-0.0661163330078125,0.089385986328125,-0.22784423828125,0.1259225159883499,0.1787481755018234,-0.1165782809257507,15.99850463867188,83.81916809082031,0.703521728515625
284836,-0.0648956298828125,0.130401611328125,-0.2926177978515625,0.071164458990097,0.3397999107837677,-0.1177591234445572,15.88092041015625,83.704345703125,0.9625396728515624
284837,-0.052947998046875,0.1427459716796875,-0.3381805419921875,0.0307206287980079,0.2473554611206055,-0.1278096288442612,15.80247497558594,83.72908020019531,0.774078369140625
284838,-0.052947998046875,0.1427459716796875,-0.3381805419921875,0.0307206287980079,0.2473554611206055,-0.1278096288442612,15.80247497558594,83.72908020019531,0.774078369140625
284839,-0.044647216796875,0.1508331298828125,-0.3669891357421875,0.0400486178696155,-0.013922207057476,-0.1339519470930099,15.68974304199219,83.88455200195312,0.601226806640625
284840,-0.02923583984375,0.25775146484375,-0.4368743896484375,0.2826426029205322,-0.7084935307502747,-0.0862816274166107,15.54432678222656,83.77975463867188,0.581756591796875
284841,-0.04095458984375,0.3632354736328125,-0.4085540771484375,0.6173476576805115,-1.051775813102722,-0.1118016317486763,15.54191589355469,83.6942138671875,0.931976318359375
284842,-0.04095458984375,0.3632354736328125,-0.4085540771484375,0.6173476576805115,-1.051775813102722,-0.1118016317486763,15.54191589355469,83.6942138671875,0.931976318359375
284843,-0.0727386474609375,0.4818572998046875,-0.2588653564453125,0.6173476576805115,-1.051775813102722,-0.1118016317486763,15.58320617675781,83.92332458496094,1.133514404296875
284844,-0.24365234375,0.754119873046875,0.135650634765625,0.6176410913467407,-0.1745587587356567,-0.4037493467330933,15.34208679199219,84.27763366699219,1.818435668945312
284845,-0.3478240966796875,0.944671630859375,0.23895263671875,0.4806409180164337,0.4658587872982025,-0.7203379273414612,15.13359069824219,84.47206115722656,1.814163208007812
284846,-0.3478240966796875,0.944671630859375,0.23895263671875,0.4806409180164337,0.4658587872982025,-0.7203379273414612,15.13359069824219,84.47206115722656,1.814163208007812
284847,-0.46624755859375,1.247589111328125,0.2560272216796875,0.2719337642192841,0.9837591648101808,-1.253632783889771,14.60589599609375,84.62991333007812,1.326080322265625
284848,-0.952301025390625,1.966995239257812,0.2247314453125,-0.3373207747936249,0.9008044004440308,-2.675866365432739,13.13824462890625,84.28996276855469,0.197235107421875
284849,-1.607513427734375,2.253219604492188,0.54815673828125,-0.7794609069824219,0.497351735830307,-2.419857501983643,12.05740356445312,83.79734802246094,-0.4059600830078125
284850,-1.607513427734375,2.253219604492188,0.54815673828125,-0.7794609069824219,0.497351735830307,-2.419857501983643,12.05740356445312,83.79734802246094,-0.4059600830078125
284851,-2.26715087890625,3.13824462890625,0.9393463134765624,-0.9216223359107972,-0.547833263874054,-0.3680422008037567,10.18650817871094,81.99714660644531,-1.503509521484375
284852,-2.138290405273438,2.776077270507812,1.460128784179688,-0.4374132752418518,-0.9579893946647644,0.0144172888249158,9.9910888671875,81.35699462890625,-1.584442138671875
284853,-1.753341674804688,2.096923828125,1.504852294921875,-0.0246414300054311,-0.4301162362098694,-0.5977225303649902,10.01622009277344,81.11251831054688,-1.16864013671875
284854,-1.753341674804688,2.096923828125,1.504852294921875,-0.0246414300054311,-0.4301162362098694,-0.5977225303649902,10.01622009277344,81.11251831054688,-1.16864013671875
284855,-1.324920654296875,1.505203247070312,1.1102294921875,0.0787621885538101,-0.2348378151655197,-0.661998450756073,10.01339721679688,80.93455505371094,-0.7281036376953125
284856,-1.101577758789062,1.449920654296875,0.4441680908203125,0.7431367039680481,-0.9945055842399596,-0.4509871602058411,9.621902465820312,80.77279663085938,-0.29046630859375
284857,-1.130462646484375,1.65765380859375,0.3756866455078125,0.9352867007255554,-1.191470861434937,-0.3653766512870789,9.483016967773438,80.78610229492188,0.1003265380859375
284858,-1.130462646484375,1.65765380859375,0.3756866455078125,0.9352867007255554,-1.191470861434937,-0.3653766512870789,9.483016967773438,80.78610229492188,0.1003265380859375
284859,-1.064559936523438,1.826202392578125,-0.0101165771484375,1.156065702438354,-0.4085310399532318,0.006982275750488,9.56573486328125,80.64505004882812,0.873687744140625
284860,-0.94091796875,1.535751342773438,-0.237701416015625,1.056640625,-0.1326227635145187,0.1406726986169815,9.801483154296877,80.45878601074219,0.974029541015625
284861,-0.8251495361328125,1.219818115234375,-0.3798675537109375,0.8690515160560608,0.2387619763612747,0.3501651883125305,10.09185791015625,80.41511535644531,0.8854827880859375
284862,-0.8251495361328125,1.219818115234375,-0.3798675537109375,0.8690515160560608,0.2387619763612747,0.3501651883125305,10.09185791015625,80.41511535644531,0.8854827880859375
284863,-0.5869903564453125,0.8287506103515625,-0.601226806640625,0.2970801591873169,0.7393513321876526,0.6852148175239563,10.63002014160156,80.84858703613281,0.0451812744140625
284864,-0.4613800048828125,0.6988372802734375,-0.5286102294921875,0.017642643302679,0.4804475605487823,0.6957305669784546,10.98672485351562,81.0447998046875,-0.339599609375
284865,-0.3940277099609375,0.553253173828125,-0.3356781005859375,-0.2370429039001465,0.2060937732458115,0.6234084367752075,11.42051696777344,81.09904479980469,-0.6179046630859375
284866,-0.37152099609375,0.4138641357421875,-0.202423095703125,-0.3866952359676361,-0.0188783500343561,0.5207017660140991,11.7882080078125,81.26260375976562,-0.666748046875
284867,-0.37152099609375,0.4138641357421875,-0.202423095703125,-0.3866952359676361,-0.0188783500343561,0.5207017660140991,11.7882080078125,81.26260375976562,-0.666748046875
284868,-0.2672119140625,0.1590576171875,-0.111083984375,-0.1055453345179558,-0.4845709502696991,0.6000788807868958,12.95475769042969,81.20574951171875,-0.390228271484375
284869,-0.1890716552734375,0.0703887939453125,-0.092742919921875,-0.1055453345179558,-0.4845709502696991,0.6000788807868958,13.39939880371094,81.11587524414062,-0.224517822265625
284870,-0.1890716552734375,0.0703887939453125,-0.092742919921875,-0.1055453345179558,-0.4845709502696991,0.6000788807868958,13.39939880371094,81.11587524414062,-0.224517822265625
284871,-0.0667266845703125,-0.055999755859375,-0.09234619140625,0.217317134141922,-0.3459435701370239,0.797012448310852,14.28883361816406,81.33695983886719,-0.1363677978515625
284872,0.008819580078125,-0.1312408447265625,-0.2764434814453125,0.3653252422809601,-0.4369709491729736,0.9282407760620116,14.70980834960938,81.51783752441406,-0.05633544921875
284873,0.088409423828125,-0.2188873291015625,-0.48406982421875,0.6342880129814148,-0.8409575819969177,1.120882153511047,15.1588134765625,81.75529479980469,0.125274658203125
284874,0.088409423828125,-0.2188873291015625,-0.48406982421875,0.6342880129814148,-0.8409575819969177,1.120882153511047,15.1588134765625,81.75529479980469,0.125274658203125
284875,0.1441650390625,-0.2537689208984375,-0.4882659912109375,0.9823617935180664,-1.199918866157532,1.341047763824463,15.47406005859375,82.05368041992188,0.29254150390625
284876,0.293304443359375,-0.20660400390625,-0.305694580078125,1.036185622215271,0.3874697089195251,1.442590951919556,16.43267822265625,83.02668762207031,0.82818603515625
284877,0.3144683837890625,-0.0947723388671875,-0.488861083984375,0.9635332822799684,1.138710141181946,1.319237589836121,16.9237060546875,83.64735412597656,0.9344940185546876
284878,0.3144683837890625,-0.0947723388671875,-0.488861083984375,0.9635332822799684,1.138710141181946,1.319237589836121,16.9237060546875,83.64735412597656,0.9344940185546876
284879,0.127410888671875,0.2147369384765625,-0.1576690673828125,0.8043076395988464,0.9889771342277528,0.8526408672332764,17.78219604492188,84.44606018066406,0.999908447265625
284880,0.0236053466796875,0.2479248046875,0.0172882080078125,0.1902825981378555,0.9931172728538512,0.4871528744697571,18.00819396972656,84.84176635742188,0.3903350830078125
284881,-0.038360595703125,0.25396728515625,0.111083984375,0.1902825981378555,0.9931172728538512,0.4871528744697571,18.286376953125,85.05577087402344,-0.2095489501953125
284882,-0.038360595703125,0.25396728515625,0.111083984375,0.1902825981378555,0.9931172728538512,0.4871528744697571,18.286376953125,85.05577087402344,-0.2095489501953125
284883,-0.0839996337890625,0.3134002685546875,0.19049072265625,-0.1100452765822411,1.151939392089844,0.3251248300075531,18.31866455078125,85.32841491699219,-0.6316070556640625
284884,-0.2704620361328125,0.6369781494140625,0.3927154541015625,-0.7611559629440308,1.993864774703979,-0.094784565269947,18.23420715332031,85.6387939453125,-1.710296630859375
284885,-0.425445556640625,0.923187255859375,0.561614990234375,-1.199517250061035,2.714685201644897,-0.4925098419189453,18.06796264648438,85.71284484863281,-2.221267700195312
284886,-0.6525726318359375,1.23541259765625,0.6532440185546875,-1.42792272567749,3.396205186843872,-1.178724646568298,17.8060302734375,85.62138366699219,-2.841461181640625
284887,-0.6525726318359375,1.23541259765625,0.6532440185546875,-1.42792272567749,3.396205186843872,-1.178724646568298,17.8060302734375,85.62138366699219,-2.841461181640625
284888,-1.539169311523438,1.401336669921875,0.9437103271484376,-1.13956606388092,3.456789255142212,-0.7754411101341248,17.05131530761719,84.87641906738281,-4.390350341796875
284889,-1.918701171875,1.442672729492188,0.9490814208984376,-0.7785384058952332,3.261818885803223,0.0985004752874374,16.68096923828125,84.44375610351562,-5.316009521484375
284890,-2.005050659179688,1.728225708007812,0.866973876953125,-0.3969332277774811,2.509913921356201,0.5473142266273499,16.38301086425781,84.19564819335938,-6.286361694335938
284891,-2.005050659179688,1.728225708007812,0.866973876953125,-0.3969332277774811,2.509913921356201,0.5473142266273499,16.38301086425781,84.19564819335938,-6.286361694335938
284892,-1.985397338867188,1.966522216796875,0.959228515625,-0.2682175934314728,1.303380846977234,0.3757259547710419,15.89894104003906,84.28956604003906,-7.875534057617188
284893,-1.496200561523438,1.649322509765625,0.7057952880859375,-0.7162547707557678,1.096463918685913,0.3287632465362549,15.58888244628906,84.58805847167969,-8.482330322265625
284894,-1.040451049804688,1.389495849609375,0.424102783203125,-1.498608946800232,0.0754859670996666,0.1435574293136597,15.253662109375,84.98109436035156,-9.00494384765625
284895,-1.040451049804688,1.389495849609375,0.424102783203125,-1.498608946800232,0.0754859670996666,0.1435574293136597,15.253662109375,84.98109436035156,-9.00494384765625
284896,-0.683319091796875,1.044784545898438,0.2492828369140625,-1.669022798538208,-0.4583885967731476,0.0954026877880096,14.94215393066406,85.29685974121094,-8.97344970703125
284897,-0.62103271484375,0.95062255859375,0.2997283935546875,-1.652061820030212,-0.7259047627449036,0.0332804583013057,14.80656433105469,85.22372436523438,-8.52606201171875
284898,-0.62103271484375,0.95062255859375,0.2997283935546875,-1.652061820030212,-0.7259047627449036,0.0332804583013057,14.80656433105469,85.22372436523438,-8.52606201171875
284899,-0.490081787109375,0.7826080322265625,0.2935791015625,-1.233248353004456,-0.7408618330955505,-0.1786269992589951,14.69425964355469,85.21238708496094,-7.108917236328125
284900,-0.4147186279296875,0.7158660888671875,0.29443359375,-0.983351707458496,-0.505085289478302,-0.2913764417171478,14.71426391601562,85.05584716796875,-6.149261474609375
284901,-0.321380615234375,0.693115234375,0.2085113525390625,-0.7834636569023132,-0.3107235133647919,-0.3681553900241852,14.70195007324219,84.82572937011719,-5.467575073242188
284902,-0.321380615234375,0.693115234375,0.2085113525390625,-0.7834636569023132,-0.3107235133647919,-0.3681553900241852,14.70195007324219,84.82572937011719,-5.467575073242188
284903,-0.2545318603515625,0.6855316162109375,0.11273193359375,-0.6584988236427307,-0.2890139520168304,-0.3967316448688507,14.55014038085938,84.62799072265625,-5.105438232421875
284904,-0.2126922607421875,0.63702392578125,-0.0290679931640625,-0.7516692280769348,-0.4917886555194855,-0.5622097849845886,14.29925537109375,84.15875244140625,-4.32720947265625
284905,-0.1589202880859375,0.6153564453125,-0.2023162841796875,-0.7931444644927979,-0.8975369334220886,-0.689710795879364,14.14683532714844,83.87612915039062,-3.791259765625
284906,-0.1589202880859375,0.6153564453125,-0.2023162841796875,-0.7931444644927979,-0.8975369334220886,-0.689710795879364,14.14683532714844,83.87612915039062,-3.791259765625
284907,-0.0772552490234375,0.5849151611328125,-0.3427886962890625,-0.6958426833152771,-1.529569745063782,-0.7379534244537354,14.03738403320312,83.40435791015625,-3.21234130859375
284908,-0.00518798828125,0.5368194580078125,-0.33404541015625,-0.1451089829206467,-2.280802965164185,-0.4985418915748596,13.79364013671875,83.1187744140625,-2.485397338867188
284909,0.0380401611328125,0.3973541259765625,-0.1146087646484375,0.1867653578519821,-1.992224812507629,-0.2413598895072937,13.28373718261719,82.34162902832031,-0.5260009765625
284910,0.0123291015625,0.3277740478515625,-0.10150146484375,0.5264571309089661,-1.398229122161865,-0.0022940470371395,13.19320678710938,82.17913818359375,0.521392822265625
284911,0.0123291015625,0.3277740478515625,-0.10150146484375,0.5264571309089661,-1.398229122161865,-0.0022940470371395,13.19320678710938,82.17913818359375,0.521392822265625
284912,-0.06695556640625,0.1650848388671875,-0.215972900390625,0.8484194874763489,-0.1899939030408859,0.1803242266178131,13.36001586914062,82.39152526855469,1.795211791992188
284913,-0.0572357177734375,0.15283203125,-0.3158416748046875,0.5610489249229431,-0.0143943857401609,0.1145324409008026,13.42948913574219,82.40486145019531,2.132247924804688
284914,-0.047088623046875,0.1907806396484375,-0.411346435546875,0.5610489249229431,-0.0143943857401609,0.1145324409008026,13.53157043457031,82.56523132324219,2.153823852539062
284915,-0.047088623046875,0.1907806396484375,-0.411346435546875,0.5610489249229431,-0.0143943857401609,0.1145324409008026,13.53157043457031,82.56523132324219,2.153823852539062
284916,-0.0852203369140625,0.325958251953125,-0.422332763671875,0.1766200363636017,-0.5528969764709473,-0.0325502194464206,13.76304626464844,82.78056335449219,1.823516845703125
284917,-0.1152496337890625,0.3426666259765625,-0.3661041259765625,0.1729819029569626,-0.6983327865600586,-0.0240374263375997,13.94447326660156,82.74191284179688,1.815521240234375
284918,-0.1106109619140625,0.3804779052734375,-0.3197174072265625,0.57152259349823,-0.4967165589332581,-0.0651291981339454,14.08778381347656,82.82879638671875,1.829483032226562
284919,-0.1106109619140625,0.3804779052734375,-0.3197174072265625,0.57152259349823,-0.4967165589332581,-0.0651291981339454,14.08778381347656,82.82879638671875,1.829483032226562
284920,-0.185760498046875,0.4349822998046875,-0.21435546875,0.7970407009124756,-0.2794060707092285,-0.1581230610609055,14.21673583984375,83.175048828125,2.151229858398438
284921,-0.2842254638671875,0.502410888671875,-0.190216064453125,0.9184001684188844,-0.0961837917566299,-0.2758377194404602,14.30610656738281,83.29034423828125,2.217514038085938
284922,-0.2842254638671875,0.502410888671875,-0.190216064453125,0.9184001684188844,-0.0961837917566299,-0.2758377194404602,14.30610656738281,83.29034423828125,2.217514038085938
284923,-0.395751953125,0.61700439453125,-0.14117431640625,0.7167895436286926,0.1980683505535126,-0.7945780754089355,14.11610412597656,83.45068359375,2.143386840820312
284924,-0.6367340087890625,0.9905242919921876,0.1012115478515625,0.4035932719707489,0.4752733111381531,-1.203876376152039,13.51289367675781,84.0506591796875,1.47247314453125
284925,-0.7430267333984375,1.221511840820312,0.2437286376953125,-0.0236137174069881,0.8842775821685791,-1.624705910682678,12.991455078125,84.06629943847656,1.29376220703125
284926,-0.832366943359375,1.469024658203125,0.3437347412109375,-1.336631774902344,1.353415489196777,-1.62338924407959,12.35662841796875,84.0084228515625,0.780242919921875
284927,-0.832366943359375,1.469024658203125,0.3437347412109375,-1.336631774902344,1.353415489196777,-1.62338924407959,12.35662841796875,84.0084228515625,0.780242919921875
284928,-1.517776489257812,2.031478881835938,0.700408935546875,-2.30148458480835,0.3782711327075958,0.3556078970432281,10.62977600097656,83.27413940429688,-0.312591552734375
284929,-1.892807006835938,2.609451293945312,0.958465576171875,-2.30148458480835,0.3782711327075958,0.3556078970432281,9.861587524414062,82.83778381347656,-0.903472900390625
284930,-2.11920166015625,2.587997436523438,1.326019287109375,-1.710533738136292,-0.2510010600090027,0.6371748447418213,9.5927734375,82.45317077636719,-1.214035034179688
284931,-2.11920166015625,2.587997436523438,1.326019287109375,-1.710533738136292,-0.2510010600090027,0.6371748447418213,9.5927734375,82.45317077636719,-1.214035034179688
284932,-1.770782470703125,1.840774536132812,1.743896484375,-0.2710248529911041,0.7802894115447998,0.1571925431489944,10.14163208007812,81.97566223144531,-0.6435089111328125
284933,-1.582168579101562,1.436782836914062,1.278045654296875,-0.0814879313111305,1.59299111366272,-0.0468543246388435,10.35110473632812,81.96739196777344,-0.2879791259765625
284934,-1.480575561523438,1.260986328125,0.5753936767578125,0.1540436297655106,1.50875449180603,-0.0735959261655807,10.21846008300781,81.99687194824219,-0.4268798828125
284935,-1.480575561523438,1.260986328125,0.5753936767578125,0.1540436297655106,1.50875449180603,-0.0735959261655807,10.21846008300781,81.99687194824219,-0.4268798828125
284936,-1.051513671875,1.404739379882812,0.092041015625,0.5028164982795715,-0.418230801820755,0.0666227042675018,9.374267578125,82.14004516601562,-1.4813232421875
284937,-0.9410858154296876,1.429733276367188,0.2357635498046875,0.483530193567276,-0.9230191111564636,0.0508863516151905,9.066604614257812,82.21458435058594,-1.644302368164062
284938,-0.75421142578125,1.568099975585938,0.3035125732421875,0.3018125891685486,-0.5174676179885864,0.1190241277217865,8.848480224609375,82.31974792480469,-1.480255126953125
284939,-0.75421142578125,1.568099975585938,0.3035125732421875,0.3018125891685486,-0.5174676179885864,0.1190241277217865,8.848480224609375,82.31974792480469,-1.480255126953125
284940,-0.461456298828125,1.741455078125,-0.0701904296875,0.2592454254627228,0.7492585182189941,0.4664257764816284,9.3453369140625,82.00215148925781,-0.615570068359375
284941,-0.469940185546875,1.250885009765625,-0.1299896240234375,0.2995273172855377,0.8403924107551575,0.4384505748748779,9.7618408203125,81.66415405273438,-0.4148712158203125
284942,-0.510498046875,0.8826904296875,-0.1093292236328125,0.2995273172855377,0.8403924107551575,0.4384505748748779,10.079833984375,81.52920532226562,-0.56365966796875
284943,-0.501800537109375,0.6743316650390625,-0.1238555908203125,0.2795429527759552,0.8438625335693359,0.4073395431041718,10.35990905761719,81.59286499023438,-0.87579345703125
284944,-0.4553375244140625,0.5169830322265625,-0.1463775634765625,0.2363251894712448,0.7880954146385193,0.4005351662635803,10.65266418457031,81.69638061523438,-0.981353759765625
284945,-0.3911590576171875,0.3917694091796875,-0.202880859375,0.1930078119039536,0.6190243363380432,0.429587334394455,10.896484375,81.75955200195312,-1.2786865234375
284946,-0.32470703125,0.2928619384765625,-0.2670135498046875,0.1602237522602081,0.0717258527874946,0.5651859045028687,11.17259216308594,81.80201721191406,-1.821029663085938
284947,-0.2739715576171875,0.2140655517578125,-0.31048583984375,0.1602237522602081,0.0717258527874946,0.5651859045028687,11.49760437011719,81.72406005859375,-2.418258666992188
284948,-0.2181854248046875,0.136077880859375,-0.3387908935546875,0.1658984273672104,-0.2487488240003586,0.6229349374771118,11.80186462402344,81.81016540527344,-2.695877075195312
284949,-0.1507568359375,0.0621490478515625,-0.367340087890625,0.1896101385354996,-0.6138985753059387,0.7089782357215881,12.21418762207031,81.87968444824219,-2.730133056640625
284950,-0.088714599609375,0.0118408203125,-0.3543243408203125,0.294163703918457,-1.177569627761841,0.9342384934425354,12.55479431152344,81.97673034667969,-2.8052978515625
284951,-0.034698486328125,-0.0506439208984375,-0.3725433349609375,0.4383384585380554,-1.345943212509155,1.06123960018158,13.00546264648438,82.07037353515625,-2.58636474609375
284952,0.00946044921875,-0.08154296875,-0.3799591064453125,0.4383384585380554,-1.345943212509155,1.06123960018158,13.43638610839844,82.3013916015625,-2.407943725585938
284953,0.0508575439453125,-0.0839080810546875,-0.3408050537109375,0.6289047002792358,-1.31006133556366,1.15162456035614,13.89082336425781,82.66693115234375,-2.078720092773438
284954,0.0508575439453125,-0.0839080810546875,-0.3408050537109375,0.6289047002792358,-1.31006133556366,1.15162456035614,13.89082336425781,82.66693115234375,-2.078720092773438
284955,0.2328948974609375,-0.0806121826171875,-0.2565460205078125,0.8058850765228271,0.9398543238639832,1.111942768096924,14.84617614746094,83.39176940917969,-1.19622802734375
284956,0.2492828369140625,0.00653076171875,-0.3096466064453125,0.8058850765228271,0.9398543238639832,1.111942768096924,15.31411743164062,83.84866333007812,-0.8919830322265625
284957,0.178802490234375,0.159912109375,-0.2600555419921875,0.8105956315994263,1.196823000907898,0.951827108860016,15.73225402832031,84.21282958984375,-0.7587738037109375
284958,0.102264404296875,0.262115478515625,-0.1672515869140625,0.7496145963668823,1.201560258865356,0.7421814203262329,16.0953369140625,84.53413391113281,-1.128997802734375
284959,0.102264404296875,0.262115478515625,-0.1672515869140625,0.7496145963668823,1.201560258865356,0.7421814203262329,16.0953369140625,84.53413391113281,-1.128997802734375
284960,-0.021331787109375,0.3559112548828125,-0.0089111328125,0.4915668070316315,1.145521998405457,0.4630914926528931,16.58790588378906,85.38668823242188,-2.462158203125
284961,-0.0733795166015625,0.39605712890625,0.075286865234375,0.3540286421775818,1.308513045310974,0.3946107029914856,16.69918823242188,85.7862548828125,-3.037445068359375
284962,-0.125640869140625,0.45458984375,0.1593475341796875,0.2001490741968155,1.65202271938324,0.3465518355369568,16.6866455078125,86.08970642089844,-3.66912841796875
284963,-0.182891845703125,0.550689697265625,0.280792236328125,-0.3652133941650391,2.973851919174194,0.1433310657739639,16.61041259765625,86.09451293945312,-4.235504150390625
284964,-0.25030517578125,0.707763671875,0.4378662109375,-0.3652133941650391,2.973851919174194,0.1433310657739639,16.66654968261719,86.17570495605469,-4.87066650390625
284965,-0.354095458984375,0.9398040771484376,0.5317230224609375,-0.8417786359786987,3.8144690990448,-0.1130490601062775,16.72262573242188,86.21405029296875,-5.589630126953125
284966,-0.548492431640625,1.168701171875,0.49334716796875,-1.078479886054993,3.969666004180908,-0.3074185252189636,16.70956420898438,86.23138427734375,-6.641159057617188
284967,-0.548492431640625,1.168701171875,0.49334716796875,-1.078479886054993,3.969666004180908,-0.3074185252189636,16.70956420898438,86.23138427734375,-6.641159057617188
284968,-1.234375,1.661544799804688,0.6497955322265625,-0.6343804001808167,2.656703948974609,-0.3500680029392242,16.64474487304688,86.04586791992188,-8.663650512695312
284969,-1.59368896484375,1.855194091796875,0.8233795166015625,-0.1499223858118057,1.819509148597717,-0.2784121930599213,16.67765808105469,85.80552673339844,-9.595138549804688
284970,-2.046051025390625,1.95562744140625,1.177505493164062,0.1253802925348282,1.617179274559021,0.0602657385170459,16.45315551757812,85.89349365234375,-11.54692077636719
284971,-2.046051025390625,1.95562744140625,1.177505493164062,0.1253802925348282,1.617179274559021,0.0602657385170459,16.45315551757812,85.89349365234375,-11.54692077636719
284972,-2.1170654296875,1.723770141601562,1.123641967773438,-0.318891704082489,2.353161096572876,0.3291563093662262,16.1619873046875,86.16963195800781,-12.4775390625
284973,-1.667877197265625,1.424072265625,0.679901123046875,-0.9508838057518004,2.72056245803833,0.284785658121109,15.92282104492188,86.27186584472656,-13.40408325195312
284974,-0.953338623046875,1.010986328125,-0.0713348388671875,-1.581572532653809,0.9895078539848328,0.191804051399231,15.44021606445312,86.67654418945312,-14.9151611328125
284975,-0.953338623046875,1.010986328125,-0.0713348388671875,-1.581572532653809,0.9895078539848328,0.191804051399231,15.44021606445312,86.67654418945312,-14.9151611328125
284976,-0.706024169921875,0.92144775390625,-0.513519287109375,-1.596233725547791,-0.4719952344894409,0.257920503616333,15.30987548828125,86.80380249023438,-15.34140014648438
284977,-0.5700836181640625,0.9374847412109376,-0.48004150390625,-1.498687982559204,-2.08440375328064,0.2739905416965485,15.10185241699219,86.88429260253906,-15.2967529296875
284978,-0.547943115234375,0.9862518310546876,0.11773681640625,-1.409100413322449,-2.338697671890259,0.1396785378456116,14.85581970214844,87.13703918457031,-14.91490173339844
284979,-0.547943115234375,0.9862518310546876,0.11773681640625,-1.409100413322449,-2.338697671890259,0.1396785378456116,14.85581970214844,87.13703918457031,-14.91490173339844
284980,-0.341888427734375,0.7968597412109375,0.391815185546875,-1.182077050209045,-0.5377705097198486,-0.1553688198328018,14.34585571289062,87.48663330078125,-12.57640075683594
284981,-0.2261199951171875,0.6276397705078125,0.271270751953125,-0.9417778849601746,0.1124921888113022,-0.1536827683448792,14.15223693847656,87.43450927734375,-11.16812133789062
284982,-0.15875244140625,0.52264404296875,0.1831512451171875,-0.7052527070045471,0.4686476290225983,-0.1150429621338844,14.12875366210938,87.179931640625,-10.18434143066406
284983,-0.15875244140625,0.52264404296875,0.1831512451171875,-0.7052527070045471,0.4686476290225983,-0.1150429621338844,14.12875366210938,87.179931640625,-10.18434143066406
284984,-0.0865631103515625,0.3905029296875,0.05029296875,-0.436650812625885,0.601020336151123,0.0543953329324722,14.0592041015625,86.83769226074219,-9.324050903320312
284985,-0.104583740234375,0.429351806640625,0.0251617431640625,-0.4444714486598969,0.5129983425140381,0.0391881503164768,14.09030151367188,86.65167236328125,-9.117523193359377
284986,-0.1136016845703125,0.4936981201171875,0.0208740234375,-0.6629974246025085,0.2095705419778824,-0.0288609433919191,14.15054321289062,86.52705383300781,-9.0635986328125
284987,-0.1027374267578125,0.602813720703125,-0.0285186767578125,-0.8177196383476257,-0.2146917879581451,0.0719482228159904,14.09800720214844,86.35101318359375,-8.997482299804688
284988,-0.1195526123046875,0.782928466796875,-0.1795806884765625,-0.8177196383476257,-0.2146917879581451,0.0719482228159904,14.1419677734375,86.20240783691406,-8.882431030273438
284989,-0.1291351318359375,0.960052490234375,-0.3596954345703125,-0.8791360855102539,-0.9326816201210022,0.084385722875595,14.02809143066406,85.92842102050781,-8.638595581054688
284990,-0.0647125244140625,0.942626953125,-0.3736572265625,-0.3153129518032074,-2.286893367767334,-0.0662812888622283,13.90324401855469,85.75941467285156,-8.334365844726562
284991,-0.0647125244140625,0.942626953125,-0.3736572265625,-0.3153129518032074,-2.286893367767334,-0.0662812888622283,13.90324401855469,85.75941467285156,-8.334365844726562
284992,0.0292205810546875,0.5759429931640625,-0.053924560546875,0.3182128667831421,-2.146027803421021,-0.0022676817607134,13.78965759277344,85.75921630859375,-6.956680297851562
284993,-0.022125244140625,0.3934173583984375,0.0360107421875,0.9900516867637634,-1.272554755210876,0.1354664862155914,13.77102661132812,85.76899719238281,-5.805419921875
284994,-0.0700225830078125,0.242919921875,0.0112762451171875,1.438111543655396,1.534964323043823,0.2742800116539001,13.73295593261719,85.90315246582031,-4.859954833984375
284995,-0.0700225830078125,0.242919921875,0.0112762451171875,1.438111543655396,1.534964323043823,0.2742800116539001,13.73295593261719,85.90315246582031,-4.859954833984375
284996,0.0263214111328125,0.085845947265625,-0.525360107421875,1.279314398765564,2.053390741348267,0.3815705180168152,13.87127685546875,85.89643859863281,-4.561691284179688
284997,0.066650390625,0.1117401123046875,-0.66168212890625,0.9899092316627502,1.622411012649536,0.4417952597141266,14.13821411132812,86.21340942382812,-6.300216674804688
284998,0.03546142578125,0.11761474609375,-0.5361328125,0.6272527575492859,0.8403487801551819,0.4164422154426575,14.29875183105469,86.38395690917969,-7.446640014648438
284999,0.03546142578125,0.11761474609375,-0.5361328125,0.6272527575492859,0.8403487801551819,0.4164422154426575,14.29875183105469,86.38395690917969,-7.446640014648438
285000,-0.0323486328125,0.1348724365234375,-0.1885528564453125,0.2266083806753159,-0.2316755652427673,0.1994622349739075,14.91311645507812,86.53741455078125,-8.534896850585938
285001,-0.0445098876953125,0.156585693359375,-0.1285552978515625,0.1950571089982986,-0.4820987284183502,0.0651094913482666,15.0784912109375,86.71664428710938,-8.634048461914062
285002,-0.0566558837890625,0.2405242919921875,-0.0767822265625,0.2152302861213684,-0.6263771057128906,-0.0961683467030525,15.2041015625,86.84907531738281,-8.545852661132812
285003,-0.0980072021484375,0.387664794921875,-0.0298309326171875,0.2241633236408234,-0.6771995425224304,-0.2482652068138123,15.11373901367188,87.00198364257812,-8.2861328125
285004,-0.1914520263671875,0.6030731201171875,0.0195159912109375,0.1903350502252579,-0.6451787352561951,-0.5050508975982666,15.01271057128906,87.02273559570312,-7.928573608398438
285005,-0.292144775390625,0.86517333984375,0.035491943359375,0.1016097143292427,-0.6055938005447388,-0.9344403743743896,14.66331481933594,87.1778564453125,-7.87359619140625
285006,-0.38397216796875,1.148651123046875,0.041717529296875,-0.0412441082298755,-0.6411488652229309,-1.484881162643433,14.24992370605469,87.10926818847656,-7.7049560546875
285007,-0.38397216796875,1.148651123046875,0.041717529296875,-0.0412441082298755,-0.6411488652229309,-1.484881162643433,14.24992370605469,87.10926818847656,-7.7049560546875
285008,-0.5297088623046875,1.766082763671875,0.2287445068359375,-0.5835657119750977,-0.7717308402061462,-2.58396577835083,12.64683532714844,86.40121459960938,-7.333221435546875
285009,-0.8337249755859375,2.424667358398438,0.4219818115234375,-0.7839733958244324,-0.8807715773582458,-2.946352481842041,11.49858093261719,85.72799682617188,-7.057388305664062
285010,-1.703216552734375,3.40777587890625,0.8915252685546875,-0.6877879500389099,-0.596844494342804,-2.54371166229248,10.07247924804688,84.95936584472656,-6.625946044921875
285011,-1.703216552734375,3.40777587890625,0.8915252685546875,-0.6877879500389099,-0.596844494342804,-2.54371166229248,10.07247924804688,84.95936584472656,-6.625946044921875
285012,-2.729354858398438,3.67376708984375,1.178924560546875,-0.1396777331829071,0.8291754722595215,-0.423766702413559,7.76666259765625,83.18742370605469,-6.04437255859375
285013,-2.035812377929688,2.605682373046875,1.105606079101562,0.0395953468978405,0.2252126187086105,-0.4054047465324402,7.725860595703125,82.56871032714844,-6.018814086914062
285014,-1.688400268554688,1.89898681640625,1.000732421875,-0.1808709800243378,0.0410659424960613,-0.2867244482040405,7.832290649414062,82.13812255859375,-6.0626220703125
285015,-1.688400268554688,1.89898681640625,1.000732421875,-0.1808709800243378,0.0410659424960613,-0.2867244482040405,7.832290649414062,82.13812255859375,-6.0626220703125
285016,-1.185089111328125,1.758956909179688,0.08642578125,0.4046990275382996,-0.0871271789073944,0.1661644726991653,7.849884033203125,82.11793518066406,-6.008270263671875
285017,-1.045654296875,1.797561645507812,-0.0382843017578125,0.8276076912879944,-0.0703199654817581,0.2375382483005524,7.795852661132812,82.14790344238281,-6.078079223632812
285018,-0.9012298583984376,1.656707763671875,-0.1760101318359375,0.9341647028923036,0.2230224311351776,0.2964263260364532,8.090850830078125,82.24407958984375,-6.309005737304688
285019,-0.75775146484375,1.457504272460938,-0.412811279296875,0.8046131134033203,0.4196731746196747,0.3840784132480621,8.43792724609375,82.31175231933594,-6.733352661132812
285020,-0.6149444580078125,1.212417602539062,-0.5512542724609375,0.5422717928886414,0.4208675920963287,0.4852415323257446,8.946075439453125,82.22990417480469,-7.085784912109375
285021,-0.485687255859375,0.9863433837890624,-0.5244598388671875,0.2363859117031097,0.2645602822303772,0.5750723481178284,9.442596435546877,82.29875183105469,-7.459030151367188
285022,-0.4378509521484375,0.786529541015625,-0.3692474365234375,-0.022349514067173,0.1199919208884239,0.5922033786773682,9.907928466796877,82.50570678710938,-7.887924194335938
285023,-0.4251861572265625,0.601348876953125,-0.2384033203125,-0.2273047864437103,-0.0063082296401262,0.556196928024292,10.32182312011719,82.77174377441406,-8.215972900390625
285024,-0.423370361328125,0.4645843505859375,-0.140838623046875,-0.3511476516723633,-0.1516928523778915,0.5269412994384766,10.68289184570312,83.04684448242188,-8.246124267578125
285025,-0.4197998046875,0.353912353515625,-0.04833984375,-0.4047320485115051,-0.2451900541782379,0.5227910280227661,11.14041137695312,83.16987609863281,-8.20123291015625
285026,-0.3835906982421875,0.2502288818359375,-0.02008056640625,-0.4047320485115051,-0.2451900541782379,0.5227910280227661,11.56900024414062,83.23750305175781,-8.072998046875
285027,-0.3835906982421875,0.2502288818359375,-0.02008056640625,-0.4047320485115051,-0.2451900541782379,0.5227910280227661,11.56900024414062,83.23750305175781,-8.072998046875
285028,-0.2633056640625,0.0827789306640625,-0.033966064453125,-0.1452482789754868,-0.272454172372818,0.5887649655342102,12.68702697753906,83.19776916503906,-7.525146484375
285029,-0.199310302734375,-0.0054779052734375,-0.0355377197265625,-0.0604194030165672,-0.2534586191177368,0.6288008093833923,13.11502075195312,83.18130493164062,-7.442291259765625
285030,-0.142120361328125,-0.0740203857421875,-0.0827789306640625,0.0407950989902019,-0.2348593771457672,0.6912245154380798,13.41940307617188,83.33544921875,-7.587860107421875
285031,-0.0950775146484375,-0.124359130859375,-0.1247711181640625,0.1748735457658768,-0.2014596164226532,0.7496995329856873,13.77883911132812,83.54817199707031,-7.537551879882812
285032,-0.0464935302734375,-0.182891845703125,-0.184600830078125,0.3326133787631989,-0.160494863986969,0.816807746887207,14.15045166015625,83.80909729003906,-7.44775390625
285033,0.01141357421875,-0.2331695556640625,-0.3028564453125,0.5569652318954468,-0.2053305208683014,0.9323556423187256,14.43231201171875,84.13714599609375,-7.482070922851562
285034,0.0569000244140625,-0.2469329833984375,-0.3769989013671875,0.8313507437705994,-0.3854243755340576,1.086628556251526,14.61775207519531,84.48582458496094,-7.5902099609375
285035,0.0569000244140625,-0.2469329833984375,-0.3769989013671875,0.8313507437705994,-0.3854243755340576,1.086628556251526,14.61775207519531,84.48582458496094,-7.5902099609375
285036,0.0800018310546875,-0.1103057861328125,-0.257904052734375,1.162025332450867,-0.329019159078598,1.253153681755066,15.08407592773438,85.06277465820312,-7.5264892578125
285037,0.1170806884765625,-0.0140533447265625,-0.2053985595703125,1.103689074516296,0.0834757164120674,1.164966225624084,15.37388610839844,85.65521240234375,-7.703903198242188
285038,0.1709747314453125,0.062164306640625,-0.2329864501953125,0.7041925191879272,0.9470933079719543,0.8238896131515503,15.70207214355469,86.01206970214844,-7.925018310546875
285039,0.1709747314453125,0.062164306640625,-0.2329864501953125,0.7041925191879272,0.9470933079719543,0.8238896131515503,15.70207214355469,86.01206970214844,-7.925018310546875
285040,0.09466552734375,0.2253875732421875,-0.07440185546875,0.3195739984512329,1.307476758956909,0.4796867072582245,16.37779235839844,86.69880676269531,-8.822616577148438
285041,-0.0004730224609375,0.2763519287109375,0.1199951171875,0.1180563345551491,1.713434457778931,0.3129232823848724,16.61820983886719,86.96873474121094,-9.327774047851562
285042,-0.05731201171875,0.3409423828125,0.2812347412109375,0.1180563345551491,1.713434457778931,0.3129232823848724,16.84556579589844,87.18147277832031,-9.769882202148438
285043,-0.05731201171875,0.3409423828125,0.2812347412109375,0.1180563345551491,1.713434457778931,0.3129232823848724,16.84556579589844,87.18147277832031,-9.769882202148438
285044,-0.1864166259765625,0.57904052734375,0.417938232421875,-0.4548007845878601,2.898049592971802,-0.0504562482237815,16.96794128417969,87.40876770019531,-10.82496643066406
285045,-0.28070068359375,0.7643890380859375,0.4964141845703125,-0.8985098004341125,3.519631385803223,-0.3159739375114441,16.96434020996094,87.394775390625,-11.60244750976562
285046,-0.4327239990234375,0.9821929931640624,0.533294677734375,-1.296412944793701,3.868062019348145,-0.5881553888320923,16.96818542480469,87.30596923828125,-12.66145324707031
285047,-0.4327239990234375,0.9821929931640624,0.533294677734375,-1.296412944793701,3.868062019348145,-0.5881553888320923,16.96818542480469,87.30596923828125,-12.66145324707031
285048,-1.000442504882812,1.398468017578125,0.70953369140625,-1.208635210990906,3.286715984344482,-0.6066190600395203,17.01417541503906,87.03294372558594,-14.75709533691406
