time_idx,accelerometerAccelerationX(G),accelerometerAccelerationY(G),accelerometerAccelerationZ(G),gyroRotationX(rad/s),gyroRotationY(rad/s),gyroRotationZ(rad/s),magnetometerX(µT),magnetometerY(µT),magnetometerZ(µT)
249488,0.1329803466796875,0.678375244140625,-0.0044097900390625,0.6276876330375671,0.848934531211853,0.4989232420921326,63.40692138671875,101.1830596923828,-14.04634094238281
249489,0.160858154296875,0.71826171875,-0.04168701171875,0.3537402153015137,0.8961265087127686,0.4874948263168335,63.54348754882812,101.2739868164062,-14.31303405761719
249490,0.18896484375,0.8708953857421875,-0.14349365234375,0.1321742832660675,0.9604495763778688,0.3872566521167755,63.69776916503906,101.2824859619141,-14.55674743652344
249491,0.2072601318359375,1.059173583984375,-0.29339599609375,-0.0880731344223022,0.8646487593650818,-0.0108225541189312,63.80476379394531,101.21533203125,-14.52235412597656
249492,0.168548583984375,1.245819091796875,-0.40692138671875,-0.0880731344223022,0.8646487593650818,-0.0108225541189312,63.8431396484375,101.2531433105469,-14.42372131347656
249493,0.063201904296875,1.37445068359375,-0.3711700439453125,-0.19686059653759,0.7557417154312134,-0.176296204328537,63.88540649414062,101.1044616699219,-14.40011596679688
249494,0.063201904296875,1.37445068359375,-0.3711700439453125,-0.19686059653759,0.7557417154312134,-0.176296204328537,63.88540649414062,101.1044616699219,-14.40011596679688
249495,-0.1167144775390625,1.537918090820312,-0.0924835205078125,-0.248717412352562,0.7248903512954712,-0.2003594636917114,63.77503967285156,101.1307678222656,-14.09516906738281
249496,-0.1890411376953125,1.611404418945312,-0.034820556640625,-0.2390080541372299,0.7055299282073975,-0.2214311957359314,63.70878601074219,101.1495819091797,-13.99658203125
249497,-0.2515869140625,1.577789306640625,-0.0625152587890625,-0.0966091006994247,0.6696004271507263,-0.1996044516563416,63.48556518554688,101.2155151367188,-13.68653869628906
249498,-0.2670440673828125,1.367324829101562,-0.1185455322265625,0.1531267017126083,0.6527413129806519,-0.0977257639169693,63.3492431640625,101.3841247558594,-13.51856994628906
249499,-0.2037353515625,1.158416748046875,-0.1354522705078125,0.4764595031738281,0.6762884259223938,0.0056219329126179,63.17886352539062,101.4589233398438,-13.52781677246094
249500,-0.1527557373046875,1.016616821289062,-0.117645263671875,0.4764595031738281,0.6762884259223938,0.0056219329126179,63.09310913085938,101.2864990234375,-13.55728149414062
249501,-0.114166259765625,0.8755645751953125,-0.114044189453125,0.4926983714103699,0.6548811793327332,0.0255562253296375,63.1314697265625,101.4534454345703,-13.56004333496094
249502,-0.075836181640625,0.748870849609375,-0.108001708984375,0.4393304884433746,0.6212552785873413,0.0521502867341041,63.03396606445312,101.4996337890625,-13.59402465820312
249503,-0.038482666015625,0.653472900390625,-0.1525115966796875,0.2177520394325256,0.6016072630882263,0.0745314955711364,63.08494567871094,101.4909820556641,-13.87901306152344
249504,-0.038482666015625,0.653472900390625,-0.1525115966796875,0.2177520394325256,0.6016072630882263,0.0745314955711364,63.08494567871094,101.4909820556641,-13.87901306152344
249505,-0.0443572998046875,0.699920654296875,-0.1865997314453125,0.1291433423757553,0.5240978598594666,0.0534661561250686,63.13812255859375,101.4227905273438,-14.01408386230469
249506,-0.0582733154296875,0.79302978515625,-0.19561767578125,0.0828994140028953,0.3907176852226257,0.0013699301052838,63.07028198242188,101.366455078125,-14.02743530273438
249507,-0.0611114501953125,0.8759613037109375,-0.1847991943359375,0.0980735719203949,0.1922187060117722,-0.1094689667224884,63.09614562988281,101.2862396240234,-14.201416015625
249508,-0.0418243408203125,0.908477783203125,-0.179351806640625,0.1601193696260452,0.1710644215345383,-0.1486475318670273,63.1209716796875,101.3047637939453,-14.26123046875
249509,-0.015533447265625,0.9018707275390624,-0.1803131103515625,0.2390024662017822,0.2095420360565186,-0.1705123484134674,63.10214233398438,101.3271331787109,-14.27264404296875
249510,-0.0202178955078125,0.822662353515625,-0.137176513671875,0.2971597611904144,0.3064704537391663,-0.1739062815904617,62.95915222167969,101.3171081542969,-14.03208923339844
249511,-0.0202178955078125,0.822662353515625,-0.137176513671875,0.2971597611904144,0.3064704537391663,-0.1739062815904617,62.95915222167969,101.3171081542969,-14.03208923339844
249512,-0.07073974609375,0.7890625,-0.0886688232421875,0.293081670999527,0.449318140745163,-0.1520068496465683,62.82475280761719,101.3416137695312,-14.20683288574219
249513,-0.1366729736328125,0.7836456298828125,-0.046478271484375,0.246527224779129,0.5786125063896179,-0.130382239818573,62.7589111328125,101.3392181396484,-14.32733154296875
249514,-0.1991729736328125,0.7915802001953125,0.0051116943359375,0.1670582294464111,0.7326683402061462,-0.1255398094654083,62.73188781738281,101.4938507080078,-14.48466491699219
249515,-0.2568206787109375,0.8021240234375,0.0319671630859375,0.0673004761338233,0.9116937518119812,-0.1375804990530014,62.645751953125,101.4195556640625,-14.461181640625
249516,-0.3049774169921875,0.8098602294921875,0.02069091796875,-0.0203689206391573,1.052132129669189,-0.165814533829689,62.59744262695312,101.3908996582031,-14.30485534667969
249517,-0.3367919921875,0.7942657470703125,-0.0224456787109375,-0.0820357501506805,1.090693116188049,-0.2084805071353912,62.51353454589844,101.4388732910156,-14.20938110351562
249518,-0.3547210693359375,0.74810791015625,-0.0777130126953125,-0.0945563316345214,0.9894492626190186,-0.2360271811485291,62.52726745605469,101.4466705322266,-14.17083740234375
249519,-0.350128173828125,0.6761322021484375,-0.111114501953125,0.0110649019479751,0.5982722043991089,-0.1428700685501099,62.52532958984375,101.5230255126953,-14.03593444824219
249520,-0.3033447265625,0.615081787109375,-0.10223388671875,0.0110649019479751,0.5982722043991089,-0.1428700685501099,62.42330932617188,101.5924224853516,-13.79698181152344
249521,-0.20318603515625,0.599395751953125,-0.063323974609375,0.0526179373264312,0.464849978685379,-0.0981838256120681,62.33636474609375,101.4988250732422,-13.60334777832031
249522,-0.1125030517578125,0.5973968505859375,-0.013916015625,0.0270396061241626,0.4165780544281006,-0.0989207178354263,62.26731872558594,101.4986267089844,-13.5615234375
249523,-0.0509185791015625,0.5876922607421875,0.0203094482421875,-0.0351033918559551,0.4253776669502258,-0.1122543662786484,62.23625183105469,101.5974884033203,-13.55194091796875
249524,-0.0165252685546875,0.5830078125,0.037445068359375,-0.0998094156384468,0.4646537005901337,-0.1501775234937668,62.15281677246094,101.6136779785156,-13.44059753417969
249525,-0.019012451171875,0.5940399169921875,0.035186767578125,-0.1251523196697235,0.5218693017959595,-0.2033683061599731,62.04402160644531,101.6181640625,-13.4000244140625
249526,-0.019012451171875,0.5940399169921875,0.035186767578125,-0.1251523196697235,0.5218693017959595,-0.2033683061599731,62.04402160644531,101.6181640625,-13.4000244140625
249527,-0.1073760986328125,0.6015777587890625,-0.104705810546875,0.0376176834106445,0.4693379402160645,-0.2755679190158844,62.04855346679688,101.3979034423828,-13.25859069824219
249528,-0.137908935546875,0.6189727783203125,-0.19256591796875,0.0376176834106445,0.4693379402160645,-0.2755679190158844,61.91424560546875,101.3577117919922,-13.06874084472656
249529,-0.167816162109375,0.6604461669921875,-0.2496490478515625,0.1283933967351913,0.4057690799236298,-0.3038762509822845,61.82078552246094,101.4633941650391,-12.8902587890625
249530,-0.201141357421875,0.72796630859375,-0.259521484375,0.2065595686435699,0.4175511598587036,-0.3608311712741852,61.68682861328125,101.4395294189453,-12.77413940429688
249531,-0.23089599609375,0.8109283447265625,-0.24713134765625,0.279334157705307,0.5789768099784851,-0.4200374782085419,61.58853149414062,101.5358276367188,-12.69271850585938
249532,-0.258270263671875,0.908905029296875,-0.254730224609375,0.3463523387908936,0.8009132146835327,-0.4706711173057556,61.43072509765625,101.5629272460938,-12.79405212402344
249533,-0.279693603515625,0.9924774169921876,-0.2571258544921875,0.366045355796814,0.9104080200195312,-0.5171509981155396,61.17555236816406,101.6259460449219,-12.746826171875
249534,-0.279693603515625,0.9924774169921876,-0.2571258544921875,0.366045355796814,0.9104080200195312,-0.5171509981155396,61.17555236816406,101.6259460449219,-12.746826171875
249535,-0.3007965087890625,1.098770141601562,-0.119537353515625,-0.0578449219465255,1.013897657394409,-0.4986787736415863,60.64537048339844,101.7589263916016,-12.76168823242188
249536,-0.298492431640625,1.16241455078125,-0.0748138427734375,-0.0578449219465255,1.013897657394409,-0.4986787736415863,60.29832458496094,102.00244140625,-12.93391418457031
249537,-0.2814788818359375,1.25421142578125,-0.0752410888671875,-0.2364125400781631,0.936347723007202,-0.4547241032123566,60.07267761230469,102.0886840820312,-12.91670227050781
249538,-0.2814788818359375,1.25421142578125,-0.0752410888671875,-0.2364125400781631,0.936347723007202,-0.4547241032123566,60.07267761230469,102.0886840820312,-12.91670227050781
249539,-0.2013702392578125,1.50103759765625,-0.08624267578125,-0.4095888435840607,0.6282287836074829,-0.3030672073364258,59.47509765625,102.2271423339844,-12.88053894042969
249540,-0.15777587890625,1.660903930664062,-0.0323333740234375,-0.4217981100082397,0.4603172838687897,-0.1910977810621262,59.21696472167969,102.2251434326172,-12.65455627441406
249541,-0.127105712890625,1.839950561523438,0.0572357177734375,-0.3929592669010162,0.3523148894309998,-0.0690009072422981,59.09188842773438,102.1804046630859,-12.31982421875
249542,-0.1055450439453125,1.9671630859375,0.124755859375,-0.3037542998790741,0.3070326447486877,0.0155147770419716,58.9366455078125,102.0941772460938,-12.11012268066406
249543,-0.099212646484375,1.94317626953125,0.14923095703125,-0.1115140095353127,0.3165204226970673,0.0063306000083684,58.85430908203125,102.2075805664062,-11.95661926269531
249544,-0.0868072509765625,1.69085693359375,0.0814361572265625,0.1697325706481934,0.3509249985218048,-0.0268971286714077,58.80979919433594,102.1337890625,-11.69444274902344
249545,-0.0777130126953125,1.321502685546875,-0.0382537841796875,0.4412314593791962,0.266141414642334,0.0273160431534051,58.91496276855469,102.0449066162109,-11.54069519042969
249546,-0.0626678466796875,1.115798950195312,-0.0506439208984375,0.6095200777053833,0.1924576014280319,0.0813888683915138,59.01036071777344,101.9046478271484,-11.43098449707031
249547,-0.05511474609375,0.9704742431640624,-0.0684661865234375,0.6229048371315002,0.190266877412796,0.1164464503526688,59.00302124023438,101.9495391845703,-11.464111328125
249548,-0.044158935546875,0.835906982421875,-0.1429595947265625,0.5187070965766907,0.1866077035665512,0.1741904467344284,58.95510864257812,102.0757141113281,-11.80998229980469
249549,-0.032318115234375,0.752838134765625,-0.2398529052734375,0.4001274406909943,0.1852838397026062,0.2362567484378815,59.06112670898438,102.0615844726562,-12.05400085449219
249550,-0.0217132568359375,0.730712890625,-0.48980712890625,0.1830276101827621,0.0715077370405197,0.3090875446796417,59.19032287597656,101.9154052734375,-12.43724060058594
249551,-0.0217132568359375,0.730712890625,-0.48980712890625,0.1830276101827621,0.0715077370405197,0.3090875446796417,59.19032287597656,101.9154052734375,-12.43724060058594
249552,-0.017852783203125,0.7513427734375,-0.57318115234375,0.1830276101827621,0.0715077370405197,0.3090875446796417,59.27252197265625,102.0064849853516,-12.6541748046875
249553,-0.006500244140625,0.7896270751953125,-0.56591796875,0.2270943969488144,0.0468857511878013,0.3131126463413239,59.39726257324219,101.9759521484375,-12.72703552246094
249554,-0.006500244140625,0.7896270751953125,-0.56591796875,0.2270943969488144,0.0468857511878013,0.3131126463413239,59.39726257324219,101.9759521484375,-12.72703552246094
249555,0.0196685791015625,0.894775390625,-0.418304443359375,0.3403269648551941,0.0576390624046325,0.3137978613376617,59.57424926757812,101.9917602539062,-12.89300537109375
249556,0.025238037109375,0.9085235595703124,-0.38446044921875,0.3607965409755707,0.0555820353329181,0.3043338060379028,59.73403930664062,101.9591217041016,-12.95660400390625
249557,0.0168609619140625,0.915435791015625,-0.384796142578125,0.3712894022464752,0.079152874648571,0.3012136220932007,59.81959533691406,101.8305511474609,-13.05418395996094
249558,-0.0118560791015625,0.9262237548828124,-0.411224365234375,0.3707373142242432,0.1031327769160271,0.2954961061477661,59.91128540039062,101.8267517089844,-13.28280639648438
249559,-0.0505218505859375,0.95068359375,-0.417449951171875,0.3466924428939819,0.1391853243112564,0.2920520901679993,60.01824951171875,101.8302459716797,-13.44288635253906
249560,-0.089141845703125,0.9933624267578124,-0.386627197265625,0.305557519197464,0.1911646276712418,0.2713438868522644,60.18063354492188,101.8921813964844,-13.66412353515625
249561,-0.121124267578125,1.042144775390625,-0.3404693603515625,0.2642116844654083,0.2886208891868591,0.2422581762075424,60.2498779296875,101.9402770996094,-13.86410522460938
249562,-0.1484832763671875,1.095169067382812,-0.3036346435546875,0.2399500161409378,0.398991584777832,0.2295210808515549,60.44895935058594,101.9460296630859,-14.10691833496094
249563,-0.1746063232421875,1.1507568359375,-0.2762298583984375,0.2323429584503174,0.4840987622737885,0.2258192747831345,60.54277038574219,102.0419158935547,-14.23324584960938
249564,-0.2023468017578125,1.196136474609375,-0.2552337646484375,0.2252688109874725,0.5339310169219971,0.2338875979185104,60.71907043457031,101.9850463867188,-14.25035095214844
249565,-0.2286224365234375,1.223831176757812,-0.2452850341796875,0.2221944481134415,0.5859156847000122,0.2479605376720428,60.83711242675781,102.0393981933594,-14.35035705566406
249566,-0.254638671875,1.224044799804688,-0.2638092041015625,0.2519344985485077,0.6303542256355286,0.2559348344802856,60.89031982421875,101.9970550537109,-14.35577392578125
249567,-0.2783966064453125,1.199539184570312,-0.28350830078125,0.3117712140083313,0.6644738912582397,0.258893609046936,61.01008605957031,101.7637939453125,-14.35641479492188
249568,-0.2884979248046875,1.146392822265625,-0.2741546630859375,0.3815609514713287,0.7322156429290771,0.2473003417253494,61.06571960449219,101.8166656494141,-14.36178588867188
249569,-0.28790283203125,1.065597534179688,-0.2682952880859375,0.4011551439762115,0.8386145234107971,0.2190868109464645,61.26490783691406,101.767578125,-14.36039733886719
249570,-0.273834228515625,0.9701995849609376,-0.3067474365234375,0.3702025711536407,0.8883559703826904,0.1721065193414688,61.32725524902344,101.6871337890625,-14.54153442382812
249571,-0.2419891357421875,0.841888427734375,-0.334747314453125,0.2987765669822693,0.8642429113388062,0.1270311921834946,61.35942077636719,101.7489013671875,-14.87489318847656
249572,-0.19586181640625,0.7483062744140625,-0.3401947021484375,0.1995698362588882,0.8397737741470337,0.1295867562294006,61.32131958007812,101.7557830810547,-14.89938354492188
249573,-0.1319427490234375,0.717864990234375,-0.352142333984375,0.1046790108084679,0.798432469367981,0.1508651524782181,61.35818481445312,101.7764739990234,-14.971923828125
249574,-0.0250396728515625,0.8281707763671875,-0.336517333984375,0.0435735769569873,0.6795465350151062,0.1511098891496658,61.42350769042969,101.5806121826172,-14.93879699707031
249575,-0.0250396728515625,0.8281707763671875,-0.336517333984375,0.0435735769569873,0.6795465350151062,0.1511098891496658,61.42350769042969,101.5806121826172,-14.93879699707031
249576,-0.017669677734375,0.9132843017578124,-0.3164520263671875,0.0348677039146423,0.6346866488456726,0.0915687978267669,61.53123474121094,101.6195831298828,-14.88005065917969
249577,-0.032928466796875,0.95806884765625,-0.293914794921875,0.0146263465285301,0.588620662689209,0.0169299803674221,61.59455871582031,101.3879547119141,-14.73497009277344
249578,-0.0599212646484375,0.9525909423828124,-0.2489013671875,-0.0265458561480045,0.5382205843925476,-0.0599461570382118,61.5928955078125,101.4445495605469,-14.69007873535156
249579,-0.0897979736328125,0.914764404296875,-0.184600830078125,-0.0913325771689415,0.5297192335128784,-0.1071794480085373,61.61907958984375,101.2708282470703,-14.55235290527344
249580,-0.101104736328125,0.84735107421875,-0.1244659423828125,-0.1523703634738922,0.5753147006034851,-0.1189801841974258,61.56195068359375,101.3311462402344,-14.74053955078125
249581,-0.0860748291015625,0.7657318115234375,-0.082794189453125,-0.1994758248329163,0.6453065872192383,-0.1031410321593285,61.52252197265625,101.3278198242188,-14.6759033203125
249582,-0.0588836669921875,0.6868896484375,-0.0562591552734375,-0.2341392636299133,0.7129465937614441,-0.063404269516468,61.49649047851562,101.2519989013672,-14.45210266113281
249583,0.01654052734375,0.5969085693359375,-0.0292816162109375,-0.306118905544281,0.7696911096572876,0.0325147993862628,61.49142456054688,101.1385650634766,-14.11155700683594
249584,0.01654052734375,0.5969085693359375,-0.0292816162109375,-0.306118905544281,0.7696911096572876,0.0325147993862628,61.49142456054688,101.1385650634766,-14.11155700683594
249585,0.0623779296875,0.6485137939453125,-0.038238525390625,-0.3607265055179596,0.7656981945037842,0.0961198732256889,61.47683715820312,100.9837036132812,-13.83042907714844
249586,0.100799560546875,0.818634033203125,-0.081451416015625,-0.4088391661643982,0.7461538314819336,0.0969345346093177,61.39334106445312,100.8683319091797,-13.58219909667969
249587,0.126708984375,0.9746246337890624,-0.1606597900390625,-0.3944351971149445,0.6453585028648376,0.0457251444458961,61.51469421386719,100.8768615722656,-13.33134460449219
249588,0.140533447265625,1.055450439453125,-0.239471435546875,-0.3081200122833252,0.5140689015388489,-0.0394344925880432,61.43681335449219,100.8328857421875,-12.90907287597656
249589,0.1434783935546875,1.096527099609375,-0.2687835693359375,-0.2266320735216141,0.3867125511169434,-0.1412708461284637,61.37052917480469,100.8737335205078,-12.68878173828125
249590,0.1268157958984375,1.103256225585938,-0.23583984375,-0.221373662352562,0.333053320646286,-0.2364338487386703,61.34197998046875,100.8535003662109,-12.57369995117188
249591,0.1089019775390625,1.076446533203125,-0.2053070068359375,-0.2540477216243744,0.3274657428264618,-0.3081271946430206,61.16490173339844,100.7908935546875,-12.51948547363281
249592,0.087310791015625,1.02606201171875,-0.2113494873046875,-0.2482319176197052,0.2944036722183228,-0.3705556988716125,61.0546875,100.7736511230469,-12.33705139160156
249593,0.054412841796875,0.9798126220703124,-0.240814208984375,-0.2099686861038208,0.2515057325363159,-0.4139055609703064,60.93719482421875,100.7714538574219,-12.091064453125
249594,0.054412841796875,0.9798126220703124,-0.240814208984375,-0.2099686861038208,0.2515057325363159,-0.4139055609703064,60.93719482421875,100.7714538574219,-12.091064453125
249595,0.0309906005859375,0.92474365234375,-0.3174591064453125,-0.1510337293148041,0.1952483206987381,-0.4291026294231415,60.62895202636719,100.7427978515625,-11.74745178222656
249596,0.0363922119140625,0.9114990234375,-0.3283233642578125,-0.1397722810506821,0.1757340133190155,-0.4015887081623077,60.41432189941406,100.7188110351562,-11.58702087402344
249597,0.046783447265625,0.9058074951171876,-0.30975341796875,-0.1371029913425446,0.1608647853136063,-0.3620705902576447,60.11648559570312,100.775390625,-11.41632080078125
249598,0.0601654052734375,0.9123992919921876,-0.2954559326171875,-0.1423342376947403,0.1573560684919357,-0.3173864781856537,59.92623901367188,100.9549102783203,-11.4503173828125
249599,0.06585693359375,0.9462127685546876,-0.3109893798828125,-0.144465297460556,0.1635460555553436,-0.2759213447570801,59.81376647949219,101.0117340087891,-11.3831787109375
249600,0.0518035888671875,1.004669189453125,-0.340362548828125,-0.1269539594650269,0.1689035296440125,-0.2557095289230347,59.70411682128906,100.9053955078125,-11.36358642578125
249601,0.019622802734375,1.059982299804688,-0.3726959228515625,-0.0829894244670867,0.1925864964723587,-0.2620404064655304,59.51625061035156,100.9456634521484,-11.20245361328125
249602,-0.02252197265625,1.095291137695312,-0.4008636474609375,-0.0429802238941192,0.1894892305135727,-0.2945570647716522,59.39797973632812,101.0817413330078,-11.06623840332031
249603,-0.0536956787109375,1.115646362304688,-0.4056243896484375,0.0276915486901998,0.087538368999958,-0.4131697416305542,59.2396240234375,101.2019653320312,-11.04998779296875
249604,-0.07049560546875,1.112167358398438,-0.3795623779296875,0.0276915486901998,0.087538368999958,-0.4131697416305542,59.12179565429688,101.25634765625,-10.87060546875
249605,-0.0893402099609375,1.0733642578125,-0.3441925048828125,0.0816069766879081,0.0392621830105781,-0.4810971319675446,59.006591796875,101.2310638427734,-10.99186706542969
249606,-0.1092376708984375,1.004058837890625,-0.30902099609375,0.1538012772798538,0.0086792418733239,-0.5332026481628418,58.78340148925781,101.2864532470703,-11.00065612792969
249607,-0.1290740966796875,0.9297943115234376,-0.2741851806640625,0.2237518727779388,-0.0029888655990362,-0.5722970962524414,58.48544311523438,101.3772888183594,-11.1629638671875
249608,-0.154083251953125,0.872711181640625,-0.2474517822265625,0.2237518727779388,-0.0029888655990362,-0.5722970962524414,58.25869750976562,101.5626831054688,-11.2032470703125
249609,-0.181671142578125,0.8509063720703125,-0.227294921875,0.1547150164842606,-0.0141989095136523,-0.5561529994010925,57.9329833984375,101.7380828857422,-11.21035766601562
249610,-0.2374114990234375,0.879119873046875,-0.2161407470703125,-0.1001159474253654,-0.048318263143301,-0.4513035416603088,57.51185607910156,101.7209930419922,-11.32711791992188
249611,-0.2374114990234375,0.879119873046875,-0.2161407470703125,-0.1001159474253654,-0.048318263143301,-0.4513035416603088,57.51185607910156,101.7209930419922,-11.32711791992188
249612,-0.2520904541015625,0.91021728515625,-0.2313079833984375,-0.2030191570520401,-0.0639132037758827,-0.378814697265625,57.319091796875,101.7935791015625,-11.4267578125
249613,-0.2487945556640625,0.95355224609375,-0.257965087890625,-0.3088656961917877,-0.1113611459732056,-0.1980643421411514,57.12535095214844,101.9450073242188,-11.19026184082031
249614,-0.2487945556640625,0.95355224609375,-0.257965087890625,-0.3088656961917877,-0.1113611459732056,-0.1980643421411514,57.12535095214844,101.9450073242188,-11.19026184082031
249615,-0.1827239990234375,1.075897216796875,-0.306182861328125,-0.3746228814125061,-0.1226460263133049,-0.1006006449460983,56.74815368652344,101.9131164550781,-10.93838500976562
249616,-0.1340179443359375,1.123825073242188,-0.3231964111328125,-0.4334816634654999,-0.1427329182624817,-0.0133493607863783,56.6689453125,101.9091186523438,-10.84049987792969
249617,-0.089080810546875,1.146591186523438,-0.3197174072265625,-0.4386503398418427,-0.1578556746244431,0.0542624406516552,56.63133239746094,102.0129852294922,-10.77520751953125
249618,-0.05426025390625,1.165298461914062,-0.298858642578125,-0.3935931026935577,-0.1576522141695023,0.103755421936512,56.64515686035156,101.9091949462891,-10.65744018554688
249619,-0.0402069091796875,1.192962646484375,-0.2663726806640625,-0.3329563736915588,-0.1589363813400269,0.1233003661036491,56.65408325195312,101.9264221191406,-10.45999145507812
249620,-0.0498504638671875,1.211502075195312,-0.23846435546875,-0.2757388949394226,-0.1967759132385254,0.110435962677002,56.82652282714844,101.8938598632812,-10.24896240234375
249621,-0.071990966796875,1.20050048828125,-0.1950531005859375,-0.2148198932409286,-0.2682090699672699,0.0818120390176773,56.83561706542969,101.9086303710938,-10.1280517578125
249622,-0.071990966796875,1.20050048828125,-0.1950531005859375,-0.2148198932409286,-0.2682090699672699,0.0818120390176773,56.83561706542969,101.9086303710938,-10.1280517578125
249623,-0.119110107421875,1.060760498046875,-0.1226043701171875,-0.0739669054746627,-0.2427572458982468,0.033467411994934,56.86958312988281,101.8778839111328,-9.941513061523438
249624,-0.14990234375,0.9624786376953124,-0.14324951171875,-0.0286540146917104,-0.2775999307632446,0.0058184741064906,56.891357421875,101.8865203857422,-9.806488037109377
249625,-0.1732330322265625,0.8521270751953125,-0.1484222412109375,-0.0104118948802352,-0.3392009735107422,-0.0114832846447825,56.9849853515625,101.8605499267578,-9.768463134765623
249626,-0.18328857421875,0.7574462890625,-0.134735107421875,-0.0054970309138298,-0.3527956008911133,-0.0112281534820795,56.84138488769531,101.938720703125,-9.85150146484375
249627,-0.1907958984375,0.6847381591796875,-0.1373443603515625,-0.004807804711163,-0.3189590871334076,-0.0035763590130954,56.88780212402344,101.9535980224609,-9.925857543945312
249628,-0.2076873779296875,0.6326446533203125,-0.16705322265625,-0.0114531908184289,-0.2899394035339355,0.0158202424645423,56.90071105957031,102.0813903808594,-9.891494750976562
249629,-0.237030029296875,0.61932373046875,-0.214324951171875,-0.0449640117585659,-0.2788009941577911,0.0624846816062927,57.00701904296875,102.008544921875,-9.903640747070312
249630,-0.237030029296875,0.61932373046875,-0.214324951171875,-0.0449640117585659,-0.2788009941577911,0.0624846816062927,57.00701904296875,102.008544921875,-9.903640747070312
249631,-0.1872406005859375,0.766082763671875,-0.31396484375,-0.5234836935997009,-0.1939013004302979,0.3128500580787659,57.05830383300781,102.0157318115234,-10.05026245117188
249632,-0.080078125,0.87615966796875,-0.3333587646484375,-0.5234836935997009,-0.1939013004302979,0.3128500580787659,57.02055358886719,101.9647521972656,-10.01951599121094
249633,-0.004180908203125,0.9337615966796876,-0.31243896484375,-0.7133801579475403,-0.250527024269104,0.3876028656959534,57.10833740234375,101.9868774414062,-9.825454711914062
249634,0.0463409423828125,0.9668426513671876,-0.244598388671875,-0.8155049085617065,-0.425740122795105,0.4684018194675446,57.23103332519531,101.827392578125,-9.620803833007812
249635,0.099365234375,1.03985595703125,-0.1278076171875,-0.8583008646965027,-0.4777804315090179,0.5571114420890808,57.44793701171875,101.8149871826172,-9.387222290039062
249636,0.1411590576171875,1.158493041992188,-0.0286102294921875,-0.8583008646965027,-0.4777804315090179,0.5571114420890808,57.70388793945312,101.6797332763672,-9.022384643554688
249637,0.1728973388671875,1.279312133789062,0.0214080810546875,-0.7974806427955627,-0.3245128393173218,0.5290127396583557,57.998779296875,101.4127807617188,-8.635910034179688
249638,0.185638427734375,1.352874755859375,0.050262451171875,-0.6672917604446411,-0.1927223205566406,0.4564386308193207,58.20774841308594,101.2166748046875,-8.29071044921875
249639,0.166015625,1.345733642578125,0.121490478515625,-0.5201310515403748,-0.0763339176774025,0.3638541102409363,58.47247314453125,101.0133514404297,-7.839630126953125
249640,0.0958099365234375,1.266647338867188,0.2206878662109375,-0.4081307649612427,0.118079237639904,0.2681097388267517,58.75401306152344,100.8472900390625,-7.528900146484375
249641,0.016632080078125,1.156967163085938,0.2833404541015625,-0.3498967587947845,0.3647188544273376,0.2040268927812576,58.97384643554688,100.7904357910156,-7.308502197265625
249642,-0.06707763671875,1.07269287109375,0.274658203125,-0.3109951615333557,0.5681310892105103,0.1341796368360519,59.06634521484375,100.6430969238281,-7.118576049804688
249643,-0.149932861328125,1.023086547851562,0.2101287841796875,-0.2334045022726059,0.4772374033927917,-0.1183119937777519,59.20030212402344,100.5453643798828,-6.852615356445312
249644,-0.2144012451171875,0.9647674560546876,0.166290283203125,-0.2334045022726059,0.4772374033927917,-0.1183119937777519,59.37600708007812,100.5108795166016,-6.699691772460938
249645,-0.26385498046875,0.8742523193359375,0.1353759765625,-0.2021080851554871,0.3730556070804596,-0.190900444984436,59.379638671875,100.4306335449219,-6.474685668945312
249646,-0.2883758544921875,0.7873992919921875,0.1044769287109375,-0.1829067021608353,0.3214789628982544,-0.1939492374658585,59.39907836914062,100.4539031982422,-6.330230712890625
249647,-0.255584716796875,0.7273712158203125,0.0593414306640625,-0.1565302163362503,0.3256596028804779,-0.1961159855127335,59.25236511230469,100.4529724121094,-6.089492797851562
249648,-0.1968841552734375,0.700653076171875,-0.00738525390625,-0.1565302163362503,0.3256596028804779,-0.1961159855127335,59.27890014648438,100.4809722900391,-6.032119750976562
249649,-0.1764068603515625,0.6630859375,-0.08160400390625,-0.1308469623327255,0.2883100807666779,-0.2200047969818115,59.20173645019531,100.3918304443359,-5.821517944335938
249650,-0.162078857421875,0.5767364501953125,-0.16021728515625,-0.0170303825289011,0.1871118396520615,-0.1840132474899292,58.87261962890625,100.3281097412109,-5.750015258789062
249651,-0.162078857421875,0.5767364501953125,-0.16021728515625,-0.0170303825289011,0.1871118396520615,-0.1840132474899292,58.87261962890625,100.3281097412109,-5.750015258789062
249652,-0.144317626953125,0.5583953857421875,-0.22125244140625,-0.0170303825289011,0.1871118396520615,-0.1840132474899292,58.75480651855469,100.3246612548828,-5.71600341796875
249653,-0.110015869140625,0.5832366943359375,-0.2790374755859375,0.0079471385106444,0.1292751580476761,-0.1610986143350601,58.65240478515625,100.3065338134766,-5.558334350585938
249654,-0.110015869140625,0.5832366943359375,-0.2790374755859375,0.0079471385106444,0.1292751580476761,-0.1610986143350601,58.65240478515625,100.3065338134766,-5.558334350585938
249655,0.030426025390625,0.7217254638671875,-0.355133056640625,0.0544350109994411,-0.0327662006020546,-0.1011897325515747,58.51484680175781,100.2002868652344,-5.494415283203125
249656,0.1065216064453125,0.7794952392578125,-0.336212158203125,0.0544350109994411,-0.0327662006020546,-0.1011897325515747,58.28384399414062,100.2102508544922,-5.427566528320312
249657,0.150360107421875,0.856414794921875,-0.22283935546875,-0.0192623771727085,-0.1245312765240669,-0.1000544279813766,58.15293884277344,100.3115386962891,-5.3800048828125
249658,0.146759033203125,0.9319305419921876,-0.097625732421875,-0.1898423731327057,-0.2438968122005463,-0.1375352293252945,58.02723693847656,100.4175720214844,-5.45819091796875
249659,0.1313323974609375,1.000473022460938,0.029571533203125,-0.4093742072582245,-0.4834454953670502,-0.1696899682283401,57.96615600585938,100.5257110595703,-5.505935668945312
249660,0.1313323974609375,1.000473022460938,0.029571533203125,-0.4093742072582245,-0.4834454953670502,-0.1696899682283401,57.96615600585938,100.5257110595703,-5.505935668945312
249661,0.1305389404296875,1.258468627929688,0.313385009765625,-0.8442545533180237,-0.8312737941741943,-0.1448312252759933,57.89945983886719,100.5518341064453,-5.320892333984375
249662,0.0805816650390625,1.427398681640625,0.4316864013671875,-0.9702156782150269,-0.8257836699485779,-0.1238079592585564,57.89105224609375,100.5740966796875,-4.974395751953125
249663,-0.0048980712890625,1.565719604492188,0.50213623046875,-1.00282895565033,-0.7092996835708618,-0.0949696525931358,57.88893127441406,100.4930725097656,-4.792129516601562
249664,-0.1147308349609375,1.61627197265625,0.4907684326171875,-0.509800374507904,-0.3249141871929169,0.1055914089083672,57.95359802246094,100.2518157958984,-4.298995971679688
249665,-0.1973419189453125,1.439682006835938,0.326507568359375,-0.509800374507904,-0.3249141871929169,0.1055914089083672,57.99984741210938,100.1291961669922,-3.879592895507812
249666,-0.12811279296875,1.070831298828125,0.134796142578125,-0.04936009272933,-0.2987020015716553,0.2696301341056824,58.11398315429688,100.1356048583984,-3.388076782226562
249667,-0.0566558837890625,0.8995513916015625,0.02996826171875,0.2022460401058197,-0.2789480090141296,0.387856662273407,58.22119140625,100.005615234375,-3.176956176757812
249668,-0.019256591796875,0.810577392578125,-0.0550384521484375,0.1813839077949524,-0.3523889482021332,0.4579201638698578,58.51670837402344,99.95841979980467,-3.037887573242188
249669,0.0359039306640625,0.7007598876953125,-0.0578765869140625,0.0306141022592783,-0.4175383746623993,0.5059167146682739,58.60946655273438,99.86268615722656,-2.939849853515625
249670,0.1070556640625,0.625091552734375,-0.0380706787109375,-0.119634784758091,-0.4479809701442719,0.545799970626831,58.910400390625,99.78620910644533,-3.163558959960938
249671,0.182098388671875,0.6142120361328125,-0.0222015380859375,-0.2438299655914307,-0.5181315541267395,0.6376185417175293,59.14262390136719,99.75381469726562,-3.310333251953125
249672,0.237518310546875,0.675048828125,0.0004119873046875,-0.2438299655914307,-0.5181315541267395,0.6376185417175293,59.40652465820312,99.74851989746094,-3.548736572265625
249673,0.278717041015625,0.770782470703125,0.0164794921875,-0.3029076755046844,-0.518993079662323,0.6357064247131348,59.74273681640625,99.61227416992188,-3.449310302734375
249674,0.30438232421875,0.8744354248046875,0.013946533203125,-0.4004475474357605,-0.4572855234146118,0.6240076422691345,60.05958557128906,99.40023803710938,-3.24005126953125
249675,0.3175201416015625,0.979888916015625,-0.0121307373046875,-0.356216162443161,-0.380197674036026,0.5987726449966431,60.4019775390625,99.2779541015625,-3.16754150390625
249676,0.3112030029296875,1.071975708007812,-0.0229644775390625,-0.356216162443161,-0.380197674036026,0.5987726449966431,60.70185852050781,99.15785217285156,-3.213775634765625
249677,0.2603607177734375,1.148727416992188,0.026397705078125,-0.3078611493110657,-0.2129306495189667,0.5304630398750305,61.00082397460938,99.0469970703125,-3.08251953125
249678,0.2603607177734375,1.148727416992188,0.026397705078125,-0.3078611493110657,-0.2129306495189667,0.5304630398750305,61.00082397460938,99.0469970703125,-3.08251953125
249679,0.182769775390625,1.190444946289062,0.102142333984375,-0.3083346486091614,0.0141373910009861,0.4370742738246918,61.22694396972656,98.97744750976562,-2.977386474609375
249680,0.04937744140625,1.206710815429688,0.2005157470703125,-0.3511553704738617,0.4030385315418243,0.243914932012558,61.73072814941406,98.69822692871094,-2.60052490234375
249681,-0.028106689453125,1.214035034179688,0.23162841796875,-0.3266124725341797,0.6103197932243347,0.1785761415958405,61.79917907714844,98.57575988769533,-2.511993408203125
249682,-0.028106689453125,1.214035034179688,0.23162841796875,-0.3266124725341797,0.6103197932243347,0.1785761415958405,61.79917907714844,98.57575988769533,-2.511993408203125
249683,-0.202728271484375,1.255767822265625,0.1182098388671875,-0.3088233470916748,1.091917634010315,0.0646250620484352,61.88265991210938,98.48143005371094,-1.9039306640625
249684,-0.202728271484375,1.255767822265625,0.1182098388671875,-0.3088233470916748,1.091917634010315,0.0646250620484352,61.88265991210938,98.48143005371094,-1.9039306640625
249685,-0.1476593017578125,1.265380859375,0.0450592041015625,-0.2418166249990463,1.023669362068176,0.1266860365867615,61.74848937988281,98.47256469726562,-1.536544799804688
249686,-0.0142364501953125,1.299102783203125,0.0078277587890625,-0.0543729588389396,0.9251861572265624,0.1862702667713165,61.70713806152344,98.42608642578124,-1.167037963867188
249687,0.115570068359375,1.309707641601562,0.0002899169921875,0.2054455727338791,0.9169383645057678,0.3554880619049072,61.57661437988281,98.4617919921875,-0.996490478515625
249688,0.2009124755859375,1.283798217773438,-0.0343170166015625,0.2054455727338791,0.9169383645057678,0.3554880619049072,61.46084594726562,98.4271240234375,-0.7667083740234375
249689,0.2525634765625,1.261154174804688,-0.099456787109375,0.3047303557395935,0.8393309116363525,0.4119183123111725,61.44114685058594,98.41839599609376,-0.6082611083984375
249690,0.2525634765625,1.261154174804688,-0.099456787109375,0.3047303557395935,0.8393309116363525,0.4119183123111725,61.44114685058594,98.41839599609376,-0.6082611083984375
249691,0.243988037109375,1.131378173828125,-0.2146148681640625,0.4693267345428467,0.5541361570358276,0.3558851480484009,61.31172180175781,98.50247192382812,-0.7433319091796875
249692,0.21759033203125,1.028823852539062,-0.2964019775390625,0.5261085629463196,0.3714808821678162,0.3033830523490906,61.39024353027344,98.48365783691406,-0.8460693359375
249693,0.2075958251953125,0.9307403564453124,-0.384368896484375,0.5862837433815002,0.2361416965723038,0.2735852003097534,61.48460388183594,98.53176879882812,-0.8601837158203125
249694,0.2032470703125,0.854949951171875,-0.437591552734375,0.6394489407539368,0.1804350167512894,0.2647890448570251,61.57183837890625,98.51600646972656,-1.01373291015625
249695,0.1832275390625,0.7924041748046875,-0.4423980712890625,0.5191542506217957,0.3696992099285126,0.2554509341716766,61.62112426757812,98.61520385742188,-1.222076416015625
249696,0.1493072509765625,0.76373291015625,-0.4304351806640625,0.5191542506217957,0.3696992099285126,0.2554509341716766,61.70071411132812,98.60728454589844,-1.51776123046875
249697,0.11419677734375,0.7552642822265625,-0.412689208984375,0.2796097993850708,0.528991162776947,0.266249805688858,61.7928466796875,98.62799072265624,-1.786041259765625
249698,0.11419677734375,0.7552642822265625,-0.412689208984375,0.2796097993850708,0.528991162776947,0.266249805688858,61.7928466796875,98.62799072265624,-1.786041259765625
249699,0.0211639404296875,0.812774658203125,-0.3300323486328125,0.1419353038072586,0.5225883722305298,0.2268264889717102,62.00630187988281,98.816162109375,-2.177383422851562
249700,-0.032501220703125,0.8595428466796875,-0.256500244140625,0.1419353038072586,0.5225883722305298,0.2268264889717102,62.0684814453125,98.83576965332033,-2.406265258789062
249701,-0.0680999755859375,0.9075164794921876,-0.18743896484375,0.1419768482446671,0.5103753805160522,0.201621800661087,62.186279296875,98.82687377929688,-2.370132446289062
249702,-0.0680999755859375,0.9075164794921876,-0.18743896484375,0.1419768482446671,0.5103753805160522,0.201621800661087,62.186279296875,98.82687377929688,-2.370132446289062
249703,-0.078277587890625,0.94488525390625,-0.1200714111328125,0.1384702622890472,0.4937271475791931,0.1739768534898758,62.2869873046875,98.8282470703125,-2.423843383789062
249704,-0.0040435791015625,0.9704437255859376,-0.030853271484375,0.0551519356667995,0.4165058732032776,0.1759473234415054,62.34127807617188,98.8798370361328,-2.635772705078125
249705,0.0608062744140625,0.96600341796875,-0.0232086181640625,0.007079747505486,0.3195593655109406,0.2722576260566711,62.383544921875,98.95222473144533,-2.514175415039062
249706,0.0608062744140625,0.96600341796875,-0.0232086181640625,0.007079747505486,0.3195593655109406,0.2722576260566711,62.383544921875,98.95222473144533,-2.514175415039062
249707,0.1838836669921875,0.9830780029296876,-0.002716064453125,0.1799782961606979,-0.0993090122938156,0.6653002500534058,62.49760437011719,98.80068969726562,-2.313278198242188
249708,0.2340850830078125,0.9918975830078124,0.0308685302734375,0.1799782961606979,-0.0993090122938156,0.6653002500534058,62.66444396972656,98.65779113769533,-2.248367309570312
249709,0.258392333984375,1.00262451171875,0.1045074462890625,0.4227784276008606,-0.2414230108261108,0.7029892802238464,62.94010925292969,98.6103515625,-2.308700561523438
249710,0.258392333984375,1.00262451171875,0.1045074462890625,0.4227784276008606,-0.2414230108261108,0.7029892802238464,62.94010925292969,98.6103515625,-2.308700561523438
249711,0.2031402587890625,1.020233154296875,0.2153778076171875,0.6866992712020874,-0.1406258195638657,0.7348987460136414,63.63998413085938,98.38880920410156,-2.565780639648438
249712,0.1767425537109375,1.030654907226562,0.266387939453125,0.6233386993408203,-0.010880877263844,0.7293788194656372,64.10569763183594,98.26687622070312,-2.727645874023438
249713,0.1668243408203125,1.021469116210938,0.3124542236328125,0.4646960496902466,0.0922998338937759,0.654603898525238,64.53230285644531,98.18511962890624,-2.962661743164062
249714,0.1668243408203125,1.021469116210938,0.3124542236328125,0.4646960496902466,0.0922998338937759,0.654603898525238,64.53230285644531,98.18511962890624,-2.962661743164062
249715,0.176361083984375,0.9145660400390624,0.349761962890625,0.1097906827926636,0.1207003220915794,0.3654634654521942,65.31114196777344,97.9912109375,-3.522003173828125
249716,0.1972503662109375,0.8731842041015625,0.3360443115234375,0.0413200110197067,0.0064102285541594,0.2573234140872955,65.59188842773438,97.83648681640624,-3.662368774414062
249717,0.2126617431640625,0.9161224365234376,0.3312835693359375,0.0298388563096523,-0.1541714668273926,0.158137172460556,65.84078979492188,97.7463836669922,-3.68487548828125
249718,0.2126617431640625,0.9161224365234376,0.3312835693359375,0.0298388563096523,-0.1541714668273926,0.158137172460556,65.84078979492188,97.7463836669922,-3.68487548828125
249719,0.0216064453125,1.177597045898438,0.39453125,-0.1419121325016022,-0.3386134803295135,-0.0434023365378379,66.123779296875,97.6012725830078,-3.739349365234375
249720,-0.0553741455078125,1.184600830078125,0.3750152587890625,-0.2583263516426086,-0.3825830519199371,-0.1899203956127167,66.20974731445312,97.50770568847656,-3.724807739257812
249721,-0.1138763427734375,1.165664672851562,0.386383056640625,-0.2913034856319427,-0.4439601302146912,-0.3202515244483948,66.30831909179688,97.61531066894533,-3.702194213867188
249722,-0.1523590087890625,1.146377563476562,0.3861541748046875,-0.241447240114212,-0.5287575721740723,-0.4137681424617767,66.28889465332031,97.63999938964844,-3.626571655273438
249723,-0.1523590087890625,1.146377563476562,0.3861541748046875,-0.241447240114212,-0.5287575721740723,-0.4137681424617767,66.28889465332031,97.63999938964844,-3.626571655273438
249724,-0.209014892578125,1.09295654296875,0.2534942626953125,-0.1315601617097855,-0.8938881754875183,-0.5413396954536438,66.09214782714844,97.78271484375,-3.584625244140625
249725,-0.2214813232421875,1.036865234375,0.185699462890625,-0.092093177139759,-0.9221293926239014,-0.5377289652824402,66.03224182128906,97.75245666503906,-3.547088623046875
249726,-0.2214813232421875,1.036865234375,0.185699462890625,-0.092093177139759,-0.9221293926239014,-0.5377289652824402,66.03224182128906,97.75245666503906,-3.547088623046875
249727,-0.2952423095703125,0.861785888671875,0.075775146484375,0.0421509146690368,-0.1241946518421173,-0.425474613904953,65.48323059082031,97.96836853027344,-3.977920532226562
249728,-0.352081298828125,0.785491943359375,0.01068115234375,0.0773302093148231,0.3543535470962524,-0.3220565915107727,65.25456237792969,97.93344116210938,-3.976226806640625
249729,-0.3486175537109375,0.7508392333984375,-0.006011962890625,0.0753743797540664,0.5055457353591919,-0.254262387752533,65.06321716308594,98.0613250732422,-3.97723388671875
249730,-0.32073974609375,0.769073486328125,0.01983642578125,-0.0481845736503601,0.6400646567344666,-0.2347304821014404,64.90602111816406,98.19033813476562,-3.919906616210938
249731,-0.32073974609375,0.769073486328125,0.01983642578125,-0.0481845736503601,0.6400646567344666,-0.2347304821014404,64.90602111816406,98.19033813476562,-3.919906616210938
249732,-0.2169189453125,0.8799285888671875,-0.036529541015625,-0.1053226962685585,0.7128251791000366,-0.2161030024290085,64.36888122558594,98.30282592773438,-3.859893798828125
249733,-0.1407470703125,0.942535400390625,-0.0786285400390625,-0.0884278640151023,0.7267998456954956,-0.1957665681838989,64.11915588378906,98.43612670898438,-3.59173583984375
249734,-0.1407470703125,0.942535400390625,-0.0786285400390625,-0.0884278640151023,0.7267998456954956,-0.1957665681838989,64.11915588378906,98.43612670898438,-3.59173583984375
249735,-0.0164794921875,1.04925537109375,-0.0739898681640625,-0.0043686493299901,0.8642770051956177,-0.1036861836910248,63.59254455566406,98.5456085205078,-3.408035278320312
249736,0.0182037353515625,1.110244750976562,-0.065582275390625,0.0153525909408927,0.9164997339248656,-0.0571216084063053,63.33280944824219,98.47447204589844,-3.233963012695312
249737,0.02880859375,1.165008544921875,-0.0656585693359375,0.0150892045348882,0.9559968113899232,-0.0067995828576385,63.13790893554688,98.41603088378906,-3.009872436523438
249738,0.02880859375,1.165008544921875,-0.0656585693359375,0.0150892045348882,0.9559968113899232,-0.0067995828576385,63.13790893554688,98.41603088378906,-3.009872436523438
249739,0.0644989013671875,1.230804443359375,-0.2019805908203125,0.0171323809772729,0.7877611517906189,0.0385308824479579,62.64671325683594,98.53599548339844,-2.758819580078125
249740,0.1223602294921875,1.211013793945312,-0.2999267578125,0.0826884880661964,0.632788360118866,0.0600111372768878,62.4107666015625,98.5572509765625,-2.744964599609375
249741,0.211883544921875,1.138198852539062,-0.35479736328125,0.1793359369039536,0.5177006721496582,0.1036273241043091,62.27626037597656,98.60874938964844,-2.692306518554688
249742,0.211883544921875,1.138198852539062,-0.35479736328125,0.1793359369039536,0.5177006721496582,0.1036273241043091,62.27626037597656,98.60874938964844,-2.692306518554688
249743,0.374420166015625,1.008026123046875,-0.3709564208984375,0.2318215072154999,0.3410702347755432,0.0783699080348014,62.16278076171875,98.61972045898438,-2.719070434570312
249744,0.4258270263671875,0.94525146484375,-0.3876953125,0.1801178455352783,0.2101324647665024,-0.0028794098179787,62.00169372558594,98.67137145996094,-2.773757934570312
249745,0.4346771240234375,0.911041259765625,-0.431854248046875,0.1373253613710403,0.0025558357592672,-0.0982711762189865,61.97639465332031,98.6576690673828,-2.781753540039062
249746,0.4346771240234375,0.911041259765625,-0.431854248046875,0.1373253613710403,0.0025558357592672,-0.0982711762189865,61.97639465332031,98.6576690673828,-2.781753540039062
249747,0.4009246826171875,0.9100341796875,-0.5792999267578125,0.1948328763246536,-0.3749096989631653,-0.2309669107198715,61.93876647949219,98.81358337402344,-2.84735107421875
249748,0.3970794677734375,0.9297332763671876,-0.6291046142578125,0.2767634093761444,-0.4612597525119781,-0.2229702323675156,61.80177307128906,98.92471313476562,-2.97314453125
249749,0.4153900146484375,0.955169677734375,-0.667388916015625,0.3712289333343506,-0.5044836401939392,-0.1797567158937454,61.78190612792969,98.89828491210938,-3.126022338867188
249750,0.4153900146484375,0.955169677734375,-0.667388916015625,0.3712289333343506,-0.5044836401939392,-0.1797567158937454,61.78190612792969,98.89828491210938,-3.126022338867188
249751,0.45782470703125,0.964996337890625,-0.688812255859375,0.6122170686721802,-0.6992520689964294,0.0047966195270419,61.65174865722656,99.06632995605467,-3.452377319335938
249752,0.4495391845703125,0.9453125,-0.6567535400390625,0.6122170686721802,-0.6992520689964294,0.0047966195270419,61.73440551757812,99.1225128173828,-3.79998779296875
249753,0.4317474365234375,0.921417236328125,-0.6381988525390625,0.66094970703125,-0.7748792171478271,0.0569935105741024,61.79127502441406,99.05754089355467,-3.919281005859375
249754,0.4317474365234375,0.921417236328125,-0.6381988525390625,0.66094970703125,-0.7748792171478271,0.0569935105741024,61.79127502441406,99.05754089355467,-3.919281005859375
249755,0.3999481201171875,0.888641357421875,-0.5134124755859375,0.6677205562591553,-0.905055582523346,0.1846574693918228,62.12150573730469,99.17178344726562,-4.727890014648438
249756,0.384765625,0.898468017578125,-0.4560699462890625,0.592593789100647,-0.9753276109695436,0.2250919789075851,62.29693603515625,99.23941040039062,-5.369186401367188
249757,0.3597259521484375,0.9189910888671876,-0.38592529296875,0.4737886190414429,-1.023850917816162,0.2279149293899536,62.63388061523438,99.24929809570312,-5.7315673828125
249758,0.3597259521484375,0.9189910888671876,-0.38592529296875,0.4737886190414429,-1.023850917816162,0.2279149293899536,62.63388061523438,99.24929809570312,-5.7315673828125
249759,0.321868896484375,0.9575958251953124,-0.3088836669921875,0.3186003565788269,-1.03649115562439,0.1789966523647308,62.93743896484375,99.2240753173828,-6.110488891601562
249760,0.238006591796875,1.057601928710938,-0.1634521484375,-0.0052637378685176,-1.085872769355774,-0.0101011032238602,63.33940124511719,99.26498413085938,-6.930755615234375
249761,0.192718505859375,1.128799438476562,-0.059906005859375,-0.128268226981163,-1.053518533706665,-0.1401989161968231,63.534912109375,99.241943359375,-6.988143920898438
249762,0.192718505859375,1.128799438476562,-0.059906005859375,-0.128268226981163,-1.053518533706665,-0.1401989161968231,63.534912109375,99.241943359375,-6.988143920898438
249763,0.1314544677734375,1.223587036132812,0.0391082763671875,-0.2099582850933075,-0.9700495004653932,-0.2988503575325012,63.67854309082031,99.22492980957033,-7.179489135742188
249764,0.07879638671875,1.318191528320312,0.1046142578125,-0.2556714415550232,-0.8783200979232788,-0.4676841199398041,63.76582336425781,99.3071746826172,-7.228622436523438
249765,-0.0101776123046875,1.401351928710938,0.1944427490234375,-0.0548842884600162,-0.8343632817268372,-0.6171532273292542,63.73191833496094,99.43766784667967,-7.163406372070312
249766,-0.03741455078125,1.362274169921875,0.196319580078125,0.1470277905464172,-0.9471582770347596,-0.591682493686676,63.62309265136719,99.40838623046876,-7.117462158203125
249767,-0.0795135498046875,1.24493408203125,0.136627197265625,0.3077932298183441,-1.159146666526794,-0.5017328858375549,63.61416625976562,99.58038330078124,-7.056381225585938
249768,-0.1246795654296875,1.124237060546875,0.0661773681640625,0.395218700170517,-1.427598357200623,-0.3509902358055115,63.56744384765625,99.69375610351562,-7.156478881835938
249769,-0.179840087890625,1.036605834960938,0.0444488525390625,0.4262301325798035,-1.600205659866333,-0.1882282346487045,63.5582275390625,99.69317626953124,-7.2161865234375
249770,-0.179840087890625,1.036605834960938,0.0444488525390625,0.4262301325798035,-1.600205659866333,-0.1882282346487045,63.5582275390625,99.69317626953124,-7.2161865234375
249771,-0.230621337890625,0.997528076171875,0.076568603515625,0.4336041808128357,-1.69785737991333,-0.055513858795166,63.68751525878906,99.78909301757812,-7.537887573242188
249772,-0.34100341796875,0.9269561767578124,0.25311279296875,0.3647872805595398,-1.459571242332458,-0.0115029914304614,63.95530700683594,99.74769592285156,-8.590118408203125
249773,-0.3913116455078125,0.8949432373046875,0.2801666259765625,0.2999861836433411,-1.20953905582428,0.0114979315549135,64.14784240722656,99.63580322265624,-9.0283203125
249774,-0.3913116455078125,0.8949432373046875,0.2801666259765625,0.2999861836433411,-1.20953905582428,0.0114979315549135,64.14784240722656,99.63580322265624,-9.0283203125
249775,-0.44439697265625,0.809112548828125,0.3117523193359375,0.1294016689062119,-0.5888906717300415,0.0145856002345681,64.57713317871094,99.55329895019533,-9.735809326171877
249776,-0.4331207275390625,0.799591064453125,0.3998260498046875,0.1437835395336151,-0.209191307425499,0.0137448403984308,64.57875061035156,99.42350769042967,-9.727462768554688
249777,-0.395599365234375,0.802978515625,0.4764251708984375,0.197828397154808,0.2249713242053986,0.0268390700221061,64.68064880371094,99.54074096679688,-9.848800659179688
249778,-0.395599365234375,0.802978515625,0.4764251708984375,0.197828397154808,0.2249713242053986,0.0268390700221061,64.68064880371094,99.54074096679688,-9.848800659179688
249779,-0.317718505859375,0.8389434814453125,0.5121002197265625,0.0617523118853569,0.7075459957122803,0.2463581115007401,64.64596557617188,99.5386199951172,-9.962265014648438
249780,-0.2309417724609375,0.9845733642578124,0.5538482666015625,-0.1293904781341553,0.6705711483955383,0.26637202501297,64.83848571777344,99.40907287597656,-10.13241577148438
249781,-0.241241455078125,0.950653076171875,0.5382537841796875,-0.3142008185386658,0.531161904335022,0.2828122675418854,64.90095520019531,99.40699768066406,-10.005615234375
249782,-0.2183074951171875,0.89764404296875,0.4925994873046875,-0.4632318317890167,0.3569147288799286,0.2964282035827637,64.9708251953125,99.48616027832033,-9.816818237304688
249783,-0.2183074951171875,0.89764404296875,0.4925994873046875,-0.4632318317890167,0.3569147288799286,0.2964282035827637,64.9708251953125,99.48616027832033,-9.816818237304688
249784,-0.0947113037109375,0.7935791015625,0.3074951171875,-0.6350411176681519,-0.0284766480326652,0.2983787059783936,65.03140258789062,99.3272705078125,-9.500778198242188
249785,-0.0156707763671875,0.759765625,0.2131500244140625,-0.6684094667434692,-0.2648878395557404,0.2996469140052795,65.12179565429688,99.19125366210938,-9.163330078125
249786,-0.0156707763671875,0.759765625,0.2131500244140625,-0.6684094667434692,-0.2648878395557404,0.2996469140052795,65.12179565429688,99.19125366210938,-9.163330078125
249787,0.064971923828125,0.76092529296875,0.1612091064453125,-0.6566761136054993,-0.3929331600666046,0.3173321485519409,65.14939880371094,99.11004638671876,-8.930648803710938
249788,0.167144775390625,0.8301544189453125,0.1793212890625,-0.5345512628555298,-0.142148345708847,0.3165406584739685,65.30711364746094,98.8978271484375,-8.485443115234375
249789,0.1757354736328125,0.88262939453125,0.1688079833984375,-0.4747103154659271,0.1673232167959213,0.259864866733551,65.42153930664062,98.76799011230467,-8.074478149414062
249790,0.1757354736328125,0.88262939453125,0.1688079833984375,-0.4747103154659271,0.1673232167959213,0.259864866733551,65.42153930664062,98.76799011230467,-8.074478149414062
249791,0.102264404296875,0.9732208251953124,0.00469970703125,-0.3148865699768066,0.3000559508800507,-0.0428358800709247,65.419677734375,98.62136840820312,-7.748947143554688
249792,0.059539794921875,1.029891967773438,-0.0670318603515625,-0.3148865699768066,0.3000559508800507,-0.0428358800709247,65.36631774902344,98.6132354736328,-7.5303955078125
249793,0.0550384521484375,1.10028076171875,-0.1353912353515625,-0.2271918803453445,0.0515952818095684,-0.0869681909680366,65.29408264160156,98.68620300292967,-7.290069580078125
249794,0.0550384521484375,1.10028076171875,-0.1353912353515625,-0.2271918803453445,0.0515952818095684,-0.0869681909680366,65.29408264160156,98.68620300292967,-7.290069580078125
249795,0.1670989990234375,1.2786865234375,-0.155242919921875,0.1104729846119881,0.021390775218606,-0.0830869004130363,64.94461059570312,98.58499145507812,-6.817184448242188
249796,0.2215118408203125,1.282958984375,-0.2818145751953125,0.2805331349372864,0.3714382648468018,-0.0781978666782379,64.77392578125,98.57704162597656,-6.841659545898438
249797,0.2301788330078125,1.178482055664062,-0.49951171875,0.3845548629760742,0.4079989492893219,-0.1020832285284996,64.60064697265625,98.7787628173828,-6.883834838867188
249798,0.2301788330078125,1.178482055664062,-0.49951171875,0.3845548629760742,0.4079989492893219,-0.1020832285284996,64.60064697265625,98.7787628173828,-6.883834838867188
249799,0.216888427734375,1.060531616210938,-0.6048431396484375,0.3427986204624176,0.1536678522825241,-0.1020683124661446,64.43682861328125,98.8547821044922,-7.02398681640625
249800,0.24176025390625,1.077056884765625,-0.6194610595703125,-0.0492479726672172,-0.3351026177406311,-0.1689424216747284,64.09782409667969,99.1969757080078,-7.418106079101562
249801,0.2572174072265625,1.088699340820312,-0.5757904052734375,-0.1678955256938934,-0.3968347012996674,-0.2206410318613052,63.97520446777344,99.26277160644533,-7.505203247070312
249802,0.2572174072265625,1.088699340820312,-0.5757904052734375,-0.1678955256938934,-0.3968347012996674,-0.2206410318613052,63.97520446777344,99.26277160644533,-7.505203247070312
249803,0.1274871826171875,1.12530517578125,-0.4898529052734375,-0.0081093255430459,-0.1611217707395554,-0.1911313384771347,63.794921875,99.39273071289062,-7.416305541992188
249804,0.0261688232421875,1.149124145507812,-0.5133514404296875,0.0667539983987808,-0.0399908237159252,-0.1330049186944962,63.65631103515625,99.27610778808594,-7.248733520507812
249805,-0.0457305908203125,1.136688232421875,-0.575775146484375,0.0667539983987808,-0.0399908237159252,-0.1330049186944962,63.52438354492188,99.40000915527344,-7.0738525390625
249806,-0.0880279541015625,1.121139526367188,-0.6495819091796875,0.2847960591316223,0.2212785929441452,0.0009507485083304,63.51936340332031,99.45474243164062,-7.13543701171875
249807,-0.101470947265625,1.112060546875,-0.6762542724609375,0.3366272747516632,0.3731703758239746,0.0276318937540054,63.48445129394531,99.6011199951172,-7.317825317382812
249808,-0.0890960693359375,1.115447998046875,-0.635528564453125,0.3366272747516632,0.3731703758239746,0.0276318937540054,63.53135681152344,99.52188110351562,-7.385284423828125
249809,-0.064910888671875,1.109634399414062,-0.5567779541015625,0.3102318942546844,0.5228256583213806,0.0287016853690147,63.48568725585938,99.56697082519533,-7.4212646484375
249810,-0.0406494140625,1.099014282226562,-0.488800048828125,0.2651443183422089,0.6405879855155945,0.0075162393040955,63.46528625488281,99.61952209472656,-7.3909912109375
249811,-0.022491455078125,1.091659545898438,-0.4190673828125,0.1779673397541046,0.6813641786575317,-0.0546235628426075,63.47926330566406,99.68368530273438,-7.592575073242188
249812,-0.0189361572265625,1.091278076171875,-0.3199920654296875,0.1779673397541046,0.6813641786575317,-0.0546235628426075,63.47999572753906,99.7260284423828,-7.815460205078125
249813,-0.0314788818359375,1.099624633789062,-0.2079620361328125,0.0773509815335273,0.7116512060165405,-0.0796442255377769,63.38818359375,99.71568298339844,-7.798904418945312
249814,-0.0413818359375,1.119796752929688,-0.1275634765625,-0.0868291705846786,0.7469871044158936,-0.0702730938792228,63.44187927246094,99.69129943847656,-7.800201416015625
249815,-0.036376953125,1.136611938476562,-0.0895843505859375,-0.3828786611557007,0.6161547899246216,0.0200131218880415,63.40032958984375,99.71678161621094,-7.715316772460938
249816,-0.0005645751953125,1.143814086914062,-0.0584259033203125,-0.3828786611557007,0.6161547899246216,0.0200131218880415,63.37345886230469,99.76466369628906,-7.628387451171875
249817,0.0525665283203125,1.13067626953125,-0.024688720703125,-0.4063161015510559,0.505459189414978,0.111372597515583,63.40078735351562,99.74383544921876,-7.404891967773438
249818,0.0525665283203125,1.13067626953125,-0.024688720703125,-0.4063161015510559,0.505459189414978,0.111372597515583,63.40078735351562,99.74383544921876,-7.404891967773438
249819,0.1349945068359375,1.0556640625,0.0927581787109375,-0.2124502062797546,0.1576466113328934,0.2562858462333679,63.59176635742188,99.71578979492188,-6.96484375
249820,0.15692138671875,1.026107788085938,0.1626434326171875,-0.0930662974715232,-0.0393135845661163,0.2786103188991547,63.69046020507812,99.544677734375,-6.676406860351562
249821,0.192108154296875,0.9818878173828124,0.2385711669921875,-0.03265967592597,-0.2047347724437714,0.2576893270015717,63.90016174316406,99.5634307861328,-6.52020263671875
249822,0.192108154296875,0.9818878173828124,0.2385711669921875,-0.03265967592597,-0.2047347724437714,0.2576893270015717,63.90016174316406,99.5634307861328,-6.52020263671875
249823,0.21636962890625,0.914520263671875,0.328887939453125,-0.1218787655234337,-0.3965018093585968,0.2281426191329956,64.31938171386719,99.1300811767578,-6.228530883789062
249824,0.2185821533203125,0.9001312255859375,0.3212432861328125,-0.1218787655234337,-0.3965018093585968,0.2281426191329956,64.5523681640625,99.08892822265624,-6.284591674804688
249825,0.2051239013671875,0.8963623046875,0.29193115234375,-0.1615912914276123,-0.4743084609508514,0.2317522764205933,64.81471252441406,98.9370574951172,-6.255035400390625
249826,0.2051239013671875,0.8963623046875,0.29193115234375,-0.1615912914276123,-0.4743084609508514,0.2317522764205933,64.81471252441406,98.9370574951172,-6.255035400390625
249827,0.17401123046875,0.9017486572265624,0.251190185546875,-0.1780592203140259,-0.5654274225234985,0.2197012007236481,65.04913330078125,98.71139526367188,-6.24554443359375
249828,0.096099853515625,0.8145751953125,0.2573699951171875,-0.0750617310404777,-0.6299105882644653,0.1358747482299805,65.47677612304688,98.5897979736328,-6.162399291992188
249829,0.0509796142578125,0.7454833984375,0.26629638671875,-0.000171507577761,-0.480618804693222,0.1118841916322708,65.69563293457031,98.53970336914062,-6.144241333007812
249830,0.0509796142578125,0.7454833984375,0.26629638671875,-0.000171507577761,-0.480618804693222,0.1118841916322708,65.69563293457031,98.53970336914062,-6.144241333007812
249831,-0.04461669921875,0.647735595703125,0.2311553955078125,-0.0146441897377371,0.0259570311754941,0.0262763444334268,66.039306640625,98.4384307861328,-6.090606689453125
249832,-0.093780517578125,0.640533447265625,0.204345703125,-0.0146441897377371,0.0259570311754941,0.0262763444334268,66.2039794921875,98.33029174804688,-6.31097412109375
249833,-0.1398773193359375,0.6711578369140625,0.160675048828125,-0.0261810030788183,0.117959126830101,-0.0333853885531425,66.27165222167969,98.27610778808594,-6.295822143554688
249834,-0.1398773193359375,0.6711578369140625,0.160675048828125,-0.0261810030788183,0.117959126830101,-0.0333853885531425,66.27165222167969,98.27610778808594,-6.295822143554688
249835,-0.18707275390625,0.7358856201171875,0.06744384765625,-0.0882259979844093,0.189075380563736,-0.2586629688739777,66.34449768066406,98.21720886230467,-6.087539672851562
249836,-0.203369140625,0.7570037841796875,0.0529327392578125,-0.0882259979844093,0.189075380563736,-0.2586629688739777,66.36898803710938,98.26541137695312,-6.14764404296875
249837,-0.2248382568359375,0.7851715087890625,0.0397796630859375,-0.1535307019948959,0.3002658188343048,-0.3045819997787476,66.24830627441406,98.28245544433594,-6.188278198242188
249838,-0.2248382568359375,0.7851715087890625,0.0397796630859375,-0.1535307019948959,0.3002658188343048,-0.3045819997787476,66.24830627441406,98.28245544433594,-6.188278198242188
249839,-0.26007080078125,0.8376922607421875,0.140899658203125,-0.3664706647396088,0.8515436053276062,-0.3743855953216553,65.97358703613281,98.41746520996094,-6.211883544921875
249840,-0.2682952880859375,0.8739776611328125,0.2098388671875,-0.3664706647396088,0.8515436053276062,-0.3743855953216553,65.707275390625,98.4971160888672,-6.14581298828125
249841,-0.28765869140625,0.8986358642578125,0.2830047607421875,-0.4512619972229004,0.9614112377166748,-0.4443580210208893,65.44998168945312,98.65550231933594,-6.057525634765625
249842,-0.28765869140625,0.8986358642578125,0.2830047607421875,-0.4512619972229004,0.9614112377166748,-0.4443580210208893,65.44998168945312,98.65550231933594,-6.057525634765625
249843,-0.310821533203125,0.910369873046875,0.30084228515625,-0.5379007458686829,0.998065173625946,-0.5227340459823608,65.14372253417969,98.6527862548828,-5.724655151367188
249844,-0.3130645751953125,0.87213134765625,0.2032623291015625,-0.5958822965621948,0.6323460340499878,-0.5588148236274719,64.44454956054688,98.7633056640625,-5.07080078125
249845,-0.25201416015625,0.8354339599609375,0.1549072265625,-0.58466637134552,0.4291180670261383,-0.5274787545204163,64.06523132324219,98.7940673828125,-4.710693359375
249846,-0.178497314453125,0.7967376708984375,0.08953857421875,-0.475083976984024,0.3337444067001343,-0.4464517831802368,63.69139099121094,98.78793334960938,-4.382888793945312
249847,-0.178497314453125,0.7967376708984375,0.08953857421875,-0.475083976984024,0.3337444067001343,-0.4464517831802368,63.69139099121094,98.78793334960938,-4.382888793945312
249848,-0.1136627197265625,0.7009429931640625,-0.0291900634765625,-0.4044124484062195,0.3789204061031342,-0.4016584753990173,62.98890686035156,98.92170715332033,-3.7264404296875
249849,-0.1035308837890625,0.688201904296875,-0.0587921142578125,-0.3660120666027069,0.418228417634964,-0.3552606403827667,62.65962219238281,98.9098663330078,-3.488800048828125
249850,-0.0681610107421875,0.7513427734375,-0.0328369140625,-0.6023460626602173,0.4069925248622894,-0.420466274023056,62.0472412109375,98.9611358642578,-3.089126586914062
249851,-0.0681610107421875,0.7513427734375,-0.0328369140625,-0.6023460626602173,0.4069925248622894,-0.420466274023056,62.0472412109375,98.9611358642578,-3.089126586914062
249852,-0.0565643310546875,0.844482421875,-0.037872314453125,-0.6023460626602173,0.4069925248622894,-0.420466274023056,61.82351684570312,99.0543212890625,-2.75762939453125
249853,-0.0991973876953125,1.0650634765625,-0.0987548828125,-0.7425875663757324,0.4477711319923401,-0.4039269685745239,61.47798156738281,99.1386260986328,-2.622970581054688
249854,-0.097564697265625,1.2520751953125,-0.2126007080078125,-0.8467674851417542,0.3039345741271973,-0.4547573924064636,61.13204956054688,99.13397216796876,-2.372756958007812
249855,-0.097564697265625,1.2520751953125,-0.2126007080078125,-0.8467674851417542,0.3039345741271973,-0.4547573924064636,61.13204956054688,99.13397216796876,-2.372756958007812
249856,0.0050811767578125,1.4400634765625,-0.2622528076171875,-0.6703251004219055,0.2624593079090118,-0.2457559704780579,60.42791748046875,99.3382568359375,-1.70855712890625
249857,0.06036376953125,1.426010131835938,-0.2271728515625,-0.5235300660133362,0.2326470911502838,-0.1867477744817734,60.00961303710938,99.28128051757812,-1.352508544921875
249858,0.06036376953125,1.426010131835938,-0.2271728515625,-0.5235300660133362,0.2326470911502838,-0.1867477744817734,60.00961303710938,99.28128051757812,-1.352508544921875
249859,0.0994873046875,1.380905151367188,-0.1816558837890625,-0.193663477897644,0.1206997856497765,-0.1172057166695595,59.67829895019531,99.3032684326172,-0.700897216796875
249860,0.08428955078125,1.336685180664062,-0.210540771484375,0.0697705596685409,0.0026522420812398,-0.0677891671657562,59.50794982910156,99.32267761230467,-0.4362030029296875
249861,0.0743408203125,1.239059448242188,-0.2496795654296875,0.2970468699932098,-0.1639311462640762,-0.033147033303976,59.30609130859375,99.39581298828124,-0.242767333984375
249862,0.0743408203125,1.239059448242188,-0.2496795654296875,0.2970468699932098,-0.1639311462640762,-0.033147033303976,59.30609130859375,99.39581298828124,-0.242767333984375
249863,0.1321868896484375,1.056198120117188,-0.3796844482421875,0.4745409488677979,-0.3696398437023163,0.1093890741467476,59.27085876464844,99.337646484375,-0.2471771240234375
249864,0.1699981689453125,1.042648315429688,-0.4269866943359375,0.5588781833648682,-0.3432047665119171,0.2993038892745972,59.31353759765625,99.39971923828124,-0.411224365234375
249865,0.1833953857421875,1.071548461914062,-0.4577178955078125,0.6754745841026306,-0.2736539244651794,0.3546006977558136,59.31723022460938,99.34977722167967,-0.6174774169921875
249866,0.1719512939453125,1.1046142578125,-0.44171142578125,0.6754745841026306,-0.2736539244651794,0.3546006977558136,59.50540161132812,99.32884216308594,-0.8399200439453125
249867,0.1719512939453125,1.1046142578125,-0.44171142578125,0.6754745841026306,-0.2736539244651794,0.3546006977558136,59.50540161132812,99.32884216308594,-0.8399200439453125
249868,0.142242431640625,1.157760620117188,-0.35321044921875,0.6898098587989807,-0.3122364580631256,0.2430462092161179,59.94111633300781,99.47105407714844,-1.133621215820312
249869,0.1348876953125,1.214675903320312,-0.2911376953125,0.6371527910232544,-0.3687748312950134,0.1683072447776794,60.18766784667969,99.49624633789062,-1.331085205078125
249870,0.1348876953125,1.214675903320312,-0.2911376953125,0.6371527910232544,-0.3687748312950134,0.1683072447776794,60.18766784667969,99.49624633789062,-1.331085205078125
249871,0.134918212890625,1.278656005859375,-0.23486328125,0.6371527910232544,-0.3687748312950134,0.1683072447776794,60.39093017578125,99.66419982910156,-1.697799682617188
249872,0.1511383056640625,1.323471069335938,-0.152099609375,0.6012397408485413,-0.432270735502243,0.1090029180049896,60.55780029296875,99.66880798339844,-2.26318359375
249873,0.136505126953125,1.415679931640625,0.1619415283203125,0.4503107070922852,-0.5724552869796753,0.071546621620655,60.83163452148438,99.8094482421875,-3.18603515625
249874,0.136505126953125,1.415679931640625,0.1619415283203125,0.4503107070922852,-0.5724552869796753,0.071546621620655,60.83163452148438,99.8094482421875,-3.18603515625
249875,0.0190582275390625,1.557952880859375,0.49188232421875,0.363122820854187,-0.6923995018005371,0.0119605222716927,61.25460815429688,99.92739868164062,-3.839202880859375
249876,-0.056732177734375,1.64031982421875,0.519439697265625,0.4056159555912018,-0.8913198113441467,-0.0927560329437255,61.44050598144531,100.0279846191406,-4.031723022460938
249877,-0.13623046875,1.643890380859375,0.4329833984375,0.4056159555912018,-0.8913198113441467,-0.0927560329437255,61.69691467285156,100.05908203125,-4.308334350585938
249878,-0.13623046875,1.643890380859375,0.4329833984375,0.4056159555912018,-0.8913198113441467,-0.0927560329437255,61.69691467285156,100.05908203125,-4.308334350585938
249879,-0.1778411865234375,1.40594482421875,0.0491180419921875,0.826752781867981,-0.9646579027175904,-0.21677066385746,62.15286254882812,100.0666046142578,-4.675338745117188
249880,-0.239532470703125,1.223281860351562,-0.10888671875,0.826752781867981,-0.9646579027175904,-0.21677066385746,62.31016540527344,100.0251312255859,-4.891510009765625
249881,-0.3000640869140625,1.048828125,-0.115234375,1.064165830612183,-1.030877947807312,-0.1830776780843735,62.46990966796875,100.1890258789062,-5.375961303710938
249882,-0.3000640869140625,1.048828125,-0.115234375,1.064165830612183,-1.030877947807312,-0.1830776780843735,62.46990966796875,100.1890258789062,-5.375961303710938
249883,-0.3197479248046875,0.9166412353515624,-0.0406341552734375,1.184834241867065,-1.149072766304016,-0.1119883209466934,62.5927734375,100.1840667724609,-5.848312377929688
249884,-0.2162017822265625,0.796966552734375,0.1248321533203125,0.868220329284668,-1.286432981491089,0.0366240590810775,62.94450378417969,100.2076416015625,-6.992156982421875
249885,-0.1469879150390625,0.76312255859375,0.1621551513671875,0.5694373846054077,-1.231302976608276,0.0597307085990905,63.18290710449219,100.2160034179688,-7.65283203125
249886,-0.1469879150390625,0.76312255859375,0.1621551513671875,0.5694373846054077,-1.231302976608276,0.0597307085990905,63.18290710449219,100.2160034179688,-7.65283203125
249887,-0.13067626953125,0.625396728515625,-0.055267333984375,0.1880671083927155,-1.303905725479126,0.038217693567276,63.59403991699219,100.1584167480469,-8.462158203125
249888,-0.1818084716796875,0.5672454833984375,-0.1184539794921875,0.1763255000114441,-1.278933525085449,-0.0072568478062748,63.77583312988281,100.1015167236328,-8.779586791992188
249889,-0.2665252685546875,0.5426177978515625,-0.143341064453125,0.2115463316440582,-0.9734449982643129,-0.063581109046936,63.92082214355469,100.0117492675781,-9.118301391601562
249890,-0.3316497802734375,0.56695556640625,-0.23895263671875,0.3842957317829132,-0.1123523712158203,-0.0763432383537292,64.15684509277344,99.7255401611328,-9.55218505859375
249891,-0.3316497802734375,0.56695556640625,-0.23895263671875,0.3842957317829132,-0.1123523712158203,-0.0763432383537292,64.15684509277344,99.7255401611328,-9.55218505859375
249892,-0.2838287353515625,0.5733489990234375,-0.201263427734375,0.4465061128139496,0.0352144464850425,-0.0572979114949703,64.23738098144531,99.64883422851562,-9.685699462890623
249893,-0.1896209716796875,0.55682373046875,-0.12261962890625,0.4047805070877075,0.112609900534153,-0.0040791640058159,64.19705200195312,99.57054138183594,-9.909500122070312
249894,-0.1896209716796875,0.55682373046875,-0.12261962890625,0.4047805070877075,0.112609900534153,-0.0040791640058159,64.19705200195312,99.57054138183594,-9.909500122070312
249895,-0.079437255859375,0.5615692138671875,-0.0593109130859375,0.1322855949401855,0.1002805307507515,0.091309942305088,64.17721557617188,99.50833129882812,-9.966354370117188
249896,0.067718505859375,0.5838623046875,-0.0201416015625,0.0058946409262716,0.0666605159640312,0.1475268751382828,64.08488464355469,99.5843505859375,-10.44013977050781
249897,0.135955810546875,0.614501953125,-0.011749267578125,-0.1150722578167915,0.0272244308143854,0.2085603922605515,64.12063598632812,99.65457153320312,-10.37045288085938
249898,0.135955810546875,0.614501953125,-0.011749267578125,-0.1150722578167915,0.0272244308143854,0.2085603922605515,64.12063598632812,99.65457153320312,-10.37045288085938
249899,0.1886444091796875,0.7198944091796875,0.0943145751953125,-0.3100795745849609,0.1370792984962463,0.2570648193359375,63.97959899902344,99.70394897460938,-10.241455078125
249900,0.165252685546875,0.770172119140625,0.132415771484375,-0.3910098373889923,0.2569135427474976,0.2342897355556488,63.96818542480469,99.77708435058594,-10.22201538085938
249901,0.113861083984375,0.79559326171875,0.15509033203125,-0.4522660076618195,0.332385927438736,0.2198074609041214,64.08546447753906,99.75860595703124,-10.02774047851562
249902,0.05975341796875,0.8043212890625,0.181640625,-0.5005283355712891,0.3740487098693848,0.2077822238206863,64.09468078613281,99.7681884765625,-9.787734985351562
249903,0.05975341796875,0.8043212890625,0.181640625,-0.5005283355712891,0.3740487098693848,0.2077822238206863,64.09468078613281,99.7681884765625,-9.787734985351562
249904,-0.0229034423828125,0.85400390625,0.2646026611328125,-0.6813217997550964,0.460067480802536,0.1661913692951202,64.17689514160156,99.70376586914062,-9.429443359375
249905,-0.0579071044921875,0.89166259765625,0.2861328125,-0.7914429903030396,0.4992716014385223,0.1288852840662003,64.14736938476562,99.63735961914062,-9.03985595703125
249906,-0.0579071044921875,0.89166259765625,0.2861328125,-0.7914429903030396,0.4992716014385223,0.1288852840662003,64.14736938476562,99.63735961914062,-9.03985595703125
249907,-0.1130828857421875,0.9435882568359376,0.2585296630859375,-0.9391754865646362,0.3143832385540009,0.009865946136415,64.16488647460938,99.62956237792967,-8.159698486328125
249908,-0.1161651611328125,0.9663848876953124,0.24139404296875,-0.9728772640228271,0.0813145637512207,-0.0540547110140323,64.19192504882812,99.53898620605467,-7.727371215820312
249909,-0.0887603759765625,1.015289306640625,0.2494964599609375,-1.000523805618286,-0.1252114474773407,-0.1226849034428596,64.0908203125,99.44424438476562,-7.227630615234375
249910,-0.0887603759765625,1.015289306640625,0.2494964599609375,-1.000523805618286,-0.1252114474773407,-0.1226849034428596,64.0908203125,99.44424438476562,-7.227630615234375
249911,0.0036773681640625,1.211639404296875,0.2281951904296875,-1.03003454208374,-0.2772156298160553,-0.2219595611095428,63.78125,99.29109191894533,-6.1868896484375
249912,0.0285491943359375,1.328414916992188,0.138641357421875,-0.939495325088501,-0.263496607542038,-0.2505115866661072,63.67794799804688,99.39361572265624,-5.79962158203125
249913,0.02655029296875,1.4259033203125,-0.00372314453125,-0.7353214025497437,-0.2195730954408646,-0.2644593417644501,63.45587158203125,99.43666076660156,-5.371261596679688
249914,0.02655029296875,1.4259033203125,-0.00372314453125,-0.7353214025497437,-0.2195730954408646,-0.2644593417644501,63.45587158203125,99.43666076660156,-5.371261596679688
249915,0.0028533935546875,1.476898193359375,-0.1208953857421875,-0.4659954011440277,-0.1556388586759567,-0.2735564410686493,63.16679382324219,99.3463897705078,-4.9591064453125
249916,-0.044677734375,1.414505004882812,-0.1698760986328125,-0.0501494519412517,0.0436393544077873,-0.1649071872234344,62.81764221191406,99.40843200683594,-4.544921875
249917,-0.0451812744140625,1.382278442382812,-0.1777496337890625,0.0587589219212532,0.1391887813806534,-0.082316979765892,62.59567260742188,99.42953491210938,-4.387466430664062
249918,-0.0451812744140625,1.382278442382812,-0.1777496337890625,0.0587589219212532,0.1391887813806534,-0.082316979765892,62.59567260742188,99.42953491210938,-4.387466430664062
249919,-0.036102294921875,1.329757690429688,-0.215789794921875,0.1648997366428375,0.2406200617551804,-0.0014069479657337,62.4537353515625,99.46339416503906,-4.307098388671875
249920,-0.0103759765625,1.113372802734375,-0.3037261962890625,0.3567045927047729,0.3762681782245636,0.2067984491586685,62.37347412109375,99.53556823730467,-4.410003662109375
249921,-0.0129241943359375,1.0169677734375,-0.3150482177734375,0.4485948383808136,0.4222718775272369,0.3169278800487518,62.38984680175781,99.47845458984376,-4.564315795898438
249922,-0.0129241943359375,1.0169677734375,-0.3150482177734375,0.4485948383808136,0.4222718775272369,0.3169278800487518,62.38984680175781,99.47845458984376,-4.564315795898438
249923,0.005126953125,0.8855743408203125,-0.373443603515625,0.5908334851264954,0.5253047943115234,0.4839829206466675,62.37416076660156,99.54289245605467,-4.794158935546875
249924,0.0366973876953125,0.8831939697265625,-0.3969268798828125,0.5853177905082703,0.5722278356552124,0.5242152810096741,62.62464904785156,99.50457763671876,-4.974349975585938
249925,0.0919342041015625,0.9174957275390624,-0.38507080078125,0.5269575715065002,0.5936393737792969,0.5298558473587036,62.77694702148438,99.55007934570312,-5.194107055664062
249926,0.0919342041015625,0.9174957275390624,-0.38507080078125,0.5269575715065002,0.5936393737792969,0.5298558473587036,62.77694702148438,99.55007934570312,-5.194107055664062
249927,0.1596832275390625,1.081680297851562,-0.3013916015625,0.3795792758464813,0.5949810743331909,0.4926400482654572,63.22137451171875,99.626708984375,-5.63580322265625
249928,0.161102294921875,1.175064086914062,-0.2482147216796875,0.3510996997356415,0.5974213480949402,0.459063708782196,63.31593322753906,99.5510711669922,-5.780563354492188
249929,0.147003173828125,1.273834228515625,-0.1984710693359375,0.3625779151916504,0.6074947118759155,0.4193711578845978,63.53251647949219,99.53385925292967,-5.899795532226562
249930,0.147003173828125,1.273834228515625,-0.1984710693359375,0.3625779151916504,0.6074947118759155,0.4193711578845978,63.53251647949219,99.53385925292967,-5.899795532226562
249931,0.102264404296875,1.418350219726562,-0.079864501953125,0.4492094814777374,0.6044254302978516,0.2997928261756897,63.75018310546875,99.49468994140624,-6.091964721679688
249932,0.07818603515625,1.433273315429688,-0.012237548828125,0.4492094814777374,0.6044254302978516,0.2997928261756897,63.91580200195312,99.36505126953124,-6.10748291015625
249933,0.056427001953125,1.387008666992188,0.0436859130859375,0.5015690922737122,0.5739913582801819,0.2773218750953674,64.081298828125,99.35700988769533,-6.24639892578125
249934,0.056427001953125,1.387008666992188,0.0436859130859375,0.5015690922737122,0.5739913582801819,0.2773218750953674,64.081298828125,99.35700988769533,-6.24639892578125
249935,0.015472412109375,1.166152954101562,0.0504913330078125,0.5877377986907959,0.3652509450912476,0.2669009268283844,64.39846801757812,99.30720520019533,-6.617111206054688
249936,-0.0046234130859375,1.021408081054688,0.0579833984375,0.6011300683021545,0.2204090654850006,0.2923519611358643,64.55055236816406,99.31103515625,-6.898666381835938
249937,-0.011932373046875,0.899505615234375,0.0914306640625,0.5804393887519836,0.0946585983037948,0.3611323535442352,64.77732849121094,99.20750427246094,-7.1259765625
249938,0.0024871826171875,0.8326416015625,0.126617431640625,0.4953887164592743,-0.0182514414191246,0.4229496717453003,64.86628723144531,99.19522094726562,-7.474807739257812
249939,0.0384674072265625,0.799591064453125,0.16302490234375,0.1353977769613266,-0.3178820908069611,0.4500795602798462,65.10165405273438,99.05291748046876,-7.689895629882812
249940,0.097412109375,0.7677001953125,0.173583984375,0.1353977769613266,-0.3178820908069611,0.4500795602798462,65.41419982910156,98.9782257080078,-8.021408081054688
249941,0.1409454345703125,0.7288818359375,0.1591339111328125,-0.0062419171445071,-0.4806350469589233,0.4455748200416565,65.58937072753906,98.76361083984376,-8.064804077148438
249942,0.1409454345703125,0.7288818359375,0.1591339111328125,-0.0062419171445071,-0.4806350469589233,0.4455748200416565,65.58937072753906,98.76361083984376,-8.064804077148438
249943,0.10089111328125,0.7702178955078125,0.1046142578125,0.0518032759428024,-0.4373616278171539,0.4243099987506866,66.103515625,98.6485595703125,-8.251327514648438
249944,0.0268096923828125,0.780364990234375,0.035400390625,0.1643673777580261,-0.2839717864990234,0.3544387817382812,66.35626220703125,98.36505126953124,-8.160690307617188
249945,-0.0174560546875,0.76776123046875,0.014007568359375,0.2685108184814453,-0.1052949950098991,0.2764299809932709,66.64817810058594,98.19491577148438,-8.130172729492188
249946,-0.0174560546875,0.76776123046875,0.014007568359375,0.2685108184814453,-0.1052949950098991,0.2764299809932709,66.64817810058594,98.19491577148438,-8.130172729492188
249947,-0.0756378173828125,0.7079010009765625,-0.0055999755859375,0.2944561243057251,0.3269232511520386,0.1162544339895248,66.93670654296875,98.0571746826172,-8.416656494140625
249948,-0.085113525390625,0.6743011474609375,-0.0838470458984375,0.2464113682508469,0.4680566787719727,0.0807182788848877,66.98870849609375,98.07098388671876,-8.573944091796875
249949,-0.0696563720703125,0.674468994140625,-0.1614532470703125,0.2223877906799316,0.5368815660476685,0.0740587785840034,67.06953430175781,98.11412048339844,-8.571456909179688
249950,0.0269775390625,0.7493743896484375,-0.2863006591796875,0.1834390610456467,0.630085825920105,0.0714528784155845,67.10433959960938,98.04258728027344,-8.707748413085938
249951,0.0269775390625,0.7493743896484375,-0.2863006591796875,0.1834390610456467,0.630085825920105,0.0714528784155845,67.10433959960938,98.04258728027344,-8.707748413085938
249952,0.0653228759765625,0.7971649169921875,-0.3189849853515625,0.1200478449463844,0.592436671257019,0.0763592198491096,66.99989318847656,98.10458374023438,-8.749557495117188
249953,0.095611572265625,0.8732452392578125,-0.2909088134765625,0.0210946332663297,0.5353768467903137,0.0597525462508201,66.96444702148438,97.90510559082033,-8.684844970703125
249954,0.095611572265625,0.8732452392578125,-0.2909088134765625,0.0210946332663297,0.5353768467903137,0.0597525462508201,66.96444702148438,97.90510559082033,-8.684844970703125
249955,0.1473541259765625,0.991790771484375,-0.149383544921875,-0.1303327083587646,0.442180335521698,-0.0584720969200134,66.93049621582031,97.93064880371094,-8.452438354492188
249956,0.120269775390625,1.009323120117188,-0.0633544921875,-0.1617084741592407,0.422076404094696,-0.1411315649747849,66.83949279785156,97.92147827148438,-8.354263305664062
249957,0.0631561279296875,1.015670776367188,0.006561279296875,-0.1876718997955322,0.3843649923801422,-0.2289639413356781,66.7952880859375,97.99346923828124,-8.202072143554688
249958,0.0631561279296875,1.015670776367188,0.006561279296875,-0.1876718997955322,0.3843649923801422,-0.2289639413356781,66.7952880859375,97.99346923828124,-8.202072143554688
249959,-0.049468994140625,0.97650146484375,0.1069793701171875,-0.2804540395736694,0.273608386516571,-0.3749640285968781,66.51576232910156,98.2512664794922,-8.049835205078125
249960,-0.080810546875,0.9390716552734376,0.1463775634765625,-0.3422574698925018,0.2166377604007721,-0.4166510105133057,66.36080932617188,98.25257873535156,-7.846893310546875
249961,-0.1077728271484375,0.899871826171875,0.1664276123046875,-0.4066937267780304,0.1716599017381668,-0.4574037790298462,66.25044250488281,98.26426696777344,-7.583358764648438
249962,-0.1213531494140625,0.8577117919921875,0.1673583984375,-0.4664113819599152,0.1073765233159065,-0.4930160939693451,66.02578735351562,98.31907653808594,-7.359283447265625
249963,-0.1213531494140625,0.8577117919921875,0.1673583984375,-0.4664113819599152,0.1073765233159065,-0.4930160939693451,66.02578735351562,98.31907653808594,-7.359283447265625
249964,-0.142822265625,0.825592041015625,0.1752777099609375,-0.5663635730743408,0.1091768220067024,-0.5692093968391418,65.52241516113281,98.4746551513672,-6.873565673828125
249965,-0.173065185546875,0.8299407958984375,0.1794281005859375,-0.6212300062179565,0.1696518808603287,-0.6017098426818848,65.2681884765625,98.62657165527344,-6.609390258789062
249966,-0.20458984375,0.843536376953125,0.1618194580078125,-0.7705462574958801,0.1853986233472824,-0.6410598754882812,64.96669006347656,98.67295837402344,-6.296371459960938
249967,-0.2328338623046875,0.8657073974609375,0.13427734375,-0.85005784034729,0.088539719581604,-0.6308528184890747,64.63226318359375,98.77433776855467,-5.8367919921875
249968,-0.2471466064453125,0.9047088623046876,0.103057861328125,-0.9133510589599608,-0.0454670824110508,-0.6187196969985962,64.38414001464844,98.9118194580078,-5.46038818359375
249969,-0.2421875,0.95025634765625,0.070159912109375,-0.9133510589599608,-0.0454670824110508,-0.6187196969985962,64.01139831542969,98.92868041992188,-4.946731567382812
249970,-0.210723876953125,0.99072265625,0.034759521484375,-0.9769678711891174,-0.2390032559633255,-0.503973126411438,63.68196105957031,98.9568328857422,-4.443222045898438
249971,-0.142974853515625,1.037567138671875,-0.0162353515625,-0.9769678711891174,-0.2390032559633255,-0.503973126411438,63.3314208984375,99.13575744628906,-4.225860595703125
249972,-0.0807342529296875,1.080780029296875,-0.080841064453125,-0.9764943718910216,-0.2327352464199066,-0.3512536287307739,63.01075744628906,99.1100616455078,-3.768447875976562
249973,-0.033355712890625,1.118804931640625,-0.151092529296875,-0.9764943718910216,-0.2327352464199066,-0.3512536287307739,62.69586181640625,99.25627136230467,-3.371719360351562
249974,-0.033355712890625,1.118804931640625,-0.151092529296875,-0.9764943718910216,-0.2327352464199066,-0.3512536287307739,62.69586181640625,99.25627136230467,-3.371719360351562
249975,-0.0374298095703125,1.249664306640625,-0.20574951171875,-0.8952386379241943,0.1040957793593407,-0.1415230482816696,62.45262145996094,99.23406982421876,-3.040145874023438
249976,-0.0443878173828125,1.429031372070312,-0.35333251953125,-0.8555319905281067,0.0901069864630699,-0.0923022329807281,61.94184875488281,99.06997680664062,-2.16156005859375
249977,-0.0072479248046875,1.317276000976562,-0.3496551513671875,-0.8229827880859375,-0.0520320422947406,-0.062021292746067,61.77093505859375,99.06651306152344,-1.64825439453125
249978,-0.0072479248046875,1.317276000976562,-0.3496551513671875,-0.8229827880859375,-0.0520320422947406,-0.062021292746067,61.77093505859375,99.06651306152344,-1.64825439453125
249979,0.0232696533203125,1.14886474609375,-0.3449859619140625,-0.740899384021759,-0.224150538444519,-0.0505827516317367,61.68136596679688,99.0501708984375,-1.22320556640625
249980,0.061126708984375,0.939605712890625,-0.3646392822265625,-0.3329302966594696,-0.4540007710456848,0.0588710382580757,61.59510803222656,98.80726623535156,-0.4707489013671875
249981,0.1052398681640625,0.97357177734375,-0.4019775390625,-0.0355063304305076,-0.3380140066146851,0.1317561715841293,61.63331604003906,98.7233428955078,-0.097137451171875
249982,0.1052398681640625,0.97357177734375,-0.4019775390625,-0.0355063304305076,-0.3380140066146851,0.1317561715841293,61.63331604003906,98.7233428955078,-0.097137451171875
249983,0.155914306640625,1.004852294921875,-0.508056640625,0.2415156811475754,-0.2216522395610809,0.2183989137411118,61.75212097167969,98.69866943359376,-0.0458831787109375
249984,0.2155303955078125,1.10089111328125,-0.5911407470703125,0.4445031583309174,-0.1692057996988297,0.2928662300109863,62.14840698242188,98.45556640625,-0.2258758544921875
249985,0.2304840087890625,1.167251586914062,-0.5599212646484375,0.4195884764194489,-0.1186171919107437,0.2841371893882751,62.26165771484375,98.37400817871094,-0.3382720947265625
249986,0.25537109375,1.20025634765625,-0.4996490478515625,0.3825860023498535,-0.066804863512516,0.257700502872467,62.44778442382812,98.46304321289062,-0.5101318359375
249987,0.2777557373046875,1.210250854492188,-0.417083740234375,0.3675290048122406,-0.041508562862873,0.2752819061279297,62.60978698730469,98.41934204101562,-0.800140380859375
249988,0.2979278564453125,1.233123779296875,-0.3160858154296875,0.4027282893657684,-0.0271043218672275,0.3216115832328796,62.70851135253906,98.42008972167967,-0.94879150390625
249989,0.321502685546875,1.243881225585938,-0.2205810546875,0.4549150466918945,-0.0918798595666885,0.357115238904953,62.98930358886719,98.3267059326172,-1.213882446289062
249990,0.321502685546875,1.243881225585938,-0.2205810546875,0.4549150466918945,-0.0918798595666885,0.357115238904953,62.98930358886719,98.3267059326172,-1.213882446289062
249991,0.3348388671875,1.258087158203125,-0.120330810546875,0.5140132308006287,-0.252060204744339,0.3860582113265991,63.20408630371094,98.3180694580078,-1.50665283203125
249992,0.271026611328125,1.310653686523438,0.13153076171875,0.4665874242782593,-0.6786131262779236,0.4233387410640717,63.64361572265625,98.26048278808594,-2.030975341796875
249993,0.2396087646484375,1.350921630859375,0.2875823974609375,0.4096295833587646,-0.732371985912323,0.4274634420871735,63.92256164550781,98.17710876464844,-2.329925537109375
249994,0.2396087646484375,1.350921630859375,0.2875823974609375,0.4096295833587646,-0.732371985912323,0.4274634420871735,63.92256164550781,98.17710876464844,-2.329925537109375
249995,0.1404876708984375,1.463043212890625,0.444793701171875,0.4655908644199371,-0.2983187735080719,0.2492140829563141,64.75167846679688,98.049560546875,-3.077590942382812
249996,0.0417938232421875,1.5118408203125,0.456207275390625,0.4655908644199371,-0.2983187735080719,0.2492140829563141,65.06941223144531,98.05116271972656,-3.371719360351562
249997,-0.06591796875,1.457626342773438,0.411041259765625,0.5736038684844971,-0.1396095603704453,0.0644397065043449,65.44154357910156,98.0882568359375,-3.51727294921875
249998,-0.06591796875,1.457626342773438,0.411041259765625,0.5736038684844971,-0.1396095603704453,0.0644397065043449,65.44154357910156,98.0882568359375,-3.51727294921875
249999,-0.193084716796875,1.188949584960938,0.2436676025390625,0.781324565410614,-0.2775967121124268,-0.1973338425159454,66.00910949707031,98.05134582519533,-3.938308715820312
250000,-0.191802978515625,1.000030517578125,0.152679443359375,0.8275269865989685,-0.476926863193512,-0.2796532213687897,66.17697143554688,98.02542114257812,-4.263137817382812
250001,-0.1876068115234375,0.8031158447265625,0.006500244140625,0.8134369850158691,-0.8174597024917603,-0.2968918681144714,66.20919799804688,97.96989440917967,-4.681488037109375
250002,-0.1876068115234375,0.8031158447265625,0.006500244140625,0.8134369850158691,-0.8174597024917603,-0.2968918681144714,66.20919799804688,97.96989440917967,-4.681488037109375
250003,-0.1941375732421875,0.6826324462890625,-0.0327301025390625,0.7812516093254089,-1.144145131111145,-0.1808968186378479,66.29678344726562,97.99124145507812,-5.03863525390625
250004,-0.1969451904296875,0.6396942138671875,0.1070404052734375,0.8118481636047363,-0.8597978353500366,-0.0739093795418739,66.42420959472656,98.2294464111328,-5.995498657226562
250005,-0.1657867431640625,0.637054443359375,0.0096435546875,0.8153315782546997,-0.6723429560661316,0.0164045393466949,66.44499206542969,98.23445129394533,-6.504501342773438
250006,-0.1314239501953125,0.66119384765625,-0.111236572265625,0.7993872165679932,-0.9374598860740662,-0.0044773062691092,66.40869140625,98.36343383789062,-6.936737060546875
250007,-0.136383056640625,0.650177001953125,-0.1196441650390625,0.7993872165679932,-0.9374598860740662,-0.0044773062691092,66.47142028808594,98.5140380859375,-7.451416015625
250008,-0.144744873046875,0.601776123046875,-0.0391845703125,0.812101423740387,-0.9348846077919006,-0.0112356105819344,66.55690002441406,98.54893493652344,-7.8682861328125
250009,-0.11956787109375,0.5646209716796875,0.0036163330078125,0.8103378415107727,-0.7702063918113708,0.0263748820871114,66.49899291992188,98.50205993652344,-8.334442138671875
250010,-0.11956787109375,0.5646209716796875,0.0036163330078125,0.8103378415107727,-0.7702063918113708,0.0263748820871114,66.49899291992188,98.50205993652344,-8.334442138671875
250011,-0.0278472900390625,0.582183837890625,-0.0120391845703125,0.7429524064064026,-0.6868353486061096,0.1076566874980927,66.57160949707031,98.5548095703125,-8.922637939453125
250012,0.1426544189453125,0.693695068359375,0.1258392333984375,0.4012544751167297,-0.6277893781661987,0.23005211353302,66.71235656738281,98.39169311523438,-9.88287353515625
250013,0.196685791015625,0.6984100341796875,0.204925537109375,0.2058088183403015,-0.5318598747253418,0.3086603581905365,66.77116394042969,98.37435913085938,-10.22482299804688
250014,0.196685791015625,0.6984100341796875,0.204925537109375,0.2058088183403015,-0.5318598747253418,0.3086603581905365,66.77116394042969,98.37435913085938,-10.22482299804688
250015,0.2721405029296875,0.750335693359375,0.2884674072265625,-0.1041104197502136,-0.3459259867668152,0.494442492723465,67.05583190917969,98.45867919921876,-10.72773742675781
250016,0.242095947265625,0.864898681640625,0.2872161865234375,-0.2295077592134476,-0.256353497505188,0.5277708768844604,67.20726013183594,98.33636474609376,-10.8963623046875
250017,0.1553192138671875,0.9783172607421876,0.26007080078125,-0.3428569436073303,-0.2082919478416443,0.473145455121994,67.4091796875,98.2246551513672,-10.91067504882812
250018,0.055938720703125,0.9536895751953124,0.196197509765625,-0.3278740048408508,-0.0542155690491199,0.2666378021240234,67.76988220214844,98.27725219726562,-10.89129638671875
250019,0.055938720703125,0.9536895751953124,0.196197509765625,-0.3278740048408508,-0.0542155690491199,0.2666378021240234,67.76988220214844,98.27725219726562,-10.89129638671875
250020,0.06048583984375,0.9413909912109376,0.2207794189453125,-0.3278740048408508,-0.0542155690491199,0.2666378021240234,67.9718017578125,98.18280029296876,-10.78840637207031
250021,0.0703887939453125,0.9379425048828124,0.2633209228515625,-0.3475750088691711,0.0092510227113962,0.19753597676754,68.1121826171875,98.1004638671875,-10.66244506835938
250022,0.0703887939453125,0.9379425048828124,0.2633209228515625,-0.3475750088691711,0.0092510227113962,0.19753597676754,68.1121826171875,98.1004638671875,-10.66244506835938
250023,0.0761871337890625,0.9331817626953124,0.2988128662109375,-0.5905227065086365,0.044348556548357,-0.0034519892651587,68.15057373046875,98.07884216308594,-10.50445556640625
250024,0.0204925537109375,0.9638671875,0.360626220703125,-0.7773138880729675,0.0432071238756179,-0.132384404540062,68.30313110351562,97.89411926269533,-10.19007873535156
250025,-0.0420379638671875,1.012435913085938,0.3599853515625,-0.984564244747162,0.0389311537146568,-0.2776481211185455,68.30419921875,97.89456176757812,-9.905242919921877
250026,-0.0420379638671875,1.012435913085938,0.3599853515625,-0.984564244747162,0.0389311537146568,-0.2776481211185455,68.30419921875,97.89456176757812,-9.905242919921877
250027,-0.090057373046875,1.05804443359375,0.3093719482421875,-1.281302690505981,-0.1355727463960648,-0.4831304550170898,68.31539916992188,97.86457824707033,-9.525009155273438
250028,-0.104400634765625,1.163284301757812,0.1748199462890625,-1.150801420211792,0.0163038726896047,-0.4658933877944946,68.041748046875,97.84164428710938,-8.299224853515625
250029,-0.082916259765625,1.252426147460938,0.06280517578125,-1.150801420211792,0.0163038726896047,-0.4658933877944946,67.85174560546875,97.87092590332033,-7.684341430664062
250030,-0.082916259765625,1.252426147460938,0.06280517578125,-1.150801420211792,0.0163038726896047,-0.4658933877944946,67.85174560546875,97.87092590332033,-7.684341430664062
250031,-0.0698089599609375,1.306655883789062,-0.108856201171875,-0.5746941566467285,0.5736222863197327,-0.3600950539112091,67.32502746582031,97.7691650390625,-6.273086547851562
250032,-0.0506439208984375,1.27679443359375,-0.136749267578125,-0.3546052277088165,0.7554389238357544,-0.326397567987442,67.09300231933594,97.71710205078124,-5.763214111328125
250033,-0.02032470703125,1.2830810546875,-0.1935577392578125,-0.2790960967540741,0.8174660801887512,-0.2952603995800018,66.81405639648438,97.82022094726562,-5.704483032226562
250034,-0.02032470703125,1.2830810546875,-0.1935577392578125,-0.2790960967540741,0.8174660801887512,-0.2952603995800018,66.81405639648438,97.82022094726562,-5.704483032226562
250035,-0.0047454833984375,1.319671630859375,-0.293182373046875,-0.2652617692947388,0.8119724988937378,-0.2682183980941772,66.42221069335938,97.89862060546876,-5.548873901367188
250036,0.072906494140625,1.22882080078125,-0.4932708740234375,-0.0808826014399528,0.6756753921508789,-0.1269363760948181,65.84666442871094,97.96180725097656,-4.991241455078125
250037,0.10382080078125,1.147811889648438,-0.555389404296875,0.1008776128292084,0.7073851227760315,-0.0279815662652254,65.66461181640625,97.99508666992188,-4.756362915039062
250038,0.1275787353515625,1.073089599609375,-0.61077880859375,0.276753842830658,0.7738744020462036,0.0561492890119552,65.37521362304688,98.01947021484376,-4.56842041015625
250039,0.1275787353515625,1.073089599609375,-0.61077880859375,0.276753842830658,0.7738744020462036,0.0561492890119552,65.37521362304688,98.01947021484376,-4.56842041015625
250040,0.1902923583984375,0.972259521484375,-0.6445770263671875,0.5300835967063904,0.9466317892074584,0.1725541949272156,65.04786682128906,98.03282165527344,-4.428115844726562
250041,0.2029571533203125,0.9686737060546876,-0.62786865234375,0.5824874043464661,1.019887566566467,0.191650390625,65.00022888183594,98.08511352539062,-4.445831298828125
250042,0.197601318359375,0.9980926513671876,-0.606842041015625,0.5939506888389587,1.056612133979797,0.1995820850133896,64.97958374023438,98.1244659423828,-4.416046142578125
250043,0.177154541015625,1.041915893554688,-0.581573486328125,0.5857990384101868,1.090988755226135,0.2086376249790192,64.90681457519531,98.12678527832033,-4.533859252929688
250044,0.1486663818359375,1.09716796875,-0.5377044677734375,0.5788670778274536,1.108328580856323,0.227255254983902,64.89949035644531,98.22398376464844,-4.711074829101562
250045,0.10736083984375,1.153152465820312,-0.4645538330078125,0.5657387971878052,1.154674768447876,0.2429705709218979,64.93962097167969,98.2963409423828,-4.8826904296875
250046,0.10736083984375,1.153152465820312,-0.4645538330078125,0.5657387971878052,1.154674768447876,0.2429705709218979,64.93962097167969,98.2963409423828,-4.8826904296875
250047,-0.0174560546875,1.258621215820312,-0.298675537109375,0.5539156794548035,1.126588225364685,0.1610149890184402,64.89738464355469,98.53434753417967,-5.3662109375
250048,-0.075225830078125,1.29693603515625,-0.201080322265625,0.5539156794548035,1.126588225364685,0.1610149890184402,64.82792663574219,98.61074829101562,-5.54071044921875
250049,-0.1062774658203125,1.335617065429688,-0.0903778076171875,0.5089937448501587,1.051880717277527,0.1234612166881561,64.87022399902344,98.76829528808594,-5.593246459960938
250050,-0.098114013671875,1.34674072265625,0.0286407470703125,0.3345460295677185,0.809112548828125,0.2102680206298828,64.86152648925781,98.80873107910156,-5.729873657226562
250051,-0.098114013671875,1.34674072265625,0.0286407470703125,0.3345460295677185,0.809112548828125,0.2102680206298828,64.86152648925781,98.80873107910156,-5.729873657226562
250052,-0.024078369140625,1.307815551757812,0.1543121337890625,0.2643930315971375,0.5532445311546326,0.294876366853714,65.00318908691406,98.83355712890624,-6.07257080078125
250053,0.0281524658203125,1.246475219726562,0.1799774169921875,0.2656862735748291,0.2538730204105377,0.3993130326271057,65.14111328125,98.912109375,-6.050765991210938
250054,0.0281524658203125,1.246475219726562,0.1799774169921875,0.2656862735748291,0.2538730204105377,0.3993130326271057,65.14111328125,98.912109375,-6.050765991210938
250055,0.0886688232421875,1.169174194335938,0.2368621826171875,0.3584454953670502,-0.0221721474081277,0.4895015358924866,65.33242797851562,98.85099792480467,-6.052154541015625
250056,0.1304168701171875,0.9011077880859376,0.2296142578125,0.4927327334880829,-0.4228644371032715,0.5352525115013123,65.71971130371094,98.69619750976562,-6.359756469726562
250057,0.1607818603515625,0.766448974609375,0.160797119140625,0.4458517730236053,-0.7394429445266724,0.5018668174743652,66.03372192382812,98.62315368652344,-6.583709716796875
250058,0.20404052734375,0.6515655517578125,0.15606689453125,0.3364605605602264,-1.026897311210632,0.4501266777515411,66.34431457519531,98.35130310058594,-6.728302001953125
250059,0.20404052734375,0.6515655517578125,0.15606689453125,0.3364605605602264,-1.026897311210632,0.4501266777515411,66.34431457519531,98.35130310058594,-6.728302001953125
250060,0.2906646728515625,0.5263671875,0.135711669921875,0.0591093935072422,-1.156421184539795,0.3826746642589569,66.997314453125,98.19142150878906,-7.319549560546875
250061,0.31561279296875,0.5138092041015625,0.0847320556640625,-0.0655611678957939,-1.020599722862244,0.3393239974975586,67.57682800292969,98.07611083984376,-7.8961181640625
250062,0.31561279296875,0.5138092041015625,0.0847320556640625,-0.0655611678957939,-1.020599722862244,0.3393239974975586,67.57682800292969,98.07611083984376,-7.8961181640625
250063,0.3033294677734375,0.5936126708984375,0.05999755859375,-0.1566687077283859,-0.7585052847862244,0.2169118076562881,67.75791931152344,97.94314575195312,-7.946746826171875
250064,0.0453643798828125,0.69549560546875,-0.0703125,-0.2648854553699493,-0.180104523897171,0.0969577059149742,68.06448364257812,97.9001007080078,-8.0054931640625
250065,0.0018463134765625,0.6971282958984375,-0.0911712646484375,-0.234970435500145,-0.138340562582016,0.0675532147288322,68.25196838378906,97.66835021972656,-7.797393798828125
250066,-0.03070068359375,0.6879425048828125,-0.0198822021484375,-0.163647249341011,-0.0670560002326965,0.0346115082502365,68.44964599609375,97.57257080078124,-7.621170043945312
250067,-0.0891265869140625,0.6969757080078125,0.0479888916015625,-0.1362710297107697,0.0706629827618598,0.0229242239147424,68.42001342773438,97.54116821289062,-7.397003173828125
250068,-0.170318603515625,0.750091552734375,0.087677001953125,-0.1707056909799576,0.1967695206403732,-0.0106542417779564,68.51455688476562,97.48112487792967,-7.232025146484375
250069,-0.2491455078125,0.826171875,0.123748779296875,-0.2269670963287354,0.2904318273067474,-0.076630063354969,68.48396301269531,97.43869018554688,-7.117355346679688
250070,-0.2992095947265625,0.894927978515625,0.169952392578125,-0.3047905266284943,0.4114109873771667,-0.2490439116954803,68.53114318847656,97.39048767089844,-7.195770263671875
250071,-0.2992095947265625,0.894927978515625,0.169952392578125,-0.3047905266284943,0.4114109873771667,-0.2490439116954803,68.53114318847656,97.39048767089844,-7.195770263671875
250072,-0.299713134765625,0.9581451416015624,0.249267578125,-0.3124473690986633,0.471843421459198,-0.3118242025375366,68.38276672363281,97.587890625,-7.025283813476562
250073,-0.2713470458984375,0.963958740234375,0.2578277587890625,-0.3212656378746033,0.5579807162284851,-0.3587155342102051,68.25082397460938,97.6062469482422,-6.839614868164062
250074,-0.2487945556640625,0.96368408203125,0.230133056640625,-0.322407603263855,0.6383613348007202,-0.4019668698310852,68.0037841796875,97.6097412109375,-6.617950439453125
250075,-0.2487945556640625,0.96368408203125,0.230133056640625,-0.322407603263855,0.6383613348007202,-0.4019668698310852,68.0037841796875,97.6097412109375,-6.617950439453125
250076,-0.254852294921875,0.9361724853515624,0.1404571533203125,-0.2376181483268738,0.7004438638687134,-0.4932701587677002,67.46859741210938,97.74684143066406,-6.18487548828125
250077,-0.2667388916015625,0.9213714599609376,0.120025634765625,-0.1732375621795654,0.6913704872131348,-0.5292878150939941,67.22122192382812,97.86614990234376,-5.922027587890625
250078,-0.2667388916015625,0.9213714599609376,0.120025634765625,-0.1732375621795654,0.6913704872131348,-0.5292878150939941,67.22122192382812,97.86614990234376,-5.922027587890625
250079,-0.2924346923828125,0.850799560546875,0.120941162109375,-0.1313108801841736,0.6990121603012085,-0.5470580458641052,66.52516174316406,98.0196533203125,-5.61376953125
250080,-0.3167724609375,0.81475830078125,0.126251220703125,-0.1763494610786438,0.7511062026023865,-0.4957564771175385,66.07035827636719,98.1809539794922,-5.417098999023438
250081,-0.3281402587890625,0.8061676025390625,0.105224609375,-0.2527832686901093,0.8406111001968384,-0.4186848700046539,65.81610107421875,98.32960510253906,-5.239700317382812
250082,-0.3281402587890625,0.8061676025390625,0.105224609375,-0.2527832686901093,0.8406111001968384,-0.4186848700046539,65.81610107421875,98.32960510253906,-5.239700317382812
250083,-0.3050079345703125,0.82794189453125,0.03955078125,-0.3427893221378326,0.8950596451759338,-0.3589749336242676,65.46994018554688,98.32530212402344,-5.125381469726562
250084,-0.222412109375,0.85797119140625,-0.0893402099609375,-0.4691608250141144,0.9480978846549988,-0.2841262519359589,64.73248291015625,98.49017333984376,-4.55072021484375
250085,-0.1518096923828125,0.864776611328125,-0.1061553955078125,-0.5261697769165039,0.971615433692932,-0.2163195163011551,64.45675659179688,98.58584594726562,-4.22039794921875
250086,-0.1518096923828125,0.864776611328125,-0.1061553955078125,-0.5261697769165039,0.971615433692932,-0.2163195163011551,64.45675659179688,98.58584594726562,-4.22039794921875
250087,0.0465850830078125,0.98846435546875,-0.075225830078125,-0.7786774039268494,0.956316351890564,-0.11205143481493,63.77796936035156,98.6599578857422,-3.46966552734375
250088,0.1207122802734375,1.104598999023438,-0.10113525390625,-0.7786774039268494,0.956316351890564,-0.11205143481493,63.461181640625,98.56199645996094,-3.124603271484375
250089,0.165740966796875,1.237579345703125,-0.147705078125,-0.7276432514190674,0.8539623022079468,-0.1224343031644821,63.18901062011719,98.51596069335938,-2.647735595703125
250090,0.165740966796875,1.237579345703125,-0.147705078125,-0.7276432514190674,0.8539623022079468,-0.1224343031644821,63.18901062011719,98.51596069335938,-2.647735595703125
250091,0.200927734375,1.361129760742188,-0.1983795166015625,-0.5549553632736206,0.7212870717048645,-0.1238031685352325,62.93180847167969,98.5334014892578,-2.211807250976562
250092,0.279510498046875,1.395355224609375,-0.2595672607421875,-0.2503637671470642,0.5543678402900696,-0.0659702271223068,62.32131958007812,98.33009338378906,-1.473495483398438
250093,0.287261962890625,1.312591552734375,-0.2330474853515625,-0.1934930384159088,0.4399648606777191,-0.0133666712790727,62.05502319335938,98.37144470214844,-1.3109130859375
250094,0.3043212890625,1.200942993164062,-0.240386962890625,-0.0947315692901611,0.296780526638031,0.0068821408785879,61.90434265136719,98.4648895263672,-1.230300903320312
250095,0.3043212890625,1.200942993164062,-0.240386962890625,-0.0947315692901611,0.296780526638031,0.0068821408785879,61.90434265136719,98.4648895263672,-1.230300903320312
250096,0.3351593017578125,0.983062744140625,-0.3537750244140625,0.1041775345802307,-0.0202810373157262,0.0218032989650964,61.7210693359375,98.48464965820312,-0.980072021484375
250097,0.3429412841796875,0.939239501953125,-0.4432525634765625,0.1671170890331268,-0.1717307418584824,0.0443024821579456,61.69474792480469,98.51423645019533,-0.924896240234375
250098,0.3429412841796875,0.939239501953125,-0.4432525634765625,0.1671170890331268,-0.1717307418584824,0.0443024821579456,61.69474792480469,98.51423645019533,-0.924896240234375
250099,0.3417510986328125,0.94622802734375,-0.5029144287109375,0.2407998293638229,-0.2956785261631012,0.0589738376438617,61.737548828125,98.5150146484375,-0.934417724609375
250100,0.3365325927734375,1.001373291015625,-0.5118865966796875,0.3924404978752136,-0.4686668217182159,0.1011407300829887,61.91616821289062,98.59043884277344,-1.029266357421875
250101,0.346466064453125,1.058563232421875,-0.4676666259765625,0.41804039478302,-0.5222141742706299,0.1152895763516426,62.00932312011719,98.54920959472656,-1.137298583984375
250102,0.36846923828125,1.108261108398438,-0.4128875732421875,0.4244056046009064,-0.5743037462234497,0.1285936683416367,62.152587890625,98.57579040527344,-1.417449951171875
250103,0.36846923828125,1.108261108398438,-0.4128875732421875,0.4244056046009064,-0.5743037462234497,0.1285936683416367,62.152587890625,98.57579040527344,-1.417449951171875
250104,0.395751953125,1.2386474609375,-0.2731170654296875,0.4028297364711761,-0.7560650110244751,0.148892804980278,62.37742614746094,98.63796997070312,-1.910797119140625
250105,0.3817138671875,1.31707763671875,-0.193145751953125,0.3526938855648041,-0.8494711518287659,0.1208566427230835,62.53909301757812,98.6890869140625,-2.110855102539062
250106,0.3817138671875,1.31707763671875,-0.193145751953125,0.3526938855648041,-0.8494711518287659,0.1208566427230835,62.53909301757812,98.6890869140625,-2.110855102539062
250107,0.29925537109375,1.471237182617188,-0.01611328125,0.2213361114263535,-0.9410426020622252,-0.0398350320756435,62.98893737792969,98.7874755859375,-2.881439208984375
250108,0.2342071533203125,1.497207641601562,0.0718536376953125,0.2101559042930603,-0.9467966556549072,-0.1226460263133049,63.19917297363281,98.73756408691406,-3.111953735351562
250109,0.1595001220703125,1.5113525390625,0.1475067138671875,0.2454896569252014,-0.9356262683868408,-0.1944427192211151,63.26425170898438,98.75965881347656,-3.37689208984375
250110,0.0756988525390625,1.500930786132812,0.1894989013671875,0.4604565501213074,-0.8956255912780762,-0.3204893171787262,63.46725463867188,98.76974487304688,-3.617584228515625
250111,-0.02301025390625,1.448394775390625,0.1864013671875,0.6367213129997253,-0.9111142754554749,-0.3534528613090515,63.58222961425781,99.01969909667967,-3.936264038085938
250112,-0.1290740966796875,1.38177490234375,0.1640625,0.6367213129997253,-0.9111142754554749,-0.3534528613090515,63.59898376464844,99.08460998535156,-4.375473022460938
250113,-0.2196044921875,1.314254760742188,0.123016357421875,0.7388913631439209,-0.9050310850143432,-0.3775765895843506,63.73165893554688,99.24919128417967,-4.775161743164062
250114,-0.3083343505859375,1.100692749023438,0.031097412109375,0.5037225484848022,-0.7169903516769409,-0.3261818289756775,63.63069152832031,99.4976043701172,-5.434249877929688
250115,-0.3083343505859375,1.100692749023438,0.031097412109375,0.5037225484848022,-0.7169903516769409,-0.3261818289756775,63.63069152832031,99.4976043701172,-5.434249877929688
250116,-0.297149658203125,0.9901275634765624,-0.053924560546875,0.4016534388065338,-0.6903747320175171,-0.2973187565803528,63.69692993164062,99.52584838867188,-5.843826293945312
250117,-0.2919769287109375,0.904052734375,-0.120208740234375,0.4266916811466217,-0.7398980259895325,-0.2499616295099258,63.72909545898438,99.598876953125,-6.078506469726562
250118,-0.2919769287109375,0.904052734375,-0.120208740234375,0.4266916811466217,-0.7398980259895325,-0.2499616295099258,63.72909545898438,99.598876953125,-6.078506469726562
250119,-0.336090087890625,0.821868896484375,-0.14825439453125,0.5688581466674805,-0.7068809866905212,-0.1362196207046509,63.75808715820312,99.68560791015624,-6.786300659179688
250120,-0.3389129638671875,0.830413818359375,-0.1006927490234375,0.5368975400924683,-0.6720049977302551,-0.0731154903769493,63.86650085449219,99.79745483398438,-7.095809936523438
250121,-0.314483642578125,0.8460235595703125,-0.03533935546875,0.4362830519676208,-0.598944902420044,-0.0110063124448061,63.92391967773438,99.98916625976562,-7.544281005859375
250122,-0.2838592529296875,0.8446197509765625,0.005645751953125,0.3198363184928894,-0.4756434857845306,0.0567785948514938,64.02105712890625,99.96217346191406,-7.737350463867188
250123,-0.2838592529296875,0.8446197509765625,0.005645751953125,0.3198363184928894,-0.4756434857845306,0.0567785948514938,64.02105712890625,99.96217346191406,-7.737350463867188
250124,-0.267852783203125,0.809478759765625,0.08782958984375,0.3515377938747406,-0.3833111822605133,0.0912183299660682,64.32301330566406,99.86711120605467,-8.200897216796875
250125,-0.263946533203125,0.77734375,0.13641357421875,0.4004707038402557,-0.2238903492689133,0.1053477302193642,64.47270202636719,99.693115234375,-8.28961181640625
250126,-0.26275634765625,0.7217559814453125,0.172637939453125,0.4141772091388702,0.2934824824333191,0.0783312916755676,64.69927978515625,99.64730834960938,-8.638519287109375
250127,-0.272430419921875,0.6489715576171875,0.188873291015625,0.3529434204101562,0.556413471698761,0.0723354518413543,64.71762084960938,99.5599365234375,-8.755172729492188
250128,-0.275360107421875,0.565460205078125,0.1998291015625,0.3529434204101562,0.556413471698761,0.0723354518413543,64.82618713378906,99.44757080078124,-8.989273071289062
250129,-0.25537109375,0.4981689453125,0.2195281982421875,0.2678016126155853,0.7784063220024109,0.071558341383934,64.8536376953125,99.31947326660156,-9.117080688476562
250130,-0.25537109375,0.4981689453125,0.2195281982421875,0.2678016126155853,0.7784063220024109,0.071558341383934,64.8536376953125,99.31947326660156,-9.117080688476562
250131,-0.129058837890625,0.509613037109375,0.3207550048828125,-0.0922684073448181,1.196737289428711,0.2362657934427261,64.83387756347656,99.51441955566406,-9.254074096679688
250132,-0.06707763671875,0.6100616455078125,0.3803253173828125,-0.0922684073448181,1.196737289428711,0.2362657934427261,64.81149291992188,99.39109802246094,-9.224380493164062
250133,-0.0374755859375,0.7041168212890625,0.38385009765625,-0.247967466711998,1.152010560035706,0.2985036075115204,64.8226318359375,99.34378051757812,-9.061187744140623
250134,-0.0478057861328125,0.7444610595703125,0.38458251953125,-0.408294290304184,0.9884945750236512,0.316426157951355,64.80780029296875,99.33488464355467,-8.7508544921875
250135,-0.07574462890625,0.72607421875,0.4101104736328125,-0.5471366047859192,0.8150569796562195,0.3034807741641998,64.90330505371094,99.25529479980467,-8.507431030273438
250136,-0.084228515625,0.70001220703125,0.4226531982421875,-0.6680683493614197,0.6947079300880432,0.2852940559387207,64.91436767578125,99.08148193359376,-8.127883911132812
250137,-0.064300537109375,0.693603515625,0.40679931640625,-0.7762171626091003,0.630322277545929,0.2421252876520157,64.91677856445312,99.16819763183594,-7.818756103515625
250138,-0.064300537109375,0.693603515625,0.40679931640625,-0.7762171626091003,0.630322277545929,0.2421252876520157,64.91677856445312,99.16819763183594,-7.818756103515625
250139,0.025360107421875,0.7324066162109375,0.274658203125,-0.9712607264518738,0.0856627076864242,0.0468788258731365,64.84745788574219,98.95260620117188,-7.063308715820312
250140,0.0796966552734375,0.795806884765625,0.171356201171875,-0.9712607264518738,0.0856627076864242,0.0468788258731365,64.82855224609375,98.9204559326172,-6.579910278320312
250141,0.1259765625,0.868377685546875,0.123565673828125,-0.9002427458763123,-0.2105654925107956,-0.0091290501877665,64.77301025390625,98.78761291503906,-6.108917236328125
250142,0.1259765625,0.868377685546875,0.123565673828125,-0.9002427458763123,-0.2105654925107956,-0.0091290501877665,64.77301025390625,98.78761291503906,-6.108917236328125
250143,0.1983184814453125,1.027374267578125,0.107086181640625,-0.7221075892448425,0.2544695734977722,-0.07868043333292,64.47282409667969,98.83389282226562,-5.45068359375
250144,0.2035369873046875,1.11383056640625,0.04791259765625,-0.7221075892448425,0.2544695734977722,-0.07868043333292,64.2752685546875,98.85452270507812,-5.05572509765625
250145,0.1959228515625,1.180068969726562,-0.0832061767578125,-0.7095856666564941,0.4248964190483093,-0.2671206593513489,64.04324340820312,98.90138244628906,-4.754104614257812
250146,0.1959228515625,1.180068969726562,-0.0832061767578125,-0.7095856666564941,0.4248964190483093,-0.2671206593513489,64.04324340820312,98.90138244628906,-4.754104614257812
250147,0.156982421875,1.228958129882812,-0.1678924560546875,-0.7095856666564941,0.4248964190483093,-0.2671206593513489,63.7900390625,98.88287353515624,-4.392410278320312
250148,0.091888427734375,1.35479736328125,-0.156951904296875,-0.5841166973114014,0.1247270181775093,-0.2914092242717743,63.3505859375,98.88238525390624,-3.584182739257812
250149,0.0612335205078125,1.408004760742188,-0.1814422607421875,-0.4481924176216125,0.1045405268669128,-0.2628209888935089,63.11222839355469,98.7509307861328,-3.1544189453125
250150,0.0612335205078125,1.408004760742188,-0.1814422607421875,-0.4481924176216125,0.1045405268669128,-0.2628209888935089,63.11222839355469,98.7509307861328,-3.1544189453125
250151,0.0059661865234375,1.424575805664062,-0.3039398193359375,-0.1354116201400757,0.2937471866607666,-0.1350670009851456,62.6314697265625,98.81680297851562,-2.539810180664062
250152,0.000152587890625,1.360992431640625,-0.3297119140625,-0.0377271398901939,0.3613105416297913,-0.0540975891053676,62.41490173339844,98.69827270507812,-2.271652221679688
250153,0.010955810546875,1.278427124023438,-0.3377227783203125,0.0251785907894372,0.3998081088066101,0.0190296173095703,62.28814697265625,98.74440002441406,-2.303359985351562
250154,0.0217742919921875,1.201934814453125,-0.3619842529296875,0.0886313319206237,0.443329244852066,0.0707905516028404,62.11270141601562,98.8122100830078,-2.070480346679688
250155,0.0217742919921875,1.201934814453125,-0.3619842529296875,0.0886313319206237,0.443329244852066,0.0707905516028404,62.11270141601562,98.8122100830078,-2.070480346679688
250156,0.0537872314453125,1.08221435546875,-0.486053466796875,0.2326420396566391,0.6044632792472839,0.206462100148201,61.999267578125,98.8567352294922,-2.035812377929688
250157,0.0657806396484375,1.080123901367188,-0.5351409912109375,0.295841783285141,0.70383220911026,0.2764422297477722,62.0440673828125,99.06094360351562,-2.066024780273438
250158,0.0657806396484375,1.080123901367188,-0.5351409912109375,0.295841783285141,0.70383220911026,0.2764422297477722,62.0440673828125,99.06094360351562,-2.066024780273438
250159,0.07135009765625,1.184921264648438,-0.526275634765625,0.397837907075882,0.8187398910522461,0.3040371239185333,61.96876525878906,99.00936889648438,-2.0640869140625
250160,0.0798187255859375,1.268951416015625,-0.485382080078125,0.397837907075882,0.8187398910522461,0.3040371239185333,62.00416564941406,98.92039489746094,-2.117996215820312
250161,0.10223388671875,1.347732543945312,-0.434814453125,0.4191855490207672,0.7976649403572083,0.2778531908988953,62.11956787109375,98.9787139892578,-2.072998046875
250162,0.10223388671875,1.347732543945312,-0.434814453125,0.4191855490207672,0.7976649403572083,0.2778531908988953,62.11956787109375,98.9787139892578,-2.072998046875
250163,0.1101226806640625,1.485076904296875,-0.2974395751953125,0.5055550336837769,0.8722467422485352,0.1722668409347534,62.20468139648438,99.128662109375,-2.34423828125
250164,0.0955657958984375,1.524871826171875,-0.2524261474609375,0.5847859382629395,0.8964011073112488,0.1285443902015686,62.22769165039062,99.11964416503906,-2.430740356445312
250165,0.0703277587890625,1.502090454101562,-0.2022705078125,0.5847859382629395,0.8964011073112488,0.1285443902015686,62.32618713378906,99.15101623535156,-2.555328369140625
250166,0.03076171875,1.442550659179688,-0.15216064453125,0.6894705891609192,0.8399929404258728,0.1035884469747543,62.272216796875,99.2052764892578,-2.726165771484375
250167,-0.0098724365234375,1.354812622070312,-0.0795135498046875,0.6234734654426575,0.7675999999046326,0.1186992228031158,62.35116577148438,99.32960510253906,-2.817672729492188
250168,-0.0482177734375,1.228118896484375,-0.0265655517578125,0.6234734654426575,0.7675999999046326,0.1186992228031158,62.36029052734375,99.41172790527344,-2.948379516601562
250169,-0.0818634033203125,1.100967407226562,-0.0171661376953125,0.5824466347694397,0.5468044877052307,0.1476965099573135,62.44602966308594,99.29158020019533,-3.022872924804688
250170,-0.0818634033203125,1.100967407226562,-0.0171661376953125,0.5824466347694397,0.5468044877052307,0.1476965099573135,62.44602966308594,99.29158020019533,-3.022872924804688
250171,-0.09130859375,0.8713531494140625,0.0266265869140625,0.6073256134986877,-0.1952211558818817,0.2539787590503693,62.65370178222656,99.41342163085938,-3.794998168945312
250172,-0.0706634521484375,0.777862548828125,0.0429840087890625,0.6073256134986877,-0.1952211558818817,0.2539787590503693,62.65238952636719,99.45729064941406,-4.159881591796875
250173,-0.03839111328125,0.7213134765625,0.0728912353515625,0.5100962519645691,-0.2735860049724579,0.3020205795764923,62.79838562011719,99.42750549316406,-4.38458251953125
250174,-0.021575927734375,0.7430419921875,0.1669158935546875,0.2734001278877258,-0.0044109937734901,0.3640304207801819,62.98957824707031,99.45274353027344,-4.693191528320312
250175,-0.016265869140625,0.792144775390625,0.2438201904296875,0.2734001278877258,-0.0044109937734901,0.3640304207801819,63.13385009765625,99.46540832519533,-4.8359375
