time_idx,accelerometerAccelerationX(G),accelerometerAccelerationY(G),accelerometerAccelerationZ(G),gyroRotationX(rad/s),gyroRotationY(rad/s),gyroRotationZ(rad/s),magnetometerX(µT),magnetometerY(µT),magnetometerZ(µT)
91091,-0.1746063232421875,0.11676025390625,0.098602294921875,0.2879079580307007,0.971330463886261,0.6762934923171997,40.41941833496094,100.1732330322266,-22.57704162597656
91092,-0.1410369873046875,0.00091552734375,0.0013580322265625,0.1562804132699966,0.9834830164909364,0.6293731331825256,40.86079406738281,100.1159515380859,-22.93646240234375
91093,-0.100128173828125,-0.10858154296875,-0.16082763671875,0.1380289793014526,0.8269016742706299,0.6118000149726868,41.37057495117188,100.2086791992188,-23.22550964355469
91094,-0.0396270751953125,-0.24688720703125,-0.5294647216796875,0.45062655210495,-0.2930310666561127,0.7239281535148621,42.26280212402344,100.1820068359375,-23.57208251953125
91095,-0.0396270751953125,-0.24688720703125,-0.5294647216796875,0.45062655210495,-0.2930310666561127,0.7239281535148621,42.26280212402344,100.1820068359375,-23.57208251953125
91096,-0.04473876953125,-0.254364013671875,-0.4062347412109375,0.6052571535110474,-0.6097919940948486,0.8230525851249695,42.61732482910156,100.1468200683594,-23.71502685546875
91097,-0.041748046875,-0.244415283203125,-0.3134918212890625,0.730732262134552,-0.4841754734516144,0.8847836256027222,42.984619140625,100.1426239013672,-23.77978515625
91098,-0.01654052734375,-0.2375946044921875,-0.334442138671875,0.8334365487098694,-0.1482999920845032,0.8996400237083435,43.21430969238281,100.1612243652344,-23.84944152832031
91099,0.0225067138671875,-0.1488494873046875,-0.38226318359375,0.8195827603340149,0.8831550478935242,0.5970399379730225,43.82504272460938,100.1425170898438,-24.40489196777344
91100,0.0225067138671875,-0.1488494873046875,-0.38226318359375,0.8195827603340149,0.8831550478935242,0.5970399379730225,43.82504272460938,100.1425170898438,-24.40489196777344
91101,0.0042724609375,0.0258331298828125,-0.3492889404296875,0.7461357116699219,0.9975945949554444,0.2697766125202179,44.12605285644531,100.1983337402344,-24.70504760742188
91102,-0.0290374755859375,0.194061279296875,-0.0843505859375,0.5299522876739502,0.8222400546073914,0.0703971982002258,44.87615966796875,99.71463012695312,-25.48892211914062
91103,-0.0016326904296875,0.222381591796875,0.0630035400390625,0.4511237740516663,1.01257586479187,0.0256899166852235,45.09835815429688,99.62751770019533,-25.78025817871094
91104,-0.0016326904296875,0.222381591796875,0.0630035400390625,0.4511237740516663,1.01257586479187,0.0256899166852235,45.09835815429688,99.62751770019533,-25.78025817871094
91105,0.017913818359375,0.2172088623046875,0.1473541259765625,0.4182973802089691,1.360288381576538,-0.0224640294909477,45.198974609375,99.62516784667967,-26.00236511230469
91106,0.049102783203125,0.2193145751953125,0.223968505859375,0.4169503450393677,2.059548377990723,-0.1686100512742996,45.53445434570312,99.57003784179688,-26.41311645507812
91107,0.049102783203125,0.2193145751953125,0.223968505859375,0.4169503450393677,2.059548377990723,-0.1686100512742996,45.53445434570312,99.57003784179688,-26.41311645507812
91108,0.091064453125,0.37060546875,0.36224365234375,0.3899946510791779,2.595801830291748,-0.2398117929697037,45.56694030761719,99.66539001464844,-26.98764038085938
91109,0.2005767822265625,1.019989013671875,0.5633392333984375,0.3026807606220245,3.628533601760864,-0.1424442231655121,45.67454528808594,99.65780639648438,-27.40753173828125
91110,0.2427978515625,1.69903564453125,0.65740966796875,-0.0392978712916374,4.487195014953613,0.3957811594009399,45.88349914550781,99.7125244140625,-28.12078857421875
91111,0.031463623046875,2.272445678710938,0.6943817138671875,-0.4026020467281342,4.60541296005249,0.7374865412712097,46.298583984375,99.72013854980467,-28.57972717285156
91112,-0.2476348876953125,2.72515869140625,0.6337432861328125,-0.359239935874939,3.681972742080688,0.5924148559570312,47.01976013183594,99.6317901611328,-29.00885009765625
91113,-0.502197265625,2.893478393554688,0.6685943603515625,0.1317295283079147,1.701002478599548,0.3604074418544769,48.06419372558594,99.53016662597656,-29.1893310546875
91114,-0.76617431640625,2.853317260742188,1.039321899414062,0.6571810841560364,0.0631134584546089,0.3600196838378906,49.15069580078125,99.40585327148438,-29.11036682128906
91115,-0.99542236328125,2.643585205078125,1.469940185546875,0.7616856098175049,-0.0426366776227951,0.2749452888965607,49.782958984375,99.37416076660156,-29.13900756835938
91116,-1.0986328125,2.251113891601562,1.553863525390625,0.2742224931716919,0.8864696621894836,-0.2085393667221069,50.23336791992188,99.33140563964844,-29.2366943359375
91117,-1.104873657226562,1.7720947265625,1.346221923828125,-0.5702655911445618,1.780384421348572,-0.6128487586975098,50.46723937988281,99.23854064941406,-29.58779907226562
91118,-0.756683349609375,1.217315673828125,0.5724945068359375,-1.49598753452301,2.428478002548218,-0.3296245038509369,50.67045593261719,99.20550537109376,-29.64030456542969
91119,-0.756683349609375,1.217315673828125,0.5724945068359375,-1.49598753452301,2.428478002548218,-0.3296245038509369,50.67045593261719,99.20550537109376,-29.64030456542969
91120,-0.461639404296875,1.230224609375,0.19281005859375,-1.452024936676025,1.951991319656372,-0.1886223703622818,50.64854431152344,99.51417541503906,-29.24665832519531
91121,-0.2740020751953125,1.211761474609375,-0.0074005126953125,-1.308718919754028,1.350059628486633,-0.1453289687633514,50.79353332519531,99.8001708984375,-28.64926147460938
91122,-0.109771728515625,1.117080688476562,-0.130401611328125,-1.225491881370544,0.865526020526886,-0.1201639547944069,50.87722778320312,100.1474456787109,-27.9256591796875
91123,0.0457305908203125,0.95208740234375,-0.5573272705078125,-1.233187437057495,-0.0649888515472412,-0.1026771068572998,50.92315673828125,100.3937377929688,-27.31974792480469
91124,0.124755859375,0.7516326904296875,-0.6581268310546875,-1.254536390304565,-1.273255228996277,-0.0857990607619285,50.85041809082031,100.6029663085938,-26.78564453125
91125,0.1355438232421875,0.5945892333984375,-0.36871337890625,-1.226480960845947,-1.896703004837036,-0.0415607579052448,50.79281616210938,100.8252868652344,-26.16824340820312
91126,0.2156982421875,0.3959197998046875,0.05950927734375,-1.13435161113739,-1.450944423675537,0.2245236486196518,50.18238830566406,101.0620422363281,-24.88789367675781
91127,0.2156982421875,0.3959197998046875,0.05950927734375,-1.13435161113739,-1.450944423675537,0.2245236486196518,50.18238830566406,101.0620422363281,-24.88789367675781
91128,0.323577880859375,0.3541107177734375,0.0189208984375,-0.9687256217002868,-1.056687712669373,0.464334636926651,49.86955261230469,101.1504058837891,-24.39938354492188
91129,0.4149932861328125,0.415191650390625,-0.1436920166015625,-0.6399953961372375,-0.930469572544098,0.6950725317001343,49.48591613769531,101.1293334960938,-23.71968078613281
91130,0.4893646240234375,0.545867919921875,-0.1976470947265625,-0.2944313585758209,-1.032986640930176,0.8655585050582886,49.16911315917969,101.3243560791016,-23.05654907226562
91131,0.5289459228515625,0.6468658447265625,-0.1081085205078125,0.0224533770233392,-1.001830577850342,0.981848120689392,49.07438659667969,101.4585113525391,-22.45845031738281
91132,0.5135345458984375,0.7557373046875,-0.0553131103515625,0.3195777237415314,-0.7049576640129089,0.945389449596405,49.12113952636719,101.6561126708984,-22.11691284179688
91133,0.4732818603515625,0.8245849609375,-0.0917510986328125,0.6683370471000671,-0.3196757435798645,0.7117279171943665,49.24325561523438,101.7632293701172,-21.75166320800781
91134,0.4127044677734375,0.7317352294921875,-0.150848388671875,1.024150848388672,-0.0085213165730237,0.3685540556907654,49.34771728515625,101.8301696777344,-21.60263061523438
91135,0.3188323974609375,0.475494384765625,-0.2188873291015625,1.230943918228149,0.0759797170758247,0.1198923140764236,49.61575317382812,101.9633941650391,-21.72622680664062
91136,0.185028076171875,0.2396392822265625,-0.2274322509765625,1.270297169685364,-0.0055020907893776,0.0318338312208652,49.81349182128906,101.8065338134766,-22.09564208984375
91137,0.093963623046875,0.124847412109375,-0.1577911376953125,1.205026865005493,-0.0246997531503438,0.0277762375771999,49.98681640625,101.7689361572266,-22.53419494628906
91138,4.57763671875e-05,0.0218505859375,-0.05145263671875,0.9329330325126648,0.3052318096160889,0.0438798405230045,50.03038024902344,101.5780334472656,-23.98526000976562
91139,-0.02276611328125,-0.009979248046875,-0.0849151611328125,0.7753964066505432,0.4406934976577759,0.0286420304328203,50.16810607910156,101.4638061523438,-24.62080383300781
91140,-0.02276611328125,-0.009979248046875,-0.0849151611328125,0.7753964066505432,0.4406934976577759,0.0286420304328203,50.16810607910156,101.4638061523438,-24.62080383300781
91141,-0.0451202392578125,-0.025299072265625,-0.15777587890625,0.6245946288108826,0.423234611749649,-0.0071023842319846,50.19252014160156,101.2469940185547,-24.95014953613281
91142,-0.06793212890625,-0.0282440185546875,-0.264068603515625,0.4803498387336731,0.2217885851860046,-0.0535042360424995,50.35917663574219,101.1384887695312,-25.20672607421875
91143,-0.087158203125,-0.0171966552734375,-0.394775390625,0.3271437585353851,-0.2157647758722305,-0.1004773378372192,50.45277404785156,101.0851440429688,-25.39898681640625
91144,-0.10400390625,0.023193359375,-0.5220184326171875,0.129599541425705,-0.8979721069335938,-0.1505972295999527,50.61614990234375,101.0798950195312,-25.70088195800781
91145,-0.096527099609375,0.1305084228515625,-0.5510101318359375,-0.0895232260227203,-1.68798041343689,-0.2343336790800095,50.61552429199219,101.1075592041016,-26.04257202148438
91146,-0.05914306640625,0.308258056640625,-0.4245147705078125,-0.2889031767845154,-2.246665239334106,-0.4115992784500122,50.49232482910156,101.1681365966797,-26.15409851074219
91147,-0.0131683349609375,0.5547637939453125,-0.176666259765625,-0.4331730008125305,-2.295790433883667,-0.7019967436790466,50.28205871582031,101.2866821289062,-26.36689758300781
91148,0.075347900390625,0.8818359375,0.2021636962890625,-0.5197257399559021,-1.573274970054626,-1.037718057632446,49.83084106445312,101.5082244873047,-26.36335754394531
91149,0.1829681396484375,1.255722045898438,0.509429931640625,-0.6284974813461304,-0.2183584421873093,-1.30735194683075,49.17306518554688,101.6238555908203,-26.24888610839844
91150,0.203826904296875,1.69232177734375,0.6370697021484375,-0.8586025834083557,1.187911033630371,-1.540123105049133,48.45941162109375,101.8879699707031,-26.11360168457031
91151,0.1428375244140625,2.082077026367188,0.788787841796875,-1.269073486328125,2.49045205116272,-1.734609723091125,47.80653381347656,102.0865631103516,-26.05581665039062
91152,0.010498046875,2.4483642578125,0.8394012451171875,-1.731740474700928,3.204863548278809,-1.793716430664062,47.06382751464844,102.1580963134766,-25.94842529296875
91153,-0.3299102783203125,2.9588623046875,0.8456268310546875,-1.980591773986816,2.84414267539978,-1.786452412605286,46.54194641113281,102.1879425048828,-25.71163940429688
91154,-0.8204803466796875,3.372085571289062,0.971649169921875,-1.696836590766907,1.578949570655823,-1.566095590591431,46.15098571777344,102.24169921875,-25.36056518554688
91155,-1.252105712890625,3.660568237304688,1.185958862304688,-1.042663812637329,-0.071257933974266,-1.010872602462769,45.76773071289062,102.2734527587891,-24.86143493652344
91156,-1.53399658203125,3.296600341796875,1.670562744140625,-0.8381263613700867,-1.581501364707947,-0.6204728484153748,45.38078308105469,102.1563720703125,-24.3992919921875
91157,-1.332489013671875,2.7637939453125,2.00848388671875,-0.7768030762672424,-1.099276185035706,-0.7398823499679565,45.07559204101562,102.0790405273438,-24.00090026855469
91158,-0.1754302978515625,2.052352905273438,0.6527099609375,-0.7143341302871704,-1.266928315162659,-0.0953299775719642,44.0843505859375,102.0463714599609,-22.94248962402344
91159,-0.1754302978515625,2.052352905273438,0.6527099609375,-0.7143341302871704,-1.266928315162659,-0.0953299775719642,44.0843505859375,102.0463714599609,-22.94248962402344
91160,0.1621856689453125,2.402130126953125,-0.2753143310546875,0.0874888375401496,-2.241393804550171,0.295098215341568,43.00845336914062,102.3882598876953,-21.57447814941406
91161,0.4411468505859375,2.788345336914062,-0.526580810546875,1.373536229133606,-2.972489833831787,0.6102388501167297,42.65228271484375,102.5072021484375,-21.11051940917969
91162,0.5284576416015625,2.125991821289062,-0.3461151123046875,2.645121335983276,0.5028389096260071,1.327181577682495,42.12171936035156,102.7385406494141,-21.79605102539062
91163,0.5284576416015625,2.125991821289062,-0.3461151123046875,2.645121335983276,0.5028389096260071,1.327181577682495,42.12171936035156,102.7385406494141,-21.79605102539062
91164,0.5056610107421875,1.443695068359375,-0.9069671630859376,2.077840089797974,1.777587294578552,1.154334902763367,42.46269226074219,102.6518249511719,-22.7423095703125
91165,0.445770263671875,1.091201782226562,-1.268692016601562,0.8863857388496399,1.035033345222473,0.7421241998672485,43.16409301757812,102.4428405761719,-23.804443359375
91166,0.20880126953125,0.9622955322265624,-0.80615234375,-0.0892049744725227,-0.0608297958970069,0.2422680258750916,43.9307861328125,102.0853576660156,-24.49520874023438
91167,-0.0468292236328125,0.849609375,-0.396209716796875,-0.5187518000602722,-0.5527521371841431,-0.0392581894993782,44.57920837402344,101.9356231689453,-24.90362548828125
91168,-0.1832275390625,0.7113494873046875,-0.223602294921875,-0.5364786386489868,-0.8039449453353882,-0.0035611789207905,44.88374328613281,101.7729797363281,-24.99295043945312
91169,-0.2652435302734375,0.53277587890625,-0.0061492919921875,-0.3148831129074097,-0.7962875366210938,0.1464381664991379,45.03182983398438,101.7596435546875,-24.83558654785156
91170,-0.2751922607421875,0.3337860107421875,0.244842529296875,-0.0634127929806709,-0.3165840804576874,0.3317222893238068,45.20710754394531,101.6826934814453,-24.56428527832031
91171,-0.2462310791015625,0.19903564453125,0.336334228515625,0.0930324718356132,0.5115591287612915,0.4212303161621094,45.38175964355469,101.5000305175781,-24.461669921875
91172,-0.1775970458984375,0.09893798828125,0.29443359375,0.1241531074047089,1.359539151191711,0.4197501242160797,45.64096069335938,101.4185943603516,-24.50439453125
91173,-0.0953826904296875,-0.0186767578125,0.0192413330078125,0.1332416832447052,1.817677974700928,0.4406024217605591,46.08099365234375,101.2745208740234,-24.52224731445312
91174,-0.0500335693359375,-0.1363067626953125,-0.4658660888671875,0.3396225571632385,1.44561231136322,0.4860231578350067,46.6510009765625,101.1962890625,-24.45584106445312
91175,-0.040771484375,-0.249969482421875,-0.838104248046875,0.7824013233184814,-0.0086017437279224,0.6075202822685242,47.18006896972656,101.045166015625,-24.40090942382812
91176,-0.0909576416015625,-0.2181396484375,-0.3714141845703125,1.14686393737793,-0.7637338638305664,0.6633350849151611,47.54144287109375,101.1380004882812,-24.75038146972656
91177,-0.1424560546875,-0.214141845703125,-0.0113525390625,1.230455040931702,-0.1352699398994446,0.5939565300941467,47.78994750976562,101.1003570556641,-25.14773559570312
91178,-0.1452178955078125,-0.2632293701171875,-0.1885986328125,1.12693178653717,0.8187132477760315,0.4883198738098145,47.91981506347656,101.0856628417969,-25.71659851074219
91179,-0.141357421875,-0.259368896484375,-0.4859771728515625,1.010421395301819,1.061526894569397,0.3957212269306183,48.18795776367188,100.9370727539062,-26.28501892089844
91180,-0.168670654296875,-0.1207733154296875,-0.483612060546875,0.9719778895378112,0.8319366574287415,0.2644662857055664,48.51519775390625,100.83349609375,-26.77267456054688
91181,-0.160980224609375,0.0563201904296875,-0.29150390625,0.9865504503250122,0.7253199219703674,0.2954058051109314,48.74969482421875,100.6192932128906,-27.27288818359375
91182,-0.115570068359375,0.1729736328125,-0.158203125,0.9685887694358826,0.7974351048469543,0.3027414977550507,49.0533447265625,100.5389404296875,-27.81918334960938
91183,-0.077239990234375,0.2321319580078125,-0.0652618408203125,0.9167178273200988,0.9297217726707458,0.2384397387504578,49.26351928710938,100.3947296142578,-28.27531433105469
91184,-0.0528564453125,0.2453460693359375,0.0474700927734375,0.8559812307357788,1.152395367622375,0.1586737930774689,49.50318908691406,100.2514038085938,-28.77412414550781
91185,-0.0434417724609375,0.2508544921875,0.15521240234375,0.7977262139320374,1.474545955657959,0.071396417915821,49.74217224121094,100.1139831542969,-29.22384643554688
91186,-0.01416015625,0.3262481689453125,0.316986083984375,0.6439496874809265,2.388251304626465,-0.1211962029337883,50.16329956054688,100.0435943603516,-30.14532470703125
91187,-0.01416015625,0.3262481689453125,0.316986083984375,0.6439496874809265,2.388251304626465,-0.1211962029337883,50.16329956054688,100.0435943603516,-30.14532470703125
91188,0.0228118896484375,0.6066436767578125,0.4244232177734375,0.4891284108161926,3.139982461929321,-0.1572905480861664,50.45065307617188,99.95661926269533,-30.62315368652344
91189,0.029815673828125,0.9952239990234376,0.55987548828125,0.2179927825927734,4.078230381011963,-0.0660993903875351,50.80738830566406,99.91390991210938,-31.05165100097656
91190,-0.017333984375,1.365127563476562,0.6639556884765625,-0.2090264558792114,4.890398979187012,0.0999825224280357,51.31187438964844,99.78372192382812,-31.20542907714844
91191,-0.1546630859375,1.759231567382812,0.6270904541015625,-0.5557745695114136,4.99920654296875,0.1634240746498108,52.14193725585938,99.6713409423828,-31.42236328125
91192,-0.3956298828125,2.096923828125,0.5484161376953125,-0.4154222309589386,3.924513816833496,0.2453951090574265,53.04647827148438,99.64363098144533,-31.23966979980469
91193,-0.6373748779296875,2.380020141601562,0.6669921875,0.1272945702075958,2.043598413467407,0.3421972990036011,54.14759826660156,99.60310363769533,-30.8902587890625
91194,-0.881561279296875,2.713333129882812,1.068038940429688,0.636370062828064,0.6111565828323364,0.4817623794078827,55.00970458984375,99.49476623535156,-30.52975463867188
91195,-1.144332885742188,2.991012573242188,1.49932861328125,0.756734311580658,0.346538245677948,0.5116931200027466,55.59674072265625,99.61375427246094,-30.60173034667969
91196,-1.391677856445312,2.882736206054688,1.684906005859375,0.3144916296005249,1.109019041061401,0.1815727204084396,55.91937255859375,99.60633850097656,-30.97528076171875
91197,-1.362335205078125,2.295684814453125,1.455780029296875,-0.6468783617019653,1.868615746498108,-0.4408857822418213,56.16746520996094,99.62991333007812,-31.23713684082031
91198,-1.129928588867188,1.629409790039062,1.008453369140625,-1.483476638793945,2.026052713394165,-0.8189254999160767,56.505615234375,99.53030395507812,-31.28529357910156
91199,-0.7712860107421875,1.190689086914062,0.5423583984375,-1.72688901424408,1.63035786151886,-0.7586653232574463,56.5606689453125,99.68586730957033,-30.8961181640625
91200,-0.46636962890625,1.097640991210938,0.239898681640625,-1.613820195198059,0.9956550002098083,-0.5246922373771667,56.50717163085938,99.95089721679688,-30.18968200683594
91201,-0.2615814208984375,1.142623901367188,0.0755615234375,-1.459027647972107,0.3600796163082123,-0.3698211908340454,56.3458251953125,100.3018646240234,-29.45559692382812
91202,-0.010986328125,1.0040283203125,-0.06549072265625,-1.462368607521057,-0.3536305129528046,-0.2697973847389221,55.85696411132812,100.8528289794922,-27.75456237792969
91203,-0.010986328125,1.0040283203125,-0.06549072265625,-1.462368607521057,-0.3536305129528046,-0.2697973847389221,55.85696411132812,100.8528289794922,-27.75456237792969
91204,0.116546630859375,0.8258209228515625,-0.590118408203125,-1.594137907028198,-1.013882994651794,-0.2582797408103943,55.59967041015625,100.9515838623047,-26.96832275390625
91205,0.219390869140625,0.61077880859375,-0.996063232421875,-1.681784868240356,-2.668219327926636,-0.25721076130867,55.46029663085938,101.0438232421875,-26.22911071777344
91206,0.225341796875,0.45416259765625,-0.6642608642578125,-1.610432147979736,-3.683509588241577,-0.2535033822059631,55.0775146484375,101.2023010253906,-25.10337829589844
91207,0.23516845703125,0.376556396484375,-0.29998779296875,-1.400366306304932,-3.650296688079834,-0.1918994039297104,54.48797607421875,101.3955230712891,-24.2396240234375
91208,0.301422119140625,0.3393402099609375,-0.121429443359375,-0.913573682308197,-2.657974004745483,-0.0456729456782341,53.74734497070312,101.7606048583984,-23.98796081542969
91209,0.3911895751953125,0.3341522216796875,-0.2276763916015625,-0.1308525502681732,-1.18612003326416,0.2241444140672684,52.89944458007812,102.19189453125,-23.65101623535156
91210,0.37457275390625,0.47412109375,-0.3262481689453125,0.7272062301635742,0.0762494951486587,0.3992712199687958,52.29678344726562,102.5246429443359,-23.15338134765625
91211,0.3066864013671875,0.5858306884765625,-0.288299560546875,1.214463233947754,0.8903237581253052,0.3367173075675964,52.14030456542969,102.6307525634766,-22.97071838378906
91212,0.267974853515625,0.5745391845703125,-0.216461181640625,1.3292396068573,1.204535484313965,0.179935947060585,52.145263671875,102.6659851074219,-23.13330078125
91213,0.2583465576171875,0.4950714111328125,-0.1501007080078125,1.209675431251526,1.215420961380005,0.033421341329813,52.27421569824219,102.6611785888672,-23.57022094726562
91214,0.2470855712890625,0.4276580810546875,-0.1154632568359375,0.991721510887146,1.034765362739563,-0.0440145954489707,52.49212646484375,102.4803619384766,-24.04908752441406
91215,0.20892333984375,0.387054443359375,-0.112945556640625,0.7682231664657593,0.7159053683280945,-0.0656937956809997,52.66850280761719,102.3273162841797,-24.51080322265625
91216,0.1603240966796875,0.3581085205078125,-0.1245880126953125,0.6231440305709839,0.313068151473999,-0.0096070868894457,52.76217651367188,102.0936889648438,-25.04476928710938
91217,0.1094818115234375,0.32244873046875,-0.1242523193359375,0.6066566109657288,-0.0087783113121986,0.0433690436184406,52.82449340820312,101.9626617431641,-25.42713928222656
91218,0.0657501220703125,0.235198974609375,-0.1010284423828125,0.667376697063446,-0.1699160635471344,0.0658807456493377,52.81364440917969,101.9761962890625,-25.7010498046875
91219,0.0258331298828125,0.1485748291015625,-0.0642242431640625,0.7187759876251221,-0.109172560274601,0.0617645643651485,52.8660888671875,101.9781188964844,-25.95091247558594
91220,-0.0093231201171875,0.0766754150390625,-0.0553436279296875,0.7260046005249023,0.116744726896286,0.0401743166148662,52.85791015625,101.9813537597656,-26.26060485839844
91221,-0.042999267578125,0.02655029296875,-0.0858001708984375,0.6640000939369202,0.3571480214595795,-0.0016562198288738,52.89823913574219,101.9552764892578,-26.5369873046875
91222,-0.0730133056640625,-0.0020751953125,-0.15380859375,0.5419902801513672,0.485658586025238,-0.0597136653959751,53.00308227539062,102.0083770751953,-26.81468200683594
91223,-0.1050872802734375,-0.0037078857421875,-0.239654541015625,0.41366907954216,0.4009354412555695,-0.1209570467472076,53.05030822753906,101.9730377197266,-27.11921691894531
91224,-0.1394195556640625,0.054473876953125,-0.32586669921875,0.3096374869346619,0.0670424178242683,-0.1855333745479584,53.2069091796875,101.9042663574219,-27.35427856445312
91225,-0.130218505859375,0.197784423828125,-0.354644775390625,0.2313136458396912,-0.4444666802883148,-0.2493443191051483,53.11195373535156,101.8516235351562,-27.46092224121094
91226,-0.10400390625,0.3938751220703125,-0.26409912109375,0.1003886535763741,-0.9343474507331848,-0.3621049523353577,53.04730224609375,101.9576568603516,-27.74391174316406
91227,-0.121124267578125,0.701446533203125,-0.03936767578125,-0.1238162145018578,-1.074565291404724,-0.6222209334373474,52.84771728515625,102.0582122802734,-27.97819519042969
91228,-0.1546783447265625,1.134979248046875,0.2887420654296875,-0.4914171397686005,-0.6079432368278503,-1.003608226776123,52.44779968261719,102.2878265380859,-28.12782287597656
91229,-0.234588623046875,1.571746826171875,0.5627899169921875,-0.9215011596679688,0.3939267992973328,-1.263138651847839,51.89158630371094,102.4683685302734,-28.20875549316406
91230,-0.279266357421875,2.414230346679688,0.7774505615234375,-1.72363805770874,2.128467321395874,-1.255751609802246,50.63014221191406,102.7182922363281,-27.73291015625
91231,-0.279266357421875,2.414230346679688,0.7774505615234375,-1.72363805770874,2.128467321395874,-1.255751609802246,50.63014221191406,102.7182922363281,-27.73291015625
91232,-0.4309234619140625,3.05517578125,0.850494384765625,-2.307353496551514,1.635879397392273,-1.289522290229797,50.09837341308594,102.9263000488281,-27.14901733398438
91233,-0.699554443359375,3.780288696289062,1.022674560546875,-2.297558069229126,0.6781297326087952,-1.031105160713196,49.71025085449219,103.0522613525391,-26.36906433105469
91234,-0.73333740234375,4.114425659179688,1.179183959960938,-1.792192578315735,-0.5599458813667297,-0.3822490870952606,49.21649169921875,103.1674194335938,-25.52447509765625
91235,-0.7078094482421875,3.44036865234375,1.599639892578125,-1.104884028434753,-0.7532343864440918,-0.3248321413993835,48.77412414550781,103.3629913330078,-24.66285705566406
91236,-0.49896240234375,2.668792724609375,1.335098266601562,-0.4813730120658875,-0.4282472133636475,-0.4776752293109894,48.43540954589844,103.4764709472656,-23.79356384277344
91237,-0.39111328125,2.293930053710938,0.847320556640625,0.0508141778409481,-0.6605529189109802,-0.5731111764907837,48.27003479003906,103.5015258789062,-22.92823791503906
91238,-0.327301025390625,2.388641357421875,0.4737091064453125,0.6784434914588928,-0.7041922807693481,-0.5441847443580627,47.99388122558594,103.5420074462891,-22.30586242675781
91239,-0.205657958984375,2.659759521484375,0.11328125,1.268106698989868,-0.298460990190506,-0.2239161878824234,47.68849182128906,103.2235717773438,-21.771240234375
91240,-0.170135498046875,2.663070678710938,-0.181365966796875,1.578155994415283,0.504265308380127,0.1259613931179047,47.30067443847656,103.0696105957031,-21.95481872558594
91241,-0.141357421875,2.211715698242188,-0.48980712890625,1.494015216827393,1.320999264717102,0.4302035868167877,47.07948303222656,102.9133758544922,-22.70037841796875
91242,-0.0612640380859375,1.740768432617188,-0.699798583984375,1.10442590713501,1.297152519226074,0.666103720664978,47.1107177734375,102.5808563232422,-23.39125061035156
91243,0.0052032470703125,1.424270629882812,-0.6241912841796875,0.6557775735855103,0.8070624470710754,0.8013992309570312,47.47645568847656,102.4249725341797,-24.27339172363281
91244,0.015594482421875,1.179794311523438,-0.4549102783203125,0.3659849166870117,0.4329266548156738,0.8351215124130249,47.9715576171875,102.1714935302734,-24.93519592285156
91245,0.00201416015625,0.9515228271484376,-0.30438232421875,0.2739913463592529,0.2320580035448074,0.8285818696022034,48.60746765136719,101.9319610595703,-25.47296142578125
91246,-0.0522003173828125,0.7617645263671875,-0.1682586669921875,0.3363218307495117,0.2414488345384598,0.807614803314209,49.32278442382812,101.6813507080078,-25.70115661621094
91247,-0.123931884765625,0.6194000244140625,-0.0956573486328125,0.4866228997707367,0.3556254804134369,0.7720096707344055,49.9368896484375,101.4621124267578,-25.83729553222656
91248,-0.1556549072265625,0.50262451171875,-0.0633544921875,0.6350408792495728,0.4282011389732361,0.7277287244796753,50.45794677734375,101.3266906738281,-25.96731567382812
91249,-0.146240234375,0.388427734375,-0.008880615234375,0.6850084662437439,0.4642813801765442,0.6763507723808289,51.03515625,101.2893981933594,-26.18765258789062
91250,-0.1205596923828125,0.1371307373046875,0.0187530517578125,0.4787777662277222,0.7145490050315857,0.5732867121696472,51.96084594726562,100.9463806152344,-26.92161560058594
91251,-0.1205596923828125,0.1371307373046875,0.0187530517578125,0.4787777662277222,0.7145490050315857,0.5732867121696472,51.96084594726562,100.9463806152344,-26.92161560058594
91252,-0.09356689453125,0.02032470703125,-0.0821075439453125,0.3532646000385284,0.7731246948242188,0.5574778914451599,52.41094970703125,101.0188751220703,-27.27928161621094
91253,-0.0596923828125,-0.0920867919921875,-0.246551513671875,0.3554800748825073,0.6117970943450928,0.5979896783828735,52.86996459960938,100.8837890625,-27.5546875
91254,-0.053070068359375,-0.2028045654296875,-0.428192138671875,0.8946508765220642,-0.0315067917108535,0.8363718390464783,53.70780944824219,100.5142669677734,-27.92442321777344
91255,-0.053070068359375,-0.2028045654296875,-0.428192138671875,0.8946508765220642,-0.0315067917108535,0.8363718390464783,53.70780944824219,100.5142669677734,-27.92442321777344
91256,-0.0580902099609375,-0.1955413818359375,-0.3551025390625,1.158471822738647,-0.1496555358171463,0.9508827328681946,54.04048156738281,100.3949737548828,-28.17070007324219
91257,-0.052459716796875,-0.17779541015625,-0.3040618896484375,1.297521352767944,-0.0495494417846202,1.014168739318848,54.47088623046875,100.3764801025391,-28.39381408691406
91258,-0.0303192138671875,-0.1637115478515625,-0.3161163330078125,1.300379753112793,0.2113069146871567,0.9768632054328918,54.7987060546875,100.0460968017578,-28.71438598632812
91259,0.00408935546875,-0.14288330078125,-0.36199951171875,1.159832239151001,0.5814996361732483,0.8024919033050537,55.09814453125,99.87120056152344,-29.28668212890625
91260,0.0301971435546875,-0.0742645263671875,-0.3377838134765625,1.003154993057251,0.7497432231903076,0.5401351451873779,55.53794860839844,99.69807434082033,-29.82310485839844
91261,0.0437774658203125,0.0480804443359375,-0.1615447998046875,0.8961215019226074,0.895410418510437,0.2850743532180786,55.99041748046875,99.50404357910156,-30.28718566894531
91262,-0.028594970703125,0.15936279296875,0.0633697509765625,0.7009291052818298,1.244401931762695,0.1738681942224503,56.74586486816406,99.03402709960938,-31.07017517089844
91263,-0.028594970703125,0.15936279296875,0.0633697509765625,0.7009291052818298,1.244401931762695,0.1738681942224503,56.74586486816406,99.03402709960938,-31.07017517089844
91264,-0.0523681640625,0.172271728515625,0.1008148193359375,0.5585812330245972,1.459563016891479,0.1132298856973648,56.99359130859375,98.90321350097656,-31.41905212402344
91265,-0.066070556640625,0.1784820556640625,0.1235504150390625,0.3669367134571075,1.682007312774658,0.0446087457239627,57.28556823730469,98.85198974609376,-31.74786376953125
91266,-0.078277587890625,0.19097900390625,0.1668548583984375,0.1506989598274231,1.937654972076416,-0.0209846440702676,57.53895568847656,98.70928955078124,-31.91763305664062
91267,-0.09344482421875,0.2580413818359375,0.3072509765625,-0.1025431528687477,2.394028902053833,-0.0999931767582893,57.810546875,98.7236785888672,-32.00830078125
91268,-0.1262054443359375,0.6350250244140625,0.553985595703125,-0.364844024181366,3.321246385574341,-0.32084059715271,58.16244506835938,98.76585388183594,-32.08259582519531
91269,-0.1564178466796875,1.23504638671875,0.7774505615234375,-0.7053829431533813,4.63417387008667,-0.6382741928100586,58.6588134765625,98.85787963867188,-32.09320068359375
91270,-0.740692138671875,2.094924926757812,0.760040283203125,-0.7737367153167725,4.969809055328369,-0.0571383871138095,59.67900085449219,99.02951049804688,-31.23728942871094
91271,-0.740692138671875,2.094924926757812,0.760040283203125,-0.7737367153167725,4.969809055328369,-0.0571383871138095,59.67900085449219,99.02951049804688,-31.23728942871094
91272,-1.024398803710938,2.486846923828125,0.6721954345703125,-0.090627372264862,3.382294654846191,0.4777702987194061,60.34523010253906,99.12818908691406,-30.74282836914062
91273,-1.095916748046875,2.875411987304688,0.84869384765625,0.64287269115448,1.44044017791748,0.6185881495475769,61.16091918945312,99.18084716796876,-30.01559448242188
91274,-1.097381591796875,3.15570068359375,1.251052856445312,0.954741358757019,0.4071448743343353,0.5052269697189331,61.98089599609375,99.11628723144533,-29.44451904296875
91275,-1.101058959960938,2.272323608398438,1.412994384765625,-0.4316001534461975,1.243155121803284,-0.5314828157424927,62.8653564453125,99.13548278808594,-29.54841613769531
91276,-1.101058959960938,2.272323608398438,1.412994384765625,-0.4316001534461975,1.243155121803284,-0.5314828157424927,62.8653564453125,99.13548278808594,-29.54841613769531
91277,-0.941192626953125,1.6436767578125,1.016448974609375,-1.396893739700317,1.429310083389282,-0.9764434695243835,63.06419372558594,99.11166381835938,-29.90133666992188
91278,-0.5260467529296875,1.144577026367188,0.4090576171875,-2.015769004821777,0.6666411757469177,-0.8815526366233826,62.96011352539062,99.19215393066406,-29.16033935546875
91279,-0.5260467529296875,1.144577026367188,0.4090576171875,-2.015769004821777,0.6666411757469177,-0.8815526366233826,62.96011352539062,99.19215393066406,-29.16033935546875
91280,-0.360931396484375,1.192535400390625,0.2419281005859375,-1.865626096725464,0.186792254447937,-0.719377338886261,62.68370056152344,99.37583923339844,-28.39212036132812
91281,-0.24298095703125,1.204879760742188,0.1163787841796875,-1.725185632705688,-0.2252078205347061,-0.6495617628097534,62.32513427734375,99.73500061035156,-27.35076904296875
91282,-0.1517486572265625,1.138473510742188,0.02203369140625,-1.677250862121582,-0.4724991023540497,-0.659748375415802,61.97776794433594,100.1008911132812,-26.3216552734375
91283,-0.0600128173828125,1.021438598632812,-0.1234893798828125,-1.70076048374176,-0.5686259269714355,-0.6787105798721313,61.5511474609375,100.3466949462891,-25.41139221191406
91284,0.128204345703125,0.8616790771484375,-0.97125244140625,-1.778626203536987,-1.626807332038879,-0.6864625215530396,61.16709899902344,100.6398468017578,-24.76313781738281
91285,0.2343292236328125,0.666107177734375,-1.07940673828125,-1.709354162216187,-3.082163333892822,-0.5500351786613464,60.67849731445312,100.8535766601562,-23.97799682617188
91286,0.3299560546875,0.4063568115234375,-0.2542266845703125,-0.394761711359024,-1.412398934364319,0.587196409702301,59.31558227539062,101.6579437255859,-22.59158325195312
91287,0.3299560546875,0.4063568115234375,-0.2542266845703125,-0.394761711359024,-1.412398934364319,0.587196409702301,59.31558227539062,101.6579437255859,-22.59158325195312
91288,0.363128662109375,0.437042236328125,-0.114715576171875,0.6004024744033813,-0.0663281604647636,1.060226202011108,58.52413940429688,102.0652313232422,-22.10511779785156
91289,0.308258056640625,0.57464599609375,-0.12744140625,1.265929341316223,0.9242071509361268,1.16303813457489,58.15568542480469,102.3974914550781,-21.63475036621094
91290,0.2891693115234375,0.6403961181640625,-0.2107391357421875,1.516549348831177,1.299963474273682,1.023157954216003,58.28099060058594,102.3361511230469,-21.52578735351562
91291,0.288482666015625,0.648101806640625,-0.2281494140625,1.466840624809265,1.198872804641724,0.7864354848861694,58.77354431152344,102.1305084228516,-21.61604309082031
91292,0.292144775390625,0.6551055908203125,-0.1843719482421875,1.2479248046875,0.92372328042984,0.5324550867080688,59.22647094726562,101.9977264404297,-22.07635498046875
91293,0.29229736328125,0.670318603515625,-0.148956298828125,0.9508435726165771,0.6022523045539856,0.2809054255485535,59.6553955078125,101.8801116943359,-22.66123962402344
91294,0.2403411865234375,0.6548614501953125,-0.107086181640625,0.6523295640945435,0.3405136466026306,0.0813049748539924,59.8870849609375,101.7288055419922,-23.220947265625
91295,0.131744384765625,0.582305908203125,-0.0403594970703125,0.4504819512367249,0.2109644412994385,0.0164484810084104,60.17790222167969,101.6203918457031,-23.77398681640625
91296,0.0693206787109375,0.4322052001953125,-0.006591796875,0.3570894300937653,0.2224948555231094,-0.0494623593986034,60.23286437988281,101.5578002929688,-24.07633972167969
91297,0.032379150390625,0.2487945556640625,-0.0098724365234375,0.3368957340717316,0.2874823808670044,-0.1260314285755157,60.28260803222656,101.4698486328125,-24.30158996582031
91298,-3.0517578125e-05,0.1170501708984375,-0.0114288330078125,0.3301632702350616,0.3801026046276093,-0.1969708502292633,60.40263366699219,101.3484344482422,-24.38031005859375
91299,-0.0267181396484375,0.0212860107421875,-0.03057861328125,0.3268446922302246,0.4730136394500732,-0.2515198588371277,60.37319946289062,101.3528442382812,-24.51011657714844
91300,-0.049713134765625,-0.0448455810546875,-0.0635528564453125,0.3281081020832062,0.5731745958328247,-0.2956012785434723,60.39834594726562,101.3549346923828,-24.581787109375
91301,-0.0683746337890625,-0.0871734619140625,-0.1111907958984375,0.3236656785011292,0.6743038892745972,-0.3229346573352814,60.46127319335938,101.2212066650391,-24.68600463867188
91302,-0.0670166015625,-0.1248779296875,-0.2690887451171875,0.386813759803772,0.6686691641807556,-0.3222779035568237,60.51556396484375,101.0324249267578,-24.44065856933594
91303,-0.0670166015625,-0.1248779296875,-0.2690887451171875,0.386813759803772,0.6686691641807556,-0.3222779035568237,60.51556396484375,101.0324249267578,-24.44065856933594
91304,-0.0526580810546875,-0.0906829833984375,-0.3787689208984375,0.4668052494525909,0.3924343585968018,-0.2530194818973541,60.53556823730469,101.0261383056641,-24.427978515625
91305,-0.0538787841796875,0.1181488037109375,-0.4557342529296875,0.581003725528717,-0.0963268056511879,-0.1613936871290207,60.3935546875,101.1289672851562,-24.60575866699219
91306,-0.153076171875,0.5490264892578125,-0.293609619140625,0.7680056095123291,-1.102984428405762,-0.208763062953949,60.2347412109375,101.2445831298828,-24.68994140625
91307,-0.153076171875,0.5490264892578125,-0.293609619140625,0.7680056095123291,-1.102984428405762,-0.208763062953949,60.2347412109375,101.2445831298828,-24.68994140625
91308,-0.2852325439453125,1.101043701171875,0.0706329345703125,0.5356471538543701,-0.8664434552192688,-0.6832992434501648,59.55461120605469,101.4367065429688,-26.16171264648438
91309,-0.4019012451171875,1.642852783203125,0.381561279296875,0.0005866943974979,-0.001587243983522,-1.254474878311157,59.55461120605469,101.4367065429688,-26.16171264648438
91310,-0.4825897216796875,2.044815063476562,0.58294677734375,-0.7962207198143005,0.9471814632415771,-1.334294319152832,59.13107299804688,101.6388397216797,-26.80880737304688
91311,-0.562530517578125,2.435012817382812,0.70953369140625,-1.91129744052887,1.70782208442688,-1.283507227897644,57.80905151367188,102.254638671875,-27.296142578125
91312,-0.6350555419921875,2.816558837890625,0.7865142822265625,-3.086020231246948,1.897823929786682,-1.505841851234436,57.80905151367188,102.254638671875,-27.296142578125
91313,-0.714935302734375,2.998931884765625,0.7654571533203125,-3.439305067062378,1.320849537849426,-1.465595364570618,57.26687622070312,102.5558013916016,-26.73136901855469
91314,-0.63165283203125,3.015792846679688,0.9726104736328124,-1.315671324729919,-0.667680561542511,-0.1050198897719383,55.92338562011719,103.5527648925781,-22.37391662597656
91315,-0.63165283203125,3.015792846679688,0.9726104736328124,-1.315671324729919,-0.667680561542511,-0.1050198897719383,55.92338562011719,103.5527648925781,-22.37391662597656
91316,-0.5518341064453125,2.513153076171875,1.347152709960938,-0.5452364087104797,-1.137262940406799,-0.3877109885215759,55.66552734375,103.6131439208984,-21.12600708007812
91317,-0.5081787109375,2.347625732421875,1.208740234375,0.0441693253815174,-0.7926366329193115,-0.5464476346969604,55.4891357421875,103.6677856445312,-20.32183837890625
91318,-0.1261138916015625,2.803558349609375,0.2004241943359375,1.257416844367981,-0.6867642402648926,-0.2904499471187592,54.83819580078125,103.4147033691406,-20.07763671875
91319,-0.115966796875,3.05279541015625,-0.0183563232421875,1.590755701065063,-0.3566129803657532,0.127896711230278,54.46212768554688,103.4188690185547,-20.37913513183594
91320,-0.115966796875,3.05279541015625,-0.0183563232421875,1.590755701065063,-0.3566129803657532,0.127896711230278,54.46212768554688,103.4188690185547,-20.37913513183594
91321,-0.26416015625,2.873367309570312,-0.19439697265625,1.548041701316833,0.8040727972984314,0.4520918428897858,54.13328552246094,103.2568511962891,-21.12899780273438
91322,-0.286529541015625,1.660415649414062,-0.7691192626953125,0.7380253076553345,1.162458062171936,0.7319054007530212,54.48429870605469,102.8219909667969,-22.72383117675781
91323,-0.286529541015625,1.660415649414062,-0.7691192626953125,0.7380253076553345,1.162458062171936,0.7319054007530212,54.48429870605469,102.8219909667969,-22.72383117675781
91324,-0.246063232421875,1.279464721679688,-0.6719207763671875,0.2573175430297852,0.8119911551475525,0.8032224178314209,55.0982666015625,102.504150390625,-23.19651794433594
91325,-0.1831207275390625,1.02459716796875,-0.5107574462890625,0.0533899888396263,0.5462756156921387,0.8525140881538391,55.73622131347656,102.3283233642578,-23.62844848632812
91326,-0.1652374267578125,0.8077392578125,-0.339874267578125,0.0118598556146025,0.5132268071174622,0.8780524730682373,56.36378479003906,102.0401306152344,-23.61404418945312
91327,-0.170745849609375,0.6522674560546875,-0.231170654296875,0.0508083179593086,0.6302085518836975,0.8815603852272034,56.8349609375,101.8860473632812,-23.63887023925781
91328,-0.1632080078125,0.556427001953125,-0.178497314453125,0.1634629666805267,0.7089806199073792,0.8789281249046326,57.568115234375,101.6153869628906,-23.62188720703125
91329,-0.14794921875,0.4916534423828125,-0.12591552734375,0.3145368993282318,0.6840004324913025,0.872094988822937,58.28179931640625,101.4568786621094,-23.677978515625
91330,-0.1291656494140625,0.434600830078125,-0.07623291015625,0.4435340166091919,0.5810050964355469,0.8201478719711304,58.88330078125,101.2560577392578,-23.63104248046875
91331,-0.1191864013671875,0.3699798583984375,-0.04327392578125,0.4982835650444031,0.4615247547626495,0.6940844655036926,59.58445739746094,101.0320281982422,-23.8026123046875
91332,-0.100433349609375,0.2708282470703125,-0.02752685546875,0.4906277656555176,0.3940695524215698,0.5545074343681335,60.16282653808594,100.7400817871094,-24.02430725097656
91333,-0.0688018798828125,0.147735595703125,-0.06549072265625,0.4884905815124512,0.3895956873893738,0.4722751379013062,60.58833312988281,100.5494689941406,-24.24693298339844
91334,-0.0367584228515625,0.015472412109375,-0.1766510009765625,0.5554102063179016,0.3349785208702087,0.4843595027923584,60.88131713867188,100.3698120117188,-24.40180969238281
91335,-0.0068817138671875,-0.115631103515625,-0.3474578857421875,0.7470755577087402,0.0840163379907608,0.5902486443519592,61.27793884277344,100.13671875,-24.60009765625
91336,0.0092010498046875,-0.1819000244140625,-0.4035491943359375,1.008950233459473,-0.2786558568477631,0.7516173124313354,61.51112365722656,99.9320831298828,-24.91055297851562
91337,0.023956298828125,-0.1854400634765625,-0.296630859375,1.187739491462708,-0.4060942530632019,0.8865567445755005,61.74386596679688,99.70549011230467,-25.27471923828125
91338,0.10321044921875,-0.207672119140625,-0.2878265380859375,1.036766171455383,0.334100753068924,0.8881943225860596,62.30531311035156,99.4311981201172,-26.0567626953125
91339,0.10321044921875,-0.207672119140625,-0.2878265380859375,1.036766171455383,0.334100753068924,0.8881943225860596,62.30531311035156,99.4311981201172,-26.0567626953125
91340,0.1493988037109375,-0.207855224609375,-0.4076995849609375,0.8104068636894226,0.506284236907959,0.7953873872756958,62.52423095703125,99.27455139160156,-26.37649536132812
91341,0.1685638427734375,-0.162933349609375,-0.367340087890625,0.6491987705230713,0.3275150060653687,0.6864955425262451,62.91578674316406,99.08596801757812,-26.66432189941406
91342,0.182342529296875,-0.0543670654296875,-0.1970977783203125,0.5648234486579895,0.2432648539543152,0.5366607904434204,63.44026184082031,98.86920166015624,-27.01152038574219
91343,0.1649169921875,0.105255126953125,-0.0291748046875,0.5457011461257935,0.4563030898571014,0.3721943497657776,63.71586608886719,98.63172912597656,-27.4119873046875
91344,0.0949859619140625,0.2187042236328125,0.113006591796875,0.5256536602973938,0.8435131311416626,0.2132390439510345,63.9603271484375,98.52082824707033,-27.64749145507812
91345,0.0413360595703125,0.2467498779296875,0.28814697265625,0.43882155418396,1.363354444503784,0.0416861921548843,64.26528930664062,98.45318603515624,-27.7991943359375
91346,0.0328521728515625,0.281036376953125,0.4119873046875,0.2847342491149902,2.008538961410522,-0.141777902841568,64.47346496582031,98.29855346679688,-27.86517333984375
91347,0.0389862060546875,0.59130859375,0.5171661376953125,0.1141092628240585,2.857690334320068,-0.411686897277832,64.65821838378906,98.36050415039062,-28.00277709960938
91348,0.062530517578125,1.152069091796875,0.6498565673828125,-0.1182201132178307,3.994401454925537,-0.7808454632759094,64.90249633789062,98.41583251953124,-27.97238159179688
91349,0.03729248046875,1.645950317382812,0.7131195068359375,-0.5137107372283936,4.871179580688477,-0.8616950511932373,65.10261535644531,98.47366333007812,-27.64128112792969
91350,-0.2414398193359375,1.988006591796875,0.653778076171875,-0.7194441556930542,4.768666744232178,-0.7842162251472473,65.43533325195312,98.43147277832033,-27.07637023925781
91351,-0.6055908203125,2.116729736328125,0.57122802734375,-0.3593331277370453,3.656776905059814,-0.6238028407096863,65.9012451171875,98.37522888183594,-26.24581909179688
91352,-0.7989044189453125,2.07049560546875,0.5631256103515625,0.292925626039505,1.790517210960388,-0.2287532836198807,66.38969421386719,98.43693542480467,-25.54396057128906
91353,-0.7642669677734375,2.16668701171875,0.7955169677734375,0.77877277135849,0.1494600623846054,0.2789621353149414,66.64016723632812,98.50425720214844,-24.96319580078125
91354,-0.6726837158203125,2.349838256835938,1.109375,0.8945070505142212,-0.5907647609710693,0.4650720655918121,66.69801330566406,98.67349243164062,-24.71029663085938
91355,-0.7239532470703125,2.259811401367188,1.298782348632812,0.5059415102005005,-0.4363844990730286,0.2023770660161972,66.78041076660156,98.65451049804688,-24.94985961914062
91356,-0.839111328125,1.936859130859375,1.270904541015625,-0.2689023017883301,0.0225657634437084,-0.332263171672821,66.84138488769531,98.50933837890624,-25.52580261230469
91357,-0.87664794921875,1.629608154296875,1.104461669921875,-1.058590769767761,0.3226382434368134,-0.7694527506828308,66.95341491699219,98.48553466796876,-25.77131652832031
91358,-0.762237548828125,1.234390258789062,0.656463623046875,-1.706465244293213,0.3969193994998932,-0.8126484155654907,66.54945373535156,98.77198791503906,-24.97206115722656
91359,-0.762237548828125,1.234390258789062,0.656463623046875,-1.706465244293213,0.3969193994998932,-0.8126484155654907,66.54945373535156,98.77198791503906,-24.97206115722656
91360,-0.595306396484375,1.197097778320312,0.3950042724609375,-1.633962988853455,0.2022942453622818,-0.6332318186759949,66.20286560058594,99.09005737304688,-24.36384582519531
91361,-0.4165496826171875,1.21759033203125,0.173583984375,-1.517530679702759,-0.033353429287672,-0.5925027132034302,65.82652282714844,99.42034912109376,-23.53340148925781
91362,-0.272125244140625,1.163787841796875,0.0178985595703125,-1.44952392578125,-0.2172305881977081,-0.6094638705253601,65.44741821289062,99.7374267578125,-22.7646484375
91363,-0.133270263671875,1.038497924804688,-0.5040435791015625,-1.453779458999634,-0.6302983164787292,-0.6346701383590698,65.0908203125,99.97799682617188,-22.00881958007812
91364,-0.0039825439453125,0.81182861328125,-1.219024658203125,-1.484466195106506,-2.35167670249939,-0.6331502795219421,64.79266357421875,100.26025390625,-21.31596374511719
91365,-0.0416107177734375,0.5296783447265625,-0.854949951171875,-1.534989833831787,-1.888572692871094,-0.4115148484706879,64.34185791015625,100.5508422851562,-20.81503295898438
91366,0.152069091796875,0.3835906982421875,-0.3701171875,-0.7970976829528809,-0.5560429692268372,0.3371884226799011,63.40963745117188,100.8299407958984,-19.59407043457031
91367,0.152069091796875,0.3835906982421875,-0.3701171875,-0.7970976829528809,-0.5560429692268372,0.3371884226799011,63.40963745117188,100.8299407958984,-19.59407043457031
91368,0.1872100830078125,0.4038543701171875,-0.0973052978515625,-0.1015921384096146,-0.2787631750106812,0.3606042563915253,63.28778076171875,100.7233123779297,-19.12303161621094
91369,0.2312469482421875,0.397674560546875,-0.0004730224609375,0.4467886686325073,0.0348530560731887,0.3692411482334137,63.279052734375,100.6990051269531,-18.84420776367188
91370,0.2602996826171875,0.3858795166015625,-0.0297088623046875,0.7433929443359375,0.2335762679576874,0.4090956151485443,63.36338806152344,100.5555877685547,-18.74977111816406
91371,0.266937255859375,0.407684326171875,-0.0706329345703125,0.8249945640563965,0.2501983940601349,0.4362827837467194,63.45919799804688,100.5236968994141,-18.79281616210938
91372,0.2611083984375,0.4450225830078125,-0.066680908203125,0.7873872518539429,0.2253561615943909,0.3904899954795837,63.49884033203125,100.5477752685547,-18.87266540527344
91373,0.2725830078125,0.4501953125,-0.0379638671875,0.6668025255203247,0.1734942942857742,0.3177412152290344,63.55531311035156,100.5232849121094,-19.09281921386719
91374,0.300323486328125,0.4395751953125,0.02032470703125,0.5072386860847473,0.1015295535326004,0.2868306934833527,63.68603515625,100.5394287109375,-19.25296020507812
91375,0.3183746337890625,0.459228515625,0.058685302734375,0.3480029702186584,0.0253743324428796,0.3010610342025757,63.75816345214844,100.3726806640625,-19.56538391113281
91376,0.3043975830078125,0.50506591796875,0.0562591552734375,0.2645605504512787,-0.0639230534434318,0.3301235735416412,63.8255615234375,100.2567749023438,-19.99037170410156
91377,0.2198333740234375,0.54095458984375,0.02825927734375,0.3454391658306122,-0.047767523676157,0.3438950479030609,63.88565063476562,100.2891235351562,-20.15298461914062
91378,0.140380859375,0.45599365234375,-0.061279296875,0.5659315586090088,-0.0038112497422844,0.3030062019824982,64.12382507324219,100.2469482421875,-20.25393676757812
91379,0.080657958984375,0.2630615234375,-0.1197052001953125,0.7803778052330017,-0.056812148541212,0.2375715374946594,64.242431640625,100.0913696289062,-20.42478942871094
91380,0.02777099609375,0.1105194091796875,-0.1033172607421875,0.8891232013702393,-0.0174892451614141,0.1686606556177139,64.42628479003906,100.000732421875,-20.7373046875
91381,-0.0107574462890625,0.01287841796875,-0.102569580078125,0.8870568871498108,0.1462631970643997,0.0925296694040298,64.60791015625,100.0049743652344,-20.94578552246094
91382,-0.020263671875,-0.0507354736328125,-0.1493682861328125,0.8321824669837952,0.3173824846744537,0.0250073485076427,64.73843383789062,100.0024871826172,-21.31370544433594
91383,0.0029144287109375,-0.0797119140625,-0.2597198486328125,0.7777040004730225,0.2907572686672211,-0.0214480347931385,64.80325317382812,99.88795471191406,-21.49919128417969
91384,0.0621185302734375,-0.0531463623046875,-0.3685302734375,0.7482926249504089,-0.0984703823924064,-0.0232145078480243,64.77978515625,100.0157470703125,-21.99406433105469
91385,0.1150360107421875,0.132415771484375,-0.4029998779296875,0.7153604626655579,-0.754798412322998,-0.0135496305301785,64.76618957519531,100.0118713378906,-22.39401245117188
91386,0.0863800048828125,0.6705474853515625,-0.1856842041015625,0.6164442896842957,-1.902892708778381,-0.1431382447481155,64.49201965332031,99.97665405273438,-23.15501403808594
91387,0.0863800048828125,0.6705474853515625,-0.1856842041015625,0.6164442896842957,-1.902892708778381,-0.1431382447481155,64.49201965332031,99.97665405273438,-23.15501403808594
91388,0.05950927734375,1.070236206054688,0.1220550537109375,0.3761446177959442,-1.693810939788818,-0.4613609611988068,64.242431640625,100.0942993164062,-23.62571716308594
91389,0.026092529296875,1.493499755859375,0.4328155517578125,-0.0659427940845489,-0.7896389961242676,-0.8917179107666016,63.83798217773438,100.2183990478516,-24.1370849609375
91390,-0.004425048828125,1.93243408203125,0.55010986328125,-0.6132972240447998,0.2873689234256744,-1.263925313949585,63.37519836425781,100.3099060058594,-24.33493041992188
91391,-0.132720947265625,2.489776611328125,0.60888671875,-1.13018274307251,1.018651127815247,-1.644704580307007,62.64591979980469,100.5582733154297,-24.59675598144531
91392,-0.3744049072265625,3.366729736328125,0.6463165283203125,-1.611090421676636,1.420743703842163,-2.039649963378906,61.807373046875,100.8698883056641,-24.60704040527344
91393,-0.4897918701171875,4.51190185546875,0.4228363037109375,-1.941402554512024,0.7500143051147461,-2.35700535774231,61.0673828125,101.2915649414062,-24.13719177246094
91394,-0.780670166015625,4.948501586914062,0.6251983642578125,-1.658185839653015,-0.4270306825637817,-2.185146808624268,60.12692260742188,101.81640625,-23.23326110839844
91395,-0.991455078125,4.077529907226562,1.126876831054688,-0.95019268989563,-0.4591268301010132,-1.037976622581482,59.07907104492188,102.1348724365234,-22.46533203125
91396,-0.5843658447265625,2.998382568359375,1.04302978515625,-0.2552176415920258,-0.0487848483026027,-0.2655712068080902,58.09968566894531,102.3474273681641,-21.73025512695312
91397,-0.29022216796875,2.494583129882812,0.55963134765625,0.4726511538028717,0.1005122289061546,0.1058401465415955,57.58674621582031,102.1602020263672,-21.16874694824219
91398,-0.1345062255859375,2.185226440429688,-0.205596923828125,1.12162172794342,0.4405257105827332,0.2074402719736099,57.835693359375,101.7533264160156,-20.52543640136719
91399,-0.1345062255859375,2.185226440429688,-0.205596923828125,1.12162172794342,0.4405257105827332,0.2074402719736099,57.835693359375,101.7533264160156,-20.52543640136719
91400,-0.1943817138671875,1.894622802734375,-0.5836334228515625,0.9568002820014954,0.6100226044654846,0.2473964840173721,57.99977111816406,101.6702880859375,-21.02255249023438
91401,-0.2122955322265625,1.515380859375,-0.7607879638671875,0.6053444743156433,0.2739796340465546,0.3374395370483398,58.207275390625,101.5748291015625,-21.53590393066406
91402,-0.154449462890625,1.013641357421875,-0.2813873291015625,0.1553254127502441,0.0154348826035857,0.5021265149116516,59.3399658203125,100.8698577880859,-22.58016967773438
91403,-0.154449462890625,1.013641357421875,-0.2813873291015625,0.1553254127502441,0.0154348826035857,0.5021265149116516,59.3399658203125,100.8698577880859,-22.58016967773438
91404,-0.154449462890625,1.013641357421875,-0.2813873291015625,0.1553254127502441,0.0154348826035857,0.5021265149116516,59.3399658203125,100.8698577880859,-22.58016967773438
91405,-0.1431732177734375,0.94073486328125,-0.12945556640625,0.4689605534076691,0.1542500257492065,0.5690970420837402,59.78941345214844,100.5755004882812,-22.62657165527344
91406,-0.1146087646484375,0.8267669677734375,-0.0298919677734375,0.6953601241111755,0.3147792518138885,0.6381045579910278,60.23176574707031,100.1620788574219,-22.58493041992188
91407,-0.0889434814453125,0.684326171875,0.0113983154296875,0.6992079019546509,0.3946200311183929,0.6427429914474487,60.69822692871094,99.94212341308594,-22.65985107421875
91408,-0.0921478271484375,0.5349884033203125,0.018646240234375,0.6100993156433105,0.3493292331695557,0.5734440684318542,60.96011352539062,99.95343017578124,-23.20272827148438
91409,-0.0901336669921875,0.3770904541015625,0.0474853515625,0.4974353313446045,0.2804116904735565,0.478002518415451,61.27923583984375,99.99647521972656,-23.75448608398438
91410,-0.077667236328125,0.23712158203125,0.043853759765625,0.4129652082920074,0.2574094235897064,0.3940804600715637,61.62699890136719,99.92147827148438,-24.04725646972656
91411,-0.058807373046875,0.1185150146484375,-0.001373291015625,0.4084357023239136,0.2070591747760773,0.3512861132621765,61.87332153320312,99.97540283203124,-24.31814575195312
91412,-0.0471954345703125,0.016143798828125,-0.0185394287109375,0.4644624888896942,0.1579430252313614,0.3188552260398865,62.08480834960938,99.86181640625,-24.55775451660156
91413,-0.04205322265625,-0.062347412109375,-0.03326416015625,0.5408651232719421,0.1320509761571884,0.2922587692737579,62.35232543945312,99.86341857910156,-24.8328857421875
91414,-0.0425567626953125,-0.15325927734375,-0.078216552734375,0.6467510461807251,0.2513645887374878,0.2849715650081635,62.79144287109375,99.4765625,-25.2449951171875
91415,-0.0425567626953125,-0.15325927734375,-0.078216552734375,0.6467510461807251,0.2513645887374878,0.2849715650081635,62.79144287109375,99.4765625,-25.2449951171875
91416,-0.0485687255859375,-0.2148590087890625,-0.165435791015625,0.6263371109962463,0.4129622578620911,0.3548582196235657,63.07064819335938,99.2679443359375,-25.25895690917969
91417,-0.0302734375,-0.2692108154296875,-0.3730621337890625,0.6009830236434937,0.3674467206001282,0.4965083003044128,63.21475219726562,99.11817932128906,-25.2652587890625
91418,0.00335693359375,-0.2702178955078125,-0.50482177734375,0.6909816265106201,-0.1147108674049377,0.6568958163261414,63.38241577148438,99.12887573242188,-25.35295104980469
91419,0.016998291015625,-0.220062255859375,-0.3427581787109375,0.8523750305175781,-0.5343353152275085,0.7463663220405579,63.66610717773438,99.14616394042967,-25.48573303222656
91420,0.031280517578125,-0.151214599609375,-0.1154327392578125,1.006482601165771,-0.5633177161216736,0.7150022983551025,63.98336791992188,98.86032104492188,-25.47195434570312
91421,0.0394439697265625,-0.1009979248046875,0.0264129638671875,1.073962092399597,-0.3026181757450104,0.5643203854560852,64.2686767578125,98.6174774169922,-25.5584716796875
91422,0.0372314453125,-0.072784423828125,0.10247802734375,0.983221471309662,0.1644054502248764,0.3570992648601532,64.568603515625,98.3381805419922,-25.83200073242188
91423,0.0389862060546875,-0.0135040283203125,0.0970306396484375,0.7161783576011658,0.6759800314903259,0.1366907358169556,64.80351257324219,98.14561462402344,-26.12162780761719
91424,0.0177764892578125,0.1036376953125,0.0167236328125,0.3760479390621185,0.9954358339309692,-0.0166633985936641,65.08781433105469,97.93405151367188,-26.68199157714844
91425,-0.031158447265625,0.1680450439453125,-0.00396728515625,0.0976839512586593,1.02037525177002,-0.0977752953767776,65.2572021484375,97.853515625,-26.94789123535156
91426,-0.0443878173828125,0.189544677734375,0.08160400390625,-0.0885530337691307,1.034905195236206,-0.1897896379232407,65.388671875,97.88523864746094,-27.03334045410156
91427,-0.04559326171875,0.21002197265625,0.2122650146484375,-0.1994664967060089,1.219189524650574,-0.2946300506591797,65.42141723632812,97.98837280273438,-27.06161499023438
91428,-0.0424346923828125,0.2322845458984375,0.377777099609375,-0.3050781488418579,1.648607969284058,-0.4254125356674194,65.53460693359375,97.97044372558594,-26.85575866699219
91429,-0.041595458984375,0.358123779296875,0.5630645751953125,-0.4292418956756592,2.31268572807312,-0.5764515995979309,65.62362670898438,98.03028869628906,-26.62413024902344
91430,-0.046142578125,1.309326171875,0.7221221923828125,-0.5576643347740173,3.222228050231934,-0.8300255537033081,65.57510375976562,98.1873779296875,-26.50308227539062
91431,-0.130645751953125,2.362411499023438,0.73675537109375,-0.5214983224868774,3.370242595672607,-0.4372191429138184,65.63703918457031,98.40419006347656,-26.39089965820312
91432,-0.5219573974609375,2.926345825195312,0.7725677490234375,-0.2750483453273773,2.585215091705322,0.1529144495725632,65.57687377929688,98.5624542236328,-26.17031860351562
91433,-0.8297271728515625,3.099777221679688,0.76947021484375,0.1398484408855438,1.169076561927795,0.2133056223392487,65.88040161132812,98.53604125976562,-25.94004821777344
91434,-0.9575347900390624,2.970779418945312,0.98797607421875,0.3975577354431152,-0.0715591385960578,0.1702537536621094,66.22947692871094,98.47030639648438,-25.548583984375
91435,-0.96484375,2.710098266601562,1.276153564453125,0.168563187122345,-0.2238714396953583,0.1211938038468361,66.58831787109375,98.27682495117188,-25.24301147460938
91436,-0.9757537841796876,2.368789672851562,1.280685424804688,-0.3619073331356049,0.4696955978870392,-0.2128728628158569,66.75228881835938,98.24870300292967,-25.07838439941406
91437,-0.8174591064453125,1.887954711914062,0.9017333984375,-0.9092697501182556,0.9375685453414916,-0.4894429445266724,66.78309631347656,98.42311096191406,-25.19261169433594
91438,-0.565826416015625,1.522293090820312,0.487091064453125,-1.243482947349548,0.722879946231842,-0.5159858465194702,66.74855041503906,98.6145477294922,-25.10459899902344
91439,-0.352569580078125,1.366302490234375,0.2594451904296875,-1.323771119117737,0.1909140348434448,-0.4160701930522919,66.64103698730469,98.68321228027344,-24.81120300292969
91440,-0.222900390625,1.275924682617188,0.164276123046875,-1.274620532989502,-0.3169499933719635,-0.2986466288566589,66.55122375488281,98.79850769042967,-24.19450378417969
91441,-0.1524505615234375,1.171646118164062,0.12274169921875,-1.222234845161438,-0.5809906721115112,-0.2348945289850235,66.28425598144531,99.01155090332033,-23.51800537109375
91442,-0.03753662109375,0.8522796630859375,-0.3178863525390625,-1.273872256278992,-1.274932742118835,-0.2440792471170425,65.95628356933594,99.45797729492188,-22.27137756347656
91443,-0.03753662109375,0.8522796630859375,-0.3178863525390625,-1.273872256278992,-1.274932742118835,-0.2440792471170425,65.95628356933594,99.45797729492188,-22.27137756347656
91444,-0.0097808837890625,0.6866455078125,-0.3420562744140625,-1.368973970413208,-1.803434133529663,-0.2884741425514221,65.72953796386719,99.65998840332033,-21.85493469238281
91445,0.0079345703125,0.536102294921875,-0.2235565185546875,-1.418984889984131,-1.815027594566345,-0.3092555701732635,65.50619506835938,99.82041931152344,-21.35134887695312
91446,0.1245880126953125,0.3818206787109375,-0.193084716796875,-1.196176052093506,-0.9486632347106934,-0.0817119032144546,64.77375793457031,100.20361328125,-20.68887329101562
91447,0.1245880126953125,0.3818206787109375,-0.193084716796875,-1.196176052093506,-0.9486632347106934,-0.0817119032144546,64.77375793457031,100.20361328125,-20.68887329101562
91448,0.1736602783203125,0.4002685546875,-0.189361572265625,-0.8775278329849243,-0.6722809076309204,0.0505452007055282,64.48255920410156,100.4006500244141,-20.22261047363281
91449,0.2086639404296875,0.442596435546875,-0.1715545654296875,-0.4982723891735077,-0.5786817073822021,0.1077006310224533,64.30110168457031,100.3510284423828,-19.70173645019531
91450,0.271392822265625,0.5907745361328125,-0.0422821044921875,0.0139674805104732,-0.5322647094726562,0.2413124889135361,64.11412048339844,100.2826232910156,-18.86799621582031
91451,0.271392822265625,0.5907745361328125,-0.0422821044921875,0.0139674805104732,-0.5322647094726562,0.2413124889135361,64.11412048339844,100.2826232910156,-18.86799621582031
91452,0.2054443359375,0.6578369140625,-0.021270751953125,0.1887976080179214,-0.2677251994609833,0.1096902787685394,64.08354187011719,100.3031616210938,-18.73448181152344
91453,0.13623046875,0.636260986328125,-0.0361785888671875,0.3574625253677368,0.0315177105367183,-0.1426013559103012,63.98530578613281,100.3853607177734,-18.67242431640625
91454,-0.037261962890625,0.4680328369140625,-0.0824432373046875,0.5492588877677917,0.1565257012844086,-0.447625458240509,63.912841796875,100.6244964599609,-18.82298278808594
91455,-0.037261962890625,0.4680328369140625,-0.0824432373046875,0.5492588877677917,0.1565257012844086,-0.447625458240509,63.912841796875,100.6244964599609,-18.82298278808594
91456,-0.165802001953125,0.38031005859375,-0.0530548095703125,0.4924299418926239,0.1386337727308273,-0.40519118309021,63.72512817382812,100.6723175048828,-19.02763366699219
91457,-0.2805328369140625,0.252716064453125,-0.0932769775390625,0.4084892272949219,0.2519017457962036,-0.2199779003858566,63.64825439453125,100.5942687988281,-19.31620788574219
91458,-0.17388916015625,0.0879058837890625,-0.2144012451171875,0.3757405877113342,0.4498632848262787,0.1399171501398087,63.33671569824219,100.6068725585938,-19.68484497070312
91459,-0.17388916015625,0.0879058837890625,-0.2144012451171875,0.3757405877113342,0.4498632848262787,0.1399171501398087,63.33671569824219,100.6068725585938,-19.68484497070312
91460,-0.07305908203125,0.121856689453125,-0.249267578125,0.3958660960197449,0.4327543675899506,0.2286275774240494,63.30390930175781,100.6869354248047,-19.76748657226562
91461,-0.002410888671875,0.1522674560546875,-0.2787017822265625,0.4265356063842773,0.2461913973093033,0.2599213123321533,63.32084655761719,100.5959777832031,-19.86894226074219
91462,0.099029541015625,0.27618408203125,-0.3061676025390625,0.5519055128097534,-0.3682398200035095,0.1892106682062149,63.52278137207031,100.3087615966797,-19.76382446289062
91463,0.099029541015625,0.27618408203125,-0.3061676025390625,0.5519055128097534,-0.3682398200035095,0.1892106682062149,63.52278137207031,100.3087615966797,-19.76382446289062
91464,0.1439208984375,0.3762054443359375,-0.340576171875,0.6782786250114441,-0.7473551630973816,0.0909296423196792,63.59086608886719,100.4142608642578,-19.92311096191406
91465,0.1790771484375,0.5198516845703125,-0.324951171875,0.8476181030273438,-1.056479692459106,-0.0206853039562702,63.56214904785156,100.4019775390625,-20.13105773925781
91466,0.046417236328125,0.9460601806640624,0.0522308349609375,0.955413281917572,-0.6735382080078125,-0.3983428478240967,63.47811889648438,100.4425964355469,-21.02882385253906
91467,0.046417236328125,0.9460601806640624,0.0522308349609375,0.955413281917572,-0.6735382080078125,-0.3983428478240967,63.47811889648438,100.4425964355469,-21.02882385253906
91468,-0.080841064453125,1.139144897460938,0.2967529296875,0.5760827660560608,0.0582417361438274,-0.6972954869270325,62.89805603027344,100.7368927001953,-22.17500305175781
91469,-0.2022552490234375,1.410736083984375,0.452239990234375,-0.0698099732398986,0.7721436023712158,-1.002699017524719,62.89805603027344,100.7368927001953,-22.17500305175781
91470,-0.3520965576171875,2.540237426757812,0.7002716064453125,-1.631327271461487,1.675328373908997,-1.568220734596252,61.5137939453125,101.3851470947266,-22.71778869628906
91471,-0.3520965576171875,2.540237426757812,0.7002716064453125,-1.631327271461487,1.675328373908997,-1.568220734596252,61.5137939453125,101.3851470947266,-22.71778869628906
91472,-0.496917724609375,3.24176025390625,0.837127685546875,-2.518741130828857,1.216254234313965,-1.83109712600708,61.01351928710938,101.7089691162109,-22.18243408203125
91473,-0.790313720703125,3.788986206054688,0.97100830078125,-2.714075326919556,0.2810095548629761,-1.478374719619751,60.36981201171875,101.9595794677734,-21.13746643066406
91474,-0.5281219482421875,3.096923828125,1.415557861328125,-1.197649359703064,-1.598297953605652,-0.6027052998542786,59.01792907714844,102.4646301269531,-19.14645385742188
91475,-0.5281219482421875,3.096923828125,1.415557861328125,-1.197649359703064,-1.598297953605652,-0.6027052998542786,59.01792907714844,102.4646301269531,-19.14645385742188
91476,-0.2675323486328125,2.297088623046875,1.395782470703125,-0.4597497582435608,-1.284087300300598,-0.5284339785575867,58.67953491210938,102.4757537841797,-18.41775512695312
91477,-0.0941162109375,2.004348754882812,0.8905029296875,0.028107801452279,-1.231230497360229,-0.4451753497123718,58.40370178222656,102.3868560791016,-17.61903381347656
91478,0.0032501220703125,2.16876220703125,0.38031005859375,0.3809931576251984,-1.351857304573059,-0.4470198452472687,58.16433715820312,102.3522796630859,-17.33757019042969
91479,0.0642242431640625,2.470123291015625,0.0022735595703125,0.7123146057128906,-1.368245124816895,-0.1902258694171906,57.86050415039062,102.3783569335938,-17.41197204589844
91480,-0.0185699462890625,2.446807861328125,-0.2045135498046875,1.027323961257935,-0.7810901999473572,0.0436281710863113,57.65359497070312,102.3323516845703,-17.792724609375
91481,-0.1473388671875,1.89703369140625,-0.4633636474609375,1.085397362709045,0.1329489946365356,0.2182244807481766,57.43377685546875,102.1927490234375,-18.15577697753906
91482,-0.1512603759765625,1.136215209960938,-0.6950225830078125,0.3741914331912994,0.124650850892067,0.4541110396385193,57.72547912597656,102.0794525146484,-19.45118713378906
91483,-0.1512603759765625,1.136215209960938,-0.6950225830078125,0.3741914331912994,0.124650850892067,0.4541110396385193,57.72547912597656,102.0794525146484,-19.45118713378906
91484,-0.0928192138671875,0.9676513671875,-0.5263214111328125,-0.0703066512942314,-0.0929110348224639,0.5403831005096436,58.13467407226562,101.7750854492188,-19.76614379882812
91485,-0.0552978515625,0.8934326171875,-0.3256378173828125,-0.1729430109262466,-0.1282085627317429,0.5907831192016602,58.57740783691406,101.4874877929688,-19.8052978515625
91486,-0.107269287109375,0.6852264404296875,-0.120941162109375,0.3195082247257233,0.1151481568813324,0.7076985836029053,59.55767822265625,101.2021942138672,-19.68844604492188
91487,-0.107269287109375,0.6852264404296875,-0.120941162109375,0.3195082247257233,0.1151481568813324,0.7076985836029053,59.55767822265625,101.2021942138672,-19.68844604492188
91488,-0.1110076904296875,0.5475006103515625,-0.0758514404296875,0.5396531224250793,0.1942339241504669,0.7254109978675842,59.97833251953125,100.9035949707031,-19.77473449707031
91489,-0.116668701171875,0.426513671875,-0.0291595458984375,0.5783848166465759,0.2608600854873657,0.6667950749397278,60.47601318359375,100.7976379394531,-19.88150024414062
91490,-0.1143035888671875,0.293121337890625,-0.0146026611328125,0.4836026132106781,0.3318279981613159,0.5558616518974304,60.88932800292969,100.5996551513672,-20.12989807128906
91491,-0.1008148193359375,0.13970947265625,-0.0289306640625,0.3302860260009766,0.4063459038734436,0.4681461751461029,61.29193115234375,100.4160919189453,-20.42767333984375
91492,-0.093902587890625,0.00604248046875,-0.0962066650390625,0.2561148703098297,0.4578794240951538,0.415277898311615,61.72119140625,100.1657867431641,-20.63424682617188
91493,-0.091888427734375,-0.104095458984375,-0.2024993896484375,0.331411212682724,0.4717789888381958,0.4116900861263275,62.064208984375,100.1044921875,-20.8426513671875
91494,-0.128570556640625,-0.217010498046875,-0.44720458984375,0.924626648426056,0.142801895737648,0.5309970378875732,62.53546142578125,100.0983734130859,-21.04945373535156
91495,-0.128570556640625,-0.217010498046875,-0.44720458984375,0.924626648426056,0.142801895737648,0.5309970378875732,62.53546142578125,100.0983734130859,-21.04945373535156
91496,-0.1340789794921875,-0.2191619873046875,-0.424102783203125,1.166594505310059,0.0078456727787852,0.611630380153656,62.78382873535156,99.99937438964844,-21.28598022460938
91497,-0.1212005615234375,-0.200958251953125,-0.3831939697265625,1.242363572120667,-0.0503574460744857,0.6656938791275024,63.11685180664062,99.82087707519533,-21.59706115722656
91498,-0.03399658203125,-0.09051513671875,-0.360107421875,0.9613438844680786,-0.2317956835031509,0.6454492807388306,63.60658264160156,99.41642761230467,-22.58396911621094
91499,-0.03399658203125,-0.09051513671875,-0.360107421875,0.9613438844680786,-0.2317956835031509,0.6454492807388306,63.60658264160156,99.41642761230467,-22.58396911621094
91500,0.014801025390625,0.0128631591796875,-0.2411956787109375,0.829218327999115,-0.2071936577558517,0.4899494647979736,63.86976623535156,99.23927307128906,-23.05209350585938
91501,0.052032470703125,0.1092681884765625,-0.0901641845703125,0.7260221838951111,0.0904808938503265,0.3287424743175507,64.12052917480469,99.06997680664062,-23.4927978515625
91502,0.030242919921875,0.188751220703125,0.109283447265625,0.5784668326377869,0.770332932472229,0.131019800901413,64.6171875,98.86033630371094,-24.08621215820312
91503,0.0272369384765625,0.188507080078125,0.1743621826171875,0.5484346151351929,1.093285918235779,0.0261687524616718,64.7935791015625,98.87947082519533,-24.16618347167969
91504,0.0272369384765625,0.188507080078125,0.1743621826171875,0.5484346151351929,1.093285918235779,0.0261687524616718,64.7935791015625,98.87947082519533,-24.16618347167969
91505,0.0543670654296875,0.374603271484375,0.2650146484375,0.5055654644966125,1.521293163299561,-0.0872073397040367,64.96160888671875,98.80038452148438,-24.31076049804688
91506,0.116973876953125,0.96368408203125,0.4144287109375,0.1929859668016434,2.685653924942017,0.0745136514306068,65.22782897949219,98.8359832763672,-24.639404296875
91507,0.116973876953125,0.96368408203125,0.4144287109375,0.1929859668016434,2.685653924942017,0.0745136514306068,65.22782897949219,98.8359832763672,-24.639404296875
91508,0.0070648193359375,1.161300659179688,0.4395599365234375,0.0903935432434082,2.847765684127808,0.2277071923017502,65.33935546875,98.89950561523438,-24.79185485839844
91509,-0.1003570556640625,1.42828369140625,0.4636077880859375,0.2330396473407745,2.494434356689453,0.2562834322452545,65.71417236328125,98.86538696289062,-24.61883544921875
91510,-0.2323760986328125,2.026138305664062,0.746124267578125,0.8829191327095032,0.7424831986427307,0.4339002966880798,66.56578063964844,98.54837036132812,-24.04405212402344
91511,-0.2323760986328125,2.026138305664062,0.746124267578125,0.8829191327095032,0.7424831986427307,0.4339002966880798,66.56578063964844,98.54837036132812,-24.04405212402344
91512,-0.32635498046875,2.396072387695312,1.064788818359375,0.9845250844955444,0.0521532148122787,0.5253838896751404,66.92669677734375,98.61349487304688,-24.12461853027344
91513,-0.4897918701171875,2.729705810546875,1.396591186523438,0.7825384736061096,-0.112512432038784,0.484582930803299,67.17169189453125,98.46327209472656,-24.360595703125
91514,-0.9463958740234376,2.591827392578125,1.675704956054688,-0.448639303445816,0.7909428477287292,-0.2017674744129181,67.75201416015625,98.2332000732422,-25.19850158691406
91515,-0.9463958740234376,2.591827392578125,1.675704956054688,-0.448639303445816,0.7909428477287292,-0.2017674744129181,67.75201416015625,98.2332000732422,-25.19850158691406
91516,-0.8987274169921875,2.00042724609375,1.318939208984375,-1.117883205413818,1.040189146995544,-0.6958001255989075,67.89303588867188,98.13108825683594,-25.26536560058594
91517,-0.65478515625,1.453628540039062,0.762237548828125,-1.371078133583069,0.6078481674194336,-0.7525272965431213,67.97319030761719,98.11837768554688,-25.05990600585938
91518,-0.2711181640625,1.109695434570312,0.20709228515625,-1.284637212753296,-0.5184881687164307,-0.4028031229972839,67.51559448242188,98.62518310546876,-23.61807250976562
91519,-0.2711181640625,1.109695434570312,0.20709228515625,-1.284637212753296,-0.5184881687164307,-0.4028031229972839,67.51559448242188,98.62518310546876,-23.61807250976562
91520,-0.1749267578125,1.058395385742188,0.0968170166015625,-1.304724931716919,-0.9010903835296632,-0.3306548893451691,67.24116516113281,98.8642120361328,-23.0599365234375
91521,-0.1124725341796875,0.9962005615234376,0.0284271240234375,-1.350282907485962,-1.127158403396606,-0.3285858631134033,67.02670288085938,99.11541748046876,-22.63307189941406
91522,0.068878173828125,0.785736083984375,-0.808197021484375,-1.587751626968384,-2.091288328170776,-0.4627471268177032,66.43373107910156,99.65118408203124,-21.7884521484375
91523,0.068878173828125,0.785736083984375,-0.808197021484375,-1.587751626968384,-2.091288328170776,-0.4627471268177032,66.43373107910156,99.65118408203124,-21.7884521484375
91524,0.16302490234375,0.613525390625,-1.163665771484375,-1.638850450515747,-4.231504917144775,-0.5456020832061768,66.13330078125,99.74432373046876,-21.29557800292969
91525,0.0925140380859375,0.4864349365234375,-0.352874755859375,-1.57926619052887,-4.784105777740479,-0.555669367313385,65.7197265625,99.98289489746094,-20.8463134765625
91526,0.0515289306640625,0.3173980712890625,0.123870849609375,-1.442633271217346,-0.5690269470214844,0.0400230512022972,64.43632507324219,100.4512023925781,-20.41642761230469
91527,0.0515289306640625,0.3173980712890625,0.123870849609375,-1.442633271217346,-0.5690269470214844,0.0400230512022972,64.43632507324219,100.4512023925781,-20.41642761230469
91528,0.18853759765625,0.3694915771484375,-0.0923004150390625,-0.9465361833572388,0.9120857715606688,0.3385924398899078,64.06660461425781,100.7097930908203,-20.13552856445312
91529,0.1707000732421875,0.517242431640625,-0.26727294921875,-0.3687750995159149,1.198077917098999,0.4266517162322998,63.95257568359375,100.5789642333984,-19.46418762207031
91530,0.045318603515625,0.5247039794921875,-0.1595306396484375,0.3516267538070679,0.3881685137748718,0.0364810451865196,64.46549987792969,100.2351684570312,-18.19366455078125
91531,0.045318603515625,0.5247039794921875,-0.1595306396484375,0.3516267538070679,0.3881685137748718,0.0364810451865196,64.46549987792969,100.2351684570312,-18.19366455078125
91532,-0.002197265625,0.5063629150390625,-0.1152191162109375,0.4972702264785767,0.1697658598423004,-0.1183929592370987,64.55276489257812,100.1845703125,-18.00863647460938
91533,-0.0247039794921875,0.4868011474609375,-0.1742401123046875,0.6016389727592468,-0.0392206385731697,-0.2699998021125793,64.38125610351562,100.3313751220703,-18.09945678710938
91534,-0.0326995849609375,0.2946014404296875,-0.1318359375,0.5304745435714722,-0.428733766078949,-0.3187406957149506,64.202392578125,100.39453125,-18.66157531738281
91535,-0.0326995849609375,0.2946014404296875,-0.1318359375,0.5304745435714722,-0.428733766078949,-0.3187406957149506,64.202392578125,100.39453125,-18.66157531738281
91536,-0.009521484375,0.21685791015625,-0.0827789306640625,0.3185263276100159,-0.3806219100952148,-0.2010630667209625,64.0560302734375,100.4787750244141,-19.06126403808594
91537,0.027435302734375,0.1579132080078125,-0.0584716796875,0.126049816608429,-0.2370367795228958,-0.1118876487016678,63.88383483886719,100.4360656738281,-19.38713073730469
91538,0.0950164794921875,0.0600738525390625,-0.08502197265625,0.0486543551087379,-0.150759145617485,-0.0143397906795144,63.68690490722656,100.3500213623047,-19.85610961914062
91539,0.0950164794921875,0.0600738525390625,-0.08502197265625,0.0486543551087379,-0.150759145617485,-0.0143397906795144,63.68690490722656,100.3500213623047,-19.85610961914062
91540,0.121856689453125,0.06549072265625,-0.11126708984375,0.1507626175880432,-0.2069939225912094,0.0283128637820482,63.59921264648438,100.3986358642578,-19.92439270019531
91541,0.1424713134765625,0.1295013427734375,-0.1221771240234375,0.2841787338256836,-0.2952931523323059,0.0609187446534633,63.61079406738281,100.3847503662109,-19.9044189453125
91542,0.143798828125,0.430419921875,-0.118988037109375,0.4362196624279022,-0.6839937567710876,-0.0107091031968593,63.50790405273438,100.5661010742188,-20.11831665039062
91543,0.143798828125,0.430419921875,-0.118988037109375,0.4362196624279022,-0.6839937567710876,-0.0107091031968593,63.50790405273438,100.5661010742188,-20.11831665039062
91544,0.130401611328125,0.623077392578125,-0.11517333984375,0.4551318287849426,-1.001753330230713,-0.1280053704977036,63.44355773925781,100.6762237548828,-20.29582214355469
91545,0.1135406494140625,0.79852294921875,-0.065277099609375,0.445426732301712,-1.331426024436951,-0.2881290018558502,63.2994384765625,100.7137145996094,-20.54664611816406
91546,0.037689208984375,1.216354370117188,0.3448333740234375,0.1929287016391754,-1.317711591720581,-0.6957441568374634,62.80154418945312,100.7737731933594,-21.15750122070312
91547,0.037689208984375,1.216354370117188,0.3448333740234375,0.1929287016391754,-1.317711591720581,-0.6957441568374634,62.80154418945312,100.7737731933594,-21.15750122070312
91548,-0.00274658203125,1.513534545898438,0.590850830078125,-0.113666906952858,-0.7456179857254028,-0.9214734435081482,62.33212280273438,100.9307098388672,-21.60600280761719
91549,-0.0436553955078125,1.877120971679688,0.7377777099609375,-0.4963271915912628,-0.1511367857456207,-1.101510286331177,61.79544067382812,101.0006256103516,-21.90046691894531
91550,-0.273162841796875,2.903289794921875,0.9858856201171876,-1.190778136253357,0.0452516339719295,-1.167966604232788,60.62991333007812,101.2845611572266,-21.8116455078125
91551,-0.273162841796875,2.903289794921875,0.9858856201171876,-1.190778136253357,0.0452516339719295,-1.167966604232788,60.62991333007812,101.2845611572266,-21.8116455078125
91552,-0.4384307861328125,3.60101318359375,1.0556640625,-1.073071002960205,-0.4357165992259979,-0.947934627532959,60.03924560546875,101.5486145019531,-21.49501037597656
91553,-0.49957275390625,4.131179809570312,1.126861572265625,-0.6644762754440308,-0.997924506664276,-0.6074401140213013,59.38954162597656,101.6088562011719,-20.94082641601562
91554,-0.0176239013671875,3.161956787109375,0.8982086181640625,-0.2847329378128052,-1.378403425216675,-0.1503128111362457,58.43057250976562,101.7786560058594,-20.12953186035156
91555,-0.0176239013671875,3.161956787109375,0.8982086181640625,-0.2847329378128052,-1.378403425216675,-0.1503128111362457,58.43057250976562,101.7786560058594,-20.12953186035156
91556,0.0596466064453125,2.606033325195312,0.4942779541015625,0.0351990014314651,-1.285030841827393,-0.1117251962423325,58.16044616699219,101.7071990966797,-19.95541381835938
91557,0.0527801513671875,2.2640380859375,0.152008056640625,0.6005218029022217,-0.802693784236908,-0.0415943153202533,58.10267639160156,101.6676330566406,-19.85270690917969
91558,-0.192718505859375,1.8546142578125,-0.3258514404296875,1.226451396942139,0.6769630312919617,0.1921492069959641,57.96340942382812,101.651611328125,-20.24176025390625
91559,-0.192718505859375,1.8546142578125,-0.3258514404296875,1.226451396942139,0.6769630312919617,0.1921492069959641,57.96340942382812,101.651611328125,-20.24176025390625
91560,-0.25286865234375,1.54742431640625,-0.5355224609375,0.9632445573806764,0.7679637670516968,0.3659574687480927,58.062744140625,101.6195068359375,-20.75794982910156
91561,-0.178253173828125,1.27154541015625,-0.537689208984375,0.5257213115692139,0.5163555145263672,0.5025888085365295,58.33674621582031,101.4911193847656,-21.31208801269531
91562,-0.03704833984375,0.889190673828125,-0.24371337890625,0.0054722633212804,0.174091100692749,0.5862917304039001,59.19772338867188,101.0801086425781,-22.19784545898438
91563,-0.0141143798828125,0.75079345703125,-0.1386871337890625,0.0966567695140838,0.1192203983664513,0.6079123020172119,59.60427856445312,100.8423309326172,-22.32025146484375
91564,-0.0141143798828125,0.75079345703125,-0.1386871337890625,0.0966567695140838,0.1192203983664513,0.6079123020172119,59.60427856445312,100.8423309326172,-22.32025146484375
91565,0.002471923828125,0.6306610107421875,-0.075164794921875,0.3073636889457703,0.0768481791019439,0.6064568758010864,60.06581115722656,100.6174468994141,-22.36502075195312
91566,0.0079803466796875,0.391326904296875,0.0693817138671875,0.5028290152549744,0.1769039332866669,0.532577633857727,60.86410522460938,100.4503631591797,-22.57310485839844
91567,0.0079803466796875,0.391326904296875,0.0693817138671875,0.5028290152549744,0.1769039332866669,0.532577633857727,60.86410522460938,100.4503631591797,-22.57310485839844
91568,0.0003509521484375,0.2399749755859375,0.060394287109375,0.4081041216850281,0.3634868562221527,0.4764136970043182,61.21391296386719,100.3513793945312,-22.74371337890625
91569,-0.0103759765625,0.0960540771484375,-0.0212249755859375,0.3110660016536713,0.4900117814540863,0.4404410421848297,61.59516906738281,100.1172637939453,-22.97900390625
91570,-0.029388427734375,-0.1175079345703125,-0.2730865478515625,0.4731185436248779,0.2519238591194153,0.4343096315860748,62.22634887695312,99.9576416015625,-23.07395935058594
91571,-0.029388427734375,-0.1175079345703125,-0.2730865478515625,0.4731185436248779,0.2519238591194153,0.4343096315860748,62.22634887695312,99.9576416015625,-23.07395935058594
91572,-0.056396484375,-0.174407958984375,-0.3975067138671875,0.7179977893829346,-0.0853876024484634,0.4869507551193237,62.41708374023438,99.97592163085938,-23.284423828125
91573,-0.089202880859375,-0.1966552734375,-0.3891448974609375,0.9485048055648804,-0.3673423230648041,0.5548171401023865,62.69462585449219,99.88865661621094,-23.36727905273438
91574,-0.1103668212890625,-0.1777801513671875,-0.2012481689453125,1.060708284378052,-0.0475651212036609,0.5830757021903992,63.08160400390625,99.71360778808594,-23.86041259765625
91575,-0.1103668212890625,-0.1777801513671875,-0.2012481689453125,1.060708284378052,-0.0475651212036609,0.5830757021903992,63.08160400390625,99.71360778808594,-23.86041259765625
91576,-0.07232666015625,-0.1627044677734375,-0.2436676025390625,1.008165955543518,0.0526128783822059,0.5480199456214905,63.39089965820312,99.65692138671876,-24.51359558105469
91577,-0.0289154052734375,-0.117523193359375,-0.223968505859375,0.9585198760032654,0.0054568168707191,0.4708311557769775,63.52565002441406,99.60302734375,-25.00057983398438
91578,0.0441741943359375,0.054779052734375,-0.0113983154296875,0.9574756622314452,0.2986503541469574,0.2270224988460541,64.05123901367188,99.1349639892578,-25.72904968261719
91579,0.0441741943359375,0.054779052734375,-0.0113983154296875,0.9574756622314452,0.2986503541469574,0.2270224988460541,64.05123901367188,99.1349639892578,-25.72904968261719
91580,0.0365142822265625,0.0997314453125,0.0465545654296875,0.9153764247894288,0.5264033675193787,0.1873746812343597,64.22715759277344,99.02528381347656,-26.15000915527344
91581,0.0134735107421875,0.116912841796875,0.0971221923828125,0.8230661749839783,0.7914813756942749,0.150216668844223,64.40036010742188,98.91839599609376,-26.55088806152344
91582,0.0182342529296875,0.1372528076171875,0.1443939208984375,0.5983830094337463,1.380704641342163,0.0621464625000953,64.68423461914062,98.7470703125,-27.0640869140625
91583,0.0182342529296875,0.1372528076171875,0.1443939208984375,0.5983830094337463,1.380704641342163,0.0621464625000953,64.68423461914062,98.7470703125,-27.0640869140625
91584,0.06231689453125,0.3509063720703125,0.2609710693359375,0.4684950411319733,1.853936910629272,0.0199287012219429,64.87315368652344,98.6611785888672,-27.31675720214844
91585,0.1511688232421875,0.74835205078125,0.35943603515625,0.1967868357896805,2.446948289871216,0.0749570652842521,65.08641052246094,98.56224060058594,-27.71270751953125
91586,0.01788330078125,1.579879760742188,0.5681304931640625,-0.5921016931533813,2.41973876953125,0.2974250316619873,65.62605285644531,98.51075744628906,-28.06840515136719
91587,0.01788330078125,1.579879760742188,0.5681304931640625,-0.5921016931533813,2.41973876953125,0.2974250316619873,65.62605285644531,98.51075744628906,-28.06840515136719
91588,-0.190185546875,1.923980712890625,0.7274017333984375,-0.423122763633728,1.64904797077179,0.0586878135800361,66.18289184570312,98.26838684082033,-27.75006103515625
91589,-0.376251220703125,2.13580322265625,0.938568115234375,-0.0106776775792241,0.5551127791404724,-0.1614538729190826,66.75590515136719,98.07244873046876,-27.07571411132812
91590,-0.7113189697265625,2.70819091796875,1.694442749023438,0.0847628265619278,-0.2516402304172516,-0.2897964119911194,67.42202758789062,97.68258666992188,-25.93191528320312
91591,-0.7113189697265625,2.70819091796875,1.694442749023438,0.0847628265619278,-0.2516402304172516,-0.2897964119911194,67.42202758789062,97.68258666992188,-25.93191528320312
91592,-0.8767852783203125,2.9376220703125,1.912185668945312,-0.2991251945495605,0.5390368700027466,-0.3710513114929199,67.43815612792969,97.70899963378906,-25.9547119140625
91593,-0.9803619384765624,2.780242919921875,1.712677001953125,-0.7699904441833496,1.553294062614441,-0.4819605052471161,67.40339660644531,97.88655090332033,-26.24876403808594
91594,-0.4253997802734375,1.617843627929688,0.4395294189453125,-1.313457489013672,1.446819186210632,-0.3475446403026581,67.33950805664062,98.09010314941406,-25.85568237304688
91595,-0.4253997802734375,1.617843627929688,0.4395294189453125,-1.313457489013672,1.446819186210632,-0.3475446403026581,67.33950805664062,98.09010314941406,-25.85568237304688
91596,-0.2342376708984375,1.36517333984375,0.1471405029296875,-1.350466370582581,0.6700204610824585,-0.227383628487587,67.26521301269531,98.27090454101562,-25.12802124023438
91597,-0.1441497802734375,1.225265502929688,0.0112762451171875,-1.320235729217529,-0.0174876470118761,-0.125543013215065,67.18020629882812,98.49061584472656,-24.22599792480469
91598,-0.0182342529296875,0.9764251708984376,-0.2277069091796875,-1.313605546951294,-0.8721160292625427,-0.1115843206644058,66.90800476074219,99.14939880371094,-22.90037536621094
91599,-0.0182342529296875,0.9764251708984376,-0.2277069091796875,-1.313605546951294,-0.8721160292625427,-0.1115843206644058,66.90800476074219,99.14939880371094,-22.90037536621094
91600,0.08172607421875,0.812744140625,-0.8058929443359375,-1.416764616966248,-2.179188251495361,-0.2263114303350449,66.78855895996094,99.38861083984376,-22.34420776367188
91601,0.107452392578125,0.6701202392578125,-0.64422607421875,-1.430517196655273,-3.40488600730896,-0.3829990327358246,66.66532897949219,99.47013854980467,-21.8275146484375
91602,0.0124664306640625,0.478302001953125,-0.0123443603515625,-1.135261297225952,-2.452949285507202,-0.4922621548175812,65.97259521484375,99.8465576171875,-20.89585876464844
91603,-0.074371337890625,0.37872314453125,-0.1228485107421875,-0.6622765064239502,-0.8246470093727112,-0.417222797870636,65.32200622558594,100.1295471191406,-20.75431823730469
91604,-0.074371337890625,0.37872314453125,-0.1228485107421875,-0.6622765064239502,-0.8246470093727112,-0.417222797870636,65.32200622558594,100.1295471191406,-20.75431823730469
91605,-0.17791748046875,0.42022705078125,-0.535125732421875,0.0479648634791374,0.2830245196819305,-0.3189875781536102,64.70787048339844,100.3960266113281,-20.57781982421875
91606,-0.1299591064453125,0.5568389892578125,-0.37628173828125,0.859851598739624,0.5835137963294983,-0.3500860929489136,64.00022888183594,100.6177215576172,-19.96199035644531
91607,-0.1299591064453125,0.5568389892578125,-0.37628173828125,0.859851598739624,0.5835137963294983,-0.3500860929489136,64.00022888183594,100.6177215576172,-19.96199035644531
91608,-0.0619964599609375,0.4828643798828125,-0.266998291015625,0.890930712223053,0.6939313411712646,-0.3285078406333923,63.7308349609375,100.8720855712891,-20.09149169921875
91609,0.0327606201171875,0.396697998046875,-0.22052001953125,0.8185436129570007,0.6539088487625122,-0.2129197269678116,63.62043762207031,101.0551910400391,-20.60043334960938
91610,0.1736297607421875,0.36041259765625,-0.1679229736328125,0.6157952547073364,-0.0327808484435081,0.1318576335906982,63.388427734375,100.8575592041016,-21.21138000488281
91611,0.1736297607421875,0.36041259765625,-0.1679229736328125,0.6157952547073364,-0.0327808484435081,0.1318576335906982,63.388427734375,100.8575592041016,-21.21138000488281
91612,0.2145538330078125,0.4094085693359375,-0.123687744140625,0.5636700391769409,-0.5188724398612976,0.2514394223690033,63.31477355957031,100.7355499267578,-21.54885864257812
91613,0.2366485595703125,0.4651031494140625,-0.05609130859375,0.5910363793373108,-0.8191683888435364,0.3011249601840973,63.29562377929688,100.6167297363281,-21.74977111816406
91614,0.2152557373046875,0.380035400390625,0.0162200927734375,0.8712185025215149,-0.4711587429046631,0.3330525159835815,63.38424682617188,100.3973846435547,-22.35539245605469
91615,0.2152557373046875,0.380035400390625,0.0162200927734375,0.8712185025215149,-0.4711587429046631,0.3330525159835815,63.38424682617188,100.3973846435547,-22.35539245605469
91616,0.1476287841796875,0.237945556640625,-0.031494140625,1.030664086341858,-0.0997913107275962,0.3660554885864258,63.43434143066406,100.4604644775391,-22.83888244628906
91617,0.074615478515625,0.1243896484375,-0.1139068603515625,1.19268524646759,0.1345516890287399,0.3630040287971497,63.46636962890625,100.4705963134766,-23.19781494140625
91618,0.0339508056640625,-0.00506591796875,-0.2247772216796875,1.322961688041687,0.138940840959549,0.3328503966331482,63.71905517578125,100.3155212402344,-24.00450134277344
91619,0.0339508056640625,-0.00506591796875,-0.2247772216796875,1.322961688041687,0.138940840959549,0.3328503966331482,63.71905517578125,100.3155212402344,-24.00450134277344
91620,0.04095458984375,0.0001373291015625,-0.2423858642578125,1.214277029037476,-0.0796948298811912,0.2977432608604431,63.93951416015625,100.0906524658203,-24.47537231445312
91621,0.068817138671875,0.077606201171875,-0.218536376953125,0.9787143468856812,-0.3878268301486969,0.220605343580246,64.09056091308594,100.0272827148438,-24.89263916015625
91622,0.046539306640625,0.5570526123046875,-0.0294952392578125,0.2132539600133896,-0.9961950778961182,-0.1368494629859924,64.32321166992188,99.8251953125,-25.83781433105469
91623,0.046539306640625,0.5570526123046875,-0.0294952392578125,0.2132539600133896,-0.9961950778961182,-0.1368494629859924,64.32321166992188,99.8251953125,-25.83781433105469
91624,-0.01861572265625,0.9293670654296876,0.116455078125,-0.2486273944377899,-1.080365896224976,-0.6529117822647095,64.31204223632812,99.8251953125,-26.30317687988281
91625,-0.0371856689453125,1.366851806640625,0.2954864501953125,-0.828160285949707,-0.9566290378570556,-1.420986890792847,63.79458618164062,100.1636047363281,-26.93331909179688
91626,-0.032012939453125,1.875137329101562,0.5605621337890625,-1.588378548622131,-0.5805693864822388,-2.130683422088623,63.15553283691406,100.4502258300781,-26.86441040039062
91627,-0.1379547119140625,2.3504638671875,0.907318115234375,-2.407843112945557,0.2779186964035034,-2.585916996002197,62.18753051757812,101.0045471191406,-26.53935241699219
91628,-0.3904266357421875,2.810302734375,1.036758422851562,-3.002013683319092,1.22234034538269,-2.896658182144165,61.12554931640625,101.4314575195312,-25.80046081542969
91629,-0.824920654296875,3.280059814453125,0.79290771484375,-2.666213512420654,0.7519123554229736,-2.589298009872437,60.03182983398438,101.9383392333984,-24.44606018066406
91630,-1.132827758789062,3.6124267578125,1.284347534179688,-0.961994469165802,-1.403396129608154,-0.5457903742790222,58.061279296875,102.6825408935547,-21.71821594238281
91631,-1.132827758789062,3.6124267578125,1.284347534179688,-0.961994469165802,-1.403396129608154,-0.5457903742790222,58.061279296875,102.6825408935547,-21.71821594238281
91632,-0.5357208251953125,3.143234252929688,1.22760009765625,-0.4640494287014008,-1.311741352081299,-0.0161430165171623,57.38961791992188,102.8694000244141,-20.890380859375
91633,-0.12176513671875,2.8104248046875,0.59161376953125,-0.1356992423534393,-1.392384171485901,0.114188626408577,57.12448120117188,102.6423034667969,-20.26994323730469
91634,0.0619964599609375,2.226760864257812,-0.037200927734375,0.8938649892807007,-0.7469437122344971,0.178777202963829,56.94779968261719,102.4078674316406,-20.11062622070312
91635,0.0619964599609375,2.226760864257812,-0.037200927734375,0.8938649892807007,-0.7469437122344971,0.178777202963829,56.94779968261719,102.4078674316406,-20.11062622070312
91636,-0.06427001953125,2.044052124023438,-0.1864013671875,1.039046406745911,0.1508419811725616,0.2200641930103302,56.90554809570312,102.3436889648438,-20.54261779785156
91637,-0.18084716796875,1.739059448242188,-0.4565582275390625,0.8579908609390259,0.7189062237739563,0.2980868220329285,56.95114135742188,102.1510925292969,-21.14566040039062
91638,-0.186004638671875,1.168106079101562,-0.7884368896484375,0.2071739584207535,0.4374995827674866,0.6803334951400757,57.59651184082031,101.581787109375,-22.41133117675781
91639,-0.186004638671875,1.168106079101562,-0.7884368896484375,0.2071739584207535,0.4374995827674866,0.6803334951400757,57.59651184082031,101.581787109375,-22.41133117675781
91640,-0.118927001953125,1.015380859375,-0.710601806640625,-0.025275794789195,0.0608897171914577,0.8217175602912903,58.06190490722656,101.361572265625,-22.72555541992188
91641,-0.0665435791015625,0.9087371826171876,-0.470245361328125,-0.0649273321032524,-0.040466733276844,0.8944846987724304,58.63394165039062,101.0625457763672,-22.8778076171875
91642,-0.0389862060546875,0.716400146484375,-0.1054840087890625,0.3098721206188202,0.5612156391143799,0.8581013679504395,59.62911987304688,100.6707763671875,-22.98997497558594
91643,-0.0389862060546875,0.716400146484375,-0.1054840087890625,0.3098721206188202,0.5612156391143799,0.8581013679504395,59.62911987304688,100.6707763671875,-22.98997497558594
91644,-0.0697174072265625,0.5841217041015625,-0.113494873046875,0.5596129894256592,0.7193318009376526,0.7566725015640259,60.12339782714844,100.5895843505859,-23.07713317871094
91645,-0.092987060546875,0.45489501953125,-0.096160888671875,0.7125793695449829,0.6324142217636108,0.6296775341033936,60.69779968261719,100.3261871337891,-23.16653442382812
91646,-0.09490966796875,0.1864776611328125,-0.02117919921875,0.6022011637687683,0.3830211460590363,0.4265387952327728,61.50312805175781,100.0631408691406,-23.80670166015625
91647,-0.09490966796875,0.1864776611328125,-0.02117919921875,0.6022011637687683,0.3830211460590363,0.4265387952327728,61.50312805175781,100.0631408691406,-23.80670166015625
91648,-0.0692596435546875,0.0601654052734375,-0.0430908203125,0.4675999581813812,0.348442941904068,0.382664293050766,61.78121948242188,99.86331176757812,-24.09779357910156
91649,-0.0478973388671875,-0.0552520751953125,-0.1332550048828125,0.4282016754150391,0.2742627263069153,0.3987503051757812,62.04609680175781,99.87440490722656,-24.46792602539062
91650,-0.0418548583984375,-0.170166015625,-0.239044189453125,0.8187114000320435,0.3504112660884857,0.569575846195221,62.49641418457031,99.62953186035156,-24.97909545898438
91651,-0.0418548583984375,-0.170166015625,-0.239044189453125,0.8187114000320435,0.3504112660884857,0.569575846195221,62.49641418457031,99.62953186035156,-24.97909545898438
91652,-0.0277557373046875,-0.192474365234375,-0.342926025390625,1.068378210067749,0.3808232545852661,0.6848907470703125,62.78445434570312,99.62796020507812,-25.28659057617188
91653,0.0027618408203125,-0.2199249267578125,-0.5119781494140625,1.276294589042664,0.1182877644896507,0.8278079032897949,63.02725219726562,99.35289001464844,-25.41203308105469
91654,0.0392303466796875,-0.23284912109375,-0.6546173095703125,1.350229620933533,-0.471541702747345,0.9607568979263306,63.35887145996094,99.2257080078125,-25.57000732421875
91655,0.06793212890625,-0.21148681640625,-0.5247802734375,1.156341552734375,-0.6350435614585876,0.9578466415405272,63.70588684082031,99.05038452148438,-25.98130798339844
91656,0.1083831787109375,-0.1345977783203125,-0.265899658203125,0.7903345823287964,-0.1509421169757843,0.7760691046714783,63.95811462402344,98.89566040039062,-26.60304260253906
91657,0.1542816162109375,0.05242919921875,-0.019744873046875,0.4338632822036743,0.426341712474823,0.5264880061149597,64.28453063964844,98.52357482910156,-27.1219482421875
91658,0.071380615234375,0.217987060546875,0.2518310546875,0.0965699478983879,1.204090476036072,0.2215630114078522,64.99798583984375,98.1269073486328,-27.59716796875
91659,0.071380615234375,0.217987060546875,0.2518310546875,0.0965699478983879,1.204090476036072,0.2215630114078522,64.99798583984375,98.1269073486328,-27.59716796875
91660,0.0634613037109375,0.1985015869140625,0.3021087646484375,0.1181652545928955,1.522866368293762,0.070317305624485,65.26553344726562,98.08062744140624,-27.55433654785156
91661,0.084869384765625,0.3333892822265625,0.3309326171875,0.1829136312007904,1.877793788909912,-0.0658431947231292,65.63430786132812,98.04872131347656,-27.33711242675781
91662,0.1655120849609375,1.14837646484375,0.5133056640625,0.1269347816705704,3.079943418502808,0.2153594493865967,66.08412170410156,98.0367431640625,-27.09451293945312
91663,0.1655120849609375,1.14837646484375,0.5133056640625,0.1269347816705704,3.079943418502808,0.2153594493865967,66.08412170410156,98.0367431640625,-27.09451293945312
91664,-0.02679443359375,1.422134399414062,0.54345703125,0.0366352424025535,3.208173751831055,0.4803389012813568,66.41438293457031,98.1629638671875,-27.02696228027344
91665,-0.195220947265625,1.717697143554688,0.5433807373046875,0.1422452926635742,2.889965295791626,0.4671086072921753,66.92903137207031,98.24606323242188,-26.65672302246094
91666,-0.379150390625,2.201828002929688,0.707183837890625,0.6364454030990601,0.771761417388916,0.45502769947052,68.25982666015625,98.01454162597656,-26.00520324707031
91667,-0.379150390625,2.201828002929688,0.707183837890625,0.6364454030990601,0.771761417388916,0.45502769947052,68.25982666015625,98.01454162597656,-26.00520324707031
91668,-0.45208740234375,2.462615966796875,0.9546661376953124,0.7017647624015808,-0.2250677347183228,0.533181369304657,68.68692016601562,97.86880493164062,-25.86097717285156
91669,-0.5498504638671875,2.688796997070312,1.241241455078125,0.5064831972122192,-0.7109966278076172,0.5244110226631165,68.96751403808594,97.64949035644533,-25.9478759765625
91670,-0.703125,2.426406860351562,1.5599365234375,-0.701371967792511,-0.2680431604385376,-0.1353524923324585,69.37387084960938,97.43893432617188,-26.54678344726562
91671,-0.703125,2.426406860351562,1.5599365234375,-0.701371967792511,-0.2680431604385376,-0.1353524923324585,69.37387084960938,97.43893432617188,-26.54678344726562
91672,-0.595733642578125,1.828536987304688,1.2840576171875,-1.280357837677002,0.2205187976360321,-0.4874367713928223,69.50726318359375,97.263916015625,-26.6619873046875
91673,-0.44287109375,1.443817138671875,0.880859375,-1.434062957763672,0.3696872293949127,-0.525789201259613,69.46916198730469,97.34228515625,-26.40353393554688
91674,-0.2111968994140625,1.230880737304688,0.3621673583984375,-1.433372974395752,0.2040913552045822,-0.4123183190822601,69.1640625,97.52287292480467,-25.15736389160156
91675,-0.2111968994140625,1.230880737304688,0.3621673583984375,-1.433372974395752,0.2040913552045822,-0.4123183190822601,69.1640625,97.52287292480467,-25.15736389160156
91676,-0.1163330078125,1.112869262695312,0.19134521484375,-1.546424388885498,0.0524155385792255,-0.3920687139034271,68.91647338867188,97.726806640625,-24.55232238769531
91677,-0.0530853271484375,0.9781646728515624,0.0646820068359375,-1.665563344955444,-0.0396749749779701,-0.4021937847137451,68.74324035644531,98.0951690673828,-23.85435485839844
91678,0.0586700439453125,0.7144622802734375,-0.134918212890625,-1.785130500793457,-0.0975904688239097,-0.404556542634964,68.43118286132812,98.62733459472656,-22.47929382324219
91679,0.0586700439453125,0.7144622802734375,-0.134918212890625,-1.785130500793457,-0.0975904688239097,-0.404556542634964,68.43118286132812,98.62733459472656,-22.47929382324219
91680,0.2036285400390625,0.6095123291015625,-1.06561279296875,-1.698808550834656,-1.249939441680908,-0.3492823541164398,68.183837890625,98.66847229003906,-21.57066345214844
91681,0.352874755859375,0.519195556640625,-1.449661254882812,-1.387550115585327,-3.841851234436035,-0.2295501083135605,67.88908386230469,98.9098663330078,-20.68919372558594
91682,0.295654296875,0.524444580078125,0.0704498291015625,-0.4904805123806,-3.982126235961914,0.1505836546421051,66.94735717773438,99.49481201171876,-20.2010498046875
91683,0.295654296875,0.524444580078125,0.0704498291015625,-0.4904805123806,-3.982126235961914,0.1505836546421051,66.94735717773438,99.49481201171876,-20.2010498046875
91684,0.3228759765625,0.5546875,0.21795654296875,-0.0583418682217598,-2.10806941986084,0.3318133652210236,66.30381774902344,99.76612854003906,-20.52084350585938
91685,0.3358917236328125,0.62408447265625,-0.0392303466796875,0.3216880261898041,-0.4859209060668945,0.5062557458877563,65.84298706054688,99.8943328857422,-20.78169250488281
91686,0.1355743408203125,0.60430908203125,-0.281005859375,0.6810163855552673,0.5925447940826416,0.1220739781856537,65.71368408203125,100.0575866699219,-21.05885314941406
91687,0.1355743408203125,0.60430908203125,-0.281005859375,0.6810163855552673,0.5925447940826416,0.1220739781856537,65.71368408203125,100.0575866699219,-21.05885314941406
91688,0.0770416259765625,0.4360809326171875,-0.213531494140625,0.6305633187294006,0.5290827751159668,-0.0795454233884811,65.8233642578125,100.0599365234375,-21.16099548339844
91689,0.051025390625,0.3238677978515625,-0.146453857421875,0.4910134077072144,0.3308165371417999,-0.1796800196170807,65.97096252441406,100.0309448242188,-21.39701843261719
91690,0.02069091796875,0.2591552734375,-0.0850067138671875,0.2551963329315186,-0.0367116741836071,-0.2393081933259964,65.98017883300781,99.68634033203124,-21.79481506347656
91691,0.02069091796875,0.2591552734375,-0.0850067138671875,0.2551963329315186,-0.0367116741836071,-0.2393081933259964,65.98017883300781,99.68634033203124,-21.79481506347656
91692,0.0063934326171875,0.2083740234375,-0.1138153076171875,0.2894840240478516,-0.1004291325807571,-0.2362261116504669,66.0216064453125,99.63087463378906,-21.90234375
91693,0.006134033203125,0.121368408203125,-0.1519927978515625,0.4214186072349548,-0.0925235450267791,-0.1975357085466385,65.90141296386719,99.69129943847656,-22.06817626953125
91694,0.0421142578125,-0.006744384765625,-0.2119598388671875,0.6672259569168091,0.2027195543050766,-0.0574843324720859,65.65797424316406,99.7589111328125,-22.47242736816406
91695,0.0421142578125,-0.006744384765625,-0.2119598388671875,0.6672259569168091,0.2027195543050766,-0.0574843324720859,65.65797424316406,99.7589111328125,-22.47242736816406
91696,0.067352294921875,-0.030517578125,-0.2786865234375,0.6669892072677612,0.223592609167099,0.0234802924096584,65.65475463867188,99.78680419921876,-22.73971557617188
91697,0.0851898193359375,-0.0206298828125,-0.319305419921875,0.5924590826034546,0.033752903342247,0.0967965871095657,65.66642761230469,99.77569580078124,-22.96368408203125
91698,0.1060028076171875,0.128692626953125,-0.2492218017578125,0.3974261879920959,-0.6868207454681396,0.1044081673026085,65.61203002929688,99.8751220703125,-23.48106384277344
91699,0.1060028076171875,0.128692626953125,-0.2492218017578125,0.3974261879920959,-0.6868207454681396,0.1044081673026085,65.61203002929688,99.8751220703125,-23.48106384277344
91700,0.1287841796875,0.2686004638671875,-0.18621826171875,0.3121834695339203,-1.093577265739441,0.0643243938684463,65.72885131835938,99.89797973632812,-23.70344543457031
91701,0.1128692626953125,0.463134765625,-0.0547943115234375,0.1892660707235336,-1.389535665512085,-0.010505904443562,65.60618591308594,99.8157958984375,-24.03765869140625
91702,0.0549468994140625,1.1041259765625,0.3825531005859375,-0.5273876786231995,-1.05561900138855,-0.6194899082183838,65.39788818359375,99.7163543701172,-24.477294921875
91703,0.0549468994140625,1.1041259765625,0.3825531005859375,-0.5273876786231995,-1.05561900138855,-0.6194899082183838,65.39788818359375,99.7163543701172,-24.477294921875
91704,0.0650482177734375,1.536117553710938,0.61846923828125,-1.20728600025177,-0.4299843907356262,-0.991125762462616,65.08091735839844,99.86105346679688,-24.74465942382812
91705,0.0359954833984375,1.984176635742188,0.8494415283203125,-1.895344614982605,0.2732901275157928,-1.198713064193726,64.59156799316406,100.0847473144531,-24.7447509765625
91706,-0.1166839599609375,2.508834838867188,1.04144287109375,-2.286012649536133,0.7481919527053833,-1.384894609451294,64.04716491699219,100.2485198974609,-24.1923828125
91707,-0.34234619140625,3.085296630859375,1.222793579101562,-2.027012825012207,0.7526756525039673,-1.55932629108429,63.61343383789062,100.4819641113281,-23.40544128417969
91708,-0.5607147216796875,3.63287353515625,1.318496704101562,-1.269655108451843,0.2700517177581787,-1.533336877822876,63.0670166015625,100.7664337158203,-22.61494445800781
91709,-0.764862060546875,3.975753784179688,1.416275024414062,-0.3520051836967468,-0.4474051892757416,-1.257257580757141,62.39045715332031,101.0543518066406,-21.72801208496094
91710,-0.7933502197265625,3.198348999023438,1.017608642578125,0.0266052447259426,-0.9398340582847596,-0.8712835311889648,61.11944580078125,101.6314849853516,-20.658203125
91711,-0.7933502197265625,3.198348999023438,1.017608642578125,0.0266052447259426,-0.9398340582847596,-0.8712835311889648,61.11944580078125,101.6314849853516,-20.658203125
91712,-0.4552459716796875,2.529708862304688,0.2544097900390625,0.0517044737935066,-1.826938390731812,-0.7679904103279114,60.50538635253906,101.6609344482422,-20.65963745117188
91713,-0.210357666015625,2.20947265625,-0.0863800048828125,0.4713504910469055,-2.65821099281311,-0.4994934499263763,60.1129150390625,101.5226593017578,-20.60527038574219
91714,-0.0774078369140625,2.233596801757812,-0.07427978515625,0.8886744976043701,-2.294808149337769,-0.2100802659988403,59.66201782226562,101.6077728271484,-20.97087097167969
91715,0.0116119384765625,2.24847412109375,-0.17156982421875,1.197305798530579,-0.8823497295379639,0.1355716735124588,59.21620178222656,101.5914154052734,-21.3524169921875
91716,0.09222412109375,2.117813110351562,-0.489105224609375,1.390036344528198,0.693378210067749,0.5617371201515198,58.87496948242188,101.4122924804688,-22.02978515625
91717,0.1484832763671875,1.804794311523438,-0.7931365966796875,1.37897527217865,1.143143534660339,0.901975393295288,58.791259765625,101.1755828857422,-22.64131164550781
91718,0.1760711669921875,1.0401611328125,-0.4274444580078125,0.748137354850769,0.3877823650836945,1.121684789657593,59.62052917480469,100.7090148925781,-23.63511657714844
91719,0.1760711669921875,1.0401611328125,-0.4274444580078125,0.748137354850769,0.3877823650836945,1.121684789657593,59.62052917480469,100.7090148925781,-23.63511657714844
91720,0.1494293212890625,0.7507171630859375,-0.27899169921875,0.4969857931137085,0.1115363836288452,1.050031423568726,60.30403137207031,100.5073089599609,-24.03729248046875
91721,0.093231201171875,0.53155517578125,-0.2079010009765625,0.4280924797058105,-0.0650375857949256,0.9289332032203674,60.96478271484375,100.2477111816406,-24.43452453613281
91722,0.0299224853515625,0.388580322265625,-0.1318206787109375,0.4534207582473755,-0.1288565099239349,0.757862389087677,61.45755004882812,99.99212646484376,-24.59852600097656
91723,0.00482177734375,0.27850341796875,-0.0236358642578125,0.4131620228290558,-0.0168439615517854,0.5987289547920227,61.95758056640625,99.8648681640625,-24.8111572265625
91724,0.00701904296875,0.144439697265625,0.010955810546875,0.2841331958770752,0.2180391252040863,0.5568094849586487,62.36524963378906,99.72943115234376,-25.05809020996094
91725,-0.0098876953125,0.0240631103515625,-0.0763702392578125,0.1861469745635986,0.3699887096881866,0.5798916220664978,62.73533630371094,99.62098693847656,-25.26383972167969
91726,-0.0247955322265625,-0.14556884765625,-0.3680877685546875,0.4206486940383911,0.1349711269140244,0.7268757224082947,63.41218566894531,99.5369873046875,-25.51185607910156
91727,-0.0247955322265625,-0.14556884765625,-0.3680877685546875,0.4206486940383911,0.1349711269140244,0.7268757224082947,63.41218566894531,99.5369873046875,-25.51185607910156
91728,-0.0416107177734375,-0.2117462158203125,-0.393798828125,0.7117202281951904,0.1197911128401756,0.7736663818359375,63.7880859375,99.48133850097656,-25.47023010253906
91729,-0.0660400390625,-0.247894287109375,-0.399261474609375,0.9275606274604796,0.4072721600532532,0.7515453696250916,64.15296936035156,99.3241729736328,-25.46859741210938
91730,-0.0752716064453125,-0.17547607421875,-0.3689117431640625,0.8820186853408813,0.6306770443916321,0.5162069201469421,64.90521240234375,98.84196472167967,-25.88423156738281
91731,-0.0752716064453125,-0.17547607421875,-0.3689117431640625,0.8820186853408813,0.6306770443916321,0.5162069201469421,64.90521240234375,98.84196472167967,-25.88423156738281
91732,-0.1086273193359375,-0.0890045166015625,-0.2736968994140625,0.7375425100326538,0.4222401976585388,0.2740747034549713,65.35542297363281,98.70655822753906,-26.24847412109375
91733,-0.12152099609375,-0.034027099609375,-0.152496337890625,0.6116953492164612,0.3123387396335602,0.0769464448094368,65.72813415527344,98.44656372070312,-26.57661437988281
91734,-0.05706787109375,0.0304718017578125,-0.03594970703125,0.4330880343914032,0.4497498571872711,0.0723921731114387,66.15945434570312,98.12673950195312,-27.135986328125
91735,-0.05706787109375,0.0304718017578125,-0.03594970703125,0.4330880343914032,0.4497498571872711,0.0723921731114387,66.15945434570312,98.12673950195312,-27.135986328125
91736,-0.0417327880859375,0.0686798095703125,-0.0076751708984375,0.4157508611679077,0.61962890625,0.0703050568699836,66.19189453125,98.02915954589844,-27.30104064941406
91737,-0.0239715576171875,0.108612060546875,0.023834228515625,0.4466163814067841,0.7902533411979675,0.0509406775236129,66.36703491210938,98.00700378417967,-27.41567993164062
91738,0.0104217529296875,0.17620849609375,0.11981201171875,0.5178202390670776,1.123148202896118,-0.0519771799445152,66.6845703125,97.82635498046876,-27.338134765625
91739,0.0104217529296875,0.17620849609375,0.11981201171875,0.5178202390670776,1.123148202896118,-0.0519771799445152,66.6845703125,97.82635498046876,-27.338134765625
91740,0.03759765625,0.1996917724609375,0.23651123046875,0.4991565346717834,1.432969689369202,-0.1054025888442993,66.79008483886719,97.8333740234375,-27.48374938964844
91741,0.1115875244140625,0.3701629638671875,0.40618896484375,0.4079414010047913,2.092957973480225,-0.0933184921741485,66.96527099609375,97.76287841796876,-27.43338012695312
91742,0.220733642578125,0.699737548828125,0.4910430908203125,0.1666315943002701,2.922348260879517,0.0803137496113777,67.10118103027344,97.69564819335938,-27.459716796875
91743,0.287445068359375,1.10418701171875,0.5032806396484375,-0.252393364906311,3.387835502624512,0.5216232538223267,67.39863586425781,97.78834533691406,-27.63761901855469
91744,0.2067718505859375,1.61859130859375,0.5592193603515625,-0.7363650798797607,3.15298318862915,0.8767922520637512,67.82986450195312,97.6694793701172,-27.46063232421875
91745,0.0086669921875,2.17352294921875,0.6962127685546875,-0.8555951118469238,2.047622442245483,0.8486277461051941,68.38566589355469,97.41697692871094,-27.07376098632812
91746,-0.43768310546875,2.849517822265625,1.382461547851562,-0.1881062537431717,-0.8758319020271301,0.1907254755496979,70.06300354003906,96.87744140625,-25.43656921386719
91747,-0.43768310546875,2.849517822265625,1.382461547851562,-0.1881062537431717,-0.8758319020271301,0.1907254755496979,70.06300354003906,96.87744140625,-25.43656921386719
91748,-0.6725616455078125,3.01287841796875,1.911651611328125,-0.1850673258304596,-0.6951888799667358,-0.0364584103226661,70.6075439453125,96.62496948242188,-24.92939758300781
91749,-0.913818359375,2.94281005859375,2.064834594726562,-0.3980722725391388,0.7383185029029846,-0.3394568860530853,70.90765380859375,96.52174377441406,-24.85720825195312
91750,-0.7626800537109375,1.749099731445312,0.905731201171875,-0.9020683169364928,2.631393671035767,-0.707199215888977,70.98822021484375,96.67613220214844,-24.65458679199219
91751,-0.7626800537109375,1.749099731445312,0.905731201171875,-0.9020683169364928,2.631393671035767,-0.707199215888977,70.98822021484375,96.67613220214844,-24.65458679199219
91752,-0.525726318359375,1.348602294921875,0.3330078125,-0.954881191253662,2.293599843978882,-0.5467038154602051,70.9407958984375,96.85508728027344,-24.28956604003906
91753,-0.3495330810546875,1.164108276367188,0.0327606201171875,-0.9984907507896424,1.653281927108765,-0.396898627281189,70.91259765625,97.0701904296875,-23.49386596679688
91754,-0.1380767822265625,0.973907470703125,-0.44622802734375,-1.032932281494141,0.2837611436843872,-0.3340762555599213,70.69892883300781,97.74822998046876,-21.86636352539062
91755,-0.1380767822265625,0.973907470703125,-0.44622802734375,-1.032932281494141,0.2837611436843872,-0.3340762555599213,70.69892883300781,97.74822998046876,-21.86636352539062
91756,0.0213623046875,0.8460845947265625,-1.227203369140625,-1.099947571754456,-1.819151043891907,-0.3925981521606445,70.505859375,98.08348083496094,-21.22935485839844
91757,0.076019287109375,0.7533416748046875,-0.9115753173828124,-1.128060460090637,-3.727026462554932,-0.5435096025466919,70.33468627929688,98.37281799316406,-20.72407531738281
91758,0.04345703125,0.57275390625,0.1280975341796875,-1.438287258148193,-3.165612459182739,-0.5409623384475708,69.44424438476562,98.68313598632812,-20.25111389160156
91759,0.04345703125,0.57275390625,0.1280975341796875,-1.438287258148193,-3.165612459182739,-0.5409623384475708,69.44424438476562,98.68313598632812,-20.25111389160156
91760,0.081390380859375,0.470123291015625,0.048065185546875,-1.5773024559021,-2.061014413833618,-0.3493441343307495,68.86085510253906,98.8813934326172,-20.41349792480469
91761,0.1717376708984375,0.3951416015625,-0.3672943115234375,-1.308233618736267,-1.555929780006409,-0.116313561797142,68.20848083496094,99.08460998535156,-20.46585083007812
91762,0.2686004638671875,0.51861572265625,-0.188446044921875,0.4175413250923157,-0.8743615746498108,0.4194944798946381,67.22390747070312,99.41494750976562,-20.13864135742188
91763,0.2686004638671875,0.51861572265625,-0.188446044921875,0.4175413250923157,-0.8743615746498108,0.4194944798946381,67.22390747070312,99.41494750976562,-20.13864135742188
91764,0.2386474609375,0.52001953125,0.09259033203125,0.9185977578163148,0.1997535973787308,0.4448083639144897,66.93098449707031,99.633544921875,-20.03367614746094
91765,0.23089599609375,0.4719085693359375,0.0626678466796875,1.030940294265747,0.9813777804374696,0.4104666113853455,66.87156677246094,99.63409423828124,-20.08290100097656
91766,0.2325592041015625,0.33380126953125,-0.152130126953125,0.7462962865829468,0.8941550254821777,0.3264060616493225,67.13154602050781,99.4844207763672,-20.36532592773438
91767,0.2325592041015625,0.33380126953125,-0.152130126953125,0.7462962865829468,0.8941550254821777,0.3264060616493225,67.13154602050781,99.4844207763672,-20.36532592773438
91768,0.2132110595703125,0.2923126220703125,-0.1365966796875,0.5166109204292297,0.3559069633483887,0.2664894759654999,67.3734130859375,99.34483337402344,-20.54019165039062
91769,0.1824188232421875,0.28240966796875,-0.094757080078125,0.3029209971427917,-0.2068634331226349,0.1419384926557541,67.67591857910156,99.1627197265625,-20.66900634765625
91770,0.1245880126953125,0.1773834228515625,-0.0777130126953125,0.2947245836257935,-0.9983450770378112,-0.1946318000555038,68.16142272949219,98.6190948486328,-20.93098449707031
91771,0.1245880126953125,0.1773834228515625,-0.0777130126953125,0.2947245836257935,-0.9983450770378112,-0.1946318000555038,68.16142272949219,98.6190948486328,-20.93098449707031
91772,0.09259033203125,0.1089324951171875,-0.085845947265625,0.4551155865192413,-1.100972056388855,-0.2877124845981598,68.10398864746094,98.5309600830078,-20.89178466796875
91773,0.0576171875,0.0649871826171875,-0.124786376953125,0.6102495193481445,-1.103785991668701,-0.3478349447250366,68.07524108886719,98.52609252929688,-21.17829895019531
91774,0.014312744140625,0.0072784423828125,-0.2747955322265625,0.8527780175209045,-1.243385434150696,-0.4319524765014648,67.72502136230469,98.55747985839844,-21.78472900390625
91775,0.014312744140625,0.0072784423828125,-0.2747955322265625,0.8527780175209045,-1.243385434150696,-0.4319524765014648,67.72502136230469,98.55747985839844,-21.78472900390625
91776,0.0009307861328125,0.0062713623046875,-0.3849639892578125,0.8950018882751465,-1.520853281021118,-0.4662665128707886,67.42379760742188,98.68391418457033,-22.26115417480469
91777,0.0023345947265625,0.1085205078125,-0.40802001953125,0.8052235245704651,-1.850321173667908,-0.4895542562007904,67.10054016113281,98.859619140625,-22.84858703613281
91778,0.020843505859375,0.5553436279296875,-0.0634918212890625,0.2262935936450958,-1.888015508651733,-0.6833152174949646,65.81925964355469,99.395263671875,-25.13226318359375
91779,0.020843505859375,0.5553436279296875,-0.0634918212890625,0.2262935936450958,-1.888015508651733,-0.6833152174949646,65.81925964355469,99.395263671875,-25.13226318359375
91780,0.043792724609375,0.930572509765625,0.2086334228515625,-0.1726913452148438,-1.31850278377533,-0.952957570552826,65.25431823730469,99.6762237548828,-25.58457946777344
91781,0.074249267578125,1.446243286132812,0.3658447265625,-0.6635462641716003,-0.5556624531745911,-1.356735467910767,64.551513671875,99.90875244140624,-25.76884460449219
91782,0.0310821533203125,2.392990112304688,0.6883087158203125,-1.896798372268677,0.6406460404396057,-2.062118291854858,63.05685424804688,100.4723052978516,-25.39646911621094
91783,0.0310821533203125,2.392990112304688,0.6883087158203125,-1.896798372268677,0.6406460404396057,-2.062118291854858,63.05685424804688,100.4723052978516,-25.39646911621094
91784,-0.073333740234375,2.926132202148438,0.8124847412109375,-2.425501585006714,1.01382577419281,-2.512683391571045,62.12715148925781,100.892578125,-24.86517333984375
