time_idx,accelerometerAccelerationX(G),accelerometerAccelerationY(G),accelerometerAccelerationZ(G),gyroRotationX(rad/s),gyroRotationY(rad/s),gyroRotationZ(rad/s),magnetometerX(µT),magnetometerY(µT),magnetometerZ(µT)
254120,-0.1611480712890625,0.5847320556640625,-0.3374786376953125,0.8085724711418152,-1.161748886108398,0.3339582681655884,59.02218627929688,99.40769958496094,-3.666351318359375
254121,-0.1611480712890625,0.5847320556640625,-0.3374786376953125,0.8085724711418152,-1.161748886108398,0.3339582681655884,59.02218627929688,99.40769958496094,-3.666351318359375
254122,-0.069915771484375,0.4136962890625,-0.182373046875,0.8943451642990112,-0.841918408870697,0.4515046179294586,59.65805053710938,99.18948364257812,-4.53948974609375
254123,-0.0692901611328125,0.3251953125,-0.149810791015625,0.8278068900108337,-0.4979903399944305,0.448599636554718,59.83517456054688,99.1819305419922,-4.983245849609375
254124,-0.052581787109375,0.1641693115234375,-0.20733642578125,0.5614566802978516,-0.2159085869789124,0.4830723702907562,60.32754516601562,99.17228698730467,-5.992767333984375
254125,-0.052581787109375,0.1641693115234375,-0.20733642578125,0.5614566802978516,-0.2159085869789124,0.4830723702907562,60.32754516601562,99.17228698730467,-5.992767333984375
254126,-0.01513671875,0.102264404296875,-0.2288970947265625,0.3282460570335388,-0.360474556684494,0.5777443051338196,60.56080627441406,99.06982421875,-6.380386352539062
254127,-0.0156402587890625,0.0659332275390625,-0.2141571044921875,0.0736244171857833,-0.4089723229408264,0.6027002334594727,60.75369262695312,98.8724365234375,-6.645599365234375
254128,-0.004302978515625,0.027496337890625,-0.2105560302734375,-0.2251891791820526,0.0364349745213985,0.5033712387084961,60.96591186523438,98.82951354980467,-6.8709716796875
254129,-0.004302978515625,0.027496337890625,-0.2105560302734375,-0.2251891791820526,0.0364349745213985,0.5033712387084961,60.96591186523438,98.82951354980467,-6.8709716796875
254130,0.10693359375,0.2036285400390625,-0.183013916015625,-0.3258646428585052,0.2662620544433594,0.2153333574533463,61.47245788574219,98.6553955078125,-7.075668334960938
254131,0.12176513671875,0.479644775390625,-0.0701904296875,-0.3258646428585052,0.2662620544433594,0.2153333574533463,61.76268005371094,98.571044921875,-7.0833740234375
254132,0.075836181640625,0.7287445068359375,0.0982513427734375,-0.5152537822723389,0.2516780495643616,0.0470625832676887,61.90873718261719,98.59162902832033,-6.846420288085938
254133,-0.0112457275390625,0.9658203125,0.315399169921875,-0.8253785967826843,0.353861391544342,-0.1822433024644852,62.01930236816406,98.71034240722656,-6.668869018554688
254134,-0.09124755859375,1.244598388671875,0.5213470458984375,-1.237293720245361,0.7160425186157227,-0.4819962084293365,61.88934326171875,98.90568542480467,-6.072982788085938
254135,-0.195068359375,1.5264892578125,0.6344451904296875,-1.628273487091064,1.15807580947876,-0.7930235862731934,61.66741943359375,99.1020965576172,-5.530136108398438
254136,-0.359954833984375,1.711227416992188,0.6488494873046875,-1.638765215873718,1.426677227020264,-1.067797899246216,61.24824523925781,99.24534606933594,-4.904647827148438
254137,-0.359954833984375,1.711227416992188,0.6488494873046875,-1.638765215873718,1.426677227020264,-1.067797899246216,61.24824523925781,99.24534606933594,-4.904647827148438
254138,-0.7285614013671875,1.745803833007812,0.6537017822265625,-1.28337037563324,1.251341104507446,-0.9688404202461244,60.253662109375,99.56224060058594,-3.258392333984375
254139,-0.7942352294921875,1.55322265625,0.6352691650390625,-0.8973188400268555,0.95697683095932,-0.8309975862503052,59.59201049804688,99.72718811035156,-2.393051147460938
254140,-0.5425872802734375,1.072418212890625,0.4145050048828125,-0.9630914330482484,0.1715081036090851,-0.726175844669342,58.53622436523438,100.0212554931641,-1.375946044921875
254141,-0.5425872802734375,1.072418212890625,0.4145050048828125,-0.9630914330482484,0.1715081036090851,-0.726175844669342,58.53622436523438,100.0212554931641,-1.375946044921875
254142,-0.4626312255859375,0.969268798828125,0.3787841796875,-1.63474178314209,-0.5996967554092407,-0.716686487197876,58.02769470214844,100.1849212646484,-0.982879638671875
254143,-0.3564910888671875,0.758697509765625,0.415374755859375,-2.180239915847778,-0.8979606628417969,-0.7918099761009216,57.58238220214844,100.2104797363281,-0.4371337890625
254144,-0.2274169921875,0.551666259765625,0.350250244140625,-2.402734518051147,-1.045245766639709,-0.8921445608139038,57.14779663085938,100.2758178710938,0.261383056640625
254145,-0.2274169921875,0.551666259765625,0.350250244140625,-2.402734518051147,-1.045245766639709,-0.8921445608139038,57.14779663085938,100.2758178710938,0.261383056640625
254146,0.0296478271484375,0.2016448974609375,0.224945068359375,-2.172838449478149,-1.247807025909424,-0.7924496531486511,56.45564270019531,99.71310424804688,2.293045043945312
254147,0.125030517578125,0.167205810546875,0.1422271728515625,-1.92949104309082,-1.116482019424438,-0.5659512877464294,56.21957397460938,99.09178161621094,3.38653564453125
254148,0.2045745849609375,0.168243408203125,-0.0141754150390625,-1.709634900093079,-0.9429851174354552,-0.1680840849876404,56.04325866699219,98.7589111328125,4.4822998046875
254149,0.2045745849609375,0.168243408203125,-0.0141754150390625,-1.709634900093079,-0.9429851174354552,-0.1680840849876404,56.04325866699219,98.7589111328125,4.4822998046875
254150,0.3832244873046875,0.577667236328125,-0.426544189453125,-1.418201446533203,-1.616139531135559,0.4958339929580688,56.03765869140625,97.62193298339844,6.540420532226562
254151,0.503814697265625,0.90960693359375,-0.4242095947265625,-1.049680352210999,-1.905287981033325,0.7889300584793091,56.22714233398438,97.07989501953124,7.4344482421875
254152,0.544921875,1.22369384765625,-0.2874298095703125,-0.6006783843040466,-1.473799705505371,0.9424684643745422,56.51507568359375,96.76388549804688,7.927352905273438
254153,0.544921875,1.22369384765625,-0.2874298095703125,-0.6006783843040466,-1.473799705505371,0.9424684643745422,56.51507568359375,96.76388549804688,7.927352905273438
254154,0.52447509765625,1.417999267578125,-0.3239288330078125,0.1025580689311028,0.3488666415214539,0.7975014448165894,57.31196594238281,96.27691650390624,8.717483520507812
254155,0.3841552734375,1.340133666992188,-0.4238739013671875,0.2553007304668427,0.6375746130943298,0.6832835078239441,57.52859497070312,95.9370574951172,8.864288330078125
254156,0.17681884765625,1.279342651367188,-0.3951873779296875,0.2434123903512955,0.5403380990028381,0.7056503295898438,57.83457946777344,95.7368621826172,8.979690551757812
254157,0.17681884765625,1.279342651367188,-0.3951873779296875,0.2434123903512955,0.5403380990028381,0.7056503295898438,57.83457946777344,95.7368621826172,8.979690551757812
254158,0.0067596435546875,1.320953369140625,-0.2329254150390625,0.2045992165803909,0.5453240275382996,0.6308403015136719,58.1510009765625,95.70216369628906,8.947967529296875
254159,-0.000732421875,1.344406127929688,-0.2017364501953125,0.3409381508827209,0.6109470129013062,0.4929993152618408,58.32815551757812,95.72845458984376,8.908843994140625
254160,0.0105743408203125,1.308837890625,-0.136749267578125,0.4908336400985718,0.8331896662712097,0.3386480808258057,58.53898620605469,95.68191528320312,8.717926025390625
254161,0.0105743408203125,1.308837890625,-0.136749267578125,0.4908336400985718,0.8331896662712097,0.3386480808258057,58.53898620605469,95.68191528320312,8.717926025390625
254162,0.1557464599609375,1.194244384765625,-0.1665191650390625,0.2946145832538605,1.245633721351624,0.2159112542867661,58.57289123535156,95.70333862304688,8.530075073242188
254163,0.1609649658203125,1.213912963867188,-0.204986572265625,0.1592144221067429,1.172783374786377,0.2076924741268158,58.55072021484375,95.75227355957033,8.401168823242188
254164,0.1098175048828125,1.298049926757812,-0.2105712890625,0.1592144221067429,1.172783374786377,0.2076924741268158,58.38465881347656,95.73519897460938,8.41705322265625
254165,0.0888824462890625,1.38458251953125,-0.2557525634765625,0.1477077007293701,1.045845150947571,0.1895081400871277,58.29450988769531,95.64797973632812,8.378952026367188
254166,0.0555877685546875,1.468109130859375,-0.29559326171875,0.300401359796524,0.908785045146942,0.1108098700642586,58.26527404785156,95.50648498535156,8.419921875
254167,0.00994873046875,1.563919067382812,-0.3003082275390625,0.5609245896339417,0.8418787717819214,-0.0151352770626545,58.20352172851562,95.53793334960938,8.339706420898438
254168,-0.1310577392578125,1.684555053710938,-0.22760009765625,0.8942162394523621,0.9174848198890686,-0.1136682406067848,57.97634887695312,95.7421417236328,7.537948608398438
254169,-0.1310577392578125,1.684555053710938,-0.22760009765625,0.8942162394523621,0.9174848198890686,-0.1136682406067848,57.97634887695312,95.7421417236328,7.537948608398438
254170,-0.1881561279296875,1.694671630859375,-0.13885498046875,0.8734710216522217,0.9030169248580932,0.0888622254133224,57.84312438964844,95.92477416992188,7.16796875
254171,-0.1517333984375,1.710906982421875,-0.036285400390625,0.8999401926994324,0.826521635055542,0.3198091685771942,57.67839050292969,96.11605834960938,6.8323974609375
254172,-0.058746337890625,1.82171630859375,0.0536346435546875,0.9181937575340272,0.7042385935783386,0.4443401694297791,57.58633422851562,96.22547912597656,6.556671142578125
254173,-0.058746337890625,1.82171630859375,0.0536346435546875,0.9181937575340272,0.7042385935783386,0.4443401694297791,57.58633422851562,96.22547912597656,6.556671142578125
254174,0.04974365234375,2.0576171875,0.10693359375,0.825545072555542,0.4092937707901001,0.5088139772415161,57.69248962402344,96.5491180419922,5.882888793945312
254175,0.1196136474609375,2.066177368164062,0.0533447265625,0.8325976133346558,0.2980519235134125,0.5280963182449341,57.72273254394531,96.62350463867188,5.37811279296875
254176,0.102081298828125,1.770843505859375,-0.0894317626953125,1.166961789131165,0.5730835199356079,0.416363924741745,58.0667724609375,97.00099182128906,4.475967407226562
254177,0.102081298828125,1.770843505859375,-0.0894317626953125,1.166961789131165,0.5730835199356079,0.416363924741745,58.0667724609375,97.00099182128906,4.475967407226562
254178,-0.0080108642578125,1.665664672851562,-0.165191650390625,1.291981220245361,0.4550143778324127,0.4233344793319702,58.20811462402344,97.16252136230467,3.981002807617188
254179,-0.10772705078125,1.605026245117188,-0.1608123779296875,1.300171494483948,0.0855721607804298,0.4723108112812042,58.45207214355469,97.34757995605467,3.304168701171875
254180,-0.1536865234375,1.562454223632812,-0.1161346435546875,1.214227318763733,-0.2902770936489105,0.513157844543457,58.62557983398438,97.51446533203124,2.637741088867188
254181,-0.143402099609375,1.510421752929688,-0.08441162109375,1.089866399765015,-0.57794588804245,0.5150428414344788,58.96603393554688,97.67138671875,2.030364990234375
254182,-0.1540069580078125,1.385330200195312,-0.073944091796875,1.021494269371033,-0.7765614986419678,0.5412731170654297,59.24821472167969,97.83505249023438,1.431732177734375
254183,-0.2046966552734375,1.211013793945312,-0.04302978515625,1.060134172439575,-0.9296834468841552,0.6170322895050049,59.73979187011719,97.87161254882812,0.8491363525390625
254184,-0.220794677734375,1.043045043945312,0.0301971435546875,1.146597146987915,-0.978807806968689,0.6720370054244995,60.14375305175781,97.7812042236328,0.2223358154296875
254185,-0.1950531005859375,0.9072113037109376,0.063720703125,1.187618851661682,-0.9050161838531494,0.6625902056694031,60.74247741699219,97.7260284423828,-0.3339385986328125
254186,-0.1362152099609375,0.798797607421875,-0.027557373046875,1.242521524429321,-0.8976650238037109,0.6122071743011475,61.19573974609375,97.76203918457033,-0.956329345703125
254187,-0.0752105712890625,0.7162322998046875,-0.09161376953125,1.320972084999084,-0.9210302829742432,0.5791994333267212,61.69541931152344,97.83241271972656,-1.55279541015625
254188,-0.0589599609375,0.6866455078125,-0.0446014404296875,1.56280791759491,-0.5596340298652649,0.4678201973438263,62.05189514160156,97.77505493164062,-2.236099243164062
254189,-0.06768798828125,0.7023468017578125,0.0415496826171875,1.56280791759491,-0.5596340298652649,0.4678201973438263,62.42147827148438,97.94416809082033,-3.14898681640625
254190,-0.0955047607421875,0.73291015625,0.120361328125,1.54717755317688,-0.2989209294319153,0.3893608152866364,62.70248413085938,98.04454040527344,-3.88092041015625
254191,-0.1404266357421875,0.765655517578125,0.2086639404296875,1.416579604148865,-0.0744412094354629,0.2937048673629761,62.9366455078125,98.27409362792967,-4.68731689453125
254192,-0.1853179931640625,0.762451171875,0.27288818359375,1.244774580001831,0.1213493272662163,0.1880687028169632,63.09577941894531,98.471923828125,-5.51055908203125
254193,-0.2236175537109375,0.7158355712890625,0.314056396484375,1.090127944946289,0.2630017995834351,0.1106133311986923,63.30851745605469,98.46080017089844,-6.233001708984375
254194,-0.2421875,0.6397552490234375,0.3325042724609375,1.011861681938171,0.3407014012336731,0.0813318714499473,63.53958129882812,98.50108337402344,-6.63555908203125
254195,-0.233856201171875,0.54058837890625,0.3003387451171875,1.013068318367004,0.3337971568107605,0.0901693105697631,63.67417907714844,98.54232788085938,-7.055206298828125
254196,-0.19146728515625,0.4541015625,0.2628021240234375,1.027170062065125,0.2496311366558075,0.1400271505117416,63.792724609375,98.64051818847656,-7.411895751953125
254197,-0.1308746337890625,0.39801025390625,0.254913330078125,0.9909536838531494,0.1487527191638947,0.1448176354169846,63.86529541015625,98.72663879394533,-7.729812622070312
254198,-0.091278076171875,0.359222412109375,0.262481689453125,0.8957672715187073,0.082672506570816,0.0958908423781395,63.91482543945312,98.96385192871094,-8.206146240234375
254199,-0.0615386962890625,0.2891998291015625,0.2403106689453125,0.7381778955459595,0.046229813247919,0.0480727218091487,64.03640747070312,99.05101013183594,-8.558822631835938
254200,-0.0666351318359375,0.2230377197265625,0.18359375,0.5536405444145203,-0.0631962791085243,-0.0026144252624362,64.0975341796875,99.06857299804688,-9.008880615234377
254201,-0.0666351318359375,0.2230377197265625,0.18359375,0.5536405444145203,-0.0631962791085243,-0.0026144252624362,64.0975341796875,99.06857299804688,-9.008880615234377
254202,-0.0965118408203125,0.1090087890625,0.1665802001953125,0.1946869343519211,-0.3597829341888428,-0.1684409379959106,64.28829956054688,99.1042022705078,-9.512374877929688
254203,-0.1396636962890625,0.0864410400390625,0.2052764892578125,-0.0868206471204757,-0.1761659681797028,-0.3304322361946106,64.4193115234375,99.21701049804688,-9.67803955078125
254204,-0.1956787109375,0.12396240234375,0.2681121826171875,-0.0868206471204757,-0.1761659681797028,-0.3304322361946106,64.37905883789062,99.17073059082033,-9.669647216796877
254205,-0.2232208251953125,0.1882476806640625,0.324188232421875,-0.2434089332818985,0.150534376502037,-0.34395632147789,64.25251770019531,99.1448974609375,-9.66143798828125
254206,-0.2310028076171875,0.299774169921875,0.360809326171875,-0.4187826216220856,0.50725257396698,-0.3070696592330933,64.18411254882812,99.316162109375,-9.577850341796877
254207,-0.2364654541015625,0.470428466796875,0.38177490234375,-0.5965555310249329,0.8489715456962585,-0.2786063253879547,64.13687133789062,99.47940063476562,-9.531097412109377
254208,-0.228668212890625,0.7091522216796875,0.372650146484375,-0.7831533551216125,1.052759766578674,-0.2831949591636658,63.97456359863281,99.54600524902344,-9.169540405273438
254209,-0.228668212890625,0.7091522216796875,0.372650146484375,-0.7831533551216125,1.052759766578674,-0.2831949591636658,63.97456359863281,99.54600524902344,-9.169540405273438
254210,-0.2030487060546875,1.185882568359375,0.3272552490234375,-0.9374939203262328,0.7235068082809448,-0.3410545289516449,63.51200866699219,99.76847839355467,-8.431655883789062
254211,-0.176055908203125,1.328048706054688,0.295867919921875,-0.8936034440994263,0.2166846394538879,-0.4123055338859558,63.33639526367188,99.95494079589844,-8.0576171875
254212,-0.13946533203125,1.385574340820312,0.32476806640625,-0.8652018904685974,-0.3420364260673523,-0.5392690896987915,63.09761047363281,100.0414276123047,-7.572586059570312
254213,-0.13946533203125,1.385574340820312,0.32476806640625,-0.8652018904685974,-0.3420364260673523,-0.5392690896987915,63.09761047363281,100.0414276123047,-7.572586059570312
254214,-0.1056365966796875,1.357681274414062,0.4689788818359375,-1.228904247283936,-0.7295112013816833,-0.7302818894386292,62.45234680175781,100.142822265625,-6.932662963867188
254215,-0.118682861328125,1.351791381835938,0.5062103271484375,-1.468665719032288,-0.6739158630371094,-0.7574520111083984,62.149658203125,100.2903900146484,-6.65020751953125
254216,-0.144195556640625,1.33477783203125,0.515869140625,-1.756980776786804,-0.392977386713028,-0.803427517414093,61.76651000976562,100.2182922363281,-6.310379028320312
254217,-0.144195556640625,1.33477783203125,0.515869140625,-1.756980776786804,-0.392977386713028,-0.803427517414093,61.76651000976562,100.2182922363281,-6.310379028320312
254218,-0.1527862548828125,1.084304809570312,0.3568267822265625,-1.796562314033508,-0.2859657108783722,-0.8497499823570251,61.17596435546875,99.980712890625,-5.30181884765625
254219,-0.1452484130859375,0.892059326171875,0.2202911376953125,-1.766571640968323,-0.2440057396888733,-0.862910270690918,60.84407043457031,99.95509338378906,-4.476791381835938
254220,-0.115875244140625,0.7372894287109375,0.075347900390625,-1.720673441886902,-0.3671716153621674,-0.9114999175071716,60.48236083984375,99.78703308105467,-3.64593505859375
254221,-0.0649566650390625,0.59326171875,-0.031341552734375,-1.715737223625183,-0.6253552436828613,-0.9702862501144408,60.08921813964844,99.68820190429688,-2.899429321289062
254222,-0.012969970703125,0.4386749267578125,-0.099517822265625,-1.739528298377991,-0.9148578643798828,-0.9741103053092957,59.76368713378906,99.4042510986328,-2.106399536132812
254223,0.0530242919921875,0.2916259765625,-0.1543426513671875,-1.742604851722717,-1.20564603805542,-0.8965329527854919,59.49844360351562,99.07415771484376,-1.311416625976562
254224,0.189453125,0.1128997802734375,-0.4141998291015625,-1.463639259338379,-3.478777647018433,-0.1171940043568611,59.18043518066406,98.78201293945312,-0.4026031494140625
254225,0.189453125,0.1128997802734375,-0.4141998291015625,-1.463639259338379,-3.478777647018433,-0.1171940043568611,59.18043518066406,98.78201293945312,-0.4026031494140625
254226,0.64947509765625,-0.024017333984375,-0.8980712890625,-0.7921894788742065,-5.127810478210449,0.5921091437339783,58.89700317382812,98.32077026367188,1.153091430664062
254227,0.670379638671875,0.20654296875,-0.004302978515625,-0.1889504790306091,-3.674949645996094,1.245611786842346,58.99905395507812,98.224609375,1.72161865234375
254228,0.6782684326171875,0.4346771240234375,-0.0182647705078125,0.1226593405008316,-1.407711029052734,1.796959161758423,59.67631530761719,98.1655731201172,1.987457275390625
254229,0.6782684326171875,0.4346771240234375,-0.0182647705078125,0.1226593405008316,-1.407711029052734,1.796959161758423,59.67631530761719,98.1655731201172,1.987457275390625
254230,0.6779937744140625,0.735015869140625,-0.248809814453125,0.1355756670236588,0.2355669885873795,2.450616121292114,61.42539978027344,97.6488800048828,2.101058959960938
254231,0.6571197509765625,0.82666015625,-0.2729339599609375,-0.0554768405854702,0.3413466811180115,2.531462430953979,62.48831176757812,97.14019775390624,2.329071044921875
254232,0.622161865234375,1.047027587890625,-0.4102325439453125,-0.2105417847633362,0.1946309953927994,2.379392623901367,63.57537841796875,96.639892578125,2.53094482421875
254233,0.5517425537109375,1.417999267578125,-0.638885498046875,-0.097764641046524,-0.0027316042687743,1.833444237709045,64.63128662109375,96.0665283203125,2.8939208984375
254234,0.430145263671875,1.834732055664062,-0.91510009765625,0.5619528293609619,-0.1274538338184357,0.9801849722862244,65.54240417480469,95.59129333496094,3.03936767578125
254235,0.2591400146484375,1.9464111328125,-1.013824462890625,1.471434831619263,-0.0146202212199568,0.2084506750106812,66.22908020019531,95.25050354003906,3.267166137695312
254236,0.1650848388671875,1.894851684570312,-1.054000854492188,2.016572952270508,0.0360136590898037,-0.2460166960954666,66.63505554199219,95.32853698730467,2.88458251953125
254237,0.1650848388671875,1.894851684570312,-1.054000854492188,2.016572952270508,0.0360136590898037,-0.2460166960954666,66.63505554199219,95.32853698730467,2.88458251953125
254238,0.18743896484375,1.931137084960938,-1.274826049804688,1.4854416847229,0.2832735180854797,-0.0663012564182281,66.76528930664062,95.80290222167967,1.448837280273438
254239,0.283050537109375,1.96685791015625,-1.231719970703125,1.025384426116943,0.3514166176319122,0.267445832490921,66.66352844238281,96.03938293457033,0.5151519775390625
254240,0.4105377197265625,1.986297607421875,-1.160675048828125,0.9152061939239502,0.4559219777584076,0.4209416210651398,66.59159851074219,96.23912048339844,-0.180877685546875
254241,0.4105377197265625,1.986297607421875,-1.160675048828125,0.9152061939239502,0.4559219777584076,0.4209416210651398,66.59159851074219,96.23912048339844,-0.180877685546875
254242,0.376251220703125,1.9022216796875,-0.6848297119140625,1.241503119468689,0.6653196811676025,0.4442405700683594,66.804443359375,96.45074462890624,-1.00042724609375
254243,0.33642578125,1.999130249023438,-0.4898681640625,1.383820056915283,0.8192498683929443,0.3464732468128204,66.95753479003906,96.43081665039062,-1.44873046875
254244,0.342376708984375,2.064743041992188,-0.39459228515625,1.4972083568573,0.7956249713897705,0.2636287212371826,66.98075866699219,96.48159790039062,-1.878326416015625
254245,0.342376708984375,2.064743041992188,-0.39459228515625,1.4972083568573,0.7956249713897705,0.2636287212371826,66.98075866699219,96.48159790039062,-1.878326416015625
254246,0.282989501953125,2.05126953125,-0.15106201171875,1.805036187171936,0.6244036555290222,0.2241465449333191,67.20196533203125,96.72987365722656,-3.219009399414062
254247,0.1509246826171875,1.868270874023438,-0.0478057861328125,1.838327646255493,0.623056948184967,0.1681368052959442,67.17817687988281,96.90354919433594,-3.864913940429688
254248,0.05908203125,1.76397705078125,0.047698974609375,1.395731568336487,0.9377685189247132,-0.0857894718647003,67.15084838867188,97.04043579101562,-4.642562866210938
254249,0.05908203125,1.76397705078125,0.047698974609375,1.395731568336487,0.9377685189247132,-0.0857894718647003,67.15084838867188,97.04043579101562,-4.642562866210938
254250,-0.091583251953125,1.839111328125,0.106292724609375,1.056674957275391,1.068369626998901,-0.2880507111549377,67.1710205078125,97.69473266601562,-6.294174194335938
254251,-0.1643829345703125,1.943649291992188,0.1928863525390625,0.8449965119361877,1.190664172172546,-0.5442529320716858,67.09971618652344,97.89715576171876,-6.811553955078125
254252,-0.2145843505859375,1.936309814453125,0.284088134765625,0.7808572053909302,1.300834655761719,-0.7299433946609497,66.94139099121094,98.110595703125,-7.34320068359375
254253,-0.2145843505859375,1.936309814453125,0.284088134765625,0.7808572053909302,1.300834655761719,-0.7299433946609497,66.94139099121094,98.110595703125,-7.34320068359375
254254,-0.2840118408203125,1.708465576171875,0.342987060546875,1.180959582328796,0.5593125820159912,-0.2678951025009155,66.35818481445312,98.71955871582033,-8.100006103515625
254255,-0.2640838623046875,1.533798217773438,0.3344573974609375,1.136829733848572,-0.2213800549507141,-0.0649395883083343,66.13331604003906,98.7382354736328,-8.231552124023438
254256,-0.16290283203125,1.405731201171875,0.3195343017578125,1.136829733848572,-0.2213800549507141,-0.0649395883083343,65.95426940917969,98.84271240234376,-8.656814575195312
254257,-0.0777740478515625,1.291671752929688,0.3680877685546875,0.9204792976379396,-0.9603824615478516,-0.068495437502861,65.89215087890625,98.85700988769533,-9.0343017578125
254258,-0.062408447265625,1.137115478515625,0.4598846435546875,0.6280918717384338,-1.28693151473999,-0.0865508690476417,65.94367980957031,98.8609619140625,-9.682647705078123
254259,-0.0254669189453125,1.0030517578125,0.5066986083984375,0.1951644271612167,-0.8914660215377808,-0.0358988791704177,65.90470886230469,98.87693786621094,-10.22550964355469
254260,0.006195068359375,0.9158172607421876,0.4961700439453125,0.1951644271612167,-0.8914660215377808,-0.0358988791704177,65.99821472167969,98.90467834472656,-10.71102905273438
254261,0.006195068359375,0.9158172607421876,0.4961700439453125,0.1951644271612167,-0.8914660215377808,-0.0358988791704177,65.99821472167969,98.90467834472656,-10.71102905273438
254262,-0.0518951416015625,0.8596954345703125,0.2633819580078125,0.1028243824839592,-0.4592962265014648,-0.2560538947582245,66.00450134277344,98.78977966308594,-11.4700927734375
254263,-0.1271209716796875,0.7983856201171875,-0.0354461669921875,0.1028243824839592,-0.4592962265014648,-0.2560538947582245,65.98344421386719,98.8061065673828,-11.62339782714844
254264,-0.188079833984375,0.7005615234375,-0.14892578125,0.1415978819131851,-1.070651769638062,-0.4017096161842346,66.03721618652344,98.85333251953124,-11.71131896972656
254265,-0.18212890625,0.582427978515625,0.0910186767578125,0.2187200933694839,-1.280261397361755,-0.5534000992774963,65.96372985839844,98.88395690917967,-11.60734558105469
254266,-0.1640777587890625,0.475494384765625,0.280029296875,0.2696128487586975,-0.965565264225006,-0.6777870059013367,65.90452575683594,98.99057006835938,-11.70338439941406
254267,-0.1587066650390625,0.37640380859375,0.3171234130859375,0.2564064860343933,-0.4491527676582336,-0.7892978191375732,65.76985168457031,99.07810974121094,-11.59089660644531
254268,-0.1630401611328125,0.287811279296875,0.248046875,0.0901844874024391,0.1450980752706528,-1.04454505443573,65.5955810546875,99.11219787597656,-11.75790405273438
254269,-0.1630401611328125,0.287811279296875,0.248046875,0.0901844874024391,0.1450980752706528,-1.04454505443573,65.5955810546875,99.11219787597656,-11.75790405273438
254270,-0.190093994140625,0.1342315673828125,0.0884857177734375,-0.0159110557287931,-0.0328929685056209,-1.251263856887817,64.91799926757812,99.43997192382812,-12.36843872070312
254271,-0.236480712890625,0.084320068359375,0.02935791015625,-0.0152769573032856,-0.2627008557319641,-1.241051912307739,64.54165649414062,99.4730987548828,-12.307373046875
254272,-0.311248779296875,0.029815673828125,0.0071258544921875,-0.0152769573032856,-0.2627008557319641,-1.241051912307739,64.03056335449219,99.61412048339844,-12.30859375
254273,-0.311248779296875,0.029815673828125,0.0071258544921875,-0.0152769573032856,-0.2627008557319641,-1.241051912307739,64.03056335449219,99.61412048339844,-12.30859375
254274,-0.3682708740234375,-0.04974365234375,0.0615692138671875,0.0435858257114887,-0.5776777267456055,-0.9277957677841188,63.13531494140625,100.0497894287109,-12.35150146484375
254275,-0.34405517578125,0.0089874267578125,0.143035888671875,-0.1540361642837524,-0.2713097929954529,-0.7286829352378845,62.52427673339844,100.4200439453125,-12.29444885253906
254276,-0.2327880859375,0.3379364013671875,0.1679534912109375,-0.3699961602687836,-0.31830233335495,-0.7357552647590637,61.655029296875,100.7425384521484,-12.28955078125
254277,-0.2327880859375,0.3379364013671875,0.1679534912109375,-0.3699961602687836,-0.31830233335495,-0.7357552647590637,61.655029296875,100.7425384521484,-12.28955078125
254278,-0.2702789306640625,0.500579833984375,0.2166290283203125,-0.6453164219856262,-0.4652667641639709,-0.8015222549438477,61.29656982421875,100.8941802978516,-12.2596435546875
254279,-0.296783447265625,0.6961822509765625,0.261749267578125,-1.288326263427734,-1.04132080078125,-1.023938298225403,60.93891906738281,101.1588287353516,-12.13275146484375
254280,-0.3238983154296875,0.868408203125,0.3198699951171875,-1.288326263427734,-1.04132080078125,-1.023938298225403,60.5816650390625,101.1336669921875,-11.88905334472656
254281,-0.3238983154296875,0.868408203125,0.3198699951171875,-1.288326263427734,-1.04132080078125,-1.023938298225403,60.5816650390625,101.1336669921875,-11.88905334472656
254282,-0.391082763671875,0.938262939453125,0.436737060546875,-2.025513410568237,-1.137535691261292,-1.125967741012573,59.77484130859375,101.2675628662109,-11.34443664550781
254283,-0.320770263671875,0.8613739013671875,0.432861328125,-1.990293502807617,-0.5993078947067261,-1.018195509910583,59.33047485351562,101.2860565185547,-10.8262939453125
254284,-0.1923370361328125,0.7496795654296875,0.272705078125,-1.765510082244873,-0.1713387221097946,-0.7907117009162903,58.83467102050781,101.021240234375,-9.9669189453125
254285,-0.1923370361328125,0.7496795654296875,0.272705078125,-1.765510082244873,-0.1713387221097946,-0.7907117009162903,58.83467102050781,101.021240234375,-9.9669189453125
254286,0.014556884765625,0.4694671630859375,-0.3623809814453125,-1.313489437103271,-0.1740250587463379,-0.4499226808547974,57.96441650390625,100.8219757080078,-8.252899169921875
254287,0.12274169921875,0.363555908203125,-0.5523223876953125,-0.2228256165981293,-0.821824312210083,0.2068402618169785,57.7095947265625,100.7873229980469,-7.28460693359375
254288,0.1630859375,0.275360107421875,-0.350006103515625,-0.2228256165981293,-0.821824312210083,0.2068402618169785,57.48927307128906,100.7188262939453,-6.611175537109375
254289,0.1630859375,0.275360107421875,-0.350006103515625,-0.2228256165981293,-0.821824312210083,0.2068402618169785,57.48927307128906,100.7188262939453,-6.611175537109375
254290,0.1497802734375,0.211761474609375,-0.1019439697265625,-0.5509382486343384,-0.42043536901474,0.4475333094596863,57.35598754882812,100.7652893066406,-5.865646362304688
254291,0.1451263427734375,0.2288360595703125,-0.1104583740234375,-0.8166927099227905,-0.5749687552452087,0.3705303966999054,57.49119567871094,100.7413940429688,-5.699935913085938
254292,0.1582183837890625,0.2428436279296875,-0.16748046875,-0.8166927099227905,-0.5749687552452087,0.3705303966999054,57.59127807617188,100.6131439208984,-5.48797607421875
254293,0.1582183837890625,0.2428436279296875,-0.16748046875,-0.8166927099227905,-0.5749687552452087,0.3705303966999054,57.59127807617188,100.6131439208984,-5.48797607421875
254294,0.2289581298828125,0.30816650390625,-0.3988494873046875,-0.8062517642974854,-1.754995703697205,0.1321119666099548,57.94143676757812,100.4975891113281,-4.854995727539062
254295,0.2787933349609375,0.372711181640625,-0.4671173095703125,-0.4896088540554047,-1.885370016098022,0.1583651453256607,58.15263366699219,100.4249877929688,-4.448455810546875
254296,0.3098297119140625,0.457611083984375,-0.3886871337890625,-0.4896088540554047,-1.885370016098022,0.1583651453256607,58.66213989257812,99.88572692871094,-3.62677001953125
254297,0.3098297119140625,0.457611083984375,-0.3886871337890625,-0.4896088540554047,-1.885370016098022,0.1583651453256607,58.66213989257812,99.88572692871094,-3.62677001953125
254298,0.262298583984375,0.724517822265625,-0.3709564208984375,0.1522806137800217,-0.7577526569366455,0.433394581079483,59.332763671875,99.49871826171876,-3.28228759765625
254299,0.275970458984375,0.876617431640625,-0.53118896484375,0.7935996055603027,0.3951731622219086,0.885918915271759,59.6495361328125,99.27418518066406,-3.266036987304688
254300,0.3033447265625,1.073516845703125,-0.7137908935546875,0.7935996055603027,0.3951731622219086,0.885918915271759,59.97694396972656,99.12974548339844,-3.374908447265625
254301,0.3033447265625,1.073516845703125,-0.7137908935546875,0.7935996055603027,0.3951731622219086,0.885918915271759,59.97694396972656,99.12974548339844,-3.374908447265625
254302,0.1190948486328125,1.8294677734375,-1.145782470703125,1.206324338912964,1.253631114959717,1.101284742355347,60.49107360839844,99.10089111328124,-3.826553344726562
254303,0.05194091796875,2.23089599609375,-1.223220825195312,0.4924443066120148,-0.5897631645202637,0.4803924560546875,60.88026428222656,99.06365966796876,-4.313613891601562
254304,0.20074462890625,2.446258544921875,-1.012222290039062,0.4924443066120148,-0.5897631645202637,0.4803924560546875,61.18791198730469,98.89622497558594,-4.598007202148438
254305,0.4779052734375,2.469573974609375,-0.6880340576171875,0.3694198429584503,-0.6465326547622681,0.5941765308380127,61.46662902832031,98.79843139648438,-5.095260620117188
254306,0.63922119140625,2.465713500976562,-0.39849853515625,0.4319916367530823,0.156236469745636,0.802161693572998,61.79466247558594,98.74177551269533,-5.423828125
254307,0.6504974365234375,2.36602783203125,-0.227569580078125,0.4794459640979767,0.9221163392066956,0.8468604683876038,62.09861755371094,98.74636840820312,-5.657485961914062
254308,0.565704345703125,2.2677001953125,-0.1514434814453125,0.4451684057712555,1.274452805519104,0.7283178567886353,62.27291870117188,98.7232666015625,-5.672439575195312
254309,0.565704345703125,2.2677001953125,-0.1514434814453125,0.4451684057712555,1.274452805519104,0.7283178567886353,62.27291870117188,98.7232666015625,-5.672439575195312
254310,0.2449951171875,2.599822998046875,-0.243896484375,0.7302432656288147,1.042192101478577,0.6699445247650146,62.63554382324219,98.80657958984376,-5.977249145507812
254311,0.212615966796875,2.92578125,-0.2707061767578125,1.028220653533936,0.8574702143669128,0.6935899257659912,62.83314514160156,98.84654235839844,-5.960906982421875
254312,0.0902557373046875,3.150421142578125,-0.25982666015625,1.284577608108521,0.8842789530754089,0.6088316440582275,62.93858337402344,98.96055603027344,-6.18011474609375
254313,0.0902557373046875,3.150421142578125,-0.25982666015625,1.284577608108521,0.8842789530754089,0.6088316440582275,62.93858337402344,98.96055603027344,-6.18011474609375
254314,-0.170501708984375,2.987808227539062,-0.0479736328125,1.309365749359131,0.8776828050613403,-0.0973041802644729,63.32374572753906,99.29116821289062,-7.422256469726562
254315,-0.1773681640625,2.625946044921875,0.0789642333984375,1.200497031211853,0.8715905547142029,-0.3487231135368347,63.35595703125,99.62709045410156,-8.1395263671875
254316,-0.4122772216796875,1.5521240234375,-0.1236419677734375,0.9885225296020508,-0.2060085535049438,-0.1131337434053421,63.33122253417969,99.8511199951172,-9.341400146484377
254317,-0.4122772216796875,1.5521240234375,-0.1236419677734375,0.9885225296020508,-0.2060085535049438,-0.1131337434053421,63.33122253417969,99.8511199951172,-9.341400146484377
254318,-0.5174407958984375,1.308792114257812,-0.141876220703125,0.9885225296020508,-0.2060085535049438,-0.1131337434053421,63.35588073730469,99.96955871582033,-9.84393310546875
254319,-0.5606842041015625,1.188232421875,0.1021575927734375,1.001392722129822,-0.4050822556018829,-0.1469622850418091,63.4312744140625,100.0030517578125,-10.281982421875
254320,-0.55859375,1.078460693359375,0.2864837646484375,0.9743302464485168,-0.2779914140701294,-0.1882596611976624,63.53355407714844,100.0319061279297,-10.96903991699219
254321,-0.55859375,1.078460693359375,0.2864837646484375,0.9743302464485168,-0.2779914140701294,-0.1882596611976624,63.53355407714844,100.0319061279297,-10.96903991699219
254322,-0.5394744873046875,0.8095855712890625,0.25439453125,0.8708739280700684,-0.3498208522796631,-0.2176939696073532,63.56997680664062,99.8275146484375,-11.91886901855469
254323,-0.4871978759765625,0.65557861328125,0.2230072021484375,0.8708739280700684,-0.3498208522796631,-0.2176939696073532,63.47291564941406,99.79673767089844,-12.19076538085938
254324,-0.386566162109375,0.532257080078125,0.21942138671875,0.8937898874282837,-0.1474525779485703,-0.1518547683954239,63.3909912109375,99.85275268554688,-12.70779418945312
254325,-0.386566162109375,0.532257080078125,0.21942138671875,0.8937898874282837,-0.1474525779485703,-0.1518547683954239,63.3909912109375,99.85275268554688,-12.70779418945312
254326,-0.2113189697265625,0.3865203857421875,0.1448822021484375,0.9059306979179382,0.0502354726195335,-0.2110017240047455,63.13194274902344,99.94125366210938,-13.78956604003906
254327,-0.1561126708984375,0.33270263671875,0.1089935302734375,0.8545146584510803,0.1474613547325134,-0.3500938415527344,62.94650268554688,99.9584503173828,-14.23139953613281
254328,-0.1220245361328125,0.2884368896484375,0.0569610595703125,0.7896464467048645,0.0223591011017561,-0.4178757965564728,62.79472351074219,100.0576782226562,-14.65788269042969
254329,-0.121795654296875,0.2708892822265625,-0.0359649658203125,0.7436877489089966,-0.2125263810157776,-0.49723881483078,62.6480712890625,100.1920776367188,-15.04673767089844
254330,-0.113983154296875,0.2671356201171875,-0.124603271484375,0.7436877489089966,-0.2125263810157776,-0.49723881483078,62.41702270507812,100.3379211425781,-15.47819519042969
254331,-0.073516845703125,0.287689208984375,-0.1761016845703125,0.7147535681724548,-0.6377977728843689,-0.5308500528335571,62.21266174316406,100.45361328125,-15.7392578125
254332,-0.0097503662109375,0.32098388671875,-0.1484527587890625,0.7147535681724548,-0.6377977728843689,-0.5308500528335571,61.9443359375,100.6558685302734,-16.13484191894531
254333,-0.0097503662109375,0.32098388671875,-0.1484527587890625,0.7147535681724548,-0.6377977728843689,-0.5308500528335571,61.9443359375,100.6558685302734,-16.13484191894531
254334,0.0546722412109375,0.3821563720703125,-0.0400390625,0.5468340516090393,-0.7345810532569885,-0.4623511135578156,61.46232604980469,100.9115295410156,-17.02301025390625
254335,0.098419189453125,0.33819580078125,0.0067596435546875,0.1376023292541504,-0.8133504390716553,-0.2366442382335663,61.17503356933594,100.7773132324219,-17.3367919921875
254336,0.10101318359375,0.3267059326171875,0.0332794189453125,0.1376023292541504,-0.8133504390716553,-0.2366442382335663,61.014892578125,100.9344635009766,-17.66603088378906
254337,0.10101318359375,0.3267059326171875,0.0332794189453125,0.1376023292541504,-0.8133504390716553,-0.2366442382335663,61.014892578125,100.9344635009766,-17.66603088378906
254338,0.0824432373046875,0.289337158203125,0.0413818359375,-0.4219392538070679,-1.150653123855591,-0.2078693062067032,60.71965026855469,100.9630584716797,-17.850341796875
254339,0.0874176025390625,0.2923126220703125,0.06243896484375,-0.5104100108146667,-1.241024017333984,-0.2097779959440231,60.751220703125,100.87060546875,-17.73365783691406
254340,0.10162353515625,0.3397674560546875,0.0987701416015625,-0.5685153603553772,-1.203593015670776,-0.1206161603331566,60.71983337402344,100.9917602539062,-17.52262878417969
254341,0.0405426025390625,0.5060882568359375,0.1851959228515625,-0.5685153603553772,-1.203593015670776,-0.1206161603331566,60.67610168457031,101.1087188720703,-17.42807006835938
254342,-0.0592498779296875,0.8253326416015625,0.26739501953125,-0.6742900013923645,-1.005363821983337,-0.1348108053207397,60.60798645019531,101.1383361816406,-17.27468872070312
254343,-0.1542510986328125,1.131378173828125,0.329803466796875,-1.030326962471008,-0.6629851460456848,-0.5094057321548462,60.51029968261719,101.2090301513672,-17.03105163574219
254344,-0.2739410400390625,1.3148193359375,0.3993682861328125,-1.169007658958435,-0.5678524971008301,-0.8234137296676636,60.43888854980469,101.1410675048828,-16.97525024414062
254345,-0.2739410400390625,1.3148193359375,0.3993682861328125,-1.169007658958435,-0.5678524971008301,-0.8234137296676636,60.43888854980469,101.1410675048828,-16.97525024414062
254346,-0.4650421142578125,1.257568359375,0.4648284912109375,-1.17578911781311,-0.5159747004508972,-1.269826650619507,59.9732666015625,101.4187927246094,-16.41143798828125
254347,-0.516693115234375,1.116439819335938,0.4338226318359375,-1.17578911781311,-0.5159747004508972,-1.269826650619507,59.68942260742188,101.4428100585938,-15.9169921875
254348,-0.5594482421875,0.97119140625,0.3845062255859375,-0.9091272950172424,-0.5852842330932617,-1.105149745941162,59.17434692382812,101.6868286132812,-15.35354614257812
254349,-0.5594482421875,0.97119140625,0.3845062255859375,-0.9091272950172424,-0.5852842330932617,-1.105149745941162,59.17434692382812,101.6868286132812,-15.35354614257812
254350,-0.6350860595703125,0.7596282958984375,0.3373870849609375,-0.8393396735191345,-0.4927156865596771,-0.9111800789833068,58.18205261230469,101.9533233642578,-14.39987182617188
254351,-0.6096649169921875,0.6727142333984375,0.27349853515625,-1.04256284236908,-0.4082556664943695,-0.7735130190849304,57.72016906738281,102.0826416015625,-14.12095642089844
254352,-0.5343780517578125,0.596038818359375,0.1949920654296875,-1.195082306861877,-0.458506852388382,-0.7952294945716858,57.31031799316406,101.9954833984375,-13.67195129394531
254353,-0.5343780517578125,0.596038818359375,0.1949920654296875,-1.195082306861877,-0.458506852388382,-0.7952294945716858,57.31031799316406,101.9954833984375,-13.67195129394531
254354,-0.32952880859375,0.449615478515625,0.0936279296875,-1.33008885383606,-0.4156225025653839,-0.6819980144500732,56.65499877929688,102.1483306884766,-12.81428527832031
254355,-0.2265777587890625,0.34039306640625,0.0404205322265625,-1.33008885383606,-0.4156225025653839,-0.6819980144500732,56.18511962890625,102.0758972167969,-12.297119140625
254356,-0.0510711669921875,0.133056640625,-0.099609375,-1.26255464553833,-0.922676920890808,-0.1962294280529022,55.58073425292969,102.0662536621094,-10.92628479003906
254357,-0.0510711669921875,0.133056640625,-0.099609375,-1.26255464553833,-0.922676920890808,-0.1962294280529022,55.58073425292969,102.0662536621094,-10.92628479003906
254358,0.020721435546875,0.0626373291015625,-0.1663970947265625,-1.347450613975525,-1.246336460113525,0.0675303041934967,55.3651123046875,101.9367828369141,-10.26934814453125
254359,0.1109771728515625,0.0250091552734375,-0.1961822509765625,-1.445662140846252,-1.278875231742859,0.3936791121959686,55.2408447265625,101.6834106445312,-9.548675537109377
254360,0.2085113525390625,0.02935791015625,-0.1932525634765625,-1.445662140846252,-1.278875231742859,0.3936791121959686,55.23281860351562,101.4014587402344,-8.918899536132812
254361,0.2085113525390625,0.02935791015625,-0.1932525634765625,-1.445662140846252,-1.278875231742859,0.3936791121959686,55.23281860351562,101.4014587402344,-8.918899536132812
254362,0.3763427734375,0.28204345703125,-0.4434661865234375,-1.156753897666931,-0.8640192151069641,1.042184114456177,55.59825134277344,101.1478118896484,-7.334976196289062
254363,0.4154052734375,0.5094757080078125,-0.563568115234375,-0.7676170468330383,-0.9763444066047668,1.189613223075867,55.77401733398438,101.0305480957031,-6.427581787109375
254364,0.4517059326171875,0.7283935546875,-0.5528717041015625,-0.3125768005847931,-0.9478091597557068,1.19007134437561,56.10250854492188,100.8154754638672,-5.74932861328125
254365,0.4517059326171875,0.7283935546875,-0.5528717041015625,-0.3125768005847931,-0.9478091597557068,1.19007134437561,56.10250854492188,100.8154754638672,-5.74932861328125
254366,0.6064300537109375,1.196792602539062,-0.90411376953125,1.404149532318115,0.5162441730499268,1.301071643829346,57.17475891113281,100.3395385742188,-4.90533447265625
254367,0.62335205078125,1.4375,-1.311279296875,1.404149532318115,0.5162441730499268,1.301071643829346,57.651123046875,100.2063140869141,-4.863906860351562
254368,0.2197723388671875,1.800399780273438,-0.8922271728515625,0.6724923849105835,0.4694396555423737,0.9186400771141052,58.63510131835938,100.1332244873047,-5.964813232421875
254369,0.2197723388671875,1.800399780273438,-0.8922271728515625,0.6724923849105835,0.4694396555423737,0.9186400771141052,58.63510131835938,100.1332244873047,-5.964813232421875
254370,0.0114288330078125,2.003875732421875,-0.861419677734375,0.3338885009288788,0.5512722134590149,0.375046044588089,59.08627319335938,100.0117950439453,-6.510391235351562
254371,0.1333770751953125,2.082687377929688,-1.088180541992188,1.281329035758972,-0.0285126008093357,0.1898788511753082,59.53636169433594,99.88922119140624,-6.895004272460938
254372,0.3107147216796875,1.924880981445312,-1.007827758789062,1.281329035758972,-0.0285126008093357,0.1898788511753082,59.71322631835938,99.7872314453125,-7.027908325195312
254373,0.3107147216796875,1.924880981445312,-1.007827758789062,1.281329035758972,-0.0285126008093357,0.1898788511753082,59.71322631835938,99.7872314453125,-7.027908325195312
254374,0.5299072265625,1.214035034179688,-0.744903564453125,1.199774622917175,0.509055495262146,0.2697260081768036,59.84298706054688,99.8563995361328,-8.134307861328125
254375,0.5040740966796875,1.316253662109375,-0.607452392578125,0.6848156452178955,0.6795250177383423,0.4346281588077545,59.93313598632812,100.0142822265625,-8.819290161132812
254376,0.4376983642578125,1.547500610351562,-0.475341796875,0.3552973866462708,0.9285348057746888,0.886674165725708,60.06375122070312,100.0087127685547,-9.4390869140625
254377,0.3653106689453125,1.866241455078125,-0.4012298583984375,0.3552973866462708,0.9285348057746888,0.886674165725708,60.26414489746094,100.0085754394531,-9.657608032226562
254378,0.287322998046875,2.2032470703125,-0.3984832763671875,1.246080279350281,0.5056048631668091,1.155218601226807,60.58944702148438,100.1697387695312,-9.9434814453125
254379,0.1768341064453125,2.5804443359375,-0.4048309326171875,1.246080279350281,0.5056048631668091,1.155218601226807,60.93478393554688,100.1710357666016,-10.18019104003906
254380,-0.011962890625,2.89178466796875,-0.32745361328125,1.626370072364807,0.0502754226326942,0.9710699915885924,61.29002380371094,100.2511749267578,-10.57388305664062
254381,-0.011962890625,2.89178466796875,-0.32745361328125,1.626370072364807,0.0502754226326942,0.9710699915885924,61.29002380371094,100.2511749267578,-10.57388305664062
254382,-0.272247314453125,2.968093872070312,0.1495208740234375,1.728513240814209,-0.0472356900572776,-0.0563828498125076,61.98637390136719,100.6093597412109,-11.93882751464844
254383,-0.2260894775390625,2.62615966796875,0.22125244140625,1.553015232086182,0.2000649124383926,-0.3637297451496124,62.2420654296875,100.7940521240234,-12.94288635253906
254384,-0.17510986328125,1.721237182617188,0.1790771484375,1.136592626571655,0.0178114883601665,0.3976696133613586,62.28129577636719,101.0737609863281,-14.65974426269531
254385,-0.17510986328125,1.721237182617188,0.1790771484375,1.136592626571655,0.0178114883601665,0.3976696133613586,62.28129577636719,101.0737609863281,-14.65974426269531
254386,-0.2718048095703125,1.665969848632812,0.3549346923828125,1.136592626571655,0.0178114883601665,0.3976696133613586,62.30390930175781,101.1328430175781,-15.36503601074219
254387,-0.38262939453125,1.71405029296875,0.4872894287109375,1.132124900817871,-0.0225002486258745,0.3188008964061737,62.59733581542969,101.011474609375,-16.00265502929688
254388,-0.4910125732421875,1.62872314453125,0.556671142578125,1.018255114555359,-0.2024295330047607,0.074533887207508,62.93482971191406,100.8154907226562,-16.55961608886719
254389,-0.5709991455078125,1.439926147460938,0.6300506591796875,0.8090273141860962,-0.3683042526245117,-0.1634325981140137,63.286865234375,100.5941009521484,-17.10762023925781
254390,-0.58538818359375,1.151763916015625,0.6735687255859375,0.5359585285186768,-0.3307611346244812,-0.2979789674282074,63.64822387695312,100.3254547119141,-17.37767028808594
254391,-0.55499267578125,0.85491943359375,0.6574859619140625,0.5507686138153076,-0.136041983962059,-0.1729382276535034,63.77137756347656,100.3650360107422,-17.72138977050781
254392,-0.5163421630859375,0.6287689208984375,0.5841064453125,0.5713375210762024,0.0783930718898773,-0.03866483643651,63.67404174804688,100.3106689453125,-17.88905334472656
254393,-0.474884033203125,0.5113372802734375,0.45977783203125,0.5713375210762024,0.0783930718898773,-0.03866483643651,63.65812683105469,100.3636016845703,-18.27157592773438
254394,-0.4033203125,0.485870361328125,0.3002166748046875,0.5345432758331299,0.1785425841808319,0.0225873347371816,63.5546875,100.424560546875,-18.53182983398438
254395,-0.3092498779296875,0.535614013671875,0.120361328125,0.412962019443512,0.0343907289206981,-0.0209204610437154,63.50979614257812,100.5380249023438,-18.78826904296875
254396,-0.2269134521484375,0.59759521484375,-0.024383544921875,0.0900593176484108,-0.8636732697486877,-0.2917594015598297,63.43777465820312,100.4960174560547,-18.9725341796875
254397,-0.2269134521484375,0.59759521484375,-0.024383544921875,0.0900593176484108,-0.8636732697486877,-0.2917594015598297,63.43777465820312,100.4960174560547,-18.9725341796875
254398,-0.12713623046875,0.5985260009765625,-0.133392333984375,-0.136263832449913,-1.684489369392395,-0.5930918455123901,63.16694641113281,100.6619873046875,-19.28302001953125
254399,-0.1079864501953125,0.5654144287109375,-0.138275146484375,-0.136263832449913,-1.684489369392395,-0.5930918455123901,63.00202941894531,100.560302734375,-19.3687744140625
254400,-0.116943359375,0.476165771484375,-0.1160736083984375,-0.1957857459783554,-1.905829191207886,-0.7356441617012024,62.71333312988281,100.6809844970703,-19.50920104980469
254401,-0.116943359375,0.476165771484375,-0.1160736083984375,-0.1957857459783554,-1.905829191207886,-0.7356441617012024,62.71333312988281,100.6809844970703,-19.50920104980469
254402,-0.2506256103515625,0.3376312255859375,-0.0794677734375,-0.1180243715643883,-1.46585738658905,-0.8129538893699646,61.88362121582031,100.8172607421875,-19.84736633300781
254403,-0.324920654296875,0.273223876953125,-0.134765625,-0.1180243715643883,-1.46585738658905,-0.8129538893699646,61.42062377929688,100.8003845214844,-19.89593505859375
254404,-0.3158111572265625,0.2267913818359375,-0.2164764404296875,-0.0361151285469532,-0.9645412564277648,-0.3024741113185883,60.93098449707031,100.9184722900391,-19.9814453125
254405,-0.176116943359375,0.2684173583984375,-0.3729095458984375,-0.0361151285469532,-0.9645412564277648,-0.3024741113185883,60.41848754882812,100.9119567871094,-20.13298034667969
254406,-0.022308349609375,0.428436279296875,-0.428192138671875,0.1143606603145599,-1.288432240486145,-0.0248305145651102,60.12277221679688,100.6842956542969,-20.28292846679688
254407,0.0662384033203125,0.623321533203125,-0.30023193359375,0.260091245174408,-1.647395491600037,0.2065507769584656,59.88385009765625,100.6672058105469,-20.55390930175781
254408,0.128448486328125,0.7465362548828125,-0.123626708984375,0.2701220214366913,-1.860395073890686,0.4669938087463379,59.72653198242188,100.7393035888672,-20.62223815917969
254409,0.128448486328125,0.7465362548828125,-0.123626708984375,0.2701220214366913,-1.860395073890686,0.4669938087463379,59.72653198242188,100.7393035888672,-20.62223815917969
254410,0.1597442626953125,1.054412841796875,0.2094268798828125,-0.1196049600839615,-1.819074869155884,0.6445496678352356,59.73777770996094,100.6283111572266,-21.12309265136719
254411,0.16632080078125,1.172393798828125,0.301544189453125,-0.3415080606937408,-1.755826115608215,0.3866883218288422,59.84771728515625,100.6557922363281,-21.28999328613281
254412,0.159912109375,1.14544677734375,0.3670501708984375,-0.5545156598091125,-1.816961646080017,-0.0148780159652233,60.0037841796875,100.7479705810547,-21.12879943847656
254413,0.159912109375,1.14544677734375,0.3670501708984375,-0.5545156598091125,-1.816961646080017,-0.0148780159652233,60.0037841796875,100.7479705810547,-21.12879943847656
254414,-0.0971221923828125,0.76385498046875,0.509521484375,-0.8653103113174438,-1.676333904266357,-0.5228096842765808,60.117431640625,100.7842254638672,-20.70927429199219
254415,-0.1807403564453125,0.6670684814453125,0.4963226318359375,-0.9948112964630128,-1.480401992797852,-0.6600402593612671,59.91596984863281,100.8872680664062,-20.55880737304688
254416,-0.23370361328125,0.57623291015625,0.438629150390625,-1.088046669960022,-1.328111529350281,-0.809718668460846,59.70306396484375,100.8943328857422,-20.31369018554688
254417,-0.23370361328125,0.57623291015625,0.438629150390625,-1.088046669960022,-1.328111529350281,-0.809718668460846,59.70306396484375,100.8943328857422,-20.31369018554688
254418,-0.25787353515625,0.4310455322265625,0.24407958984375,-1.144782185554504,-1.213750004768372,-1.015001535415649,59.07423400878906,101.2264709472656,-19.670654296875
254419,-0.2728118896484375,0.339996337890625,0.1765899658203125,-1.145907282829285,-1.104212045669556,-0.9947417974472046,58.62692260742188,101.1921234130859,-19.27989196777344
254420,-0.4061737060546875,0.1532745361328125,0.1706695556640625,-1.497942566871643,0.1649290323257446,-0.2279612571001053,58.21794128417969,101.3701782226562,-18.98556518554688
254421,-0.3938446044921875,0.0989990234375,0.03033447265625,-1.448098659515381,0.2075963318347931,-0.1207471936941147,57.75259399414062,101.5106201171875,-18.5640869140625
254422,-0.1904296875,0.229217529296875,-0.30908203125,-1.448098659515381,0.2075963318347931,-0.1207471936941147,57.45938110351562,101.6352844238281,-18.02395629882812
254423,-0.030670166015625,0.17401123046875,-0.6374053955078125,-1.113351225852966,-0.4522382915019989,-0.1117209419608116,57.24137878417969,101.8084716796875,-17.16546630859375
254424,0.106781005859375,0.0335235595703125,-0.71484375,-0.7801088690757751,-1.150027751922607,0.0834264531731605,57.14659118652344,101.8318786621094,-16.33848571777344
254425,0.106781005859375,0.0335235595703125,-0.71484375,-0.7801088690757751,-1.150027751922607,0.0834264531731605,57.14659118652344,101.8318786621094,-16.33848571777344
254426,0.1933135986328125,0.0043182373046875,-0.360198974609375,-0.5241271257400513,-1.43175745010376,0.5975741744041443,57.11650085449219,101.6165466308594,-15.41865539550781
254427,0.1942901611328125,0.0282745361328125,-0.2286224365234375,-0.5381619930267334,-1.34140408039093,0.7252136468887329,57.23884582519531,101.5518951416016,-15.04676818847656
254428,0.208282470703125,0.0584716796875,-0.137847900390625,-0.5589138865470886,-1.289483666419983,0.8378954529762268,57.54928588867188,101.4817352294922,-14.76048278808594
254429,0.2385101318359375,0.1278228759765625,-0.0854949951171875,-0.5005688071250916,-1.328217506408691,0.9575337171554564,57.93132019042969,101.3743743896484,-14.73048400878906
254430,0.2657318115234375,0.245208740234375,-0.05096435546875,-0.3682760298252106,-1.396958470344543,1.060471773147583,58.43173217773438,101.1741180419922,-14.43891906738281
254431,0.28741455078125,0.4044036865234375,-0.034149169921875,-0.2218309342861176,-1.393084168434143,1.113179206848145,58.78865051269531,101.1111145019531,-14.25074768066406
254432,0.2930755615234375,0.60968017578125,-0.0507965087890625,-0.0201492104679346,-1.186256408691406,0.8813832998275757,59.18655395507812,101.0384826660156,-13.873779296875
254433,0.2930755615234375,0.60968017578125,-0.0507965087890625,-0.0201492104679346,-1.186256408691406,0.8813832998275757,59.18655395507812,101.0384826660156,-13.873779296875
254434,0.2852783203125,1.089279174804688,-0.392730712890625,0.2351738959550858,-0.9047375917434692,0.6565855741500854,59.91973876953125,101.052490234375,-13.80290222167969
254435,0.27740478515625,1.347869873046875,-0.7353973388671875,1.026682376861572,0.047463122755289,0.6047024130821228,60.31988525390625,101.1106109619141,-13.81295776367188
254436,0.137298583984375,1.897445678710938,-1.801498413085938,2.133074522018433,0.6427078247070312,0.8815233707427979,60.6839599609375,101.1266174316406,-14.140625
254437,0.137298583984375,1.897445678710938,-1.801498413085938,2.133074522018433,0.6427078247070312,0.8815233707427979,60.6839599609375,101.1266174316406,-14.140625
254438,-0.07568359375,2.14642333984375,-0.9921722412109376,0.8096622228622437,-0.0328423678874969,0.4276203215122223,60.90754699707031,101.0167846679688,-14.81976318359375
254439,-0.078643798828125,2.26397705078125,-0.2080078125,-0.596993625164032,0.0921496376395225,-0.1663642078638077,61.23431396484375,100.8356018066406,-15.65895080566406
254440,0.1744842529296875,2.549652099609375,-0.029052734375,-1.24071192741394,0.0630207806825637,-0.3649351000785828,61.55455017089844,100.5684356689453,-16.26519775390625
254441,0.1744842529296875,2.549652099609375,-0.029052734375,-1.24071192741394,0.0630207806825637,-0.3649351000785828,61.55455017089844,100.5684356689453,-16.26519775390625
254442,0.433380126953125,2.988937377929688,-0.1182861328125,-0.8676704168319702,-0.3341042101383209,-0.0227681621909141,61.64111328125,100.5750427246094,-16.30125427246094
254443,0.63336181640625,3.265670776367188,0.2331390380859375,1.084798693656921,0.2258184850215912,1.42270565032959,61.46405029296875,100.5747680664062,-15.21183776855469
254444,0.62860107421875,2.84185791015625,0.18914794921875,1.503213047981262,0.6509607434272766,1.794441103935242,61.66252136230469,100.5014343261719,-15.18991088867188
254445,0.62860107421875,2.84185791015625,0.18914794921875,1.503213047981262,0.6509607434272766,1.794441103935242,61.66252136230469,100.5014343261719,-15.18991088867188
254446,0.5767059326171875,2.155197143554688,-0.1341094970703125,1.508723378181458,0.169680118560791,1.725548028945923,62.7091064453125,100.1456146240234,-15.98963928222656
254447,0.5458831787109375,2.235748291015625,-0.2153778076171875,1.296846270561218,-0.5247378349304199,1.212454676628113,63.66093444824219,100.0102691650391,-16.73779296875
254448,0.4417877197265625,2.342300415039062,-0.027099609375,1.025520801544189,-0.8445906639099121,0.5636604428291321,64.25885009765625,99.6579132080078,-17.51585388183594
254449,0.4417877197265625,2.342300415039062,-0.027099609375,1.025520801544189,-0.8445906639099121,0.5636604428291321,64.25885009765625,99.6579132080078,-17.51585388183594
254450,-0.0013275146484375,2.219131469726562,0.043304443359375,0.6375873684883118,-0.1635652333498001,-0.3841255605220795,65.29086303710938,99.61842346191406,-19.01702880859375
254451,-0.154541015625,1.961517333984375,-0.0366973876953125,0.5617656111717224,-0.0964921861886978,-0.7397134900093079,65.46368408203125,99.69670104980467,-19.66226196289062
254452,-0.239288330078125,1.712234497070312,0.0052032470703125,0.4866010844707489,-0.2383310794830322,-0.9152637720108032,65.44281005859375,99.76039123535156,-20.08299255371094
254453,-0.2779998779296875,1.44580078125,0.179901123046875,0.4453588426113129,-0.2495805323123932,-0.8676605224609375,65.37040710449219,99.79428100585938,-20.40592956542969
254454,-0.3001708984375,1.221359252929688,0.3484649658203125,0.4421159029006958,-0.0311539247632026,-0.6566076874732971,65.18376159667969,99.76016235351562,-20.80821228027344
254455,-0.3222808837890625,1.04107666015625,0.404052734375,0.4409454464912415,0.1279206871986389,-0.4122048616409302,65.00674438476562,99.62380981445312,-21.09501647949219
254456,-0.337158203125,0.82684326171875,0.3920745849609375,0.637934148311615,-0.2192199677228928,0.0240949504077434,64.97235107421875,99.6575927734375,-21.44937133789062
254457,-0.3527374267578125,0.6549224853515625,0.3828125,0.637934148311615,-0.2192199677228928,0.0240949504077434,64.77925109863281,99.68959045410156,-21.68086242675781
254458,-0.3642425537109375,0.548095703125,0.3637542724609375,0.7903260588645935,-0.4236791133880615,0.1375003308057785,64.95550537109375,99.4605712890625,-22.09234619140625
254459,-0.3764495849609375,0.4659271240234375,0.31915283203125,0.8764870762825012,-0.5809062719345093,0.1352206766605377,65.04866027832031,99.30482482910156,-22.45716857910156
254460,-0.397674560546875,0.4633331298828125,0.3143310546875,0.8476849794387817,-0.6401088833808899,0.0140383206307888,64.96586608886719,99.3271942138672,-22.79841613769531
254461,-0.397674560546875,0.4633331298828125,0.3143310546875,0.8476849794387817,-0.6401088833808899,0.0140383206307888,64.96586608886719,99.3271942138672,-22.79841613769531
254462,-0.342620849609375,0.53948974609375,0.182586669921875,0.4684625566005707,-0.4955777823925018,-0.3864630162715912,64.80699157714844,99.28932189941406,-23.84671020507812
254463,-0.2805023193359375,0.54547119140625,0.0472869873046875,0.3018922209739685,-0.547156810760498,-0.4997773170471191,64.64979553222656,99.28793334960938,-24.01963806152344
254464,-0.2115631103515625,0.5302886962890625,-0.0687713623046875,0.309705913066864,-0.8055465817451477,-0.650564968585968,64.43980407714844,99.22007751464844,-23.87092590332031
254465,-0.2115631103515625,0.5302886962890625,-0.0687713623046875,0.309705913066864,-0.8055465817451477,-0.650564968585968,64.43980407714844,99.22007751464844,-23.87092590332031
254466,-0.1320648193359375,0.5018768310546875,-0.0894012451171875,0.3928900361061096,-0.8726800680160522,-0.688517689704895,63.79214477539062,99.28201293945312,-24.00230407714844
254467,-0.1478118896484375,0.491485595703125,-0.0421295166015625,0.4286714494228363,-0.9249062538146972,-0.7159211039543152,63.29844665527344,99.40487670898438,-24.39573669433594
254468,-0.170196533203125,0.4840240478515625,0.0243377685546875,0.399703711271286,-0.9555360674858092,-0.7090349197387695,62.80146789550781,99.6016082763672,-25.16096496582031
254469,-0.170196533203125,0.4840240478515625,0.0243377685546875,0.399703711271286,-0.9555360674858092,-0.7090349197387695,62.80146789550781,99.6016082763672,-25.16096496582031
254470,-0.1660308837890625,0.5235443115234375,0.14447021484375,0.2942508161067963,-0.7625637054443359,-0.570846438407898,62.01451110839844,99.612060546875,-26.04470825195312
254471,-0.090240478515625,0.5088958740234375,0.11322021484375,0.3080294728279114,-0.720425546169281,-0.3939222693443298,61.6981201171875,99.67048645019533,-26.22978210449219
254472,-0.003448486328125,0.5919952392578125,0.1070709228515625,0.3841982781887054,-0.821292519569397,-0.2347126454114914,61.48822021484375,99.87190246582033,-26.43106079101562
254473,-0.003448486328125,0.5919952392578125,0.1070709228515625,0.3841982781887054,-0.821292519569397,-0.2347126454114914,61.48822021484375,99.87190246582033,-26.43106079101562
254474,0.0379791259765625,0.781402587890625,0.257568359375,0.4861073195934296,-0.9459553360939026,0.0694120973348617,61.03804016113281,99.98867797851562,-26.71803283691406
254475,0.0055084228515625,0.9606781005859376,0.3597412109375,0.3677186369895935,-0.940834641456604,0.0566494315862655,60.84385681152344,100.0234527587891,-26.87060546875
254476,-0.073822021484375,1.077682495117188,0.475250244140625,0.1028616651892662,-1.001488924026489,-0.132395327091217,60.74600219726562,99.98004150390624,-27.21138000488281
254477,-0.073822021484375,1.077682495117188,0.475250244140625,0.1028616651892662,-1.001488924026489,-0.132395327091217,60.74600219726562,99.98004150390624,-27.21138000488281
254478,-0.3002471923828125,0.9342498779296876,0.6434173583984375,-0.5799517631530762,-1.056480765342712,-0.4591992795467377,60.5086669921875,100.0246429443359,-27.67218017578125
254479,-0.36614990234375,0.777679443359375,0.6141815185546875,-0.9130192399024964,-1.188762903213501,-0.572777509689331,60.25440979003906,100.0960845947266,-27.61981201171875
254480,-0.408966064453125,0.6481170654296875,0.5581207275390625,-1.356075525283813,-1.551565408706665,-0.7224631309509277,59.85568237304688,100.2771606445312,-27.37075805664062
254481,-0.408966064453125,0.6481170654296875,0.5581207275390625,-1.356075525283813,-1.551565408706665,-0.7224631309509277,59.85568237304688,100.2771606445312,-27.37075805664062
254482,-0.3896942138671875,0.49639892578125,0.3948516845703125,-1.538815259933472,-1.679703593254089,-0.724378764629364,59.13090515136719,100.5032043457031,-26.65090942382812
254483,-0.36224365234375,0.478363037109375,0.3406524658203125,-1.681355834007263,-1.5598965883255,-0.6398676037788391,58.74496459960938,100.7457580566406,-26.32366943359375
254484,-0.33819580078125,0.486480712890625,0.2834320068359375,-1.799873232841492,-1.152112007141113,-0.4790707230567932,58.37474060058594,100.9844055175781,-25.62356567382812
254485,-0.2906341552734375,0.5417633056640625,0.228302001953125,-1.965898633003235,-0.4825125932693481,-0.3527255654335022,57.93338012695312,101.3056945800781,-25.02909851074219
254486,-0.2186279296875,0.61370849609375,0.115509033203125,-2.114396333694458,0.238388329744339,-0.3595328629016876,57.62451171875,101.7113800048828,-24.16525268554688
254487,-0.13629150390625,0.597015380859375,-0.1010894775390625,-2.080697536468506,0.6080681085586548,-0.4704686999320984,57.50152587890625,101.8013610839844,-23.07687377929688
254488,-0.0334014892578125,0.4223480224609375,-0.63873291015625,-1.856983304023743,0.033822413533926,-0.5427833795547485,57.41505432128906,101.9114990234375,-21.96572875976562
254489,-0.0334014892578125,0.4223480224609375,-0.63873291015625,-1.856983304023743,0.033822413533926,-0.5427833795547485,57.41505432128906,101.9114990234375,-21.96572875976562
254490,0.1808624267578125,0.1652679443359375,-0.676116943359375,-1.286548137664795,-2.492868185043335,-0.2231968641281128,56.95620727539062,102.3578796386719,-20.0028076171875
254491,0.193145751953125,0.173858642578125,-0.28466796875,-0.8196315169334412,-2.196669816970825,0.0401599369943141,56.68943786621094,102.4549713134766,-19.26844787597656
254492,0.226531982421875,0.164337158203125,-0.1884613037109375,-0.4690111577510834,-1.783946990966797,0.3873029947280884,56.53762817382812,102.4227905273438,-18.79396057128906
254493,0.226531982421875,0.164337158203125,-0.1884613037109375,-0.4690111577510834,-1.783946990966797,0.3873029947280884,56.53762817382812,102.4227905273438,-18.79396057128906
254494,0.29449462890625,0.125,-0.2226715087890625,-0.1615673303604126,-1.842200636863708,1.129154205322266,56.82255554199219,101.8844757080078,-18.14846801757812
254495,0.360382080078125,0.158843994140625,-0.22662353515625,-0.0461688265204429,-2.090228796005249,1.467203617095947,57.23057556152344,101.8776245117188,-18.04981994628906
254496,0.408111572265625,0.2899169921875,-0.21337890625,0.1080974414944649,-2.105921268463135,1.682141780853271,57.54359436035156,101.9947204589844,-17.86674499511719
254497,0.408111572265625,0.2899169921875,-0.21337890625,0.1080974414944649,-2.105921268463135,1.682141780853271,57.54359436035156,101.9947204589844,-17.86674499511719
254498,0.49462890625,0.6434783935546875,-0.3304290771484375,0.347440242767334,-1.691117644309998,1.54822039604187,58.68980407714844,101.8994293212891,-17.94970703125
254499,0.5972747802734375,0.8010406494140625,-0.4240264892578125,0.3642309606075287,-1.35145890712738,1.370325803756714,59.33238220214844,101.7008972167969,-18.20088195800781
254500,0.7183074951171875,1.041030883789062,-0.5542755126953125,0.4620105028152466,-0.5756773948669434,1.232239603996277,60.01777648925781,101.4684753417969,-18.42892456054688
254501,0.7183074951171875,1.041030883789062,-0.5542755126953125,0.4620105028152466,-0.5756773948669434,1.232239603996277,60.01777648925781,101.4684753417969,-18.42892456054688
254502,0.626190185546875,1.733932495117188,-1.249191284179688,0.8791456818580627,-0.0624849498271942,1.00687301158905,61.05427551269531,101.1790618896484,-18.82928466796875
254503,0.297821044921875,1.909805297851562,-0.47802734375,0.5561836361885071,-0.6539719700813293,0.5717518925666809,61.5235595703125,100.8405914306641,-19.04556274414062
254504,0.02716064453125,2.136566162109375,0.1575469970703125,-0.1927649229764938,0.2196948081254959,-0.9380691647529602,61.93968200683594,100.6609039306641,-19.24644470214844
254505,0.02716064453125,2.136566162109375,0.1575469970703125,-0.1927649229764938,0.2196948081254959,-0.9380691647529602,61.93968200683594,100.6609039306641,-19.24644470214844
254506,0.0579681396484375,3.034835815429688,0.035980224609375,-0.4055544137954712,-0.1096761599183083,-1.308007836341858,61.98138427734375,100.7634429931641,-19.80462646484375
254507,0.153900146484375,3.281326293945312,0.2485504150390625,-0.1932240575551987,-0.3424934446811676,-0.9110884666442872,61.56161499023438,100.8080596923828,-19.87704467773438
254508,0.2175750732421875,3.277877807617188,0.4501953125,0.4178675413131714,-0.0932569727301597,0.1100900173187256,61.08392333984375,100.9740142822266,-19.89730834960938
254509,0.2175750732421875,3.277877807617188,0.4501953125,0.4178675413131714,-0.0932569727301597,0.1100900173187256,61.08392333984375,100.9740142822266,-19.89730834960938
254510,0.45977783203125,2.490234375,0.2283172607421875,1.470467329025269,0.1723070591688156,1.523215174674988,60.76034545898438,101.0133819580078,-20.66539001464844
254511,0.45721435546875,2.137664794921875,0.292205810546875,1.487349390983582,0.0111413346603512,1.641021490097046,61.15646362304688,101.0021514892578,-21.1983642578125
254512,0.411773681640625,2.031341552734375,0.436920166015625,1.338449358940125,0.1086359322071075,1.501823902130127,61.84439086914062,100.7853546142578,-21.95387268066406
254513,0.411773681640625,2.031341552734375,0.436920166015625,1.338449358940125,0.1086359322071075,1.501823902130127,61.84439086914062,100.7853546142578,-21.95387268066406
254514,0.352783203125,2.177215576171875,0.5606231689453125,1.060971736907959,0.2094466984272003,0.740448534488678,63.11637878417969,100.0594329833984,-23.31440734863281
254515,0.2447357177734375,2.220993041992188,0.5978851318359375,0.9934248328208924,0.2413846552371979,0.2624918222427368,63.716064453125,99.7677764892578,-23.95046997070312
254516,0.10894775390625,2.169998168945312,0.561676025390625,0.8339952826499939,0.3828690946102142,-0.1429984271526337,64.09040832519531,99.58526611328124,-24.35835266113281
254517,0.10894775390625,2.169998168945312,0.561676025390625,0.8339952826499939,0.3828690946102142,-0.1429984271526337,64.09040832519531,99.58526611328124,-24.35835266113281
254518,-0.019012451171875,1.493301391601562,0.2135162353515625,0.2992208003997803,0.1901358515024185,-0.3978509604930878,64.389892578125,99.39259338378906,-25.11473083496094
254519,-0.0779266357421875,1.190231323242188,0.2215728759765625,0.1728711128234863,-0.0406172014772892,-0.3358160853385925,64.51824951171875,99.28565979003906,-25.32528686523438
254520,-0.131134033203125,0.9442901611328124,0.2449493408203125,0.1594687551259995,-0.2513739168643951,-0.2497336715459824,64.40644836425781,99.3338623046875,-25.59486389160156
254521,-0.131134033203125,0.9442901611328124,0.2449493408203125,0.1594687551259995,-0.2513739168643951,-0.2497336715459824,64.40644836425781,99.3338623046875,-25.59486389160156
254522,-0.1748504638671875,0.5416412353515625,0.2793731689453125,0.4173173308372498,-0.788048505783081,-0.0419682227075099,64.32400512695312,99.27296447753906,-25.63809204101562
254523,-0.1597747802734375,0.3996734619140625,0.3078460693359375,0.6346291303634644,-0.9431710243225098,0.0657507851719856,64.32284545898438,99.23513793945312,-25.8419189453125
254524,-0.136138916015625,0.2714385986328125,0.2776947021484375,0.90302175283432,-0.7948366403579712,0.055796418339014,64.22427368164062,99.04794311523438,-26.553955078125
254525,-0.136138916015625,0.2714385986328125,0.2776947021484375,0.90302175283432,-0.7948366403579712,0.055796418339014,64.22427368164062,99.04794311523438,-26.553955078125
254526,-0.1366424560546875,0.2534332275390625,0.1661376953125,0.8401221036911011,-0.754341185092926,-0.0557809732854366,64.25773620605469,98.89010620117188,-26.92311096191406
254527,-0.1626129150390625,0.30255126953125,0.0070953369140625,0.6286977529525757,-0.9696375131607056,-0.2530391812324524,64.22817993164062,98.81680297851562,-27.37083435058594
254528,-0.1734771728515625,0.4261474609375,-0.0714263916015625,0.3064238429069519,-1.363517165184021,-0.5420933365821838,64.09144592285156,98.81526184082033,-27.96861267089844
254529,-0.1734771728515625,0.4261474609375,-0.0714263916015625,0.3064238429069519,-1.363517165184021,-0.5420933365821838,64.09144592285156,98.81526184082033,-27.96861267089844
254530,-0.1572723388671875,0.562530517578125,0.0090179443359375,-0.1662534177303314,-1.684441924095154,-0.961470663547516,63.38638305664062,98.9123077392578,-28.77377319335938
254531,-0.17333984375,0.5646820068359375,0.020721435546875,-0.1624288558959961,-1.447709321975708,-1.025401473045349,62.78414916992188,99.10653686523438,-28.90689086914062
254532,-0.2052001953125,0.54254150390625,-0.0132904052734375,0.1137241646647453,-1.02393913269043,-0.9171660542488098,62.12701416015625,99.08357238769533,-29.01295471191406
254533,-0.2052001953125,0.54254150390625,-0.0132904052734375,0.1137241646647453,-1.02393913269043,-0.9171660542488098,62.12701416015625,99.08357238769533,-29.01295471191406
254534,-0.258636474609375,0.5389556884765625,0.072723388671875,0.3138380944728851,-0.7962766289710999,-0.7694154381752014,61.08683776855469,99.275146484375,-29.18733215332031
254535,-0.2890777587890625,0.580841064453125,0.1665802001953125,0.5231603980064392,-0.4809900522232056,-0.5951496362686157,60.61196899414062,99.33792114257812,-29.23733520507812
254536,-0.318572998046875,0.629669189453125,0.204437255859375,0.7106735706329346,-0.2337610870599747,-0.4021178781986237,60.25238037109375,99.40325927734376,-29.68492126464844
254537,-0.342041015625,0.683624267578125,0.2115478515625,0.8514602780342102,-0.1403837352991104,-0.2019496411085129,60.09664916992188,99.36996459960938,-30.12530517578125
254538,-0.3395538330078125,0.7333984375,0.24359130859375,0.9292991161346436,-0.165484294295311,0.0231745615601539,60.07199096679688,99.22987365722656,-30.45356750488281
254539,-0.301422119140625,0.7485198974609375,0.31549072265625,0.9339197278022766,-0.1416817605495453,0.2512146532535553,60.03303527832031,99.10121154785156,-30.82160949707031
254540,-0.200958251953125,0.761260986328125,0.3271331787109375,0.8199329376220703,-0.0600952953100204,0.3467390537261963,60.1593017578125,99.05494689941406,-31.29304504394531
254541,-0.200958251953125,0.761260986328125,0.3271331787109375,0.8199329376220703,-0.0600952953100204,0.3467390537261963,60.1593017578125,99.05494689941406,-31.29304504394531
254542,-0.1542510986328125,0.8985595703125,0.3526611328125,0.2206564694643021,-0.2725119590759277,0.186511293053627,60.41644287109375,98.9111785888672,-32.01861572265625
254543,-0.21661376953125,1.048370361328125,0.4264068603515625,-0.1957356780767441,-0.5435895323753357,0.0056437710300087,60.63392639160156,98.921630859375,-32.1356201171875
254544,-0.32452392578125,1.099029541015625,0.5508880615234375,-0.5984266996383667,-0.8692302107810974,-0.2433101236820221,60.80943298339844,98.89404296875,-32.17399597167969
254545,-0.32452392578125,1.099029541015625,0.5508880615234375,-0.5984266996383667,-0.8692302107810974,-0.2433101236820221,60.80943298339844,98.89404296875,-32.17399597167969
254546,-0.4714813232421875,0.93011474609375,0.7980804443359375,-1.324475169181824,-1.457926988601685,-0.5558291673660278,60.79632568359375,98.864990234375,-31.85366821289062
254547,-0.5113525390625,0.8369293212890625,0.9194183349609376,-1.552852988243103,-1.441234111785889,-0.6143731474876404,60.73934936523438,98.86506652832033,-31.44462585449219
254548,-0.5292510986328125,0.759857177734375,0.960784912109375,-1.612236142158508,-1.156875252723694,-0.5839654207229614,60.59716796875,98.98063659667967,-30.81648254394531
254549,-0.5292510986328125,0.759857177734375,0.960784912109375,-1.612236142158508,-1.156875252723694,-0.5839654207229614,60.59716796875,98.98063659667967,-30.81648254394531
254550,-0.4589996337890625,0.6967620849609375,0.7436981201171875,-1.514564990997314,-0.545656681060791,-0.4062902629375458,60.41970825195312,99.04037475585938,-29.67816162109375
254551,-0.3675079345703125,0.7085418701171875,0.5825958251953125,-1.638404369354248,-0.5283623933792114,-0.3475624918937683,60.28123474121094,99.18205261230467,-29.18354797363281
254552,-0.261505126953125,0.707427978515625,0.4449615478515625,-1.872065901756287,-0.6730132699012756,-0.3367279469966888,60.1793212890625,99.31016540527344,-28.7584228515625
254553,-0.261505126953125,0.707427978515625,0.4449615478515625,-1.872065901756287,-0.6730132699012756,-0.3367279469966888,60.1793212890625,99.31016540527344,-28.7584228515625
254554,-0.08270263671875,0.582366943359375,0.223297119140625,-2.234851837158203,-1.228536486625671,-0.4196806252002716,59.60345458984375,100.0631866455078,-27.53742980957031
254555,-0.05645751953125,0.497344970703125,0.126861572265625,-2.303119897842407,-1.427854657173157,-0.4988550841808319,59.02317810058594,100.5774536132812,-26.74923706054688
254556,-0.028289794921875,0.413116455078125,-0.034149169921875,-2.149659872055054,-2.25897479057312,-0.5870088934898376,58.32389831542969,101.0299530029297,-25.94187927246094
254557,0.09796142578125,0.28790283203125,-0.528839111328125,-2.149659872055054,-2.25897479057312,-0.5870088934898376,57.67318725585938,101.3194732666016,-25.15013122558594
254558,0.5717010498046875,0.0353240966796875,-1.866378784179688,-0.9238976836204528,-4.643278121948242,0.0927104949951171,56.82649230957031,101.5126342773438,-23.9398193359375
254559,0.732391357421875,0.0985107421875,-1.054092407226562,1.263190507888794,-4.6458420753479,1.045374870300293,55.95903015136719,101.9424285888672,-23.09913635253906
254560,0.46185302734375,0.2727203369140625,-0.359344482421875,2.321911811828613,-0.5350727438926697,1.201716303825378,55.1427001953125,102.0785369873047,-22.67070007324219
254561,0.46185302734375,0.2727203369140625,-0.359344482421875,2.321911811828613,-0.5350727438926697,1.201716303825378,55.1427001953125,102.0785369873047,-22.67070007324219
254562,0.35845947265625,0.311859130859375,-0.42437744140625,0.9995402693748474,-0.3073378503322601,0.9985783696174622,54.80616760253906,101.9975280761719,-23.84503173828125
254563,0.35845947265625,0.311859130859375,-0.42437744140625,0.9995402693748474,-0.3073378503322601,0.9985783696174622,54.80616760253906,101.9975280761719,-23.84503173828125
254564,0.47381591796875,0.4831085205078125,-0.611907958984375,-0.939939260482788,-1.365591764450073,0.9450061917304992,55.59634399414062,101.4409332275391,-24.89472961425781
254565,0.57159423828125,0.833648681640625,-1.005294799804688,-0.170894518494606,-2.02239990234375,0.7947282791137695,55.91522216796875,101.2123870849609,-24.81565856933594
254566,0.653656005859375,1.324325561523438,-0.960296630859375,-0.170894518494606,-2.02239990234375,0.7947282791137695,56.28453063964844,101.1882476806641,-24.135009765625
254567,0.6945953369140625,1.7528076171875,-0.8511199951171875,0.8402310609817505,-1.073786854743958,0.7138289213180542,56.56550598144531,101.1256866455078,-23.44210815429688
254568,0.4003143310546875,2.357574462890625,-0.45611572265625,1.377774119377136,-0.5799621939659119,0.2680668830871582,56.83602905273438,101.0408325195312,-23.32379150390625
254569,0.4003143310546875,2.357574462890625,-0.45611572265625,1.377774119377136,-0.5799621939659119,0.2680668830871582,56.83602905273438,101.0408325195312,-23.32379150390625
254570,0.0361328125,2.558349609375,-0.3897552490234375,1.442681789398193,-0.5309411287307739,-0.4188814163208008,56.91069030761719,100.9955291748047,-23.91438293457031
254571,0.0361328125,2.558349609375,-0.3897552490234375,1.442681789398193,-0.5309411287307739,-0.4188814163208008,56.91069030761719,100.9955291748047,-23.91438293457031
254572,-0.1303863525390625,2.657806396484375,-0.5480804443359375,1.428861856460571,-0.5790519118309021,-1.036986947059631,57.05105590820312,100.7376861572266,-24.72512817382812
254573,-0.1430511474609375,2.398345947265625,-0.5826263427734375,1.25523042678833,-0.5925437211990356,-1.134676575660706,56.8560791015625,100.5459747314453,-25.37509155273438
254574,0.0339813232421875,1.493087768554688,-0.0229644775390625,0.9644445776939392,0.4602770507335663,0.4349309504032135,56.27235412597656,100.2606201171875,-27.18421936035156
254575,0.3077545166015625,1.620941162109375,0.187042236328125,0.8612910509109497,0.7892895936965942,1.128785371780396,55.97459411621094,100.1076354980469,-27.83746337890625
254576,0.45269775390625,1.85125732421875,0.2547760009765625,0.7163336277008057,0.8352940678596497,1.408861994743347,56.21159362792969,100.0216369628906,-28.58387756347656
254577,0.45269775390625,1.85125732421875,0.2547760009765625,0.7163336277008057,0.8352940678596497,1.408861994743347,56.21159362792969,100.0216369628906,-28.58387756347656
254578,0.4267730712890625,2.339309692382812,0.1234130859375,0.6286048293113708,0.2350239604711533,1.202786564826965,57.30241394042969,99.76588439941406,-29.20431518554688
254579,0.35174560546875,2.581817626953125,-0.0015411376953125,0.7673190236091614,-0.1121747419238091,0.6283776760101318,57.96987915039062,99.66168212890624,-29.23466491699219
254580,0.107086181640625,2.619735717773438,-0.0402069091796875,1.023548364639282,-0.1462264508008957,-0.0444058142602443,58.46452331542969,99.68263244628906,-29.43441772460938
254581,0.107086181640625,2.619735717773438,-0.0402069091796875,1.023548364639282,-0.1462264508008957,-0.0444058142602443,58.46452331542969,99.68263244628906,-29.43441772460938
254582,-0.1461334228515625,2.328811645507812,0.15057373046875,1.331494808197021,0.4956222772598267,-0.785281777381897,58.777587890625,99.69686889648438,-30.26223754882812
254583,-0.1711578369140625,2.132736206054688,0.239959716796875,1.299705982208252,0.7523139715194702,-0.872622013092041,58.69068908691406,99.59930419921876,-30.86328125
254584,-0.195220947265625,1.912109375,0.2739105224609375,1.293208122253418,0.8220661282539368,-0.748065173625946,58.44877624511719,99.58926391601562,-31.65151977539062
254585,-0.2247161865234375,1.676910400390625,0.414581298828125,1.33332622051239,1.037228584289551,-0.1291409432888031,58.30606079101562,99.39407348632812,-32.29171752929688
254586,-0.265228271484375,1.388839721679688,0.5416107177734375,1.33332622051239,1.037228584289551,-0.1291409432888031,58.38414001464844,99.25544738769533,-32.98361206054688
254587,-0.2793426513671875,1.071533203125,0.483489990234375,1.283820986747742,0.9334701895713806,0.1319819986820221,58.52232360839844,98.98330688476562,-33.53443908691406
254588,-0.2837677001953125,0.84271240234375,0.438873291015625,1.118758320808411,0.1393973082304001,0.4207605421543121,58.79855346679688,98.59738159179688,-34.22271728515625
254589,-0.2837677001953125,0.84271240234375,0.438873291015625,1.118758320808411,0.1393973082304001,0.4207605421543121,58.79855346679688,98.59738159179688,-34.22271728515625
254590,-0.278778076171875,0.6325836181640625,0.531036376953125,0.8187704682350159,-0.1823988407850266,0.3617651164531708,59.57275390625,97.70570373535156,-35.23457336425781
254591,-0.2589874267578125,0.6285400390625,0.55706787109375,0.8187704682350159,-0.1823988407850266,0.3617651164531708,59.91506958007812,97.3671875,-35.68971252441406
254592,-0.214874267578125,0.6940765380859375,0.539398193359375,0.5568915009498596,-0.1781777292490005,0.1745901852846146,60.13066101074219,97.119140625,-36.1468505859375
254593,-0.214874267578125,0.6940765380859375,0.539398193359375,0.5568915009498596,-0.1781777292490005,0.1745901852846146,60.13066101074219,97.119140625,-36.1468505859375
254594,-0.1805572509765625,0.73419189453125,0.4809722900390625,0.019113240763545,-0.1673242747783661,-0.2966207563877106,60.49282836914062,96.74362182617188,-36.76924133300781
254595,-0.2006378173828125,0.697967529296875,0.445465087890625,-0.1817620694637299,-0.0098997689783573,-0.5189547538757324,60.54924011230469,96.76686096191406,-37.14126586914062
254596,-0.2198028564453125,0.64581298828125,0.3360748291015625,-0.4043498635292053,0.0470047928392887,-0.8423889875411987,60.5262451171875,96.60581970214844,-37.09048461914062
254597,-0.2319183349609375,0.580352783203125,0.193267822265625,-0.4043498635292053,0.0470047928392887,-0.8423889875411987,60.37467956542969,96.60928344726562,-37.207275390625
254598,-0.2391357421875,0.5146942138671875,-0.01263427734375,-0.4218945205211639,-0.2022825330495834,-0.9559222459793092,60.16299438476562,96.60772705078124,-37.0196533203125
254599,-0.2391357421875,0.5146942138671875,-0.01263427734375,-0.4218945205211639,-0.2022825330495834,-0.9559222459793092,60.16299438476562,96.60772705078124,-37.0196533203125
254600,-0.3733062744140625,0.24774169921875,-0.660858154296875,-0.3552036285400391,-3.044361591339111,-0.8595871925354004,59.66217041015625,96.87286376953124,-36.680908203125
254601,-0.5498504638671875,0.146575927734375,-0.0010833740234375,-0.2836809754371643,-2.667446851730347,-0.4649173617362976,59.14764404296875,96.94085693359376,-36.69894409179688
254602,-0.5841522216796875,0.020355224609375,0.14202880859375,-0.3455872237682343,-0.6705242991447449,0.0408523567020893,58.39897155761719,97.0861358642578,-36.77578735351562
254603,-0.42626953125,0.1724853515625,-0.186279296875,-0.3404209613800049,-0.0377665534615516,0.3425376415252686,57.45866394042969,97.25729370117188,-36.94581604003906
254604,-0.32049560546875,0.4335784912109375,-0.0989837646484375,-0.2615852653980255,-0.2124012112617493,0.1960291564464569,57.1710205078125,97.17152404785156,-37.09220886230469
254605,-0.32049560546875,0.4335784912109375,-0.0989837646484375,-0.2615852653980255,-0.2124012112617493,0.1960291564464569,57.1710205078125,97.17152404785156,-37.09220886230469
254606,-0.2758026123046875,0.6325531005859375,0.36663818359375,-0.2163546681404114,0.0650072321295738,0.016865000128746,57.59402465820312,97.06208801269533,-36.89474487304688
254607,-0.2758026123046875,0.6325531005859375,0.36663818359375,-0.2163546681404114,0.0650072321295738,0.016865000128746,57.59402465820312,97.06208801269533,-36.89474487304688
254608,-0.199127197265625,0.6815185546875,0.4411773681640625,-0.1714860051870346,0.9461731910705566,-0.1307513564825058,57.998779296875,97.09817504882812,-36.66935729980469
254609,-0.199127197265625,0.6815185546875,0.4411773681640625,-0.1714860051870346,0.9461731910705566,-0.1307513564825058,57.998779296875,97.09817504882812,-36.66935729980469
254610,-0.2213287353515625,0.73895263671875,0.4110870361328125,-0.2399734556674957,0.8228552341461182,-0.2126973569393158,58.22554016113281,97.47311401367188,-36.31391906738281
254611,-0.2790069580078125,0.7264862060546875,0.435791015625,-0.2399734556674957,0.8228552341461182,-0.2126973569393158,58.42918395996094,97.63600158691406,-36.21815490722656
254612,-0.323760986328125,0.72808837890625,0.43463134765625,-0.7808526754379272,0.2327344417572021,-0.3134852051734924,58.67314147949219,97.90289306640624,-36.1669921875
254613,-0.3390960693359375,0.7141265869140625,0.422821044921875,-0.7808526754379272,0.2327344417572021,-0.3134852051734924,58.8702392578125,98.03305053710938,-36.00038146972656
254614,-0.3179779052734375,0.687896728515625,0.3744659423828125,-1.153353214263916,-0.2058769911527634,-0.3444133102893829,58.97991943359375,98.15876770019533,-35.9676513671875
254615,-0.2646331787109375,0.6748809814453125,0.3711395263671875,-1.47715425491333,-0.63038170337677,-0.4058636128902435,59.11415100097656,98.31427001953124,-35.78640747070312
254616,-0.2119598388671875,0.6546173095703125,0.4156646728515625,-1.750041723251343,-0.6619492173194885,-0.448302149772644,59.04898071289062,98.51463317871094,-35.53816223144531
254617,-0.1488189697265625,0.5865936279296875,0.3419647216796875,-2.076590776443481,-0.2375686168670654,-0.4392018616199493,58.91888427734375,98.60121154785156,-35.02127075195312
254618,-0.0631561279296875,0.4686279296875,-0.0247039794921875,-2.076590776443481,-0.2375686168670654,-0.4392018616199493,58.65028381347656,98.8640594482422,-34.35369873046875
254619,0.06292724609375,0.2842559814453125,-0.509063720703125,-2.001483678817749,-0.8545572757720947,-0.3586399257183075,58.48420715332031,99.0560302734375,-33.65939331054688
254620,0.1830291748046875,0.1412200927734375,-0.58203125,-0.9868463277816772,-1.416278600692749,0.0019076223252341,58.11607360839844,99.43212890625,-32.68766784667969
254621,0.1830291748046875,0.1412200927734375,-0.58203125,-0.9868463277816772,-1.416278600692749,0.0019076223252341,58.11607360839844,99.43212890625,-32.68766784667969
254622,0.3378448486328125,0.0654144287109375,-0.1228179931640625,-0.3316008448600769,-0.2424967885017395,0.519806444644928,56.80728149414062,100.2568054199219,-30.29756164550781
254623,0.343780517578125,0.10638427734375,-0.0905914306640625,-0.3316008448600769,-0.2424967885017395,0.519806444644928,56.38888549804688,100.3528900146484,-29.88490295410156
254624,0.358123779296875,0.16326904296875,-0.1729736328125,-0.4086524844169617,-0.0195060577243566,0.7058660387992859,56.27096557617188,100.5926513671875,-29.6927490234375
254625,0.358123779296875,0.16326904296875,-0.1729736328125,-0.4086524844169617,-0.0195060577243566,0.7058660387992859,56.27096557617188,100.5926513671875,-29.6927490234375
254626,0.444915771484375,0.2816619873046875,-0.4032135009765625,-0.7005013823509216,-0.2923122942447662,0.9322909116744996,56.39450073242188,100.7501220703125,-28.88525390625
254627,0.476165771484375,0.4031829833984375,-0.388153076171875,-0.7287476658821106,-0.413154274225235,0.9506784677505492,56.64906311035156,100.849853515625,-28.36489868164062
254628,0.475128173828125,0.5827484130859375,-0.292144775390625,-0.7070050835609436,-0.3804546594619751,0.9170385003089904,56.93061828613281,100.9192047119141,-27.99237060546875
254629,0.4378814697265625,0.7565460205078125,-0.2115325927734375,-0.677828311920166,-0.2970154285430908,0.8588294982910156,57.25566101074219,101.0575256347656,-27.60783386230469
254630,0.359222412109375,0.8917083740234375,-0.1981353759765625,-0.604170560836792,-0.3108436167240143,0.7786529064178467,57.51824951171875,100.9675598144531,-27.13116455078125
254631,0.2581787109375,0.9755096435546876,-0.2474822998046875,-0.4301838576793671,-0.4974984526634216,0.7164846062660217,57.78102111816406,100.9027404785156,-26.5855712890625
254632,0.189605712890625,1.08172607421875,-0.2907562255859375,-0.1867831945419312,-0.6662701964378357,0.7030436396598816,58.09773254394531,100.8994293212891,-26.19317626953125
254633,0.189605712890625,1.08172607421875,-0.2907562255859375,-0.1867831945419312,-0.6662701964378357,0.7030436396598816,58.09773254394531,100.8994293212891,-26.19317626953125
254634,0.2481689453125,1.544540405273438,-0.35003662109375,0.186009556055069,-0.515995979309082,0.8047707676887512,58.41050720214844,100.8591766357422,-25.92823791503906
254635,0.3134613037109375,1.841644287109375,-0.1972198486328125,0.2486084848642349,-0.3274993002414703,0.9061269760131836,58.70921325683594,100.8117065429688,-26.01437377929688
254636,0.3023529052734375,2.077285766601562,0.20880126953125,0.2242906242609024,-0.1665029674768448,0.929414689540863,58.92156982421875,100.6090240478516,-25.97242736816406
254637,0.2550048828125,2.25982666015625,0.6150360107421875,0.1868979781866074,0.1934392303228378,0.8874057531356812,59.21206665039062,100.3937683105469,-26.03451538085938
254638,0.1945953369140625,2.551803588867188,0.6552886962890625,0.1298288404941559,0.5463576316833496,0.861193835735321,59.51931762695312,100.2057495117188,-26.14190673828125
254639,0.17596435546875,3.027725219726562,0.388641357421875,0.0302423238754272,0.5063428282737732,0.8173955082893372,59.96138000488281,100.0441284179688,-26.16819763183594
254640,0.318603515625,3.397064208984375,0.1405792236328125,-0.0119860889390111,0.1361381262540817,0.8328069448471069,60.25480651855469,99.96136474609376,-26.16021728515625
254641,0.5417938232421875,3.28997802734375,0.2163848876953125,0.1425307840108871,0.1065544039011002,0.9360848665237428,60.51686096191406,99.8160400390625,-26.25079345703125
254642,0.533477783203125,2.685958862304688,0.3458251953125,0.5179930925369263,0.4918501675128937,0.8506386876106262,60.91184997558594,99.749755859375,-26.27241516113281
254643,0.3282928466796875,2.313018798828125,0.34075927734375,0.9799116849899292,0.7626273036003113,0.7803727984428406,61.31889343261719,99.72077941894533,-26.32012939453125
254644,0.1333160400390625,2.276992797851562,0.32354736328125,1.366013646125793,0.9172933101654052,0.688892662525177,61.68214416503906,99.5941925048828,-26.5760498046875
254645,0.1333160400390625,2.276992797851562,0.32354736328125,1.366013646125793,0.9172933101654052,0.688892662525177,61.68214416503906,99.5941925048828,-26.5760498046875
254646,-0.0487213134765625,2.230194091796875,0.21380615234375,1.496030688285828,1.173302173614502,0.3098316192626953,62.62017822265625,99.1548309326172,-27.60540771484375
254647,-0.0487213134765625,2.230194091796875,0.21380615234375,1.496030688285828,1.173302173614502,0.3098316192626953,62.62017822265625,99.1548309326172,-27.60540771484375
254648,-0.0699310302734375,1.938980102539062,0.1226348876953125,1.065245747566223,0.9710588455200196,-0.0713551416993141,63.27534484863281,98.81324768066406,-28.52560424804688
254649,-0.0648651123046875,1.694473266601562,0.1547088623046875,0.8455269932746887,0.8005384802818298,-0.1261467486619949,63.45687866210938,98.79296875,-28.91542053222656
254650,-0.0474700927734375,1.404754638671875,0.21453857421875,0.6842486262321472,0.6648248434066772,-0.1304640024900436,63.67103576660156,98.7508544921875,-29.20901489257812
254651,-0.0456390380859375,1.108612060546875,0.2558135986328125,0.5709593892097473,0.5524581074714661,-0.0791478157043457,63.74510192871094,98.71473693847656,-29.58349609375
254652,-0.07757568359375,0.8749542236328125,0.2562408447265625,0.531772255897522,0.4765606820583344,0.016225840896368,63.89363098144531,98.6102294921875,-29.69102478027344
254653,-0.07757568359375,0.8749542236328125,0.2562408447265625,0.531772255897522,0.4765606820583344,0.016225840896368,63.89363098144531,98.6102294921875,-29.69102478027344
254654,-0.2384033203125,0.6534881591796875,0.2217254638671875,0.4596442878246307,0.0136774629354476,0.1632331311702728,64.26498413085938,98.28160095214844,-29.82514953613281
254655,-0.3445587158203125,0.67840576171875,0.3292388916015625,0.3028019368648529,-0.1561912000179291,0.0208142008632421,64.48480224609375,98.31039428710938,-30.18936157226562
254656,-0.4323577880859375,0.7592315673828125,0.442535400390625,0.064270332455635,-0.1473300606012344,-0.2566885054111481,64.50816345214844,98.23748779296876,-30.33436584472656
254657,-0.4323577880859375,0.7592315673828125,0.442535400390625,0.064270332455635,-0.1473300606012344,-0.2566885054111481,64.50816345214844,98.23748779296876,-30.33436584472656
254658,-0.57427978515625,0.9274749755859376,0.34930419921875,-0.2788617312908173,-0.0248017534613609,-0.9270967245101928,64.47280883789062,98.24288940429688,-30.50991821289062
254659,-0.5878448486328125,0.844207763671875,0.089691162109375,-0.0943512693047523,-0.8577168583869934,-1.282432198524475,64.27377319335938,98.32609558105467,-30.41575622558594
254660,-0.57879638671875,0.6892242431640625,-0.0563812255859375,0.0458844006061554,-1.033129096031189,-1.179856300354004,63.84346008300781,98.53736877441406,-30.40946960449219
254661,-0.57879638671875,0.6892242431640625,-0.0563812255859375,0.0458844006061554,-1.033129096031189,-1.179856300354004,63.84346008300781,98.53736877441406,-30.40946960449219
254662,-0.660400390625,0.2707672119140625,0.0706787109375,0.0890185534954071,-0.4372439086437225,-0.7327322959899902,62.69548034667969,98.86044311523438,-30.72731018066406
254663,-0.660400390625,0.2707672119140625,0.0706787109375,0.0890185534954071,-0.4372439086437225,-0.7327322959899902,62.69548034667969,98.86044311523438,-30.72731018066406
254664,-0.377471923828125,0.33819580078125,-0.2805023193359375,0.3502022325992584,0.2938017845153809,-0.1734388917684555,61.68840026855469,98.9448699951172,-30.90304565429688
254665,-0.3367767333984375,0.3966522216796875,-0.181304931640625,0.3502022325992584,0.2938017845153809,-0.1734388917684555,61.59800720214844,98.87828063964844,-31.00300598144531
254666,-0.3260040283203125,0.3663177490234375,-0.039947509765625,0.4986936748027802,0.2314452081918716,-0.2049544751644135,61.7584228515625,98.70541381835938,-30.92274475097656
254667,-0.3092041015625,0.319732666015625,0.024688720703125,0.5380706787109375,0.3149435520172119,-0.2415993064641953,61.85066223144531,98.62608337402344,-31.29310607910156
254668,-0.274658203125,0.21514892578125,0.0313568115234375,0.4509101808071136,0.6100394129753113,-0.3114252686500549,61.763916015625,98.6407470703125,-31.95423889160156
254669,-0.274658203125,0.21514892578125,0.0313568115234375,0.4509101808071136,0.6100394129753113,-0.3114252686500549,61.763916015625,98.6407470703125,-31.95423889160156
254670,-0.254547119140625,0.20123291015625,0.048431396484375,0.3809542655944824,0.7499203085899353,-0.3350048959255219,61.8427734375,98.55349731445312,-32.08433532714844
254671,-0.2311248779296875,0.202545166015625,0.082763671875,0.3028605282306671,0.8699303269386292,-0.3354818522930145,61.91456604003906,98.53604125976562,-32.2745361328125
254672,-0.204742431640625,0.24017333984375,0.1379241943359375,0.2498215585947037,0.986801028251648,-0.3079775273799896,61.95858764648438,98.42691040039062,-32.32084655761719
254673,-0.204742431640625,0.24017333984375,0.1379241943359375,0.2498215585947037,0.986801028251648,-0.3079775273799896,61.95858764648438,98.42691040039062,-32.32084655761719
254674,-0.19970703125,0.4354705810546875,0.2306365966796875,0.2072509229183197,1.082990169525146,-0.1037138774991035,62.28736877441406,98.28689575195312,-32.31881713867188
254675,-0.2479248046875,0.594390869140625,0.2814178466796875,0.2072509229183197,1.082990169525146,-0.1037138774991035,62.45936584472656,98.28704833984376,-32.27809143066406
254676,-0.3084869384765625,0.7239990234375,0.35638427734375,0.0272499974817037,0.834371030330658,-0.3208083808422089,62.72274780273438,98.41160583496094,-32.34188842773438
254677,-0.3084869384765625,0.7239990234375,0.35638427734375,0.0272499974817037,0.834371030330658,-0.3208083808422089,62.72274780273438,98.41160583496094,-32.34188842773438
254678,-0.3611907958984375,0.748138427734375,0.3971405029296875,-0.2205068022012711,0.6473231315612793,-0.4668257832527161,63.10737609863281,98.43756103515624,-32.32441711425781
254679,-0.279266357421875,0.64910888671875,0.3534088134765625,-0.5270664691925049,0.3514925241470337,-0.5977914929389954,63.06044006347656,98.47601318359376,-32.201416015625
254680,-0.1188507080078125,0.409393310546875,0.3132171630859375,-0.9056649208068848,-0.2934215068817139,-0.6757291555404663,62.73580932617188,98.76350402832033,-31.89263916015625
254681,-0.1188507080078125,0.409393310546875,0.3132171630859375,-0.9056649208068848,-0.2934215068817139,-0.6757291555404663,62.73580932617188,98.76350402832033,-31.89263916015625
254682,-0.0753021240234375,0.324798583984375,0.288421630859375,-0.9750258922576904,-0.5703457593917847,-0.6623010039329529,62.45393371582031,98.9182586669922,-31.64933776855469
254683,-0.0411376953125,0.2619171142578125,0.2477264404296875,-1.061352252960205,-0.8761211633682251,-0.6440469026565552,62.119140625,99.3237762451172,-31.36079406738281
254684,-0.009002685546875,0.2055816650390625,0.2007904052734375,-1.192887663841248,-1.199485301971436,-0.6166778206825256,61.72737121582031,99.46786499023438,-30.96476745605469
254685,-0.009002685546875,0.2055816650390625,0.2007904052734375,-1.192887663841248,-1.199485301971436,-0.6166778206825256,61.72737121582031,99.46786499023438,-30.96476745605469
254686,0.04583740234375,0.127960205078125,0.117156982421875,-1.561495542526245,-1.743919610977173,-0.5421333312988281,60.75819396972656,99.8335418701172,-30.19992065429688
254687,0.0821990966796875,0.0780029296875,0.105316162109375,-1.747758030891418,-1.862417221069336,-0.4739452004432678,60.25709533691406,99.95794677734376,-29.49838256835938
254688,0.135162353515625,0.0419921875,0.0843658447265625,-1.828382611274719,-1.791869878768921,-0.3076212108135223,59.74195861816406,100.2449340820312,-28.77114868164062
254689,0.135162353515625,0.0419921875,0.0843658447265625,-1.828382611274719,-1.791869878768921,-0.3076212108135223,59.74195861816406,100.2449340820312,-28.77114868164062
254690,0.572021484375,0.0596160888671875,-1.159423828125,0.5968266725540161,-2.65221381187439,1.240626931190491,58.28543090820312,101.0907287597656,-27.16891479492188
254691,0.5434112548828125,0.389892578125,-0.7741546630859375,0.5968266725540161,-2.65221381187439,1.240626931190491,57.66789245605469,101.5556640625,-26.46015930175781
254692,0.360931396484375,0.54681396484375,-0.1571044921875,0.7791322469711304,-0.6224886178970337,1.036012530326843,57.21327209472656,101.9755859375,-26.23307800292969
254693,0.360931396484375,0.54681396484375,-0.1571044921875,0.7791322469711304,-0.6224886178970337,1.036012530326843,57.21327209472656,101.9755859375,-26.23307800292969
254694,0.2888031005859375,0.5586090087890625,-0.23199462890625,0.4978952705860138,0.1847988814115524,0.8088555335998535,57.54327392578125,101.7775573730469,-26.5595703125
254695,0.2086944580078125,0.6272430419921875,-0.2096405029296875,0.0809124261140823,-0.2128997594118118,0.7204843759536743,57.93449401855469,101.4421997070312,-26.71620178222656
254696,0.0919189453125,0.7701416015625,-0.3347625732421875,-0.3504946231842041,-1.510612607002258,0.4029562473297119,58.27386474609375,101.0885772705078,-26.77046203613281
254697,0.0919189453125,0.7701416015625,-0.3347625732421875,-0.3504946231842041,-1.510612607002258,0.4029562473297119,58.27386474609375,101.0885772705078,-26.77046203613281
254698,0.1002960205078125,1.282913208007812,-0.5341949462890625,-0.1575635224580765,-1.705509424209595,0.3220368921756744,58.65586853027344,100.9867401123047,-26.73095703125
254699,0.1002960205078125,1.282913208007812,-0.5341949462890625,-0.1575635224580765,-1.705509424209595,0.3220368921756744,58.65586853027344,100.9867401123047,-26.73095703125
254700,0.3822174072265625,1.862213134765625,-0.1925506591796875,-0.0257112216204404,1.171162605285645,1.016583919525146,58.36135864257812,100.9601745605469,-26.43215942382812
254701,0.3822174072265625,1.862213134765625,-0.1925506591796875,-0.0257112216204404,1.171162605285645,1.016583919525146,58.36135864257812,100.9601745605469,-26.43215942382812
254702,0.185455322265625,2.613616943359375,0.0599365234375,-0.2502756118774414,1.090670943260193,0.9593800902366638,58.720458984375,100.8121490478516,-26.46975708007812
254703,-0.0102386474609375,3.41802978515625,0.0323638916015625,-0.2223835438489914,0.864173412322998,0.6359758973121643,59.23773193359375,100.6394653320312,-26.31033325195312
254704,-0.1564788818359375,4.151229858398438,0.0816650390625,0.1007417887449265,1.039334058761597,0.1644637733697891,59.65611267089844,100.5099334716797,-26.19383239746094
254705,-0.1564788818359375,4.151229858398438,0.0816650390625,0.1007417887449265,1.039334058761597,0.1644637733697891,59.65611267089844,100.5099334716797,-26.19383239746094
254706,-0.264129638671875,3.361679077148438,-0.1502227783203125,1.046628475189209,1.738723039627075,0.2415060997009277,60.23976135253906,100.5179595947266,-26.60319519042969
254707,-0.264129638671875,3.361679077148438,-0.1502227783203125,1.046628475189209,1.738723039627075,0.2415060997009277,60.23976135253906,100.5179595947266,-26.60319519042969
254708,-0.2493133544921875,2.138671875,-0.1024322509765625,1.400139093399048,1.797279834747314,0.4459351301193237,60.81727600097656,100.4057312011719,-27.32450866699219
254709,-0.32080078125,2.08880615234375,-0.0558929443359375,1.296171188354492,1.612866044044495,0.2475272417068481,61.18865966796875,100.2235717773438,-27.65353393554688
254710,-0.3823394775390625,2.19134521484375,-0.036956787109375,1.098410606384277,1.384047150611877,-0.0106180235743522,61.59388732910156,99.93759155273438,-27.99945068359375
254711,-0.432830810546875,2.21697998046875,-0.0487518310546875,0.8893384337425232,1.148582458496094,-0.2589836120605469,61.92402648925781,99.94065856933594,-28.43144226074219
254712,-0.490478515625,1.968643188476562,-0.071563720703125,0.7442669868469238,0.9942347407341005,-0.4538513720035553,62.22622680664062,99.7852783203125,-28.9781494140625
254713,-0.490478515625,1.968643188476562,-0.071563720703125,0.7442669868469238,0.9942347407341005,-0.4538513720035553,62.22622680664062,99.7852783203125,-28.9781494140625
254714,-0.749786376953125,1.228103637695312,-0.182525634765625,0.5970926880836487,0.966616690158844,-0.1837458610534668,62.57267761230469,99.421142578125,-29.55439758300781
254715,-0.819305419921875,1.032958984375,-0.13934326171875,0.5653659105300903,0.8657246828079224,0.1238774731755257,62.67887878417969,99.30812072753906,-29.70240783691406
254716,-0.73779296875,0.9338226318359376,-0.0592041015625,0.753831684589386,0.4263332188129425,0.350531131029129,62.92765808105469,99.12443542480467,-30.02493286132812
254717,-0.73779296875,0.9338226318359376,-0.0592041015625,0.753831684589386,0.4263332188129425,0.350531131029129,62.92765808105469,99.12443542480467,-30.02493286132812
254718,-0.3993682861328125,0.72796630859375,0.152984619140625,0.9456703662872314,0.3380486071109772,0.3486232161521912,63.45143127441406,98.68008422851562,-30.354248046875
254719,-0.2582244873046875,0.673187255859375,0.1878662109375,1.119507431983948,0.4205405712127686,0.2989611327648163,63.78421020507812,98.3622589111328,-30.51504516601562
254720,-0.148681640625,0.6523284912109375,0.17193603515625,1.230204701423645,0.5800244808197021,0.2045560628175735,64.01408386230469,98.03721618652344,-30.94978332519531
254721,-0.0482025146484375,0.6125946044921875,0.0923614501953125,1.173943758010864,0.4445843696594238,0.1001905128359795,64.13206481933594,97.85725402832033,-31.51425170898438
254722,0.0352783203125,0.5793304443359375,-0.034088134765625,1.173943758010864,0.4445843696594238,0.1001905128359795,64.22091674804688,97.6316375732422,-31.94668579101562
254723,0.097564697265625,0.5938720703125,-0.139556884765625,1.026440858840942,-0.0472109206020832,0.1171889379620552,64.34169006347656,97.40740966796876,-32.41561889648438
254724,0.082977294921875,0.7562408447265625,-0.189178466796875,0.8160284757614136,-0.6248462796211243,-0.0081583280116319,64.41647338867188,97.07090759277344,-32.81852722167969
254725,0.082977294921875,0.7562408447265625,-0.189178466796875,0.8160284757614136,-0.6248462796211243,-0.0081583280116319,64.41647338867188,97.07090759277344,-32.81852722167969
254726,-0.0853424072265625,0.8680572509765625,-0.2902984619140625,0.3611563444137573,-1.050295352935791,-0.7191131711006165,64.09202575683594,96.84303283691406,-33.68165588378906
254727,-0.262481689453125,0.716888427734375,-0.3966217041015625,0.2775373458862305,-0.6066827178001404,-0.743294894695282,63.71821594238281,96.84918212890624,-34.15985107421875
254728,-0.32763671875,0.6126708984375,-0.4156036376953125,0.6319148540496826,-0.2434909492731094,-0.5307552218437195,63.18388366699219,96.85124206542967,-34.39817810058594
254729,-0.32763671875,0.6126708984375,-0.4156036376953125,0.6319148540496826,-0.2434909492731094,-0.5307552218437195,63.18388366699219,96.85124206542967,-34.39817810058594
254730,-0.1710052490234375,0.58966064453125,-0.1002655029296875,0.7667544484138489,-0.1129031181335449,-0.3687958717346191,62.45545959472656,97.0395965576172,-34.98329162597656
254731,-0.1748504638671875,0.581695556640625,-0.04180908203125,0.7667544484138489,-0.1129031181335449,-0.3687958717346191,62.21876525878906,96.92315673828124,-35.32182312011719
254732,-0.172637939453125,0.56695556640625,-0.015594482421875,0.6133195757865906,0.0658916682004928,-0.2908989489078522,61.99169921875,96.81454467773438,-35.63771057128906
254733,-0.172637939453125,0.56695556640625,-0.015594482421875,0.6133195757865906,0.0658916682004928,-0.2908989489078522,61.99169921875,96.81454467773438,-35.63771057128906
254734,-0.1597900390625,0.48504638671875,0.0371246337890625,0.4941029250621796,0.2085207253694534,-0.2963030338287354,61.76211547851562,96.5535888671875,-36.29180908203125
254735,-0.1354827880859375,0.4132843017578125,0.043975830078125,0.3771166503429413,0.3139528632164001,-0.2738368809223175,61.71014404296875,96.52288818359376,-36.56355285644531
254736,-0.0914764404296875,0.37841796875,0.041961669921875,0.2246770560741425,0.3300290405750275,-0.2267812192440033,61.6309814453125,96.5468292236328,-36.71650695800781
254737,-0.0914764404296875,0.37841796875,0.041961669921875,0.2246770560741425,0.3300290405750275,-0.2267812192440033,61.6309814453125,96.5468292236328,-36.71650695800781
254738,0.0348358154296875,0.418365478515625,0.062713623046875,-0.0957851186394691,0.101484015583992,-0.0533899888396263,61.58566284179688,96.73309326171876,-36.95597839355469
254739,0.086090087890625,0.4580230712890625,0.091064453125,-0.1714740097522736,-0.1426831185817719,0.0424542501568794,61.60272216796875,96.76795959472656,-36.77085876464844
254740,0.0988311767578125,0.5353546142578125,0.168548583984375,-0.1775468289852142,-0.4396511316299438,0.1129467934370041,61.67068481445312,96.96267700195312,-36.72557067871094
254741,0.0988311767578125,0.5353546142578125,0.168548583984375,-0.1775468289852142,-0.4396511316299438,0.1129467934370041,61.67068481445312,96.96267700195312,-36.72557067871094
254742,-0.115264892578125,0.968170166015625,0.459075927734375,-0.2889569699764252,-1.219384789466858,-0.4956435561180115,61.77273559570312,97.11846923828124,-36.5484619140625
254743,-0.29827880859375,1.03118896484375,0.68505859375,-0.5774345993995667,-1.479389190673828,-0.8206456303596497,61.61589050292969,97.2069091796875,-36.28353881835938
254744,-0.43682861328125,1.097732543945312,0.863677978515625,-1.421914100646973,-1.149662375450134,-1.544792890548706,61.37985229492188,97.23454284667967,-36.308349609375
254745,-0.553863525390625,1.114639282226562,0.9607696533203124,-1.421914100646973,-1.149662375450134,-1.544792890548706,60.90707397460938,97.3555145263672,-36.19155883789062
254746,-0.6393890380859375,1.024429321289062,0.9857330322265624,-1.687947154045105,-0.638006865978241,-1.829615831375122,60.16749572753906,97.66506958007812,-35.98989868164062
254747,-0.6393890380859375,1.024429321289062,0.9857330322265624,-1.687947154045105,-0.638006865978241,-1.829615831375122,60.16749572753906,97.66506958007812,-35.98989868164062
254748,-0.712432861328125,0.9321441650390624,0.9135589599609376,-1.553408265113831,0.6257531046867371,-1.527196407318115,59.37385559082031,98.17521667480467,-35.57170104980469
254749,-0.807769775390625,0.8423309326171875,0.3987884521484375,-1.457936644554138,0.9879065155982972,-1.111929893493652,57.66912841796875,99.25491333007812,-34.50636291503906
254750,-0.6666412353515625,0.8323974609375,0.085723876953125,-1.420391321182251,0.9606035351753236,-0.8516309857368469,57.07878112792969,99.77996826171876,-33.73356628417969
254751,-0.441986083984375,0.8127593994140625,-0.1795501708984375,-1.371163129806519,0.5357222557067871,-0.8204994201660156,56.62992858886719,100.1910552978516,-32.98951721191406
254752,-0.2516632080078125,0.6346435546875,-0.36541748046875,-1.267137408256531,-0.0420901961624622,-0.7568397521972656,56.23895263671875,100.6844329833984,-32.28294372558594
254753,-0.1057281494140625,0.4356536865234375,-0.4939727783203125,-1.057819604873657,-0.8184253573417664,-0.5655025243759155,55.95034790039062,101.0902099609375,-31.676513671875
254754,-0.00958251953125,0.292388916015625,-0.434112548828125,-0.84385746717453,-1.500019311904907,-0.3093370795249939,55.60197448730469,101.3206634521484,-30.96122741699219
254755,0.0407257080078125,0.2029571533203125,-0.26708984375,-0.6554710268974304,-1.930059194564819,0.1562884002923965,55.30419921875,101.4173431396484,-30.34213256835938
254756,0.077667236328125,0.137420654296875,-0.112152099609375,-0.6554710268974304,-1.930059194564819,0.1562884002923965,54.95486450195312,101.5365905761719,-29.96015930175781
254757,0.077667236328125,0.137420654296875,-0.112152099609375,-0.6554710268974304,-1.930059194564819,0.1562884002923965,54.95486450195312,101.5365905761719,-29.96015930175781
254758,0.2274017333984375,0.001983642578125,-0.078033447265625,-0.5022178292274475,-1.634526610374451,0.7767716646194458,54.42625427246094,101.5212249755859,-29.09356689453125
254759,0.3150177001953125,-0.00030517578125,-0.1656646728515625,-0.284599244594574,-1.474411964416504,1.197801947593689,54.22296142578125,101.4498291015625,-28.67703247070312
254760,0.4096221923828125,0.0853424072265625,-0.2535552978515625,0.1493082642555237,-1.274802684783936,1.929159760475159,54.1910400390625,101.5492858886719,-28.25572204589844
254761,0.46533203125,0.2605438232421875,-0.3035125732421875,0.1493082642555237,-1.274802684783936,1.929159760475159,54.28211975097656,101.4235534667969,-27.828125
254762,0.48492431640625,0.4796905517578125,-0.3231201171875,0.1466493606567383,-1.280460596084595,1.953548789024353,54.55288696289062,101.3987884521484,-27.70199584960938
254763,0.48492431640625,0.4796905517578125,-0.3231201171875,0.1466493606567383,-1.280460596084595,1.953548789024353,54.55288696289062,101.3987884521484,-27.70199584960938
254764,0.5235748291015625,0.8776702880859375,-0.4101409912109375,0.0671329647302627,-1.378093481063843,1.697405695915222,55.72500610351562,101.014892578125,-27.39811706542969
254765,0.5634613037109375,1.036758422851562,-0.4633026123046875,0.0630620568990707,-1.347211122512817,1.374986290931702,56.3642578125,100.8213806152344,-27.20683288574219
254766,0.5739288330078125,1.204299926757812,-0.505462646484375,0.2381348013877869,-0.8425562381744385,1.074414491653442,57.07020568847656,100.5601501464844,-27.06489562988281
254767,0.4087066650390625,1.398712158203125,-0.6131134033203125,0.5092789530754089,0.1358007043600082,0.8087258338928223,57.55628967285156,100.3327331542969,-26.96266174316406
254768,0.103057861328125,1.5281982421875,-0.815582275390625,0.7456755042076111,0.9928323030471802,0.6341204643249512,57.91490173339844,100.2513427734375,-27.11717224121094
254769,-0.1072235107421875,1.686569213867188,-0.986724853515625,0.5683859586715698,0.9408506155014038,-0.159167543053627,58.10664367675781,100.2339935302734,-27.52645874023438
254770,-0.2017822265625,1.855758666992188,-0.9568939208984376,0.4049738645553589,0.5793265104293823,-0.6666512489318848,58.38241577148438,100.1291046142578,-27.779052734375
254771,-0.159881591796875,1.893646240234375,-0.70745849609375,0.4049738645553589,0.5793265104293823,-0.6666512489318848,58.69297790527344,99.96310424804688,-28.06684875488281
254772,-0.01641845703125,1.741409301757812,-0.5385284423828125,0.6756274700164795,0.7280347347259521,-0.3560052514076233,58.86900329589844,99.73886108398438,-28.26361083984375
254773,0.068511962890625,1.527130126953125,-0.439300537109375,0.6756274700164795,0.7280347347259521,-0.3560052514076233,58.89628601074219,99.70849609375,-28.65492248535156
254774,0.084808349609375,1.365814208984375,-0.34027099609375,0.9968483448028564,1.228996872901917,0.1974001526832581,58.60337829589844,99.740478515625,-28.87786865234375
254775,0.155426025390625,1.30938720703125,-0.402313232421875,1.176006436347961,1.756018042564392,0.678281843662262,58.5042724609375,99.66738891601562,-29.24714660644531
254776,0.2652587890625,1.45751953125,-0.5907135009765625,1.174481749534607,1.847726225852966,0.8874734044075012,58.47183227539062,99.6888427734375,-29.722900390625
254777,0.2652587890625,1.45751953125,-0.5907135009765625,1.174481749534607,1.847726225852966,0.8874734044075012,58.47183227539062,99.6888427734375,-29.722900390625
254778,0.09539794921875,2.001907348632812,-0.7003326416015625,0.8639709949493408,1.25260317325592,0.8158072233200073,59.40829467773438,99.39871215820312,-30.58943176269531
254779,-0.05035400390625,2.333038330078125,-0.56158447265625,0.7326385378837585,1.007221341133118,0.4918057024478912,59.90574645996094,99.11669921875,-30.81533813476562
254780,-0.1947479248046875,2.71612548828125,-0.2577056884765625,0.6183013319969177,1.104743957519531,-0.0417975150048732,60.40480041503906,99.10696411132812,-31.35343933105469
254781,-0.1947479248046875,2.71612548828125,-0.2577056884765625,0.6183013319969177,1.104743957519531,-0.0417975150048732,60.40480041503906,99.10696411132812,-31.35343933105469
254782,-0.311126708984375,3.536514282226562,0.011993408203125,0.5476292967796326,1.731706142425537,-1.483143210411072,60.90574645996094,99.0699462890625,-32.03895568847656
254783,-0.311126708984375,3.536514282226562,0.011993408203125,0.5476292967796326,1.731706142425537,-1.483143210411072,60.90574645996094,99.0699462890625,-32.03895568847656
254784,-0.589874267578125,2.56719970703125,0.1756591796875,0.5573458075523376,1.829382061958313,-1.48145580291748,60.22505187988281,99.82968139648438,-33.2445068359375
254785,-0.674591064453125,1.80035400390625,0.2166748046875,0.4343570470809937,2.202633619308472,-0.8041459918022156,59.91336059570312,99.89891052246094,-33.602783203125
254786,-0.6475677490234375,1.509689331054688,0.2139129638671875,0.321172684431076,2.434914827346802,-0.2563127279281616,59.989501953125,100.0170593261719,-33.84721374511719
254787,-0.673004150390625,1.38067626953125,0.174591064453125,0.2332364469766617,2.19868803024292,0.0351201705634594,60.44065856933594,99.89236450195312,-33.82676696777344
254788,-0.723785400390625,1.219131469726562,0.134765625,0.2185533791780472,1.654271483421326,0.1358246803283691,60.98155212402344,99.73629760742188,-33.83888244628906
254789,-0.723785400390625,1.219131469726562,0.134765625,0.2185533791780472,1.654271483421326,0.1358246803283691,60.98155212402344,99.73629760742188,-33.83888244628906
254790,-0.6427001953125,0.8032989501953125,0.103973388671875,0.40362548828125,0.1541144698858261,0.0380853340029716,62.21730041503906,99.36436462402344,-33.61666870117188
254791,-0.5298309326171875,0.610321044921875,0.134002685546875,0.504493772983551,-0.3715778291225433,0.0391889475286006,62.47001647949219,99.24383544921876,-33.70053100585938
254792,-0.399658203125,0.4652252197265625,0.1509246826171875,0.6149606704711914,-0.6414364576339722,0.0503840781748294,62.51840209960938,99.09266662597656,-33.80807495117188
254793,-0.399658203125,0.4652252197265625,0.1509246826171875,0.6149606704711914,-0.6414364576339722,0.0503840781748294,62.51840209960938,99.09266662597656,-33.80807495117188
254794,-0.1719207763671875,0.355133056640625,0.06536865234375,0.7466853857040405,-0.7037709355354309,0.0192035213112831,62.45040893554688,98.7788543701172,-34.29289245605469
254795,-0.06243896484375,0.3210601806640625,-0.0550079345703125,0.6668672561645508,-0.8156279921531677,0.031768050044775,62.33052062988281,98.44546508789062,-34.72792053222656
254796,0.015625,0.2957305908203125,-0.15045166015625,0.557835578918457,-1.077823877334595,0.128567561507225,62.05284118652344,98.21849060058594,-35.07037353515625
254797,0.015625,0.2957305908203125,-0.15045166015625,0.557835578918457,-1.077823877334595,0.128567561507225,62.05284118652344,98.21849060058594,-35.07037353515625
254798,0.070465087890625,0.379180908203125,-0.08306884765625,0.3800634443759918,-1.431318044662476,0.3278417885303497,61.66831970214844,97.95280456542967,-35.73388671875
254799,0.073638916015625,0.433563232421875,-0.0309295654296875,0.276905357837677,-1.347142696380615,0.3115762770175934,61.419189453125,97.88835144042967,-35.94367980957031
254800,0.0719451904296875,0.463592529296875,0.0267181396484375,0.1622102111577988,-1.155707478523254,0.1831602305173874,61.27729797363281,97.88792419433594,-36.15483093261719
254801,0.0719451904296875,0.463592529296875,0.0267181396484375,0.1622102111577988,-1.155707478523254,0.1831602305173874,61.27729797363281,97.88792419433594,-36.15483093261719
254802,0.022674560546875,0.455718994140625,0.1239166259765625,0.0154998637735843,-0.535426139831543,-0.4035690426826477,61.13276672363281,97.56381225585938,-36.01925659179688
254803,-0.0298004150390625,0.3790130615234375,0.1201934814453125,0.0303706880658865,-0.2824854850769043,-0.7449631094932556,60.99375915527344,97.54061889648438,-36.02812194824219
254804,-0.0864105224609375,0.310546875,0.0934295654296875,0.1038137450814247,-0.1078622862696648,-0.944943368434906,60.80766296386719,97.5527801513672,-36.03457641601562
254805,-0.0864105224609375,0.310546875,0.0934295654296875,0.1038137450814247,-0.1078622862696648,-0.944943368434906,60.80766296386719,97.5527801513672,-36.03457641601562
254806,-0.1336517333984375,0.307159423828125,0.091583251953125,0.2635027468204498,-0.1066534742712975,-1.057106852531433,60.27880859375,97.6645965576172,-35.9788818359375
254807,-0.168853759765625,0.356048583984375,0.15264892578125,0.3511772155761719,-0.075579710304737,-1.017430067062378,59.94056701660156,97.89566040039062,-35.95103454589844
254808,-0.2206573486328125,0.4184722900390625,0.2159881591796875,0.4187029898166656,-0.0140007706359028,-0.9648869633674622,59.47152709960938,97.91929626464844,-36.03106689453125
254809,-0.2983551025390625,0.564056396484375,0.28985595703125,0.4552330374717712,0.002567553659901,-0.944054126739502,59.15074157714844,98.0759735107422,-36.15782165527344
254810,-0.3981781005859375,0.75347900390625,0.3844146728515625,0.4307726919651031,-0.0829904899001121,-0.9676289558410645,58.72569274902344,98.16580200195312,-36.30207824707031
