time_idx,accelerometerAccelerationX(G),accelerometerAccelerationY(G),accelerometerAccelerationZ(G),gyroRotationX(rad/s),gyroRotationY(rad/s),gyroRotationZ(rad/s),magnetometerX(µT),magnetometerY(µT),magnetometerZ(µT)
153628,-0.730926513671875,0.8730316162109375,-0.140838623046875,-0.5831561088562012,-0.3704076111316681,-0.3379673957824707,36.26309204101562,99.02490234375,-20.70774841308594
153629,-0.73858642578125,0.8856353759765625,-0.2978668212890625,-0.4478552639484406,-0.364995539188385,-0.2844916582107544,36.00982666015625,99.01287841796876,-20.29212951660156
153630,-0.73858642578125,0.8856353759765625,-0.2978668212890625,-0.4478552639484406,-0.364995539188385,-0.2844916582107544,36.00982666015625,99.01287841796876,-20.29212951660156
153631,-0.6397705078125,0.8135833740234375,-0.4501953125,-0.3550393283367157,-0.5606178045272827,-0.133051797747612,35.59175109863281,98.87417602539062,-19.58659362792969
153632,-0.6397705078125,0.8135833740234375,-0.4501953125,-0.3550393283367157,-0.5606178045272827,-0.133051797747612,35.59175109863281,98.87417602539062,-19.58659362792969
153633,-0.564666748046875,0.8434906005859375,-0.4769744873046875,-0.4012787044048309,-0.7191150188446045,-0.1084124967455864,35.4290771484375,98.92814636230467,-19.39122009277344
153634,-0.5061492919921875,0.89013671875,-0.5078582763671875,-0.4420360028743744,-0.8112984895706177,-0.1117992326617241,35.30265808105469,98.88632202148438,-19.10205078125
153635,-0.4766845703125,0.9571533203125,-0.6046142578125,-0.2791765034198761,-0.5962948203086853,-0.0989793092012405,35.06123352050781,98.89064025878906,-18.1781005859375
153636,-0.4766845703125,0.9571533203125,-0.6046142578125,-0.2791765034198761,-0.5962948203086853,-0.0989793092012405,35.06123352050781,98.89064025878906,-18.1781005859375
153637,-0.4665679931640625,1.064102172851562,-0.7076416015625,0.0445054173469543,-0.2131146639585495,0.1103065311908722,34.89045715332031,98.71621704101562,-17.45469665527344
153638,-0.4665679931640625,1.064102172851562,-0.7076416015625,0.0445054173469543,-0.2131146639585495,0.1103065311908722,34.89045715332031,98.71621704101562,-17.45469665527344
153639,-0.3974761962890625,1.19903564453125,-0.714813232421875,0.3058720529079437,-0.0053950315341353,0.3532398343086243,34.98677062988281,98.61550903320312,-17.23912048339844
153640,-0.364990234375,1.226425170898438,-0.6532135009765625,0.4025477170944214,0.124107301235199,0.4234836101531982,35.04808044433594,98.72311401367188,-17.41146850585938
153641,-0.3626251220703125,1.193801879882812,-0.6203155517578125,0.4848809242248535,0.2519563436508179,0.4507397413253784,35.19371032714844,98.66497802734376,-17.49734497070312
153642,-0.399322509765625,1.108383178710938,-0.619903564453125,0.551857054233551,0.3587552309036255,0.4757463037967682,35.41668701171875,98.79783630371094,-17.61772155761719
153643,-0.4274139404296875,1.025405883789062,-0.6151275634765625,0.5947256684303284,0.4059621393680573,0.5052927136421204,35.71188354492188,98.7462921142578,-17.97959899902344
153644,-0.43450927734375,0.9902801513671876,-0.5760345458984375,0.5928582549095154,0.3795161545276642,0.5018551349639893,35.913818359375,98.90476989746094,-18.21952819824219
153645,-0.446533203125,0.9763031005859376,-0.5181732177734375,0.5688139200210571,0.3112913072109222,0.4686015546321869,36.25410461425781,99.0144500732422,-18.63719177246094
153646,-0.446533203125,0.9763031005859376,-0.5181732177734375,0.5688139200210571,0.3112913072109222,0.4686015546321869,36.25410461425781,99.0144500732422,-18.63719177246094
153647,-0.484649658203125,0.9891204833984376,-0.3872222900390625,0.4613058269023895,0.0886411890387535,0.3607147932052612,36.62449645996094,99.19377136230467,-19.434326171875
153648,-0.494476318359375,0.9824066162109376,-0.2770233154296875,0.4132648110389709,-0.0168519504368305,0.3306894898414612,36.79306030273438,99.13284301757812,-19.80195617675781
153649,-0.5269775390625,0.975372314453125,-0.14111328125,0.4130488336086273,-0.1042997762560844,0.3507857024669647,37.06770324707031,99.27717590332033,-19.99349975585938
153650,-0.5269775390625,0.975372314453125,-0.14111328125,0.4130488336086273,-0.1042997762560844,0.3507857024669647,37.06770324707031,99.27717590332033,-19.99349975585938
153651,-0.5822296142578125,0.9884185791015624,0.0678558349609375,0.540205717086792,-0.121928833425045,0.4642947018146515,37.54890441894531,99.31501770019533,-20.36253356933594
153652,-0.5746002197265625,0.9722442626953124,0.106414794921875,0.6388729214668274,-0.2112976014614105,0.535119354724884,37.78456115722656,99.42903137207033,-20.52388000488281
153653,-0.560211181640625,0.936004638671875,0.16522216796875,0.7358888983726501,-0.3258912861347198,0.6099211573600769,38.03511047363281,99.63389587402344,-21.09048461914062
153654,-0.560211181640625,0.936004638671875,0.16522216796875,0.7358888983726501,-0.3258912861347198,0.6099211573600769,38.03511047363281,99.63389587402344,-21.09048461914062
153655,-0.462310791015625,0.84283447265625,0.232666015625,0.8166753649711609,-0.4625258445739746,0.6753294467926025,38.70378112792969,99.45516967773438,-22.09295654296875
153656,-0.462310791015625,0.84283447265625,0.232666015625,0.8166753649711609,-0.4625258445739746,0.6753294467926025,38.70378112792969,99.45516967773438,-22.09295654296875
153657,-0.39892578125,0.797882080078125,0.2419891357421875,0.7556445002555847,-0.5051459670066833,0.6317084431648254,38.98431396484375,99.51325988769533,-22.43101501464844
153658,-0.3227691650390625,0.714019775390625,0.2113494873046875,0.5315107703208923,-0.488163024187088,0.5661371946334839,39.66702270507812,99.51834106445312,-23.0916748046875
153659,-0.312713623046875,0.6822967529296875,0.1786346435546875,0.4607010185718536,-0.4955852329730988,0.5830754041671753,39.977783203125,99.64776611328124,-23.45388793945312
153660,-0.3097381591796875,0.6661834716796875,0.1640167236328125,0.4361126124858856,-0.4663131237030029,0.6070545315742493,40.23588562011719,99.60055541992188,-23.65518188476562
153661,-0.294921875,0.6551666259765625,0.1313323974609375,0.4537797570228577,-0.409418135881424,0.6273747086524963,40.45880126953125,99.39372253417967,-23.82589721679688
153662,-0.294921875,0.6551666259765625,0.1313323974609375,0.4537797570228577,-0.409418135881424,0.6273747086524963,40.45880126953125,99.39372253417967,-23.82589721679688
153663,-0.2522125244140625,0.6062469482421875,0.04437255859375,0.4633090794086456,-0.2900523245334625,0.5710576176643372,41.08061218261719,99.37782287597656,-24.1368408203125
153664,-0.2347259521484375,0.588287353515625,0.0233917236328125,0.4038239121437073,-0.310259610414505,0.5111295580863953,41.2857666015625,99.35906982421876,-24.34199523925781
153665,-0.2567901611328125,0.59991455078125,0.0622100830078125,0.2764164209365845,-0.3327862024307251,0.3873258829116821,41.55148315429688,99.41470336914062,-24.54135131835938
153666,-0.314727783203125,0.641876220703125,0.12506103515625,0.124891072511673,-0.3253234922885895,0.2531209290027618,41.69529724121094,99.4265594482422,-24.77799987792969
153667,-0.4303741455078125,0.7552642822265625,0.1739959716796875,0.0195737015455961,-0.3339199125766754,0.0756825134158134,41.92488098144531,99.19007873535156,-24.8089599609375
153668,-0.540191650390625,0.863006591796875,0.2075042724609375,-0.0537572391331195,-0.361181378364563,-0.095939315855503,42.03695678710938,99.2095184326172,-24.89707946777344
153669,-0.6095733642578125,0.9169464111328124,0.21514892578125,-0.1111395731568336,-0.4225872159004211,-0.2285247892141342,42.10809326171875,99.21549987792967,-24.808349609375
153670,-0.6095733642578125,0.9169464111328124,0.21514892578125,-0.1111395731568336,-0.4225872159004211,-0.2285247892141342,42.10809326171875,99.21549987792967,-24.808349609375
153671,-0.693572998046875,0.87109375,0.19580078125,-0.1411424726247787,-0.6151164174079895,-0.3776474297046661,41.97573852539062,99.36204528808594,-24.60546875
153672,-0.6953582763671875,0.792572021484375,0.1819000244140625,-0.0945611298084259,-0.646381139755249,-0.3661274015903473,41.87406921386719,99.33108520507812,-24.56231689453125
153673,-0.667724609375,0.7281341552734375,0.1546783447265625,-0.030065756291151,-0.5910108089447021,-0.3538459539413452,41.64714050292969,99.29342651367188,-24.63475036621094
153674,-0.667724609375,0.7281341552734375,0.1546783447265625,-0.030065756291151,-0.5910108089447021,-0.3538459539413452,41.64714050292969,99.29342651367188,-24.63475036621094
153675,-0.6128387451171875,0.6031494140625,0.1222381591796875,-0.0299823991954326,-0.3803436160087585,-0.4027213454246521,41.20756530761719,99.3571319580078,-24.53855895996094
153676,-0.6206207275390625,0.5593414306640625,0.1350860595703125,-0.1128567755222321,-0.3185478746891022,-0.4462584555149078,40.91177368164062,99.2486572265625,-24.32540893554688
153677,-0.648101806640625,0.5414886474609375,0.14910888671875,-0.2152047157287598,-0.2774965763092041,-0.5012548565864563,40.77349853515625,99.31056213378906,-24.3642578125
153678,-0.648101806640625,0.5414886474609375,0.14910888671875,-0.2152047157287598,-0.2774965763092041,-0.5012548565864563,40.77349853515625,99.31056213378906,-24.3642578125
153679,-0.71484375,0.5571746826171875,0.1280670166015625,-0.4060207307338715,-0.2806963920593262,-0.6088145971298218,40.13621520996094,99.46183776855467,-24.32872009277344
153680,-0.7471923828125,0.577911376953125,0.0987548828125,-0.4834593534469604,-0.3154266476631165,-0.6395860910415649,39.83711242675781,99.4290008544922,-24.09255981445312
153681,-0.7654571533203125,0.611083984375,0.050750732421875,-0.5403170585632324,-0.3876204192638397,-0.6390470862388611,39.53936767578125,99.51861572265624,-23.94453430175781
153682,-0.7654571533203125,0.611083984375,0.050750732421875,-0.5403170585632324,-0.3876204192638397,-0.6390470862388611,39.53936767578125,99.51861572265624,-23.94453430175781
153683,-0.732635498046875,0.7217864990234375,-0.07843017578125,-0.5953714847564697,-0.7060133218765259,-0.5437554121017456,38.77137756347656,99.50325012207033,-23.44454956054688
153684,-0.6915283203125,0.7899169921875,-0.110198974609375,-0.5980951189994812,-0.8750247359275818,-0.4783956110477448,38.34811401367188,99.48782348632812,-23.11674499511719
153685,-0.62896728515625,0.8559722900390625,-0.128326416015625,-0.5891330242156982,-1.010322093963623,-0.4317279756069183,37.94036865234375,99.47613525390624,-22.68887329101562
153686,-0.62896728515625,0.8559722900390625,-0.128326416015625,-0.5891330242156982,-1.010322093963623,-0.4317279756069183,37.94036865234375,99.47613525390624,-22.68887329101562
153687,-0.48895263671875,0.985870361328125,-0.1958160400390625,-0.5555601716041565,-1.114484190940857,-0.4361730515956879,37.14993286132812,99.4604034423828,-21.85662841796875
153688,-0.4592132568359375,1.014602661132812,-0.263427734375,-0.488388866186142,-1.11301064491272,-0.4423606395721436,36.84765625,99.32131958007812,-21.16033935546875
153689,-0.4570159912109375,1.066543579101562,-0.3492584228515625,-0.3589560389518738,-1.059222459793091,-0.431231826543808,36.442138671875,99.38784790039062,-20.69424438476562
153690,-0.4570159912109375,1.066543579101562,-0.3492584228515625,-0.3589560389518738,-1.059222459793091,-0.431231826543808,36.442138671875,99.38784790039062,-20.69424438476562
153691,-0.5003204345703125,1.1407470703125,-0.520843505859375,-0.0026437200140208,-0.9641186594963074,-0.3033364415168762,35.82150268554688,99.30308532714844,-19.77224731445312
153692,-0.4888458251953125,1.1322021484375,-0.5309906005859375,0.1820262670516968,-0.9249957203865052,-0.2024476528167725,35.58920288085938,99.16110229492188,-19.50709533691406
153693,-0.45452880859375,1.11761474609375,-0.5498199462890625,0.3665750622749329,-0.8694733381271362,-0.1107861697673798,35.42494201660156,99.04849243164062,-19.34153747558594
153694,-0.45452880859375,1.11761474609375,-0.5498199462890625,0.3665750622749329,-0.8694733381271362,-0.1107861697673798,35.42494201660156,99.04849243164062,-19.34153747558594
153695,-0.3575592041015625,1.065155029296875,-0.591094970703125,0.7888591885566711,-0.6888859868049622,0.0673819705843925,35.17280578613281,98.8792724609375,-19.22468566894531
153696,-0.3230133056640625,1.05108642578125,-0.6219482421875,1.014048337936401,-0.5861215591430664,0.1702297925949097,35.18418884277344,98.73747253417967,-19.29298400878906
153697,-0.3030548095703125,1.045440673828125,-0.62457275390625,1.20840048789978,-0.454203724861145,0.2610209584236145,35.2371826171875,98.72042846679688,-19.61798095703125
153698,-0.3030548095703125,1.045440673828125,-0.62457275390625,1.20840048789978,-0.454203724861145,0.2610209584236145,35.2371826171875,98.72042846679688,-19.61798095703125
153699,-0.31341552734375,1.0880126953125,-0.60015869140625,1.33091127872467,-0.191891148686409,0.3115387260913849,35.52085876464844,98.65640258789062,-20.20494079589844
153700,-0.3215484619140625,1.122787475585938,-0.577972412109375,1.294399619102478,-0.154459074139595,0.3254571855068207,35.76889038085938,98.6085205078125,-20.724853515625
153701,-0.3328857421875,1.14691162109375,-0.5322265625,1.280451536178589,-0.1210039183497429,0.3555392026901245,35.93585205078125,98.55809020996094,-21.36576843261719
153702,-0.3328857421875,1.14691162109375,-0.5322265625,1.280451536178589,-0.1210039183497429,0.3555392026901245,35.93585205078125,98.55809020996094,-21.36576843261719
153703,-0.34912109375,1.2227783203125,-0.41192626953125,1.304318785667419,-0.0385708287358284,0.4098690152168274,36.28791809082031,98.64913940429688,-22.70875549316406
153704,-0.3589324951171875,1.27288818359375,-0.338287353515625,1.281172275543213,-0.0119296303018927,0.4035919308662415,36.49040222167969,98.6171417236328,-23.47898864746094
153705,-0.389892578125,1.314422607421875,-0.273834228515625,1.244313597679138,-0.0226520486176013,0.386359691619873,36.72129821777344,98.61207580566406,-24.25086975097656
153706,-0.389892578125,1.314422607421875,-0.273834228515625,1.244313597679138,-0.0226520486176013,0.386359691619873,36.72129821777344,98.61207580566406,-24.25086975097656
153707,-0.5034332275390625,1.410675048828125,-0.0808563232421875,1.190510272979736,-0.0947139933705329,0.3869860768318176,37.08985900878906,98.53086853027344,-25.5130615234375
153708,-0.5831146240234375,1.455474853515625,-0.0112152099609375,1.176284432411194,-0.0929413884878158,0.3215122520923615,37.3358154296875,98.61305236816406,-26.12210083007812
153709,-0.680755615234375,1.493133544921875,0.041656494140625,1.14865255355835,-0.0944711118936538,0.1768445521593094,37.55546569824219,98.59954833984376,-26.79490661621094
153710,-0.680755615234375,1.493133544921875,0.041656494140625,1.14865255355835,-0.0944711118936538,0.1768445521593094,37.55546569824219,98.59954833984376,-26.79490661621094
153711,-0.894805908203125,1.350982666015625,0.1790771484375,1.100061535835266,-0.0606665425002574,-0.0230126418173313,37.80581665039062,98.53875732421876,-28.12602233886719
153712,-0.9725341796875,1.207595825195312,0.2199249267578125,1.164420247077942,-0.0968447849154472,-0.0153576508164405,37.81086730957031,98.41378784179688,-28.81211853027344
153713,-1.007110595703125,1.041961669921875,0.1984710693359375,1.240685224533081,-0.2121133208274841,0.0814559757709503,37.90139770507812,98.30403137207033,-29.45271301269531
153714,-1.007110595703125,1.041961669921875,0.1984710693359375,1.240685224533081,-0.2121133208274841,0.0814559757709503,37.90139770507812,98.30403137207033,-29.45271301269531
153715,-0.8342742919921875,0.6981201171875,0.135223388671875,1.339849948883057,-0.6966128945350647,0.2995949685573578,37.884521484375,98.07229614257812,-30.71083068847656
153716,-0.8342742919921875,0.6981201171875,0.135223388671875,1.339849948883057,-0.6966128945350647,0.2995949685573578,37.884521484375,98.07229614257812,-30.71083068847656
153717,-0.67938232421875,0.6069488525390625,0.1687164306640625,1.360323190689087,-0.901252031326294,0.3294916152954102,37.93795776367188,97.96420288085938,-31.26055908203125
153718,-0.5079498291015625,0.4685516357421875,0.1822509765625,1.311883568763733,-1.057266473770142,0.3231932520866394,38.26214599609375,97.7270965576172,-32.48576354980469
153719,-0.459442138671875,0.3817138671875,0.1416473388671875,1.199724197387695,-1.056984663009644,0.2926515638828278,38.39767456054688,97.4033660888672,-32.85858154296875
153720,-0.4220123291015625,0.3262786865234375,0.1649627685546875,1.001182436943054,-0.9141087532043456,0.2273141145706177,38.57646179199219,97.09083557128906,-33.24659729003906
153721,-0.4520111083984375,0.379852294921875,0.2370147705078125,0.4354465305805206,-0.121689684689045,0.0071031833067536,38.62223815917969,96.8048095703125,-34.20240783691406
153722,-0.4520111083984375,0.379852294921875,0.2370147705078125,0.4354465305805206,-0.121689684689045,0.0071031833067536,38.62223815917969,96.8048095703125,-34.20240783691406
153723,-0.5167236328125,0.4329833984375,0.317962646484375,0.2899966835975647,0.0868539363145828,-0.0508802235126495,38.70561218261719,96.65496826171876,-34.52456665039062
153724,-0.5461883544921875,0.449981689453125,0.4004058837890625,0.1507232040166855,0.2629365622997284,-0.0429626479744911,38.72344970703125,96.58438110351562,-34.76402282714844
153725,-0.5835418701171875,0.4604949951171875,0.415496826171875,-0.0458114296197891,0.3009760975837708,0.0211082138121128,38.72018432617188,96.63150024414062,-34.84628295898438
153726,-0.5835418701171875,0.4604949951171875,0.415496826171875,-0.0458114296197891,0.3009760975837708,0.0211082138121128,38.72018432617188,96.63150024414062,-34.84628295898438
153727,-0.705291748046875,0.5130767822265625,0.28485107421875,-0.378595769405365,0.0248968284577131,0.0399375632405281,38.7620849609375,96.58967590332033,-34.82015991210938
153728,-0.6902313232421875,0.45751953125,0.1514892578125,-0.3464508950710297,-0.3520949184894562,0.0206810440868139,38.7568359375,96.72349548339844,-34.87815856933594
153729,-0.6902313232421875,0.45751953125,0.1514892578125,-0.3464508950710297,-0.3520949184894562,0.0206810440868139,38.7568359375,96.72349548339844,-34.87815856933594
153730,-0.5975189208984375,0.4423980712890625,0.1178741455078125,-0.2968284785747528,-0.5167880058288574,0.06325513869524,38.66653442382812,96.85305786132812,-34.89706420898438
153731,-0.3832244873046875,0.63458251953125,-3.0517578125e-05,-0.4250170588493347,-0.0002026665606535,0.0843359231948852,38.60398864746094,96.95657348632812,-34.59765625
153732,-0.3832244873046875,0.63458251953125,-3.0517578125e-05,-0.4250170588493347,-0.0002026665606535,0.0843359231948852,38.60398864746094,96.95657348632812,-34.59765625
153733,-0.3276214599609375,0.682220458984375,-0.0366363525390625,-0.4397616684436798,0.1206153631210327,0.0590241700410842,38.63563537597656,96.85804748535156,-34.37811279296875
153734,-0.291717529296875,0.71356201171875,-0.014190673828125,-0.478898674249649,0.0300170201808214,0.0205513481050729,38.79522705078125,96.8796844482422,-34.2308349609375
153735,-0.2770538330078125,0.7987060546875,0.050445556640625,-0.7778260111808777,-0.4759540259838104,-0.0383955910801887,39.09841918945312,96.87905883789062,-33.73223876953125
153736,-0.322601318359375,0.8363189697265625,0.0261688232421875,-0.8803156018257141,-0.5814988017082214,-0.1627612262964249,39.09455871582031,96.95248413085938,-33.29876708984375
153737,-0.36993408203125,0.82574462890625,-0.0110626220703125,-0.8879122734069824,-0.5272164344787598,-0.2623583972454071,39.02484130859375,97.1174774169922,-33.02470397949219
153738,-0.36993408203125,0.82574462890625,-0.0110626220703125,-0.8879122734069824,-0.5272164344787598,-0.2623583972454071,39.02484130859375,97.1174774169922,-33.02470397949219
153739,-0.48443603515625,0.827484130859375,-0.0719451904296875,-0.813301146030426,-0.3667090237140656,-0.3549913763999939,38.46441650390625,97.2460479736328,-32.15927124023438
153740,-0.5409088134765625,0.838714599609375,-0.0767364501953125,-0.8075788021087646,-0.3979012966156006,-0.3687735199928284,38.24273681640625,97.4686279296875,-31.62568664550781
153741,-0.5932159423828125,0.8658447265625,-0.08123779296875,-0.8136428594589233,-0.43026003241539,-0.3843559324741364,37.99028015136719,97.55796813964844,-31.06231689453125
153742,-0.5932159423828125,0.8658447265625,-0.08123779296875,-0.8136428594589233,-0.43026003241539,-0.3843559324741364,37.99028015136719,97.55796813964844,-31.06231689453125
153743,-0.663848876953125,0.91021728515625,-0.156341552734375,-0.7191861271858215,-0.4253129363059998,-0.3917291462421417,37.39723205566406,97.91796875,-30.30915832519531
153744,-0.663848876953125,0.91021728515625,-0.156341552734375,-0.7191861271858215,-0.4253129363059998,-0.3917291462421417,37.39723205566406,97.91796875,-30.30915832519531
153745,-0.67681884765625,0.9317626953125,-0.31793212890625,-0.5656812191009521,-0.3401506543159485,-0.3777225315570831,36.88948059082031,97.97946166992188,-29.19157409667969
153746,-0.65325927734375,0.93084716796875,-0.351531982421875,-0.5244379043579102,-0.3063125312328339,-0.3324032425880432,36.60240173339844,98.0508270263672,-28.78781127929688
153747,-0.628204345703125,0.9360504150390624,-0.3593597412109375,-0.5106757879257202,-0.2224581092596054,-0.298603743314743,36.23420715332031,98.00398254394533,-28.2738037109375
153748,-0.601837158203125,0.925323486328125,-0.36297607421875,-0.4884359836578369,-0.1367967277765274,-0.2778308093547821,35.9736328125,98.09620666503906,-28.00022888183594
153749,-0.565277099609375,0.8827056884765625,-0.3769683837890625,-0.4506401419639587,-0.087257407605648,-0.2555225789546967,35.81271362304688,97.9849090576172,-27.61965942382812
153750,-0.565277099609375,0.8827056884765625,-0.3769683837890625,-0.4506401419639587,-0.087257407605648,-0.2555225789546967,35.81271362304688,97.9849090576172,-27.61965942382812
153751,-0.52178955078125,0.8331146240234375,-0.4611358642578125,-0.3125488460063934,-0.0719173327088356,-0.1289510577917099,35.48670959472656,97.9157257080078,-26.91839599609375
153752,-0.5113983154296875,0.8498077392578125,-0.5339202880859375,-0.1831730157136917,-0.0720089450478553,-0.0397016070783138,35.40995788574219,97.9321746826172,-26.52410888671875
153753,-0.49639892578125,0.9020233154296876,-0.59844970703125,-0.0295765344053506,-0.034129474312067,0.0846680179238319,35.23291015625,97.77073669433594,-26.31468200683594
153754,-0.49639892578125,0.9020233154296876,-0.59844970703125,-0.0295765344053506,-0.034129474312067,0.0846680179238319,35.23291015625,97.77073669433594,-26.31468200683594
153755,-0.4588470458984375,1.077194213867188,-0.6865997314453125,0.2278318256139755,0.179620623588562,0.2898195683956146,35.11788940429688,97.8892059326172,-26.38864135742188
153756,-0.435943603515625,1.146881103515625,-0.668487548828125,0.2940020561218262,0.2746179699897766,0.3567056655883789,35.20281982421875,97.85887145996094,-26.37294006347656
153757,-0.4444580078125,1.18548583984375,-0.6113128662109375,0.3357977271080017,0.367756724357605,0.4035610556602478,35.25187683105469,97.86941528320312,-26.38665771484375
153758,-0.4444580078125,1.18548583984375,-0.6113128662109375,0.3357977271080017,0.367756724357605,0.4035610556602478,35.25187683105469,97.86941528320312,-26.38665771484375
153759,-0.47467041015625,1.15863037109375,-0.5167694091796875,0.459695428609848,0.4308818876743317,0.5351417064666748,35.67532348632812,97.84855651855467,-26.69354248046875
153760,-0.45751953125,1.141952514648438,-0.502410888671875,0.5169216990470886,0.4581100344657898,0.5971531271934509,35.87335205078125,97.8937530517578,-26.86222839355469
153761,-0.4470672607421875,1.1246337890625,-0.48321533203125,0.5356679558753967,0.4574479758739471,0.6370481252670288,36.10513305664062,97.9005889892578,-27.14335632324219
153762,-0.4470672607421875,1.1246337890625,-0.48321533203125,0.5356679558753967,0.4574479758739471,0.6370481252670288,36.10513305664062,97.9005889892578,-27.14335632324219
153763,-0.433929443359375,1.09259033203125,-0.36932373046875,0.5910318493843079,0.3085333406925201,0.6825881600379944,36.837646484375,98.01008605957033,-27.82760620117188
153764,-0.4325103759765625,1.078598022460938,-0.2911529541015625,0.6295568943023682,0.2167243212461472,0.6748263835906982,37.18980407714844,98.16462707519533,-28.16459655761719
153765,-0.4355621337890625,1.0518798828125,-0.224395751953125,0.6758642196655273,0.0907480120658874,0.6504185199737549,37.77804565429688,98.0936279296875,-29.01298522949219
153766,-0.4355621337890625,1.0518798828125,-0.224395751953125,0.6758642196655273,0.0907480120658874,0.6504185199737549,37.77804565429688,98.0936279296875,-29.01298522949219
153767,-0.457733154296875,0.98046875,-0.1243896484375,0.6636192798614502,-0.2953088879585266,0.5868453979492188,38.45394897460938,98.27424621582033,-29.750732421875
153768,-0.457733154296875,0.98046875,-0.1243896484375,0.6636192798614502,-0.2953088879585266,0.5868453979492188,38.45394897460938,98.27424621582033,-29.750732421875
153769,-0.4441986083984375,0.898040771484375,0.078826904296875,0.5147631764411926,-0.5759069919586182,0.5804929733276367,38.93647766113281,98.28282165527344,-30.40740966796875
153770,-0.4255828857421875,0.867706298828125,0.134979248046875,0.4981362819671631,-0.5599021911621094,0.5760489106178284,39.1517333984375,98.19566345214844,-30.61363220214844
153771,-0.416961669921875,0.846832275390625,0.1527099609375,0.5364162921905518,-0.5912917852401733,0.6069546341896057,39.45355224609375,98.21029663085938,-30.89276123046875
153772,-0.416961669921875,0.846832275390625,0.1527099609375,0.5364162921905518,-0.5912917852401733,0.6069546341896057,39.45355224609375,98.21029663085938,-30.89276123046875
153773,-0.4007720947265625,0.8724517822265625,0.2407684326171875,0.6527077555656433,-0.663715124130249,0.6767989993095398,40.00949096679688,98.07656860351562,-31.37564086914062
153774,-0.3805084228515625,0.879791259765625,0.25885009765625,0.6324054002761841,-0.5922998189926147,0.6606170535087585,40.23486328125,98.08543395996094,-31.61170959472656
153775,-0.359100341796875,0.8515625,0.23565673828125,0.5385217666625977,-0.4967977702617645,0.6271398067474365,40.59368896484375,98.05796813964844,-31.90237426757812
153776,-0.3489837646484375,0.791748046875,0.1758270263671875,0.3971004784107208,-0.3989878594875336,0.6043457984924316,40.81689453125,97.86203002929688,-32.08140563964844
153777,-0.3489990234375,0.74530029296875,0.116668701171875,0.2628310918807983,-0.3501127362251282,0.5848655700683594,41.17218017578125,97.84660339355467,-32.33305358886719
153778,-0.3638153076171875,0.7306976318359375,0.0944366455078125,0.1577632576227188,-0.2856338918209076,0.5579061508178711,41.39125061035156,97.78410339355467,-32.40260314941406
153779,-0.389007568359375,0.7254791259765625,0.087310791015625,0.0829579979181289,-0.1946848034858704,0.5058461427688599,41.63046264648438,97.84957885742188,-32.52249145507812
153780,-0.42791748046875,0.7188720703125,0.0634307861328125,0.0199947468936443,-0.1247246190905571,0.4189916551113129,41.75715637207031,97.79879760742188,-32.46397399902344
153781,-0.476776123046875,0.7198638916015625,0.0617523193359375,-0.0300002433359623,-0.0972163006663322,0.3053929209709167,41.9493408203125,97.82733154296876,-32.54745483398438
153782,-0.53131103515625,0.7419586181640625,0.1561737060546875,-0.0951390340924263,-0.0041041974909603,0.1669639497995377,42.17184448242188,97.93638610839844,-32.60282897949219
153783,-0.5757598876953125,0.792999267578125,0.2322235107421875,-0.1382574737071991,0.1042662188410759,0.0100736729800701,42.34292602539062,97.98123168945312,-32.59494018554688
153784,-0.60406494140625,0.874755859375,0.24652099609375,-0.1493844240903854,0.0803164094686508,-0.1221059337258339,42.39463806152344,97.91120910644533,-32.48043823242188
153785,-0.6320648193359375,0.9384613037109376,0.2738494873046875,-0.1773606687784195,-0.0018306568963453,-0.1980523616075516,42.43989562988281,97.9211883544922,-32.41154479980469
153786,-0.6320648193359375,0.9384613037109376,0.2738494873046875,-0.1773606687784195,-0.0018306568963453,-0.1980523616075516,42.43989562988281,97.9211883544922,-32.41154479980469
153787,-0.62310791015625,0.9096832275390624,0.2337493896484375,-0.2611868679523468,-0.1318027675151825,-0.2452864497900009,42.31205749511719,97.96589660644533,-32.2083740234375
153788,-0.588134765625,0.8852691650390625,0.170166015625,-0.2412392497062683,-0.23068967461586,-0.2529659569263458,42.18122863769531,97.96139526367188,-32.04551696777344
153789,-0.563507080078125,0.844451904296875,0.1287689208984375,-0.1310464292764664,-0.1974837779998779,-0.2520021498203278,42.09368896484375,97.92503356933594,-31.87333679199219
153790,-0.545562744140625,0.77911376953125,0.1009521484375,0.0144849326461553,-0.0366357751190662,-0.264348030090332,42.02531433105469,97.78880310058594,-31.77548217773438
153791,-0.5210418701171875,0.712127685546875,0.087188720703125,0.0785507336258888,0.1239320635795593,-0.3052416741847992,41.8905029296875,97.62460327148438,-31.67024230957031
153792,-0.4951629638671875,0.6518707275390625,0.09454345703125,0.0256470404565334,0.1734974831342697,-0.3659164607524872,41.80690002441406,97.70924377441406,-31.79014587402344
153793,-0.4751434326171875,0.6035003662109375,0.11444091796875,-0.092258021235466,0.1562306135892868,-0.4253180027008057,41.60922241210938,97.81651306152344,-31.90037536621094
153794,-0.4751434326171875,0.6035003662109375,0.11444091796875,-0.092258021235466,0.1562306135892868,-0.4253180027008057,41.60922241210938,97.81651306152344,-31.90037536621094
153795,-0.4774627685546875,0.5691375732421875,0.0896453857421875,-0.3697434365749359,0.025026524439454,-0.5179795026779175,41.33476257324219,97.7575225830078,-31.926025390625
153796,-0.48681640625,0.5853118896484375,0.045501708984375,-0.4896410703659058,-0.0977997928857803,-0.5429354310035706,41.14865112304688,97.87623596191406,-31.708251953125
153797,-0.499237060546875,0.62371826171875,-0.0042724609375,-0.584809422492981,-0.2502093017101288,-0.5417362451553345,40.81011962890625,97.98794555664062,-31.60990905761719
153798,-0.499237060546875,0.62371826171875,-0.0042724609375,-0.584809422492981,-0.2502093017101288,-0.5417362451553345,40.81011962890625,97.98794555664062,-31.60990905761719
153799,-0.489593505859375,0.7194366455078125,-0.0794677734375,-0.6832869648933411,-0.5178045034408569,-0.5281850099563599,40.19432067871094,98.14027404785156,-30.92158508300781
153800,-0.46002197265625,0.759246826171875,-0.0645751953125,-0.7226700782775879,-0.585781455039978,-0.4999557733535767,39.90303039550781,98.10490417480467,-30.50897216796875
153801,-0.4369964599609375,0.800018310546875,-0.0499420166015625,-0.7763490080833435,-0.5699604153633118,-0.4863983988761902,39.48233032226562,98.16815185546876,-30.29812622070312
153802,-0.4369964599609375,0.800018310546875,-0.0499420166015625,-0.7763490080833435,-0.5699604153633118,-0.4863983988761902,39.48233032226562,98.16815185546876,-30.29812622070312
153803,-0.4134521484375,0.8924713134765625,-0.088104248046875,-0.8247035145759583,-0.5301567912101746,-0.4519773125648499,38.67054748535156,98.25335693359376,-29.63555908203125
153804,-0.417572021484375,0.9511260986328124,-0.13916015625,-0.7897990345954895,-0.537657618522644,-0.4687355160713196,38.29109191894531,98.32624816894533,-29.11801147460938
153805,-0.4216766357421875,0.99847412109375,-0.195404052734375,-0.7137535214424133,-0.5602755546569824,-0.4559872448444366,37.95013427734375,98.3551025390625,-28.7254638671875
153806,-0.439208984375,1.064682006835938,-0.25396728515625,-0.6084638833999634,-0.5905352234840393,-0.430335134267807,37.59872436523438,98.39788818359376,-28.21627807617188
153807,-0.47772216796875,1.136672973632812,-0.321197509765625,-0.4731534421443939,-0.6105371117591858,-0.3808671832084656,37.1949462890625,98.41415405273438,-27.76420593261719
153808,-0.50921630859375,1.18463134765625,-0.3701934814453125,-0.3110716044902802,-0.6051114797592163,-0.3095985949039459,36.8681640625,98.45803833007812,-27.28060913085938
153809,-0.51251220703125,1.18988037109375,-0.3804473876953125,-0.1564705669879913,-0.5130220055580139,-0.2390666455030441,36.60310363769531,98.56037902832033,-27.060546875
153810,-0.51251220703125,1.18988037109375,-0.3804473876953125,-0.1564705669879913,-0.5130220055580139,-0.2390666455030441,36.60310363769531,98.56037902832033,-27.060546875
153811,-0.44775390625,1.0980224609375,-0.404266357421875,0.189896434545517,-0.3209375441074371,-0.14842489361763,36.11006164550781,98.4172821044922,-26.56991577148438
153812,-0.4073486328125,1.024917602539062,-0.43798828125,0.3992294073104858,-0.2738259434700012,-0.0903733074665069,35.96577453613281,98.4430694580078,-26.43898010253906
153813,-0.366607666015625,0.9535675048828124,-0.4824981689453125,0.6171401739120483,-0.217861220240593,-0.0185651630163192,35.98149108886719,98.37312316894533,-26.47035217285156
153814,-0.366607666015625,0.9535675048828124,-0.4824981689453125,0.6171401739120483,-0.217861220240593,-0.0185651630163192,35.98149108886719,98.37312316894533,-26.47035217285156
153815,-0.3297576904296875,0.876190185546875,-0.590118408203125,0.9414764642715454,-0.069878950715065,0.0991928949952125,35.93867492675781,98.09782409667967,-26.75685119628906
153816,-0.334747314453125,0.8771209716796875,-0.6063232421875,1.022680521011353,0.0135754635557532,0.119709886610508,36.01420593261719,97.98130798339844,-27.23033142089844
153817,-0.33355712890625,0.9029083251953124,-0.6136627197265625,1.053533792495728,0.0787896215915679,0.1194238662719727,36.11271667480469,97.93807983398438,-27.76448059082031
153818,-0.33355712890625,0.9029083251953124,-0.6136627197265625,1.053533792495728,0.0787896215915679,0.1194238662719727,36.11271667480469,97.93807983398438,-27.76448059082031
153819,-0.3230133056640625,0.9988861083984376,-0.5841522216796875,1.064034342765808,0.1297095268964767,0.1602213680744171,36.31211853027344,97.67013549804688,-28.62905883789062
153820,-0.3230133056640625,0.9988861083984376,-0.5841522216796875,1.064034342765808,0.1297095268964767,0.1602213680744171,36.31211853027344,97.67013549804688,-28.62905883789062
153821,-0.320068359375,1.043991088867188,-0.5475311279296875,1.07829475402832,0.1601606458425522,0.2179967761039734,36.39260864257812,97.54689025878906,-29.16105651855469
153822,-0.34771728515625,1.124099731445312,-0.44427490234375,1.063456416130066,0.1859932988882065,0.3258326947689056,36.6676025390625,97.4012451171875,-30.30937194824219
153823,-0.363311767578125,1.14410400390625,-0.36639404296875,1.000897169113159,0.1685240268707275,0.3507511019706726,36.84713745117188,97.20744323730467,-30.76211547851562
153824,-0.3959808349609375,1.171127319335938,-0.282958984375,0.8931957483291626,0.1028526127338409,0.3779835104942322,37.0140380859375,97.1774444580078,-31.34420776367188
153825,-0.4650421142578125,1.231948852539062,-0.19403076171875,0.7862938046455383,-0.0075742965564131,0.3795574307441711,37.23435974121094,97.01072692871094,-31.73710632324219
153826,-0.4650421142578125,1.231948852539062,-0.19403076171875,0.7862938046455383,-0.0075742965564131,0.3795574307441711,37.23435974121094,97.01072692871094,-31.73710632324219
153827,-0.6440277099609375,1.448822021484375,-0.08636474609375,0.8926753401756287,-0.3353721499443054,0.1628930419683456,37.74415588378906,96.85418701171876,-32.65371704101562
153828,-0.7618865966796875,1.505905151367188,0.0068817138671875,1.10985004901886,-0.4512249827384949,0.1004805341362953,37.95175170898438,96.67384338378906,-32.96615600585938
153829,-0.8321075439453125,1.476531982421875,0.088134765625,1.306335091590881,-0.4221315383911133,0.0774575099349021,37.99501037597656,96.68107604980467,-33.37762451171875
153830,-0.8018951416015625,1.328460693359375,0.102630615234375,1.438748240470886,-0.3894316554069519,0.0590388178825378,38.05767822265625,96.6416473388672,-33.83676147460938
153831,-0.727386474609375,1.096176147460938,0.0827789306640625,1.568657040596008,-0.4032204151153564,0.0238877553492784,38.10981750488281,96.41864013671876,-34.30918884277344
153832,-0.727386474609375,1.096176147460938,0.0827789306640625,1.568657040596008,-0.4032204151153564,0.0238877553492784,38.10981750488281,96.41864013671876,-34.30918884277344
153833,-0.5378570556640625,0.7421112060546875,0.0800018310546875,1.664596319198608,-0.6112980246543884,0.0497832670807838,38.17958068847656,95.84719848632812,-35.70770263671875
153834,-0.4780731201171875,0.6591033935546875,0.0946044921875,1.627726435661316,-0.718182384967804,0.0902928784489631,38.23239135742188,95.54225158691406,-36.4364013671875
153835,-0.4464874267578125,0.6263580322265625,0.083740234375,1.544474720954895,-0.7999421954154968,0.1084295362234116,38.16226196289062,95.36280822753906,-36.988037109375
153836,-0.4774017333984375,0.6277923583984375,0.0840606689453125,1.455960035324097,-0.8217337727546692,0.0719642043113708,38.20712280273438,95.00338745117188,-37.43875122070312
153837,-0.5374908447265625,0.5993804931640625,0.0888214111328125,1.38312304019928,-0.7590627074241638,0.0073971962556242,38.148681640625,94.58781433105467,-38.05023193359375
153838,-0.5374908447265625,0.5993804931640625,0.0888214111328125,1.38312304019928,-0.7590627074241638,0.0073971962556242,38.148681640625,94.58781433105467,-38.05023193359375
153839,-0.6211090087890625,0.4291229248046875,0.0594482421875,1.248430013656616,-0.5205007195472717,-0.1460112631320953,37.91157531738281,94.17352294921876,-39.43281555175781
153840,-0.62420654296875,0.3378143310546875,0.065948486328125,1.088210463523865,-0.4604722559452057,-0.2044237107038498,37.79673767089844,93.78579711914062,-39.791748046875
153841,-0.6234893798828125,0.2824249267578125,0.1387786865234375,0.8210296630859375,-0.3613499402999878,-0.2254429757595062,37.62705993652344,93.64909362792967,-40.35481262207031
153842,-0.60687255859375,0.2825164794921875,0.2031097412109375,0.4759542942047119,-0.2510239779949188,-0.2144041806459427,37.42361450195312,93.37620544433594,-40.79591369628906
153843,-0.57647705078125,0.340087890625,0.217987060546875,0.1137500032782555,-0.2767487764358521,-0.1363503783941269,37.20608520507812,93.23567199707033,-41.12420654296875
153844,-0.592742919921875,0.49462890625,0.2676239013671875,-0.2052381038665771,-0.4288325905799866,-0.0386406034231185,37.11465454101562,93.09187316894533,-41.29025268554688
153845,-0.6676483154296875,0.6295166015625,0.3466949462890625,-0.4279934167861938,-0.5000936985015869,-0.0271554552018642,36.97598266601562,93.06118774414062,-41.32247924804688
153846,-0.6676483154296875,0.6295166015625,0.3466949462890625,-0.4279934167861938,-0.5000936985015869,-0.0271554552018642,36.97598266601562,93.06118774414062,-41.32247924804688
153847,-0.6656341552734375,0.6408538818359375,0.315399169921875,-0.5861915946006775,-0.536993145942688,-0.0328745916485786,36.84872436523438,93.08502197265624,-41.02973937988281
153848,-0.6656341552734375,0.6408538818359375,0.315399169921875,-0.5861915946006775,-0.536993145942688,-0.0328745916485786,36.84872436523438,93.08502197265624,-41.02973937988281
153849,-0.616729736328125,0.6739349365234375,0.249542236328125,-0.7178753018379211,-0.3705048263072968,0.0061801318079233,36.65402221679688,93.16758728027344,-40.83856201171875
153850,-0.578094482421875,0.742523193359375,0.129669189453125,-0.8450012803077698,-0.2043579369783401,0.0337981767952442,36.54414367675781,93.3109893798828,-40.48678588867188
153851,-0.5253143310546875,0.79901123046875,0.0457763671875,-1.020506024360657,-0.063547283411026,0.0160788353532552,36.38887023925781,93.49821472167967,-39.60992431640625
153852,-0.5066680908203125,0.8045806884765625,0.0635833740234375,-1.122366070747375,-0.0847913175821304,-0.0339521095156669,36.36892700195312,93.67982482910156,-38.96255493164062
153853,-0.4915771484375,0.8179779052734375,0.07147216796875,-1.200394868850708,-0.1681724935770035,-0.10850889980793,36.34512329101562,93.92494201660156,-38.69960021972656
153854,-0.4915771484375,0.8179779052734375,0.07147216796875,-1.200394868850708,-0.1681724935770035,-0.10850889980793,36.34512329101562,93.92494201660156,-38.69960021972656
153855,-0.5350189208984375,0.919921875,0.0574493408203125,-1.253494262695312,-0.2893316745758057,-0.2815129160881042,36.16290283203125,94.57086181640624,-38.02346801757812
153856,-0.55828857421875,0.9781494140625,0.0362701416015625,-1.221510529518127,-0.2830985486507416,-0.3543700575828552,36.03718566894531,94.74665832519533,-37.50563049316406
153857,-0.612884521484375,1.03985595703125,-0.1198272705078125,-1.095145106315613,-0.1825248003005981,-0.4200894236564636,35.65196228027344,95.15980529785156,-36.14900207519531
153858,-0.612884521484375,1.03985595703125,-0.1198272705078125,-1.095145106315613,-0.1825248003005981,-0.4200894236564636,35.65196228027344,95.15980529785156,-36.14900207519531
153859,-0.644866943359375,1.0560302734375,-0.242645263671875,-0.9922261834144592,-0.1773545444011688,-0.4365570843219757,35.41796875,95.3013153076172,-35.50457763671875
153860,-0.65313720703125,1.025115966796875,-0.356536865234375,-0.9218215346336364,-0.2680152058601379,-0.4315042793750763,35.15887451171875,95.47256469726562,-34.95283508300781
153861,-0.63421630859375,0.9871368408203124,-0.364166259765625,-0.9284152388572692,-0.361892968416214,-0.4172446429729462,34.91339111328125,95.64248657226562,-34.40017700195312
153862,-0.63421630859375,0.9871368408203124,-0.364166259765625,-0.9284152388572692,-0.361892968416214,-0.4172446429729462,34.91339111328125,95.64248657226562,-34.40017700195312
153863,-0.576751708984375,0.9759521484375,-0.3264007568359375,-0.8724814057350159,-0.3111762702465057,-0.420770674943924,34.39663696289062,95.93663024902344,-33.27894592285156
153864,-0.576751708984375,0.9759521484375,-0.3264007568359375,-0.8724814057350159,-0.3111762702465057,-0.420770674943924,34.39663696289062,95.93663024902344,-33.27894592285156
153865,-0.5880126953125,0.9524688720703124,-0.40045166015625,-0.5815629959106445,-0.1147185936570168,-0.2738105058670044,33.86091613769531,96.1114501953125,-32.18986511230469
153866,-0.5928802490234375,0.912078857421875,-0.4380035400390625,-0.4488931000232697,-0.0717168003320694,-0.1591132283210754,33.49342346191406,96.18832397460938,-31.69500732421875
153867,-0.578125,0.848602294921875,-0.48822021484375,-0.3184978067874908,-0.0983912870287895,-0.0457033067941665,33.32666015625,96.16058349609376,-31.29513549804688
153868,-0.5513916015625,0.804718017578125,-0.536529541015625,-0.1631194204092026,-0.1449289619922638,0.1005172878503799,33.21539306640625,96.2470245361328,-31.00411987304688
153869,-0.5006866455078125,0.79718017578125,-0.5784454345703125,0.0224041081964969,-0.1479359269142151,0.2542453408241272,33.20870971679688,96.09219360351562,-30.854736328125
153870,-0.42730712890625,0.8287200927734375,-0.619873046875,0.2241769134998322,-0.0880366489291191,0.4104924499988556,33.30134582519531,96.1448974609375,-30.78196716308594
153871,-0.360382080078125,0.9024505615234376,-0.6457366943359375,0.3909182250499725,0.0247351732105016,0.5338663458824158,33.36441040039062,96.0858154296875,-30.75894165039062
153872,-0.360382080078125,0.9024505615234376,-0.6457366943359375,0.3909182250499725,0.0247351732105016,0.5338663458824158,33.36441040039062,96.0858154296875,-30.75894165039062
153873,-0.308441162109375,0.9871673583984376,-0.641357421875,0.487644761800766,0.1879933327436447,0.6101296544075012,33.54542541503906,96.18455505371094,-30.85813903808594
153874,-0.243194580078125,1.110626220703125,-0.5650634765625,0.5476558804512024,0.3888382911682129,0.614408552646637,33.96745300292969,96.1422119140625,-31.24560546875
153875,-0.2413330078125,1.096282958984375,-0.520416259765625,0.5869987607002258,0.3907544314861298,0.579219400882721,34.26490783691406,96.33030700683594,-31.51705932617188
153876,-0.2413330078125,1.096282958984375,-0.520416259765625,0.5869987607002258,0.3907544314861298,0.579219400882721,34.26490783691406,96.33030700683594,-31.51705932617188
153877,-0.297454833984375,1.003219604492188,-0.4497833251953125,0.6839945912361145,0.2849473059177399,0.5714980959892273,34.79379272460938,96.36456298828124,-32.35745239257812
153878,-0.317352294921875,0.9773406982421876,-0.4029083251953125,0.7048425674438477,0.1964246332645416,0.5593706369400024,35.10443115234375,96.337890625,-32.63536071777344
153879,-0.344818115234375,0.9361419677734376,-0.3646240234375,0.7004510164260864,0.0821204334497451,0.5096421837806702,35.3927001953125,96.44841003417967,-33.01325988769531
153880,-0.3776702880859375,0.8932342529296875,-0.3232269287109375,0.6883406043052673,-0.1016925424337387,0.451967716217041,35.66300964355469,96.50003051757812,-33.42063903808594
153881,-0.404510498046875,0.8577728271484375,-0.253387451171875,0.6546012759208679,-0.3058435320854187,0.4173088073730469,35.944091796875,96.5067901611328,-33.78694152832031
153882,-0.404510498046875,0.8577728271484375,-0.253387451171875,0.6546012759208679,-0.3058435320854187,0.4173088073730469,35.944091796875,96.5067901611328,-33.78694152832031
153883,-0.4415283203125,0.8094024658203125,0.00189208984375,0.6037660241127014,-0.5482396483421326,0.4550884068012238,36.36093139648438,96.36579895019533,-34.45697021484375
153884,-0.4781036376953125,0.7931365966796875,0.1236114501953125,0.6201178431510925,-0.5421130657196045,0.4882495701313019,36.55645751953125,96.2516632080078,-34.7149658203125
153885,-0.51776123046875,0.7868804931640625,0.2052764892578125,0.7005248069763184,-0.5263972282409668,0.543343722820282,36.73245239257812,96.31675720214844,-35.13908386230469
153886,-0.5219879150390625,0.7916107177734375,0.2503509521484375,0.7881952524185181,-0.5522860884666443,0.609620213508606,36.90243530273438,96.22547912597656,-35.30181884765625
153887,-0.5154876708984375,0.8087158203125,0.2931365966796875,0.8497270941734314,-0.5491872429847717,0.6536153554916382,36.99978637695312,96.25808715820312,-35.63322448730469
153888,-0.5175018310546875,0.823883056640625,0.338134765625,0.856194019317627,-0.4825293719768524,0.6552878022193909,37.24436950683594,96.11697387695312,-35.8350830078125
153889,-0.4970550537109375,0.8150177001953125,0.3614044189453125,0.7717617154121399,-0.3641675710678101,0.6226617097854614,37.40092468261719,95.97769165039062,-36.10650634765625
153890,-0.4970550537109375,0.8150177001953125,0.3614044189453125,0.7717617154121399,-0.3641675710678101,0.6226617097854614,37.40092468261719,95.97769165039062,-36.10650634765625
153891,-0.47845458984375,0.7822418212890625,0.3299102783203125,0.3899011611938477,-0.1178946793079376,0.5293123126029968,37.9224853515625,95.7768096923828,-36.74899291992188
153892,-0.4492034912109375,0.769134521484375,0.27001953125,0.2111053168773651,-0.1095845475792885,0.4569137394428253,38.3131103515625,95.63713073730467,-36.98974609375
153893,-0.4016571044921875,0.7394561767578125,0.1776885986328125,0.0802165418863296,-0.1770528107881546,0.3909714818000793,38.44647216796875,95.52903747558594,-37.31097412109375
153894,-0.4016571044921875,0.7394561767578125,0.1776885986328125,0.0802165418863296,-0.1770528107881546,0.3909714818000793,38.44647216796875,95.52903747558594,-37.31097412109375
153895,-0.3964080810546875,0.773956298828125,0.11334228515625,0.0628860220313072,-0.1964723169803619,0.2280318289995193,38.85446166992188,95.44978332519533,-37.47471618652344
153896,-0.47308349609375,0.8092498779296875,0.1199493408203125,0.0677385702729225,0.0337446480989456,0.1060811653733253,38.84666442871094,95.57723999023438,-37.40687561035156
153897,-0.584686279296875,0.827789306640625,0.1111907958984375,0.0399596653878688,0.1299444139003754,-0.0148479221388697,38.84175109863281,95.5371551513672,-37.4117431640625
153898,-0.584686279296875,0.827789306640625,0.1111907958984375,0.0399596653878688,0.1299444139003754,-0.0148479221388697,38.84175109863281,95.5371551513672,-37.4117431640625
153899,-0.676361083984375,0.85418701171875,0.201873779296875,-0.1695043444633484,0.0697721540927887,-0.2699214816093445,38.98336791992188,95.54338073730467,-37.61964416503906
153900,-0.676361083984375,0.85418701171875,0.201873779296875,-0.1695043444633484,0.0697721540927887,-0.2699214816093445,38.98336791992188,95.54338073730467,-37.61964416503906
153901,-0.7231903076171875,0.8116455078125,0.21875,-0.3945268094539642,0.008298410102725,-0.4534143507480621,38.81997680664062,95.54415893554688,-37.44895935058594
153902,-0.7279815673828125,0.7795562744140625,0.202545166015625,-0.4539222121238708,-0.0333467721939086,-0.5002777576446533,38.77032470703125,95.62873840332033,-37.39405822753906
153903,-0.719696044921875,0.75,0.1736602783203125,-0.4693547189235687,-0.0721136108040809,-0.5205520987510681,38.64436340332031,95.5502471923828,-37.19474792480469
153904,-0.719696044921875,0.75,0.1736602783203125,-0.4693547189235687,-0.0721136108040809,-0.5205520987510681,38.64436340332031,95.5502471923828,-37.19474792480469
153905,-0.7030792236328125,0.7274322509765625,0.1439208984375,-0.4455913305282593,-0.0822365507483482,-0.5279666185379028,38.49990844726562,95.61540222167967,-36.96940612792969
153906,-0.679229736328125,0.7151336669921875,0.1159210205078125,-0.4099433124065399,-0.0585836842656135,-0.5307541489601135,38.15983581542969,95.7334442138672,-36.93775939941406
153907,-0.6220245361328125,0.6858673095703125,0.0574493408203125,-0.3489859402179718,-0.0255666133016347,-0.5670362710952759,37.63961791992188,95.7095947265625,-36.52305603027344
153908,-0.5938568115234375,0.6648406982421875,0.03485107421875,-0.368886411190033,-0.0586446709930896,-0.5811683535575867,37.47320556640625,95.71163940429688,-36.30227661132812
153909,-0.5648956298828125,0.655853271484375,-0.0048675537109375,-0.4218795895576477,-0.1613212525844574,-0.5862906575202942,37.18086242675781,95.76390075683594,-36.19404602050781
153910,-0.5648956298828125,0.655853271484375,-0.0048675537109375,-0.4218795895576477,-0.1613212525844574,-0.5862906575202942,37.18086242675781,95.76390075683594,-36.19404602050781
153911,-0.5111846923828125,0.653778076171875,-0.0815582275390625,-0.5938135385513306,-0.4999855756759644,-0.5731194615364075,36.56326293945312,95.62789916992188,-35.86849975585938
153912,-0.5005340576171875,0.6528167724609375,-0.064910888671875,-0.7002960443496704,-0.6238393783569336,-0.552004873752594,36.27713012695312,95.64445495605467,-35.5926513671875
153913,-0.4979248046875,0.6630859375,-0.031005859375,-0.80426025390625,-0.6609827280044556,-0.5329480767250061,35.89569091796875,95.6807861328125,-35.37147521972656
153914,-0.4979248046875,0.6630859375,-0.031005859375,-0.80426025390625,-0.6609827280044556,-0.5329480767250061,35.89569091796875,95.6807861328125,-35.37147521972656
153915,-0.5767364501953125,0.760772705078125,-0.0453338623046875,-0.9547117948532104,-0.6826786994934082,-0.5176737904548645,35.09512329101562,95.83139038085938,-34.57424926757812
153916,-0.5767364501953125,0.760772705078125,-0.0453338623046875,-0.9547117948532104,-0.6826786994934082,-0.5176737904548645,35.09512329101562,95.83139038085938,-34.57424926757812
153917,-0.619537353515625,0.849822998046875,-0.0861053466796875,-0.9637377858161926,-0.7343751788139343,-0.5085479021072388,34.68107604980469,95.82272338867188,-34.1156005859375
153918,-0.6564483642578125,1.012725830078125,-0.120849609375,-0.7841280698776245,-0.7886802554130554,-0.4396293163299561,33.83294677734375,95.93878173828124,-32.97506713867188
153919,-0.62744140625,1.087509155273438,-0.1230316162109375,-0.6055777668952942,-0.7368775010108948,-0.3870909810066223,33.34043884277344,96.08477783203124,-32.43901062011719
153920,-0.62744140625,1.087509155273438,-0.1230316162109375,-0.6055777668952942,-0.7368775010108948,-0.3870909810066223,33.34043884277344,96.08477783203124,-32.43901062011719
153921,-0.5986328125,1.162216186523438,-0.144256591796875,-0.2447479665279388,-0.5900710225105286,-0.241098627448082,32.2686767578125,96.35627746582033,-31.48115539550781
153922,-0.57568359375,1.16009521484375,-0.2023162841796875,-0.0440982170403003,-0.5757392048835754,-0.1740860491991043,31.98765563964844,96.35638427734376,-31.05570983886719
153923,-0.5084228515625,1.101943969726562,-0.2728271484375,0.1522353440523148,-0.619488537311554,-0.0938045233488082,31.66534423828125,96.19831848144533,-30.62629699707031
153924,-0.420074462890625,1.046798706054688,-0.34698486328125,0.3533902764320374,-0.6701626181602478,-0.0211396403610706,31.47389221191406,96.15126037597656,-30.39665222167969
153925,-0.346466064453125,0.995697021484375,-0.435699462890625,0.5704400539398193,-0.6766245365142822,0.0661369413137435,31.34297180175781,96.07566833496094,-30.30390930175781
153926,-0.346466064453125,0.995697021484375,-0.435699462890625,0.5704400539398193,-0.6766245365142822,0.0661369413137435,31.34297180175781,96.07566833496094,-30.30390930175781
153927,-0.2432098388671875,0.9859619140625,-0.623748779296875,0.953755497932434,-0.5763842463493347,0.1805460751056671,31.1898193359375,96.05046081542967,-30.31974792480469
153928,-0.212860107421875,1.0108642578125,-0.6719512939453125,1.06671130657196,-0.502403199672699,0.2009943574666977,31.22813415527344,95.73492431640624,-30.47920227050781
153929,-0.2008056640625,1.035751342773438,-0.6514434814453125,1.117919921875,-0.394915372133255,0.2013403028249741,31.33012390136719,95.68612670898438,-30.83421325683594
153930,-0.2124481201171875,1.044601440429688,-0.6148529052734375,1.125159502029419,-0.2462625056505203,0.1746061593294144,31.35763549804688,95.52297973632812,-31.1583251953125
153931,-0.2482452392578125,1.06439208984375,-0.579742431640625,1.119836330413818,-0.1903909891843796,0.1787226051092148,31.447509765625,95.39688110351562,-31.61293029785156
153932,-0.2482452392578125,1.06439208984375,-0.579742431640625,1.119836330413818,-0.1903909891843796,0.1787226051092148,31.447509765625,95.39688110351562,-31.61293029785156
153933,-0.370361328125,1.101730346679688,-0.4986724853515625,1.158892631530762,-0.1764168441295624,0.2363041490316391,31.63348388671875,95.1870574951172,-32.6341552734375
153934,-0.438140869140625,1.111679077148438,-0.441162109375,1.174157381057739,-0.1459132581949234,0.2573087513446808,31.68734741210938,95.1851043701172,-33.16078186035156
153935,-0.508270263671875,1.131072998046875,-0.3646240234375,1.168119192123413,-0.0766931772232055,0.2788164615631104,31.77824401855469,94.98013305664062,-33.63368225097656
153936,-0.57720947265625,1.162460327148438,-0.2825469970703125,1.156635403633118,0.0135882468894124,0.2822567224502563,31.88414001464844,94.94805908203124,-34.24223327636719
153937,-0.6364898681640625,1.205718994140625,-0.222747802734375,1.149929523468018,0.0332602187991142,0.2590299546718597,31.95217895507812,94.7415771484375,-34.80934143066406
153938,-0.689483642578125,1.245361328125,-0.1640625,1.133201718330383,-0.0457059703767299,0.1874196976423264,32.20591735839844,94.53097534179688,-35.33255004882812
153939,-0.7496185302734375,1.288650512695312,-0.1000213623046875,1.12415087223053,-0.1475489735603333,0.1119419783353806,32.22825622558594,94.44351196289062,-35.87747192382812
153940,-0.7496185302734375,1.288650512695312,-0.1000213623046875,1.12415087223053,-0.1475489735603333,0.1119419783353806,32.22825622558594,94.44351196289062,-35.87747192382812
153941,-0.8455657958984375,1.27020263671875,-0.0011138916015625,1.133378267288208,-0.2024947851896286,-0.0934343412518501,32.36338806152344,94.15072631835938,-36.91989135742188
153942,-0.8527679443359375,1.195220947265625,0.042388916015625,1.178999543190002,-0.2228274792432785,-0.1255611181259155,32.44241333007812,93.94984436035156,-37.43916320800781
153943,-0.8415374755859375,1.081069946289062,0.056060791015625,1.257869005203247,-0.2797184586524963,-0.099324457347393,32.36067199707031,93.69357299804688,-37.88581848144531
153944,-0.810333251953125,0.9223480224609376,0.042938232421875,1.295844912528992,-0.411577433347702,0.0014237258583307,32.43907165527344,93.36003112792967,-38.31826782226562
153945,-0.7724151611328125,0.7656707763671875,0.0838165283203125,1.334021091461182,-0.5481184720993042,0.1638121008872986,32.41258239746094,93.12429809570312,-38.78053283691406
153946,-0.702606201171875,0.658721923828125,0.129241943359375,1.352839469909668,-0.6049482226371765,0.2988570034503937,32.38308715820312,92.92721557617188,-39.40095520019531
153947,-0.611907958984375,0.5819854736328125,0.1494598388671875,1.339848875999451,-0.6921741962432861,0.3273507058620453,32.4423828125,92.69252014160156,-39.87307739257812
153948,-0.5518798828125,0.4962158203125,0.1753997802734375,1.286725759506226,-0.7333732843399048,0.3156549036502838,32.56575012207031,92.42233276367188,-40.35098266601562
153949,-0.529571533203125,0.421600341796875,0.1583099365234375,1.210775256156921,-0.7069981694221497,0.308169811964035,32.66885375976562,92.2119598388672,-40.59664916992188
153950,-0.529571533203125,0.421600341796875,0.1583099365234375,1.210775256156921,-0.7069981694221497,0.308169811964035,32.66885375976562,92.2119598388672,-40.59664916992188
153951,-0.5038299560546875,0.393524169921875,0.1006011962890625,1.202327728271484,-0.6164341568946838,0.1912538409233093,32.81982421875,91.6281280517578,-41.08978271484375
153952,-0.4986419677734375,0.3512725830078125,0.1089019775390625,1.155244112014771,-0.3808099329471588,0.0777437984943389,32.93325805664062,91.34727478027344,-41.35452270507812
153953,-0.5267486572265625,0.283843994140625,0.0854644775390625,1.064759492874146,-0.0607400462031364,-0.0427538566291332,32.96318054199219,91.0370635986328,-42.05827331542969
153954,-0.558990478515625,0.2128753662109375,0.0565032958984375,0.9555214047431946,0.1473021060228348,-0.1100327596068382,32.9210205078125,90.75,-42.69515991210938
153955,-0.568817138671875,0.1971435546875,0.0769195556640625,0.7677403092384338,0.2382080405950546,-0.1140341609716415,32.92726135253906,90.49630737304688,-43.22438049316406
153956,-0.568817138671875,0.1971435546875,0.0769195556640625,0.7677403092384338,0.2382080405950546,-0.1140341609716415,32.92726135253906,90.49630737304688,-43.22438049316406
153957,-0.4995574951171875,0.3408966064453125,0.17608642578125,0.1299129873514175,0.0843633487820625,0.0363811776041984,33.08399963378906,90.09225463867188,-44.01223754882812
153958,-0.502777099609375,0.4276580810546875,0.2361602783203125,-0.1742639392614365,-0.0734164267778396,0.0990181937813758,33.08343505859375,90.02601623535156,-44.16963195800781
153959,-0.542144775390625,0.5335540771484375,0.3023223876953125,-0.3913456499576569,-0.2084173858165741,0.1370747685432434,33.13209533691406,90.02497863769531,-44.2432861328125
153960,-0.5952911376953125,0.6656341552734375,0.358367919921875,-0.5295693278312683,-0.3270241916179657,0.1084095612168312,33.16044616699219,90.06712341308594,-44.18614196777344
153961,-0.6371917724609375,0.7200164794921875,0.3790283203125,-0.6163843870162964,-0.4719571471214294,0.0520171299576759,33.13447570800781,90.2962646484375,-44.097900390625
153962,-0.650909423828125,0.712127685546875,0.37286376953125,-0.6718593239784241,-0.6277264952659607,0.0089626023545861,33.01814270019531,90.45962524414062,-43.76649475097656
153963,-0.6266632080078125,0.71002197265625,0.3576507568359375,-0.7656867504119873,-0.692489504814148,-0.0125248469412326,32.92311096191406,90.51235961914062,-43.24745178222656
153964,-0.5904388427734375,0.745513916015625,0.302734375,-0.9251959919929504,-0.6277651190757751,-0.0149275502189993,32.69683837890625,90.70077514648438,-42.91021728515625
153965,-0.5722198486328125,0.7991485595703125,0.223480224609375,-1.051573157310486,-0.5357822179794312,-0.0192506592720747,32.445556640625,90.96794128417967,-42.5521240234375
153966,-0.577789306640625,0.83465576171875,0.167144775390625,-1.08696436882019,-0.4766456484794617,-0.0371087528765201,32.21231079101562,91.17730712890624,-42.13674926757812
153967,-0.5957489013671875,0.8484039306640625,0.1720733642578125,-1.088338613510132,-0.4700721502304077,-0.0759482905268669,32.1529541015625,91.42897033691406,-41.719482421875
153968,-0.5957489013671875,0.8484039306640625,0.1720733642578125,-1.088338613510132,-0.4700721502304077,-0.0759482905268669,32.1529541015625,91.42897033691406,-41.719482421875
153969,-0.6521148681640625,0.88372802734375,0.204833984375,-1.136572957038879,-0.373846560716629,-0.2069092392921448,31.85716247558594,92.0649871826172,-40.59007263183594
153970,-0.67352294921875,0.9168548583984376,0.160675048828125,-1.121061682701111,-0.3520413935184479,-0.2742776274681091,31.64356994628906,92.33448791503906,-40.02378845214844
153971,-0.7032012939453125,0.958831787109375,0.0802154541015625,-1.101633310317993,-0.3580684065818787,-0.3216528594493866,31.35887145996094,92.64607238769533,-39.43801879882812
153972,-0.7204132080078125,1.021987915039062,-0.038421630859375,-1.068397879600525,-0.4589401483535767,-0.3570526540279388,31.09736633300781,92.81779479980467,-38.933837890625
153973,-0.724700927734375,1.037689208984375,-0.1265411376953125,-1.025772929191589,-0.5682181715965271,-0.3709953725337982,30.87196350097656,92.93635559082033,-38.36959838867188
153974,-0.7073516845703125,1.0135498046875,-0.21893310546875,-0.9710886478424072,-0.6304301619529724,-0.3965920805931091,30.50831604003906,93.158935546875,-37.89073181152344
153975,-0.6424713134765625,0.9655914306640624,-0.294647216796875,-0.8831385374069214,-0.6727315187454224,-0.4245121479034424,30.18482971191406,93.26954650878906,-37.33621215820312
153976,-0.5821380615234375,0.9521331787109376,-0.33154296875,-0.780426025390625,-0.6388164162635803,-0.4378678798675537,29.84217834472656,93.26268005371094,-36.65769958496094
153977,-0.5364532470703125,0.986968994140625,-0.343414306640625,-0.6392313838005066,-0.5304726362228394,-0.4348028600215912,29.45358276367188,93.3061981201172,-36.09654235839844
153978,-0.5265960693359375,1.033294677734375,-0.33038330078125,-0.510179877281189,-0.3598980009555817,-0.3839817643165588,29.17315673828125,93.36070251464844,-35.47355651855469
153979,-0.581207275390625,1.062698364257812,-0.3521575927734375,-0.3996438086032867,-0.2066839337348938,-0.2926012277603149,28.82511901855469,93.46893310546876,-35.00450134277344
153980,-0.64617919921875,1.051849365234375,-0.4157562255859375,-0.2736970484256744,-0.1702074110507965,-0.1738732606172562,28.547119140625,93.46690368652344,-34.665283203125
153981,-0.6726837158203125,1.03173828125,-0.49530029296875,-0.1100074574351311,-0.1846513450145721,-0.0410611517727375,28.37409973144531,93.43341064453124,-34.27766418457031
153982,-0.6688995361328125,1.0164794921875,-0.581298828125,0.094147004187107,-0.1464810520410538,0.0972253531217575,28.21011352539062,93.45896911621094,-34.13174438476562
153983,-0.6104736328125,1.033920288085938,-0.6700286865234375,0.3228811025619507,-0.0885777994990348,0.2566512227058411,28.17433166503906,93.38371276855467,-34.10136413574219
153984,-0.5446929931640625,1.106719970703125,-0.7138519287109375,0.4882538318634033,0.0395468771457672,0.4035618603229523,28.22938537597656,93.21566772460938,-34.04545593261719
153985,-0.4592437744140625,1.177520751953125,-0.71636962890625,0.6066148281097412,0.1618980914354324,0.514134407043457,28.28581237792969,93.1287078857422,-34.07682800292969
153986,-0.4592437744140625,1.177520751953125,-0.71636962890625,0.6066148281097412,0.1618980914354324,0.514134407043457,28.28581237792969,93.1287078857422,-34.07682800292969
153987,-0.38604736328125,1.2520751953125,-0.6051177978515625,0.666174054145813,0.366270124912262,0.5429828763008118,28.68063354492188,93.151123046875,-34.44293212890625
153988,-0.4219818115234375,1.233932495117188,-0.540130615234375,0.6893155574798584,0.4467908143997192,0.5409484505653381,28.88365173339844,93.20220947265624,-34.752685546875
153989,-0.4660491943359375,1.1815185546875,-0.4817657470703125,0.734998881816864,0.5041033625602722,0.5789179801940918,29.21928405761719,93.26869201660156,-35.1900634765625
153990,-0.4802703857421875,1.125015258789062,-0.4412841796875,0.7535864114761353,0.5044836401939392,0.5941163301467896,29.48345947265625,93.38218688964844,-35.71144104003906
153991,-0.5003662109375,1.079864501953125,-0.3986968994140625,0.7544511556625366,0.4387139678001404,0.5915921926498413,29.89138793945312,93.49908447265624,-36.18473815917969
153992,-0.5003662109375,1.079864501953125,-0.3986968994140625,0.7544511556625366,0.4387139678001404,0.5915921926498413,29.89138793945312,93.49908447265624,-36.18473815917969
153993,-0.5462188720703125,0.9713287353515624,-0.2870635986328125,0.7251142859458923,0.2119231671094894,0.4712024033069611,30.48847961425781,93.402099609375,-37.11476135253906
153994,-0.5650177001953125,0.918670654296875,-0.2280426025390625,0.7079265117645264,0.061809305101633,0.4004400968551636,30.84243774414062,93.48715209960938,-37.61491394042969
153995,-0.5795440673828125,0.8948211669921875,-0.17510986328125,0.6908388733863831,-0.118053138256073,0.3455254435539246,31.0572509765625,93.49615478515624,-38.10206604003906
153996,-0.5795440673828125,0.8948211669921875,-0.17510986328125,0.6908388733863831,-0.118053138256073,0.3455254435539246,31.0572509765625,93.49615478515624,-38.10206604003906
153997,-0.5543670654296875,0.8364410400390625,0.0098876953125,0.6404473781585693,-0.4527221918106079,0.2991901636123657,31.42022705078125,93.54533386230467,-38.79129028320312
153998,-0.5374908447265625,0.8054351806640625,0.1133575439453125,0.6371878981590271,-0.4991743862628937,0.3106321692466736,31.52079772949219,93.48898315429688,-39.02552795410156
153999,-0.5107269287109375,0.7837066650390625,0.1748504638671875,0.6984110474586487,-0.5237159729003906,0.3813079297542572,31.68443298339844,93.43418884277344,-39.31233215332031
154000,-0.4714813232421875,0.7848663330078125,0.19110107421875,0.7953610420227051,-0.6342786550521851,0.4904850125312805,31.85679626464844,93.29818725585938,-39.43914794921875
154001,-0.427215576171875,0.7990875244140625,0.2230224609375,0.8737205862998962,-0.7893021106719971,0.5541588068008423,32.08900451660156,93.10389709472656,-39.71481323242188
154002,-0.37353515625,0.7879180908203125,0.288360595703125,0.8888377547264099,-0.8798538446426392,0.5549337863922119,32.28707885742188,93.01304626464844,-40.01615905761719
154003,-0.3001556396484375,0.7446441650390625,0.3398284912109375,0.8073500394821167,-0.8334192037582397,0.5332716107368469,32.38204956054688,92.88623046875,-40.34367370605469
154004,-0.2341766357421875,0.6820831298828125,0.3570098876953125,0.67843097448349,-0.7229790091514587,0.5451775789260864,32.52630615234375,92.71607971191406,-40.42179870605469
154005,-0.1782684326171875,0.6216888427734375,0.3428955078125,0.5185217261314392,-0.5766638517379761,0.5841172337532043,32.62054443359375,92.47981262207033,-40.60848999023438
154006,-0.1782684326171875,0.6216888427734375,0.3428955078125,0.5185217261314392,-0.5766638517379761,0.5841172337532043,32.62054443359375,92.47981262207033,-40.60848999023438
154007,-0.2187652587890625,0.5559234619140625,0.26763916015625,0.2782127261161804,-0.2071910053491592,0.585550844669342,32.86494445800781,92.26971435546876,-40.90975952148438
154008,-0.342620849609375,0.595489501953125,0.211029052734375,0.2084586620330811,-0.0163890924304723,0.5293536186218262,32.98489379882812,92.28677368164062,-40.96278381347656
154009,-0.4338226318359375,0.63787841796875,0.1416473388671875,0.1419044137001038,0.0461696237325668,0.4567161500453949,33.15472412109375,92.1243133544922,-41.07614135742188
154010,-0.4416046142578125,0.620849609375,0.07940673828125,0.0671185851097106,-0.0052759884856641,0.3865309357643127,33.43382263183594,92.11717224121094,-41.21766662597656
154011,-0.411529541015625,0.5946044921875,0.06402587890625,-0.0399881638586521,-0.0682349801063537,0.3349305987358093,33.65522766113281,92.1898193359375,-41.2161865234375
154012,-0.3975067138671875,0.5883026123046875,0.0504150390625,-0.1399693489074707,-0.0887708812952041,0.2651855945587158,33.81857299804688,92.154296875,-41.18043518066406
154013,-0.4259490966796875,0.6130523681640625,0.0374908447265625,-0.215687558054924,-0.0842075571417808,0.1760631799697876,33.94552612304688,92.18080139160156,-41.23997497558594
154014,-0.4259490966796875,0.6130523681640625,0.0374908447265625,-0.215687558054924,-0.0842075571417808,0.1760631799697876,33.94552612304688,92.18080139160156,-41.23997497558594
154015,-0.5100860595703125,0.7479400634765625,0.095245361328125,-0.3718856871128082,-0.0051918323151767,-0.0359084643423557,34.13459777832031,92.30276489257812,-41.15727233886719
154016,-0.52264404296875,0.808441162109375,0.132598876953125,-0.4108181595802307,-0.0121474768966436,-0.1446029841899872,34.13920593261719,92.40803527832033,-40.9251708984375
154017,-0.5337677001953125,0.85516357421875,0.1702423095703125,-0.4139953255653381,-0.0230592470616102,-0.2269844114780426,34.13414001464844,92.5077667236328,-40.67324829101562
154018,-0.535369873046875,0.8931884765625,0.195037841796875,-0.3926317095756531,-0.0271261595189571,-0.2964923977851868,33.96298217773438,92.6859130859375,-40.56861877441406
154019,-0.5462646484375,0.919677734375,0.2159271240234375,-0.3786442577838898,-0.0071718925610184,-0.339180201292038,33.91072082519531,92.77082824707033,-40.41499328613281
154020,-0.5621795654296875,0.9322357177734376,0.2080078125,-0.3616985380649567,0.0199974104762077,-0.3809548020362854,33.85456848144531,92.7709503173828,-40.29286193847656
154021,-0.5846710205078125,0.9096527099609376,0.1626434326171875,-0.3189170062541962,-0.0090281162410974,-0.4163386225700378,33.63716125488281,92.82806396484376,-40.16166687011719
154022,-0.5846710205078125,0.9096527099609376,0.1626434326171875,-0.3189170062541962,-0.0090281162410974,-0.4163386225700378,33.63716125488281,92.82806396484376,-40.16166687011719
154023,-0.59515380859375,0.767059326171875,0.0883026123046875,-0.1795788109302521,-0.1171231642365456,-0.4641085565090179,33.29129028320312,92.98860168457033,-39.89601135253906
154024,-0.57489013671875,0.69384765625,0.0705413818359375,-0.1459271162748337,-0.1596623659133911,-0.496793270111084,33.17378234863281,92.9543914794922,-39.75860595703125
154025,-0.548431396484375,0.639251708984375,0.0569915771484375,-0.150010272860527,-0.2207259833812714,-0.5298728942871094,32.90359497070312,92.96473693847656,-39.76034545898438
154026,-0.548431396484375,0.639251708984375,0.0569915771484375,-0.150010272860527,-0.2207259833812714,-0.5298728942871094,32.90359497070312,92.96473693847656,-39.76034545898438
154027,-0.509429931640625,0.5918731689453125,0.042236328125,-0.2355792373418808,-0.409152626991272,-0.5928753018379211,32.41645812988281,92.95460510253906,-39.72755432128906
154028,-0.4949493408203125,0.6046600341796875,0.01800537109375,-0.3030043542385101,-0.5326128005981445,-0.5992738008499146,32.05821228027344,92.92063903808594,-39.49105834960938
154029,-0.4932708740234375,0.6361083984375,0.0027618408203125,-0.3564699590206146,-0.6681565046310425,-0.6053215861320496,31.74119567871094,92.85435485839844,-39.36897277832031
154030,-0.4932708740234375,0.6361083984375,0.0027618408203125,-0.3564699590206146,-0.6681565046310425,-0.6053215861320496,31.74119567871094,92.85435485839844,-39.36897277832031
154031,-0.5065460205078125,0.715179443359375,0.0313568115234375,-0.5476590991020203,-0.8019795417785645,-0.6001028418540955,30.85713195800781,92.70741271972656,-38.79765319824219
154032,-0.55364990234375,0.801239013671875,0.02392578125,-0.6359016299247742,-0.824214518070221,-0.6020839810371399,30.36155700683594,92.79557800292967,-38.49383544921875
154033,-0.6071319580078125,0.906646728515625,-0.003570556640625,-0.695095956325531,-0.8188400268554688,-0.6080851554870605,29.83224487304688,92.90533447265624,-38.10595703125
154034,-0.666046142578125,1.015121459960938,-0.0551910400390625,-0.679553747177124,-0.8022857904434204,-0.6197080016136169,29.37898254394531,92.91741943359376,-37.67558288574219
154035,-0.712127685546875,1.08343505859375,-0.0996551513671875,-0.5896915197372437,-0.7300765514373779,-0.6053019165992737,28.84928894042969,92.87638854980467,-37.16780090332031
154036,-0.712127685546875,1.08343505859375,-0.0996551513671875,-0.5896915197372437,-0.7300765514373779,-0.6053019165992737,28.84928894042969,92.87638854980467,-37.16780090332031
154037,-0.7155303955078125,1.115692138671875,-0.148651123046875,-0.4563861787319183,-0.6596250534057617,-0.5490173101425171,28.16539001464844,92.91984558105467,-36.5853271484375
154038,-0.7031707763671875,1.13818359375,-0.1790618896484375,-0.3348211348056793,-0.591987669467926,-0.4593074023723602,27.69140625,93.01229858398438,-36.22982788085938
154039,-0.68011474609375,1.12420654296875,-0.227264404296875,-0.1575779020786285,-0.4276317656040192,-0.2094424366950989,26.78910827636719,92.97322082519533,-35.34158325195312
154040,-0.68011474609375,1.12420654296875,-0.227264404296875,-0.1575779020786285,-0.4276317656040192,-0.2094424366950989,26.78910827636719,92.97322082519533,-35.34158325195312
154041,-0.6203765869140625,0.9758453369140624,-0.3475494384765625,0.0588412135839462,-0.3239575624465942,-0.0295648165047168,26.29496765136719,92.9696044921875,-34.81623840332031
154042,-0.6027679443359375,0.907684326171875,-0.4534759521484375,0.2277490049600601,-0.281499058008194,0.0634130612015724,26.04618835449219,92.93861389160156,-34.654296875
154043,-0.57830810546875,0.884521484375,-0.533782958984375,0.3891951441764832,-0.2123876214027405,0.1363959312438965,26.02325439453125,92.8818359375,-34.37492370605469
154044,-0.5255126953125,0.8784637451171875,-0.5856781005859375,0.5396941304206848,-0.0899085849523544,0.198855847120285,26.01666259765625,92.82899475097656,-34.34873962402344
154045,-0.4612884521484375,0.8918304443359375,-0.597442626953125,0.6756114959716797,0.0628516674041748,0.2536530494689941,26.15252685546875,92.786376953125,-34.32078552246094
154046,-0.4612884521484375,0.8918304443359375,-0.597442626953125,0.6756114959716797,0.0628516674041748,0.2536530494689941,26.15252685546875,92.786376953125,-34.32078552246094
154047,-0.3651123046875,0.962127685546875,-0.5547637939453125,0.8217239379882812,0.3105472028255463,0.3293004035949707,26.38890075683594,92.54173278808594,-34.83277893066406
154048,-0.3651123046875,0.962127685546875,-0.5547637939453125,0.8217239379882812,0.3105472028255463,0.3293004035949707,26.38890075683594,92.54173278808594,-34.83277893066406
154049,-0.3191375732421875,1.023406982421875,-0.5244598388671875,0.7876983284950256,0.3266851603984833,0.3625837862491608,26.55763244628906,92.37850952148438,-35.24638366699219
154050,-0.2708587646484375,1.099288940429688,-0.466552734375,0.7240378856658936,0.2935352027416229,0.3919826745986938,26.82525634765625,92.30221557617188,-35.56852722167969
154051,-0.2771148681640625,1.249969482421875,-0.296600341796875,0.6887339353561401,0.1778365820646286,0.4267531931400299,27.40666198730469,91.9749755859375,-36.27442932128906
154052,-0.3459320068359375,1.32574462890625,-0.211029052734375,0.6725666522979736,0.1098013296723366,0.4182435870170593,27.69808959960938,91.97126770019533,-36.72738647460938
154053,-0.425567626953125,1.401016235351562,-0.118377685546875,0.6255797147750854,-0.0264678262174129,0.3813489377498627,27.90461730957031,91.8433074951172,-37.18766784667969
154054,-0.425567626953125,1.401016235351562,-0.118377685546875,0.6255797147750854,-0.0264678262174129,0.3813489377498627,27.90461730957031,91.8433074951172,-37.18766784667969
154055,-0.611602783203125,1.562652587890625,0.0654754638671875,0.5465413928031921,-0.2899532616138458,0.1657903045415878,28.25807189941406,91.90614318847656,-38.12446594238281
154056,-0.611602783203125,1.562652587890625,0.0654754638671875,0.5465413928031921,-0.2899532616138458,0.1657903045415878,28.25807189941406,91.90614318847656,-38.12446594238281
154057,-0.763916015625,1.5274658203125,0.0859832763671875,0.8495206832885742,-0.3413171172142029,-0.0047092675231397,28.43202209472656,91.82218933105467,-38.56712341308594
154058,-0.79510498046875,1.406234741210938,0.04998779296875,1.057626485824585,-0.3601858913898468,-0.0179281346499919,28.47268676757812,91.77056884765624,-38.87712097167969
154059,-0.7823486328125,1.226593017578125,0.031829833984375,1.229167819023132,-0.3687396943569183,-0.004416852723807,28.41816711425781,91.68240356445312,-39.20355224609375
154060,-0.746368408203125,1.064712524414062,0.0074005126953125,1.354783535003662,-0.4281529486179352,0.0390038564801216,28.40179443359375,91.53793334960938,-39.602783203125
154061,-0.6989593505859375,0.931549072265625,-0.0562286376953125,1.415630459785461,-0.6047011017799377,0.0821241661906242,28.31362915039062,91.44157409667967,-39.93353271484375
154062,-0.6989593505859375,0.931549072265625,-0.0562286376953125,1.415630459785461,-0.6047011017799377,0.0821241661906242,28.31362915039062,91.44157409667967,-39.93353271484375
154063,-0.6094207763671875,0.747833251953125,-0.06060791015625,1.513808608055115,-1.204080581665039,0.1108301132917404,28.43009948730469,90.86222839355467,-40.86341857910156
154064,-0.5627593994140625,0.7116241455078125,0.047027587890625,1.627937078475952,-1.25728976726532,0.1389600187540054,28.39106750488281,90.46327209472656,-41.18362426757812
154065,-0.516082763671875,0.67767333984375,0.171295166015625,1.698317289352417,-1.104981780052185,0.1246521845459938,28.26519775390625,90.25526428222656,-41.70826721191406
154066,-0.49078369140625,0.6000823974609375,0.252288818359375,1.657894492149353,-0.8314220905303955,0.1205919310450554,28.19610595703125,89.98707580566406,-42.05433654785156
154067,-0.5034942626953125,0.52972412109375,0.2698822021484375,1.514914989471436,-0.5830557346343994,0.1302906274795532,28.20060729980469,89.48272705078125,-42.21531677246094
154068,-0.5195770263671875,0.447174072265625,0.245086669921875,1.337949275970459,-0.4070716202259064,0.1346454322338104,28.24459838867188,88.995849609375,-42.59849548339844
154069,-0.5301666259765625,0.34442138671875,0.19476318359375,1.225730061531067,-0.2953080832958221,0.099298357963562,28.31394958496094,88.58396911621094,-43.09373474121094
154070,-0.5244140625,0.23406982421875,0.1338958740234375,1.157646298408508,-0.241170808672905,0.0445155352354049,28.39762878417969,88.32489013671875,-43.51750183105469
154071,-0.5237579345703125,0.11688232421875,0.091705322265625,1.095242023468018,-0.1938703954219818,-0.0058400458656251,28.44285583496094,87.91572570800781,-43.88572692871094
154072,-0.5237579345703125,0.11688232421875,0.091705322265625,1.095242023468018,-0.1938703954219818,-0.0058400458656251,28.44285583496094,87.91572570800781,-43.88572692871094
154073,-0.494049072265625,-0.067291259765625,0.0579681396484375,0.8437637090682983,0.2108536511659622,-0.0485936366021633,28.35054016113281,87.33509826660156,-44.61430358886719
154074,-0.436431884765625,-0.05999755859375,0.032440185546875,0.6318626403808594,0.4024718105792999,-0.0086893616244196,28.31562805175781,87.19302368164062,-45.00454711914062
154075,-0.367889404296875,0.128509521484375,0.009002685546875,0.3916042447090149,0.3306040167808533,0.1154861152172089,28.35101318359375,86.91351318359375,-45.48591613769531
154076,-0.36138916015625,0.415313720703125,0.062469482421875,0.1292171031236649,0.0494304001331329,0.2201411575078964,28.41043090820312,86.65164184570312,-45.82316589355469
154077,-0.36138916015625,0.415313720703125,0.062469482421875,0.1292171031236649,0.0494304001331329,0.2201411575078964,28.41043090820312,86.65164184570312,-45.82316589355469
154078,-0.41461181640625,0.6248321533203125,0.1617889404296875,-0.1325410008430481,-0.2262786775827408,0.1913696974515915,28.6201171875,86.45367431640625,-46.16343688964844
154079,-0.5500946044921875,0.7959442138671875,0.2904052734375,-0.4505328238010406,-0.486826628446579,0.0973779484629631,28.7169189453125,86.52951049804688,-46.2017822265625
154080,-0.600799560546875,0.827606201171875,0.3032989501953125,-0.5079635977745056,-0.40425905585289,0.082166776061058,28.68901062011719,86.65184020996094,-46.09532165527344
154081,-0.611480712890625,0.8424072265625,0.262786865234375,-0.5573415756225586,-0.2474143207073212,0.0683428347110748,28.56651306152344,86.81768798828125,-45.88209533691406
154082,-0.585968017578125,0.84515380859375,0.188568115234375,-0.632858395576477,-0.1698257923126221,0.0428603813052177,28.41795349121094,87.01678466796875,-45.66572570800781
154083,-0.5510101318359375,0.82879638671875,0.1488189697265625,-0.7079238891601562,-0.2170598804950714,-0.0052909022197127,28.21244812011719,87.16447448730469,-45.43251037597656
154084,-0.5172271728515625,0.799835205078125,0.1571502685546875,-0.7786030769348145,-0.321807324886322,-0.0663633123040199,28.19905090332031,87.23077392578125,-45.20315551757812
154085,-0.4922332763671875,0.7808837890625,0.1822967529296875,-0.8535639047622681,-0.4262509047985077,-0.1333063989877701,28.09501647949219,87.46875,-44.88429260253906
154086,-0.48065185546875,0.7902374267578125,0.194854736328125,-0.9280048608779908,-0.5310848951339722,-0.1990212202072144,28.04653930664062,87.69247436523438,-44.56805419921875
154087,-0.50628662109375,0.8406219482421875,0.199981689453125,-1.006152868270874,-0.5971654057502747,-0.2799749374389648,27.88888549804688,87.85165405273438,-44.12826538085938
154088,-0.5623779296875,0.88824462890625,0.1517486572265625,-1.034471154212952,-0.6116002798080444,-0.3799731731414795,27.66154479980469,88.06163024902344,-43.74812316894531
154089,-0.597991943359375,0.8722991943359375,0.070159912109375,-0.983132779598236,-0.5955158472061157,-0.4287604093551636,27.04681396484375,88.52586364746094,-42.78501892089844
154090,-0.597991943359375,0.8722991943359375,0.070159912109375,-0.983132779598236,-0.5955158472061157,-0.4287604093551636,27.04681396484375,88.52586364746094,-42.78501892089844
154091,-0.644927978515625,0.851409912109375,-0.0905303955078125,-0.7986750602722168,-0.3794698119163513,-0.4664694368839264,26.42210388183594,88.67253112792969,-41.50775146484375
154092,-0.644927978515625,0.851409912109375,-0.0905303955078125,-0.7986750602722168,-0.3794698119163513,-0.4664694368839264,26.42210388183594,88.67253112792969,-41.50775146484375
154093,-0.6536712646484375,0.8579559326171875,-0.160308837890625,-0.7230980396270752,-0.2251489609479904,-0.5078730583190918,26.08238220214844,88.95100402832031,-41.11338806152344
154094,-0.707000732421875,0.94586181640625,-0.2837982177734375,-0.7144257426261902,-0.0709567293524742,-0.5956154465675354,25.38661193847656,89.00131225585938,-40.53286743164062
154095,-0.7422027587890625,1.029983520507812,-0.3699188232421875,-0.6772498488426208,-0.124901719391346,-0.6038784384727478,25.04750061035156,89.04179382324219,-40.20750427246094
154096,-0.7422027587890625,1.029983520507812,-0.3699188232421875,-0.6772498488426208,-0.124901719391346,-0.6038784384727478,25.04750061035156,89.04179382324219,-40.20750427246094
154097,-0.7758941650390625,1.150665283203125,-0.4573211669921875,-0.4045892953872681,-0.1935263276100159,-0.4164307713508606,24.24507141113281,89.00447082519531,-39.46055603027344
154098,-0.76007080078125,1.143356323242188,-0.47515869140625,-0.2609096169471741,-0.0820780918002128,-0.237268477678299,23.9554443359375,89.01280212402344,-39.15313720703125
154099,-0.7159881591796875,1.100357055664062,-0.510955810546875,-0.125362440943718,-0.0144114298745989,-0.0470466054975986,23.68661499023438,88.99342346191406,-38.83355712890625
154100,-0.7159881591796875,1.100357055664062,-0.510955810546875,-0.125362440943718,-0.0144114298745989,-0.0470466054975986,23.68661499023438,88.99342346191406,-38.83355712890625
154101,-0.572662353515625,1.020309448242188,-0.5509490966796875,0.1771015375852585,0.0948189198970794,0.2769945859909058,23.52491760253906,88.93814086914062,-38.74226379394531
154102,-0.5035858154296875,1.026596069335938,-0.5836944580078125,0.3326085805892944,0.1770032793283463,0.4526681303977966,23.56243896484375,88.87776184082031,-38.76919555664062
154103,-0.4506683349609375,1.068130493164062,-0.6279144287109375,0.4395400881767273,0.24365234375,0.5987536907196045,23.71516418457031,88.93218994140625,-38.82537841796875
154104,-0.4338531494140625,1.143051147460938,-0.655548095703125,0.4713113307952881,0.2747407555580139,0.6847420930862427,23.91128540039062,88.99229431152344,-38.87290954589844
154105,-0.4523468017578125,1.239974975585938,-0.6403350830078125,0.4030270874500275,0.2683747410774231,0.6748650074005127,24.08021545410156,89.02566528320312,-39.14363098144531
154106,-0.4523468017578125,1.239974975585938,-0.6403350830078125,0.4030270874500275,0.2683747410774231,0.6748650074005127,24.08021545410156,89.02566528320312,-39.14363098144531
154107,-0.5548248291015625,1.355636596679688,-0.4720001220703125,0.2901298403739929,0.2642897069454193,0.529137909412384,24.78324890136719,88.95384216308594,-39.50862121582031
154108,-0.5496063232421875,1.2144775390625,-0.30609130859375,0.4652142822742462,0.3223868310451508,0.4563499689102173,25.3922119140625,89.1734619140625,-39.97430419921875
154109,-0.5496063232421875,1.2144775390625,-0.30609130859375,0.4652142822742462,0.3223868310451508,0.4563499689102173,25.3922119140625,89.1734619140625,-39.97430419921875
154110,-0.5338897705078125,1.109237670898438,-0.2360687255859375,0.5349267721176147,0.365181177854538,0.4261387884616852,25.65992736816406,89.26828002929688,-40.26823425292969
154111,-0.54156494140625,1.001251220703125,-0.1764984130859375,0.577116072177887,0.3586673438549042,0.3956996500492096,25.93026733398438,89.29104614257812,-40.676025390625
154112,-0.57672119140625,0.9100494384765624,-0.159881591796875,0.6070609092712402,0.2721678614616394,0.3525471389293671,26.18501281738281,89.34828186035156,-40.99400329589844
154113,-0.6007537841796875,0.859466552734375,-0.167022705078125,0.6233344078063965,0.0692416578531265,0.3107064664363861,26.46725463867188,89.25535583496094,-41.50985717773438
154114,-0.5874786376953125,0.818267822265625,-0.12310791015625,0.6178866624832153,-0.1499394327402115,0.2935352027416229,26.64274597167969,89.23554992675781,-41.76438903808594
154115,-0.557952880859375,0.782867431640625,-0.04925537109375,0.5751226544380188,-0.289341002702713,0.3223737776279449,26.82281494140625,89.22698974609375,-42.01652526855469
154116,-0.5186920166015625,0.77069091796875,0.012969970703125,0.5504871010780334,-0.3410297632217407,0.4005918800830841,26.84437561035156,89.31510925292969,-42.33070373535156
154117,-0.473236083984375,0.7807769775390625,0.0747222900390625,0.6121089458465576,-0.3537916243076324,0.4661163091659546,27.04582214355469,89.28657531738281,-42.66592407226562
154118,-0.4398345947265625,0.76171875,0.0951690673828125,0.733357310295105,-0.3734430968761444,0.5483901500701904,27.25114440917969,89.16644287109375,-42.81729125976562
154119,-0.4223785400390625,0.743621826171875,0.0809783935546875,0.8615845441818237,-0.4402386248111725,0.6387815475463867,27.50033569335938,89.077392578125,-42.97589111328125
154120,-0.3751068115234375,0.7137603759765625,0.0460968017578125,0.9233091473579408,-0.5867984890937805,0.6797082424163818,27.74510192871094,88.90145874023438,-43.00576782226562
154121,-0.3113250732421875,0.688934326171875,0.048004150390625,0.896388053894043,-0.7517675161361694,0.7070748805999756,27.94888305664062,88.77986145019531,-43.36186218261719
154122,-0.2410125732421875,0.6495361328125,0.0866241455078125,0.7938877940177917,-0.8128604292869568,0.7436112761497498,28.14970397949219,88.68255615234375,-43.53050231933594
154123,-0.1933746337890625,0.6395721435546875,0.1528778076171875,0.6543972492218018,-0.7047461867332458,0.7529872059822083,28.25924682617188,88.4931640625,-43.6302490234375
154124,-0.1801605224609375,0.6406097412109375,0.2066802978515625,0.4821629226207733,-0.451181560754776,0.7090288400650024,28.38955688476562,88.37843322753906,-43.76153564453125
154125,-0.2061767578125,0.633392333984375,0.2085113525390625,0.3024727702140808,-0.1556287407875061,0.6252787709236145,28.49700927734375,88.355712890625,-43.84780883789062
154126,-0.257354736328125,0.5992889404296875,0.1533966064453125,0.1542806476354599,-0.0115187047049403,0.5701039433479309,28.65068054199219,88.38002014160156,-43.81527709960938
154127,-0.2900543212890625,0.58966064453125,0.117645263671875,0.0351894125342369,-0.0030274814926087,0.5382254123687744,28.96464538574219,88.461669921875,-43.86093139648438
154128,-0.2907867431640625,0.609588623046875,0.106170654296875,-0.0571828633546829,-0.0295616202056407,0.5270006656646729,29.21023559570312,88.454833984375,-44.0618896484375
154129,-0.2910003662109375,0.6823577880859375,0.0656280517578125,-0.1112588793039322,-0.0391127802431583,0.5229156613349915,29.53176879882812,88.58586120605469,-44.0704345703125
154130,-0.28070068359375,0.72222900390625,-0.01605224609375,-0.1042379885911942,-0.0732249468564987,0.5177499651908875,29.75689697265625,88.65769958496094,-44.12077331542969
154131,-0.2850189208984375,0.7464141845703125,-0.0740509033203125,-0.0571058951318264,-0.1194539591670036,0.4988050162792206,29.99244689941406,88.75827026367188,-43.95712280273438
154132,-0.2850189208984375,0.7464141845703125,-0.0740509033203125,-0.0571058951318264,-0.1194539591670036,0.4988050162792206,29.99244689941406,88.75827026367188,-43.95712280273438
154133,-0.406585693359375,0.80950927734375,-0.0659942626953125,-0.0160751063376665,-0.1156451031565666,0.3252891600131989,30.22976684570312,89.05738830566406,-43.83059692382812
154134,-0.4779510498046875,0.8333740234375,-0.0285491943359375,0.0010053432779386,-0.1180001422762871,0.2074983268976212,30.36041259765625,89.14607238769531,-43.83843994140625
154135,-0.516632080078125,0.8537445068359375,0.0037841796875,-0.0078962724655866,-0.1104498133063316,0.0776820108294487,30.47763061523438,89.0736083984375,-43.74299621582031
154136,-0.535003662109375,0.873870849609375,0.0241241455078125,-0.0518149957060813,-0.1015095785260201,-0.0438066013157367,30.43504333496094,89.16419982910156,-43.81500244140625
154137,-0.5423126220703125,0.8983917236328125,0.0500946044921875,-0.1117329224944115,-0.0751520097255706,-0.1499093323945999,30.42173767089844,89.27452087402344,-43.80256652832031
154138,-0.5423126220703125,0.8983917236328125,0.0500946044921875,-0.1117329224944115,-0.0751520097255706,-0.1499093323945999,30.42173767089844,89.27452087402344,-43.80256652832031
154139,-0.53216552734375,0.8979644775390625,0.0965118408203125,-0.1767856925725937,-0.0110457269474864,-0.2944944798946381,30.2520751953125,89.27397155761719,-43.77230834960938
154140,-0.5376434326171875,0.865020751953125,0.123138427734375,-0.1958712339401245,-0.0241681858897209,-0.3127528429031372,30.14825439453125,89.28318786621094,-43.66316223144531
154141,-0.556060791015625,0.8088836669921875,0.147735595703125,-0.1927060633897781,-0.0410225354135036,-0.3275440335273743,30.00407409667969,89.37556457519531,-43.65994262695312
154142,-0.57122802734375,0.74114990234375,0.1683502197265625,-0.1699738651514053,-0.0402856357395649,-0.3469433188438416,29.9473876953125,89.30355834960938,-43.5953369140625
154143,-0.567047119140625,0.6872711181640625,0.175384521484375,-0.1478129029273987,-0.0265983212739229,-0.3673673570156097,29.80979919433594,89.27320861816406,-43.43600463867188
154144,-0.567047119140625,0.6872711181640625,0.175384521484375,-0.1478129029273987,-0.0265983212739229,-0.3673673570156097,29.80979919433594,89.27320861816406,-43.43600463867188
154145,-0.5371246337890625,0.6484832763671875,0.1500091552734375,-0.2050231844186783,-0.0121043333783745,-0.4355786442756653,29.4017333984375,89.23216247558594,-43.39805603027344
154146,-0.52130126953125,0.6413726806640625,0.13427734375,-0.2544589042663574,-0.0307813491672277,-0.472926527261734,29.33642578125,89.16328430175781,-43.36534118652344
154147,-0.5122528076171875,0.63720703125,0.1164093017578125,-0.299761950969696,-0.0699101090431213,-0.5054408311843872,29.08650207519531,89.22477722167969,-43.22366333007812
154148,-0.5122528076171875,0.63720703125,0.1164093017578125,-0.299761950969696,-0.0699101090431213,-0.5054408311843872,29.08650207519531,89.22477722167969,-43.22366333007812
154149,-0.49969482421875,0.6678009033203125,0.033966064453125,-0.4251419603824615,-0.2900110483169556,-0.5290449261665344,28.66908264160156,89.14015197753906,-42.91865539550781
154150,-0.49969482421875,0.6678009033203125,0.033966064453125,-0.4251419603824615,-0.2900110483169556,-0.5290449261665344,28.66908264160156,89.14015197753906,-42.91865539550781
154151,-0.48577880859375,0.7586517333984375,-0.102020263671875,-0.535416305065155,-0.7102128863334656,-0.5381617546081543,28.17344665527344,88.93800354003906,-42.2587890625
154152,-0.4673004150390625,0.8032073974609375,-0.1013031005859375,-0.5623219609260559,-0.8755291104316711,-0.5509350299835205,27.7978515625,88.93063354492188,-42.03562927246094
154153,-0.448150634765625,0.8190460205078125,-0.0472259521484375,-0.6007547974586487,-0.8915027379989624,-0.5544416308403015,27.24436950683594,89.11250305175781,-41.98200988769531
154154,-0.4512176513671875,0.8613128662109375,-0.0359954833984375,-0.6462668776512146,-0.8160932064056396,-0.5705639123916626,26.74479675292969,89.2166748046875,-41.78044128417969
154155,-0.4839324951171875,0.951416015625,-0.0997467041015625,-0.6826664805412292,-0.7609686851501465,-0.5945075750350952,26.26541137695312,89.33493041992188,-41.3406982421875
154156,-0.5428619384765625,1.069992065429688,-0.1891326904296875,-0.6725576519966125,-0.7715981602668762,-0.6238923668861389,25.78134155273438,89.25624084472656,-40.86155700683594
154157,-0.5428619384765625,1.069992065429688,-0.1891326904296875,-0.6725576519966125,-0.7715981602668762,-0.6238923668861389,25.78134155273438,89.25624084472656,-40.86155700683594
154158,-0.6329498291015625,1.19683837890625,-0.27392578125,-0.4257326722145081,-0.7238003015518188,-0.5619272589683533,24.590087890625,89.39361572265625,-39.77705383300781
154159,-0.652496337890625,1.20306396484375,-0.2921295166015625,-0.2545800805091858,-0.6428367495536804,-0.4681653380393982,24.07940673828125,89.29353332519531,-39.18879699707031
154160,-0.661376953125,1.185028076171875,-0.307586669921875,-0.0975246950984001,-0.5620542764663696,-0.3850382268428802,23.64350891113281,89.215087890625,-38.85447692871094
154161,-0.6261749267578125,1.1263427734375,-0.3606414794921875,0.0698962584137916,-0.5645161271095276,-0.297266036272049,23.33187866210938,89.14395141601562,-38.42262268066406
154162,-0.6261749267578125,1.1263427734375,-0.3606414794921875,0.0698962584137916,-0.5645161271095276,-0.297266036272049,23.33187866210938,89.14395141601562,-38.42262268066406
154163,-0.4500732421875,0.977813720703125,-0.510223388671875,0.4709342420101166,-0.6229314804077148,-0.1029857695102692,22.75920104980469,89.00885009765625,-38.236083984375
154164,-0.4500732421875,0.977813720703125,-0.510223388671875,0.4709342420101166,-0.6229314804077148,-0.1029857695102692,22.75920104980469,89.00885009765625,-38.236083984375
154165,-0.3984832763671875,0.9625701904296876,-0.5704498291015625,0.6856659650802612,-0.565619707107544,0.0040448089130222,22.52247619628906,88.87773132324219,-38.09426879882812
154166,-0.3653717041015625,0.9537353515625,-0.622283935546875,0.8467214107513428,-0.4609817266464233,0.0749512091279029,22.33036804199219,88.71051025390625,-38.09712219238281
154167,-0.3606414794921875,1.026565551757812,-0.6105804443359375,0.918572187423706,-0.2345270216464996,0.1485814899206161,22.25112915039062,88.3385009765625,-38.16575622558594
154168,-0.3762969970703125,1.07916259765625,-0.5742950439453125,0.8586055040359497,-0.1310307234525681,0.168727770447731,22.22001647949219,88.22492980957031,-38.45297241210938
154169,-0.3907623291015625,1.12725830078125,-0.5029144287109375,0.7966710329055786,-0.0598124675452709,0.2147546410560608,22.27301025390625,88.066162109375,-38.765869140625
154170,-0.3931121826171875,1.155715942382812,-0.439910888671875,0.7409135103225708,0.0149869387969374,0.2673161327838898,22.39064025878906,87.8597412109375,-39.0400390625
154171,-0.384490966796875,1.156982421875,-0.399566650390625,0.6867775917053223,0.0623310171067714,0.3202946484088898,22.56947326660156,87.68119812011719,-39.39332580566406
154172,-0.3950042724609375,1.191177368164062,-0.326019287109375,0.6001494526863098,0.06248015537858,0.3827132880687714,22.60723876953125,87.593505859375,-39.75534057617188
154173,-0.4301605224609375,1.251327514648438,-0.230712890625,0.4771737456321716,0.0338810011744499,0.4078055918216705,22.75918579101562,87.62509155273438,-40.02574157714844
154174,-0.4301605224609375,1.251327514648438,-0.230712890625,0.4771737456321716,0.0338810011744499,0.4078055918216705,22.75918579101562,87.62509155273438,-40.02574157714844
154175,-0.5609130859375,1.40460205078125,-0.0428009033203125,0.3149789869785309,-0.1626728028059006,0.3044041097164154,23.07981872558594,87.57972717285156,-40.56890869140625
154176,-0.5609130859375,1.40460205078125,-0.0428009033203125,0.3149789869785309,-0.1626728028059006,0.3044041097164154,23.07981872558594,87.57972717285156,-40.56890869140625
154177,-0.6529693603515625,1.48870849609375,0.02691650390625,0.3972368240356445,-0.2559529542922974,0.1701746582984924,23.29045104980469,87.7457275390625,-40.79541015625
154178,-0.782440185546875,1.462478637695312,0.1233673095703125,0.8312332630157471,-0.1533141881227493,-0.0618535131216049,23.40379333496094,87.83909606933594,-41.25321960449219
154179,-0.7705841064453125,1.34002685546875,0.0779266357421875,1.110765337944031,-0.1191484928131104,-0.103736512362957,23.53752136230469,87.78143310546875,-41.32894897460938
154180,-0.7229766845703125,1.142333984375,0.0041656494140625,1.342214226722717,-0.1689477413892746,-0.0672852993011474,23.52110290527344,87.50367736816406,-41.53533935546875
154181,-0.6546173095703125,0.9415283203125,-0.069732666015625,1.476647138595581,-0.4046979546546936,-0.0191973969340324,23.53262329101562,87.2767333984375,-41.8968505859375
154182,-0.6546173095703125,0.9415283203125,-0.069732666015625,1.476647138595581,-0.4046979546546936,-0.0191973969340324,23.53262329101562,87.2767333984375,-41.8968505859375
154183,-0.549957275390625,0.6369781494140625,0.019195556640625,1.668652892112732,-0.8117865920066833,0.1632736176252365,23.7276611328125,86.77786254882812,-42.82405090332031
154184,-0.4921112060546875,0.5931243896484375,0.068145751953125,1.718166589736938,-0.8535183668136597,0.1866479068994522,23.81668090820312,86.38421630859375,-43.20986938476562
154185,-0.455474853515625,0.5431060791015625,0.114593505859375,1.669644117355347,-0.792748212814331,0.1737507581710815,23.79450988769531,85.93156433105469,-43.51583862304688
154186,-0.455474853515625,0.5431060791015625,0.114593505859375,1.669644117355347,-0.792748212814331,0.1737507581710815,23.79450988769531,85.93156433105469,-43.51583862304688
154187,-0.4459686279296875,0.490020751953125,0.08184814453125,1.526826500892639,-0.5475413799285889,0.1344600766897202,23.85328674316406,85.13639831542969,-44.23251342773438
154188,-0.462646484375,0.4679107666015625,0.03143310546875,1.519747018814087,-0.4066420495510101,0.0533702820539474,23.91532897949219,84.64218139648438,-44.40779113769531
154189,-0.46246337890625,0.429718017578125,0.0112762451171875,1.506695628166199,-0.2040439397096634,-0.034986212849617,23.95436096191406,84.25828552246094,-44.76579284667969
154190,-0.4464874267578125,0.37255859375,-0.007171630859375,1.432790994644165,0.0424412004649639,-0.1285324096679688,23.89164733886719,83.89712524414062,-45.08787536621094
154191,-0.411956787109375,0.302398681640625,-0.0424346923828125,1.288949966430664,0.234580010175705,-0.2010367065668106,23.83912658691406,83.38929748535156,-45.54307556152344
154192,-0.411956787109375,0.302398681640625,-0.0424346923828125,1.288949966430664,0.234580010175705,-0.2010367065668106,23.83912658691406,83.38929748535156,-45.54307556152344
154193,-0.3585662841796875,0.1864013671875,0.0032806396484375,0.7983400821685791,0.209824874997139,-0.2265287488698959,23.71720886230469,82.50151062011719,-46.52557373046875
154194,-0.3585662841796875,0.1864013671875,0.0032806396484375,0.7983400821685791,0.209824874997139,-0.2265287488698959,23.71720886230469,82.50151062011719,-46.52557373046875
154195,-0.33856201171875,0.235931396484375,0.0423736572265625,0.1922658532857895,-0.2369619458913803,-0.0316631197929382,23.70243835449219,82.00799560546875,-47.33013916015625
154196,-0.33856201171875,0.235931396484375,0.0423736572265625,0.1922658532857895,-0.2369619458913803,-0.0316631197929382,23.70243835449219,82.00799560546875,-47.33013916015625
154197,-0.4308013916015625,0.46136474609375,0.131988525390625,-0.0493784695863723,-0.4090341031551361,0.0929469838738441,23.76545715332031,81.81002807617188,-47.49325561523438
154198,-0.6375274658203125,0.7834320068359375,0.2367401123046875,-0.3232403695583344,-0.3831929266452789,0.0407719314098358,23.49798583984375,81.71522521972656,-47.58209228515625
154199,-0.716461181640625,0.7954254150390625,0.2682647705078125,-0.3162650167942047,-0.3274385929107666,0.0026205505710095,23.4498291015625,81.81968688964844,-47.45887756347656
154200,-0.716461181640625,0.7954254150390625,0.2682647705078125,-0.3162650167942047,-0.3274385929107666,0.0026205505710095,23.4498291015625,81.81968688964844,-47.45887756347656
154201,-0.74725341796875,0.7669525146484375,0.2918853759765625,-0.3034584224224091,-0.2228157669305801,0.0107607683166861,23.27073669433594,82.06282043457031,-47.12995910644531
154202,-0.720062255859375,0.7588653564453125,0.2749481201171875,-0.3646626472473145,-0.1080114245414734,0.0406174659729003,23.24568176269531,82.14532470703125,-46.99403381347656
154203,-0.622039794921875,0.833465576171875,0.1986236572265625,-0.6080044507980347,-0.2692834138870239,0.0931642949581146,23.09304809570312,82.43487548828125,-46.86711120605469
154204,-0.622039794921875,0.833465576171875,0.1986236572265625,-0.6080044507980347,-0.2692834138870239,0.0931642949581146,23.09304809570312,82.43487548828125,-46.86711120605469
154205,-0.610443115234375,0.857635498046875,0.2252655029296875,-0.7674862742424011,-0.4621777534484863,0.043411124497652,23.07646179199219,82.5902099609375,-46.787841796875
154206,-0.615234375,0.85711669921875,0.253326416015625,-0.8971723318099976,-0.5762656927108765,-0.0456495098769664,22.94944763183594,82.61344909667969,-46.38258361816406
154207,-0.6378173828125,0.860595703125,0.22271728515625,-0.9373711943626404,-0.6236385703086853,-0.2423492521047592,22.70002746582031,83.13046264648438,-45.8050537109375
154208,-0.6378173828125,0.860595703125,0.22271728515625,-0.9373711943626404,-0.6236385703086853,-0.2423492521047592,22.70002746582031,83.13046264648438,-45.8050537109375
154209,-0.671905517578125,0.8849334716796875,0.1763153076171875,-0.8988144397735596,-0.6251901388168335,-0.287208616733551,22.43603515625,83.25723266601562,-45.29501342773438
154210,-0.6872711181640625,0.8943328857421875,0.1325836181640625,-0.8264670372009277,-0.6215159893035889,-0.2853094935417175,22.20535278320312,83.48876953125,-44.8370361328125
154211,-0.67047119140625,0.8924407958984375,-0.0313720703125,-0.7306257486343384,-0.6314986348152161,-0.2082639932632446,21.60836791992188,83.8446044921875,-43.81718444824219
154212,-0.67047119140625,0.8924407958984375,-0.0313720703125,-0.7306257486343384,-0.6314986348152161,-0.2082639932632446,21.60836791992188,83.8446044921875,-43.81718444824219
154213,-0.576934814453125,0.840118408203125,-0.27056884765625,-0.5472465753555298,-0.6196717619895935,-0.2483767867088318,21.03712463378906,84.06398010253906,-42.98167419433594
154214,-0.576934814453125,0.840118408203125,-0.27056884765625,-0.5472465753555298,-0.6196717619895935,-0.2483767867088318,21.03712463378906,84.06398010253906,-42.98167419433594
154215,-0.4937286376953125,0.8842315673828125,-0.3972320556640625,-0.5297136306762695,-0.5683057904243469,-0.299584835767746,20.38870239257812,84.26863098144531,-42.07373046875
154216,-0.46917724609375,0.9534149169921876,-0.4511871337890625,-0.5417455434799194,-0.6255469918251038,-0.4350936710834503,20.06613159179688,84.33657836914062,-41.62533569335938
154217,-0.46917724609375,0.9534149169921876,-0.4511871337890625,-0.5417455434799194,-0.6255469918251038,-0.4350936710834503,20.06613159179688,84.33657836914062,-41.62533569335938
154218,-0.480255126953125,1.01690673828125,-0.4753265380859375,-0.5282307863235474,-0.660047709941864,-0.5282002091407776,19.75421142578125,84.39260864257812,-41.10739135742188
154219,-0.6215362548828125,1.116958618164062,-0.538726806640625,-0.2539822161197662,-0.5179421901702881,-0.2407873123884201,19.11077880859375,84.31077575683594,-40.20695495605469
154220,-0.6215362548828125,1.116958618164062,-0.538726806640625,-0.2539822161197662,-0.5179421901702881,-0.2407873123884201,19.11077880859375,84.31077575683594,-40.20695495605469
154221,-0.6348876953125,1.111434936523438,-0.58795166015625,-0.0739394724369049,-0.3756005167961121,-0.080607496201992,18.79405212402344,84.18734741210938,-39.75413513183594
154222,-0.6346893310546875,1.105224609375,-0.6455535888671875,0.0920753329992294,-0.2085918188095093,0.0902270972728729,18.55424499511719,84.184814453125,-39.41703796386719
154223,-0.638885498046875,1.147567749023438,-0.7060546875,0.3612399697303772,0.1849828958511353,0.4028691649436951,18.3663330078125,84.1561279296875,-39.04507446289062
154224,-0.638885498046875,1.147567749023438,-0.7060546875,0.3612399697303772,0.1849828958511353,0.4028691649436951,18.3663330078125,84.1561279296875,-39.04507446289062
154225,-0.657562255859375,1.165298461914062,-0.69049072265625,0.413225382566452,0.357338160276413,0.4788704514503479,18.39382934570312,84.15029907226562,-38.98881530761719
154226,-0.680572509765625,1.16229248046875,-0.631561279296875,0.4496252238750458,0.5117932558059692,0.5252472758293152,18.56278991699219,84.18284606933594,-39.08389282226562
154227,-0.58685302734375,1.046966552734375,-0.557037353515625,0.5925211310386658,0.7977946400642395,0.6274886727333069,19.05682373046875,84.2489013671875,-39.59426879882812
154228,-0.52569580078125,0.9860992431640624,-0.5523834228515625,0.5693646669387817,0.8170367479324341,0.6417927742004395,19.35014343261719,84.37884521484375,-40.04495239257812
154229,-0.52569580078125,0.9860992431640624,-0.5523834228515625,0.5693646669387817,0.8170367479324341,0.6417927742004395,19.35014343261719,84.37884521484375,-40.04495239257812
154230,-0.48345947265625,0.9427337646484376,-0.5236358642578125,0.4764786660671234,0.6799020767211914,0.6505197286605835,19.62640380859375,84.44499206542969,-40.53164672851562
154231,-0.43341064453125,0.8822174072265625,-0.36529541015625,0.2779325544834137,0.3856741786003113,0.6112726926803589,20.39840698242188,84.69961547851562,-41.41011047363281
154232,-0.43341064453125,0.8822174072265625,-0.36529541015625,0.2779325544834137,0.3856741786003113,0.6112726926803589,20.39840698242188,84.69961547851562,-41.41011047363281
154233,-0.42919921875,0.859771728515625,-0.1913604736328125,0.1794160902500153,0.0677236542105674,0.5916476249694824,21.06547546386719,85.00967407226562,-42.17735290527344
154234,-0.4325408935546875,0.8625640869140625,-0.0984649658203125,0.1269616782665253,-0.1687458753585815,0.6168152689933777,21.28860473632812,85.00782775878906,-42.5240478515625
154235,-0.43939208984375,0.89837646484375,-0.0045318603515625,0.0732854008674621,-0.3900329768657684,0.6527775526046753,21.45256042480469,85.18075561523438,-42.72183227539062
154236,-0.4385986328125,0.9366912841796876,0.0849761962890625,0.0903157815337181,-0.5240038633346558,0.6820307374000549,21.62060546875,85.30006408691406,-42.81546020507812
154237,-0.4385986328125,0.9366912841796876,0.0849761962890625,0.0903157815337181,-0.5240038633346558,0.6820307374000549,21.62060546875,85.30006408691406,-42.81546020507812
154238,-0.451751708984375,0.9925994873046876,0.1851806640625,0.395295649766922,-0.5172820091247559,0.7500683665275574,21.88954162597656,85.68424987792969,-42.55764770507812
154239,-0.4392242431640625,0.9768218994140624,0.1641387939453125,0.6759665012359619,-0.5310995578765869,0.7656055688858032,22.0999755859375,85.84222412109375,-42.551025390625
154240,-0.4392242431640625,0.9768218994140624,0.1641387939453125,0.6759665012359619,-0.5310995578765869,0.7656055688858032,22.0999755859375,85.84222412109375,-42.551025390625
154241,-0.4004974365234375,0.9239654541015624,0.1620330810546875,0.952642261981964,-0.5689998269081116,0.7287524342536926,22.27275085449219,85.83981323242188,-42.64776611328125
154242,-0.2623291015625,0.7718505859375,0.22161865234375,1.090885400772095,-0.4462392628192902,0.6207317113876343,22.73472595214844,85.79641723632812,-42.87838745117188
154243,-0.21270751953125,0.7239837646484375,0.230926513671875,0.9165489673614502,-0.3242728710174561,0.5786417722702026,22.82192993164062,85.67457580566406,-43.05784606933594
154244,-0.172760009765625,0.7069854736328125,0.2171478271484375,0.6696534752845764,-0.2290531545877457,0.537887454032898,23.05470275878906,85.39141845703125,-43.24461364746094
154245,-0.172760009765625,0.7069854736328125,0.2171478271484375,0.6696534752845764,-0.2290531545877457,0.537887454032898,23.05470275878906,85.39141845703125,-43.24461364746094
154246,-0.1669158935546875,0.7102203369140625,0.1616058349609375,0.4341748952865601,-0.2120824307203293,0.5005949139595032,23.23802185058594,85.24174499511719,-43.56463623046875
154247,-0.2436065673828125,0.7637786865234375,-0.027313232421875,0.2508609890937805,-0.4783772230148315,0.374711275100708,23.65489196777344,85.21859741210938,-43.91352844238281
154248,-0.2436065673828125,0.7637786865234375,-0.027313232421875,0.2508609890937805,-0.4783772230148315,0.374711275100708,23.65489196777344,85.21859741210938,-43.91352844238281
154249,-0.30108642578125,0.7606048583984375,-0.05377197265625,0.2936142981052399,-0.5448532104492188,0.2783171236515045,23.86354064941406,85.15922546386719,-43.96197509765625
154250,-0.3814849853515625,0.72296142578125,-0.0130157470703125,0.3972831666469574,-0.4002049267292023,0.1826867312192917,23.93338012695312,85.01789855957031,-43.81193542480469
154251,-0.5342864990234375,0.6472930908203125,0.055938720703125,0.5291932821273804,-0.0342165604233741,0.0216267313808202,23.92008972167969,84.97433471679688,-43.55160522460938
154252,-0.5342864990234375,0.6472930908203125,0.055938720703125,0.5291932821273804,-0.0342165604233741,0.0216267313808202,23.92008972167969,84.97433471679688,-43.55160522460938
154253,-0.5957489013671875,0.6310577392578125,0.06329345703125,0.2195435464382172,-0.1825977712869644,-0.1449614465236664,23.99412536621094,84.84028625488281,-44.27339172363281
154254,-0.606292724609375,0.6623687744140625,0.0981597900390625,0.0125325694680213,-0.2326651960611343,-0.1953098475933075,23.89799499511719,84.80415344238281,-44.40548706054688
154255,-0.591461181640625,0.6983642578125,0.154754638671875,-0.1645551174879074,-0.2033291459083557,-0.2225153595209122,23.79533386230469,84.82319641113281,-44.28140258789062
154256,-0.591461181640625,0.6983642578125,0.154754638671875,-0.1645551174879074,-0.2033291459083557,-0.2225153595209122,23.79533386230469,84.82319641113281,-44.28140258789062
154257,-0.547027587890625,0.7478179931640625,0.22344970703125,-0.2989313006401062,-0.1043298691511154,-0.2220844626426697,23.52397155761719,84.83908081054688,-44.21282958984375
154258,-0.547027587890625,0.7478179931640625,0.22344970703125,-0.2989313006401062,-0.1043298691511154,-0.2220844626426697,23.52397155761719,84.83908081054688,-44.21282958984375
154259,-0.5277252197265625,0.740447998046875,0.2202911376953125,-0.3448138535022736,-0.1338520795106888,-0.2587074637413025,23.39108276367188,84.95310974121094,-43.90322875976562
154260,-0.5277252197265625,0.740447998046875,0.2202911376953125,-0.3448138535022736,-0.1338520795106888,-0.2587074637413025,23.39108276367188,84.95310974121094,-43.90322875976562
154261,-0.549407958984375,0.7215728759765625,0.2246856689453125,-0.4762254059314728,-0.1447342783212662,-0.3424292504787445,22.97415161132812,84.98320007324219,-43.67552185058594
154262,-0.56536865234375,0.6982879638671875,0.2166290283203125,-0.552013099193573,-0.1471431106328964,-0.3829175531864166,22.80783081054688,84.95979309082031,-43.43215942382812
154263,-0.58819580078125,0.679412841796875,0.19610595703125,-0.6363577842712402,-0.1646310240030289,-0.4120405614376068,22.65907287597656,85.0877685546875,-43.30227661132812
154264,-0.58819580078125,0.679412841796875,0.19610595703125,-0.6363577842712402,-0.1646310240030289,-0.4120405614376068,22.65907287597656,85.0877685546875,-43.30227661132812
154265,-0.604034423828125,0.6759033203125,0.1391448974609375,-0.7419987320899963,-0.247970923781395,-0.4324949681758881,22.44595336914062,85.07179260253906,-43.11920166015625
154266,-0.5760955810546875,0.7010040283203125,0.0077362060546875,-0.9879302382469176,-0.6967300772666931,-0.3753938674926758,21.94779968261719,85.17774963378906,-42.58811950683594
154267,-0.53424072265625,0.717254638671875,0.0078277587890625,-1.087711095809937,-0.8792895078659058,-0.3378475606441498,21.67041015625,85.31674194335938,-42.23876953125
154268,-0.53424072265625,0.717254638671875,0.0078277587890625,-1.087711095809937,-0.8792895078659058,-0.3378475606441498,21.67041015625,85.31674194335938,-42.23876953125
154269,-0.4785003662109375,0.716705322265625,0.023895263671875,-1.133579254150391,-0.963331937789917,-0.3161606192588806,21.22502136230469,85.51669311523438,-41.65898132324219
154270,-0.415374755859375,0.7733917236328125,-0.0030364990234375,-1.157705187797546,-0.9081687927246094,-0.3091250956058502,20.54954528808594,85.923095703125,-40.3902587890625
154271,-0.4310455322265625,0.862884521484375,-0.0451812744140625,-1.13227117061615,-0.8460396528244019,-0.3112481534481049,20.07681274414062,86.05775451660156,-39.57966613769531
154272,-0.4310455322265625,0.862884521484375,-0.0451812744140625,-1.13227117061615,-0.8460396528244019,-0.3112481534481049,20.07681274414062,86.05775451660156,-39.57966613769531
154273,-0.5164794921875,1.095611572265625,-0.22943115234375,-0.9592040181159972,-0.6946560144424438,-0.3250023126602173,19.27505493164062,86.33085632324219,-38.09170532226562
154274,-0.5501708984375,1.187835693359375,-0.2676544189453125,-0.7654665112495422,-0.606561541557312,-0.3172629177570343,18.83230590820312,86.46464538574219,-37.4163818359375
154275,-0.5753173828125,1.27703857421875,-0.2946624755859375,-0.5370938181877136,-0.4648182690143585,-0.3138900101184845,18.50666809082031,86.51422119140625,-36.72080993652344
154276,-0.5753173828125,1.27703857421875,-0.2946624755859375,-0.5370938181877136,-0.4648182690143585,-0.3138900101184845,18.50666809082031,86.51422119140625,-36.72080993652344
154277,-0.57379150390625,1.320556640625,-0.34661865234375,-0.3064006865024567,-0.3556531667709351,-0.2807994484901428,18.18629455566406,86.41734313964844,-36.17326354980469
154278,-0.52947998046875,1.310195922851562,-0.42242431640625,-0.0871729850769043,-0.3411373496055603,-0.2194657772779465,17.90185546875,86.46879577636719,-35.91165161132812
154279,-0.371856689453125,1.206619262695312,-0.59759521484375,0.4543781578540802,-0.4221278131008148,0.0144369965419173,17.55050659179688,86.41474914550781,-35.4840087890625
154280,-0.371856689453125,1.206619262695312,-0.59759521484375,0.4543781578540802,-0.4221278131008148,0.0144369965419173,17.55050659179688,86.41474914550781,-35.4840087890625
154281,-0.2669677734375,1.151992797851562,-0.676605224609375,0.9764695763587952,-0.1846199184656143,0.2789046168327332,17.58926391601562,86.06074523925781,-35.32185363769531
154282,-0.2400970458984375,1.156112670898438,-0.6500396728515625,1.082709789276123,-0.0602721273899078,0.3461347818374634,17.68186950683594,85.96757507324219,-35.56561279296875
154283,-0.2200469970703125,1.163497924804688,-0.6185150146484375,1.097073435783386,0.0337859280407428,0.3877860903739929,17.857421875,85.86221313476562,-35.94903564453125
154284,-0.2200469970703125,1.163497924804688,-0.6185150146484375,1.097073435783386,0.0337859280407428,0.3877860903739929,17.857421875,85.86221313476562,-35.94903564453125
154285,-0.1986541748046875,1.161941528320312,-0.594390869140625,1.081355571746826,-0.024355674162507,0.4410706162452698,18.06503295898438,85.70423889160156,-36.19729614257812
154286,-0.19012451171875,1.175460815429688,-0.4723052978515625,1.05985689163208,-0.2457671612501144,0.5520511865615845,18.33830261230469,85.73262023925781,-37.08615112304688
154287,-0.2047119140625,1.201812744140625,-0.41729736328125,1.047630310058594,-0.2745916247367859,0.5578762888908386,18.51731872558594,85.70947265625,-37.48626708984375
154288,-0.2047119140625,1.201812744140625,-0.41729736328125,1.047630310058594,-0.2745916247367859,0.5578762888908386,18.51731872558594,85.70947265625,-37.48626708984375
154289,-0.237060546875,1.251907348632812,-0.3504486083984375,1.027946829795837,-0.3063316941261292,0.5195643305778503,18.72781372070312,85.75508117675781,-37.91329956054688
154290,-0.338653564453125,1.413772583007812,-0.1502685546875,0.9961732625961304,-0.4342244267463684,0.3344413638114929,19.11053466796875,85.66618347167969,-38.42605590820312
154291,-0.4200592041015625,1.507400512695312,-0.004486083984375,1.009629368782043,-0.3983425796031952,0.1578287780284882,19.16371154785156,85.51547241210938,-38.56639099121094
154292,-0.4200592041015625,1.507400512695312,-0.004486083984375,1.009629368782043,-0.3983425796031952,0.1578287780284882,19.16371154785156,85.51547241210938,-38.56639099121094
154293,-0.513519287109375,1.530044555664062,0.101043701171875,1.016649723052979,-0.3302724659442902,-0.0618252828717231,19.17170715332031,85.39329528808594,-38.90432739257812
154294,-0.7853546142578125,1.484527587890625,0.274169921875,1.223358750343323,-0.1629886478185654,-0.3295944035053253,19.17274475097656,85.08914184570312,-39.69194030761719
154295,-0.8575897216796875,1.347824096679688,0.191070556640625,1.290611267089844,-0.1321473866701126,-0.3757371306419373,19.11637878417969,84.81015014648438,-40.07597351074219
154296,-0.8575897216796875,1.347824096679688,0.191070556640625,1.290611267089844,-0.1321473866701126,-0.3757371306419373,19.11637878417969,84.81015014648438,-40.07597351074219
154297,-0.9335174560546876,1.144073486328125,0.1534576416015625,1.326647281646729,-0.2975296974182129,-0.305663526058197,19.11824035644531,84.54098510742188,-40.44984436035156
154298,-0.967681884765625,0.960357666015625,0.1995391845703125,1.393755793571472,-0.498363733291626,-0.115170530974865,19.1595458984375,84.02482604980469,-40.74943542480469
154299,-0.778594970703125,0.6333770751953125,0.2967529296875,1.456823348999023,-0.627180278301239,0.1515133529901505,19.302001953125,83.42828369140625,-41.34368896484375
154300,-0.778594970703125,0.6333770751953125,0.2967529296875,1.456823348999023,-0.627180278301239,0.1515133529901505,19.302001953125,83.42828369140625,-41.34368896484375
154301,-0.6276092529296875,0.5089263916015625,0.290252685546875,1.366201043128967,-0.588469386100769,0.215705931186676,19.42929077148438,82.92393493652344,-41.31195068359375
154302,-0.4169769287109375,0.404449462890625,0.154296875,1.214736700057983,-0.634803295135498,0.3655705153942108,19.41983032226562,82.49784851074219,-41.98587036132812
154303,-0.4031524658203125,0.4105682373046875,0.0968017578125,1.274085521697998,-0.6009699702262878,0.3454186618328094,19.36280822753906,82.32467651367188,-42.356689453125
154304,-0.4031524658203125,0.4105682373046875,0.0968017578125,1.274085521697998,-0.6009699702262878,0.3454186618328094,19.36280822753906,82.32467651367188,-42.356689453125
154305,-0.4095306396484375,0.4235076904296875,0.0576324462890625,1.360528588294983,-0.4330177307128906,0.2446707338094711,19.44602966308594,82.02311706542969,-42.65010070800781
154306,-0.381103515625,0.3453216552734375,-0.01922607421875,1.155120253562927,0.1682427972555161,0.0428617149591445,19.416015625,81.41653442382812,-43.01945495605469
154307,-0.334259033203125,0.2901153564453125,-0.07183837890625,0.8801862001419067,0.2226959317922592,0.0170554164797067,19.44325256347656,81.02928161621094,-43.36241149902344
154308,-0.334259033203125,0.2901153564453125,-0.07183837890625,0.8801862001419067,0.2226959317922592,0.0170554164797067,19.44325256347656,81.02928161621094,-43.36241149902344
154309,-0.2895965576171875,0.3025970458984375,-0.0457611083984375,0.5418400764465332,0.0234619155526161,0.0838616117835044,19.51911926269531,80.78842163085938,-43.67341613769531
154310,-0.2696990966796875,0.3890380859375,0.0283050537109375,0.2208359688520432,-0.2617881894111633,0.1898751258850098,19.55464172363281,80.63510131835938,-44.00032043457031
154311,-0.3000946044921875,0.6375885009765625,0.1087646484375,-0.1948099732398987,-0.5172638893127441,0.2904358208179474,19.75909423828125,80.45486450195312,-44.11857604980469
154312,-0.344635009765625,0.7306365966796875,0.111236572265625,-0.2766009569168091,-0.4660094976425171,0.2627203166484833,19.67613220214844,80.37382507324219,-43.91665649414062
