time_idx,accelerometerAccelerationX(G),accelerometerAccelerationY(G),accelerometerAccelerationZ(G),gyroRotationX(rad/s),gyroRotationY(rad/s),gyroRotationZ(rad/s),magnetometerX(µT),magnetometerY(µT),magnetometerZ(µT)
229366,-0.0400390625,0.833526611328125,0.05712890625,-0.2697566449642181,0.2340700179338455,0.082590214908123,44.48040771484375,98.8079833984375,-2.115447998046875
229367,-0.10357666015625,0.8691864013671875,0.03851318359375,-0.2697566449642181,0.2340700179338455,0.082590214908123,44.53213500976562,98.82022094726562,-1.958160400390625
229368,-0.1455230712890625,0.887908935546875,0.040740966796875,-0.2603988349437714,0.3493489325046539,0.0512496046721935,44.55380249023438,98.7695770263672,-1.9033203125
229369,-0.1455230712890625,0.887908935546875,0.040740966796875,-0.2603988349437714,0.3493489325046539,0.0512496046721935,44.55380249023438,98.7695770263672,-1.9033203125
229370,-0.1877593994140625,0.93896484375,0.089874267578125,-0.3064483404159546,0.6231168508529663,-0.0371811911463737,44.63247680664062,98.73062133789062,-1.776596069335938
229371,-0.1965789794921875,0.9681549072265624,0.09368896484375,-0.3379772305488586,0.7022289633750916,-0.0902585238218307,44.46832275390625,98.72483825683594,-1.6939697265625
229372,-0.1977081298828125,1.002151489257812,0.11175537109375,-0.3743778765201569,0.7323828935623169,-0.1489838808774948,44.37686157226562,98.72926330566406,-1.6080322265625
229373,-0.1977081298828125,1.002151489257812,0.11175537109375,-0.3743778765201569,0.7323828935623169,-0.1489838808774948,44.37686157226562,98.72926330566406,-1.6080322265625
229374,-0.183685302734375,1.072998046875,0.152862548828125,-0.4939085245132446,0.7385848164558411,-0.2591487467288971,43.93855285644531,98.54225158691406,-1.40185546875
229375,-0.1623687744140625,1.096115112304688,0.1518707275390625,-0.5413740277290344,0.6945284605026245,-0.2933221459388733,43.68453979492188,98.52793884277344,-1.252716064453125
229376,-0.1460113525390625,1.0977783203125,0.16015625,-0.541691243648529,0.6397054195404053,-0.3094550669193268,43.45616149902344,98.42726135253906,-0.9805145263671876
229377,-0.1460113525390625,1.0977783203125,0.16015625,-0.541691243648529,0.6397054195404053,-0.3094550669193268,43.45616149902344,98.42726135253906,-0.9805145263671876
229378,-0.16351318359375,1.046249389648438,0.174652099609375,-0.4505597054958344,0.5477626919746399,-0.3314343988895416,42.99604797363281,98.20822143554688,-0.338714599609375
229379,-0.1875762939453125,1.005950927734375,0.164398193359375,-0.4059765338897705,0.5230419039726257,-0.345788300037384,42.77792358398438,98.15560913085938,-0.080169677734375
229380,-0.206268310546875,0.962127685546875,0.1343231201171875,-0.3827614784240723,0.5201148390769958,-0.3686107993125916,42.49763488769531,98.08839416503906,0.2348175048828125
229381,-0.206268310546875,0.962127685546875,0.1343231201171875,-0.3827614784240723,0.5201148390769958,-0.3686107993125916,42.49763488769531,98.08839416503906,0.2348175048828125
229382,-0.2403564453125,0.8774566650390625,0.0115814208984375,-0.3349771797657013,0.5671683549880981,-0.4079331457614899,41.9066162109375,98.04997253417967,0.2492218017578125
229383,-0.257232666015625,0.840606689453125,-0.0431060791015625,-0.3238174915313721,0.6122801899909973,-0.4160752296447754,41.62110900878906,98.13351440429688,0.331390380859375
229384,-0.266845703125,0.81683349609375,-0.0892181396484375,-0.3346269726753235,0.6531152129173279,-0.4248389005661011,41.27345275878906,98.07023620605467,0.47149658203125
229385,-0.266845703125,0.81683349609375,-0.0892181396484375,-0.3346269726753235,0.6531152129173279,-0.4248389005661011,41.27345275878906,98.07023620605467,0.47149658203125
229386,-0.26617431640625,0.8061065673828125,-0.1157379150390625,-0.3658789098262787,0.6513753533363342,-0.4213789403438568,40.97705078125,98.0762939453125,0.4690093994140625
229387,-0.2342987060546875,0.8543853759765625,-0.1049346923828125,-0.5060788989067078,0.6143052577972412,-0.3874702155590057,40.28630065917969,97.94577026367188,0.673583984375
229388,-0.2084503173828125,0.9246368408203124,-0.0990753173828125,-0.5953419208526611,0.5923442840576172,-0.3480187058448792,39.93588256835938,97.86369323730467,0.7664642333984375
229389,-0.2084503173828125,0.9246368408203124,-0.0990753173828125,-0.5953419208526611,0.5923442840576172,-0.3480187058448792,39.93588256835938,97.86369323730467,0.7664642333984375
229390,-0.12542724609375,1.147613525390625,-0.0983428955078125,-0.6162621378898621,0.5636377930641174,-0.2181626856327057,39.41943359375,97.74771118164062,1.174774169921875
229391,-0.0819091796875,1.254547119140625,-0.0955963134765625,-0.558356761932373,0.5374264121055603,-0.1324826776981354,39.05612182617188,97.6298828125,1.544891357421875
229392,-0.05517578125,1.34033203125,-0.074493408203125,-0.494445413351059,0.4834707975387573,-0.0548901483416557,38.84507751464844,97.5038604736328,1.818435668945312
229393,-0.05517578125,1.34033203125,-0.074493408203125,-0.494445413351059,0.4834707975387573,-0.0548901483416557,38.84507751464844,97.5038604736328,1.818435668945312
229394,-0.0102386474609375,1.450973510742188,-0.0011749267578125,-0.296175479888916,0.2784782350063324,0.0973201617598533,38.44500732421875,97.35728454589844,2.132568359375
229395,-0.0102386474609375,1.450973510742188,-0.0011749267578125,-0.296175479888916,0.2784782350063324,0.0973201617598533,38.44500732421875,97.35728454589844,2.132568359375
229396,0.06573486328125,1.314437866210938,0.0184173583984375,0.0085269091650843,0.1193250641226768,0.0696576386690139,38.22528076171875,97.36457824707033,2.542694091796875
229397,0.06573486328125,1.314437866210938,0.0184173583984375,0.0085269091650843,0.1193250641226768,0.0696576386690139,38.22528076171875,97.36457824707033,2.542694091796875
229398,0.1190948486328125,1.111083984375,-0.063934326171875,0.3731850385665894,0.0704848170280456,-0.0354181788861751,38.14189147949219,97.43231201171876,2.571136474609375
229399,0.139556884765625,1.030014038085938,-0.1604766845703125,0.479689359664917,-0.0018708707066252,-0.0636165291070938,38.11952209472656,97.42466735839844,2.315673828125
229400,0.14410400390625,0.9639892578125,-0.2349853515625,0.5436305403709412,-0.1165601685643196,-0.0797917693853378,38.10107421875,97.51466369628906,2.2398681640625
229401,0.14410400390625,0.9639892578125,-0.2349853515625,0.5436305403709412,-0.1165601685643196,-0.0797917693853378,38.10107421875,97.51466369628906,2.2398681640625
229402,0.154541015625,0.896392822265625,-0.3285064697265625,0.6385208368301392,-0.2677374482154846,-0.0556270442903041,38.20889282226562,97.59260559082033,1.769821166992188
229403,0.1578369140625,0.90399169921875,-0.364654541015625,0.684559166431427,-0.3236353099346161,-0.0498533099889755,38.25227355957031,97.55462646484376,1.576171875
229404,0.16424560546875,0.933868408203125,-0.3746795654296875,0.7308358550071716,-0.3532763123512268,-0.0379180870950222,38.32815551757812,97.56271362304688,1.496170043945312
229405,0.16424560546875,0.933868408203125,-0.3746795654296875,0.7308358550071716,-0.3532763123512268,-0.0379180870950222,38.32815551757812,97.56271362304688,1.496170043945312
229406,0.16546630859375,1.0048828125,-0.3360748291015625,0.7953889966011047,-0.381024032831192,-0.0279043354094028,38.39054870605469,97.60739135742188,0.864105224609375
229407,0.182220458984375,1.04803466796875,-0.3159637451171875,0.7953889966011047,-0.381024032831192,-0.0279043354094028,38.49995422363281,97.69230651855467,0.576385498046875
229408,0.193267822265625,1.075973510742188,-0.3011474609375,0.8411575555801392,-0.4181019067764282,-0.0401114672422409,38.50526428222656,97.80242919921876,0.3282928466796875
229409,0.193267822265625,1.075973510742188,-0.3011474609375,0.8411575555801392,-0.4181019067764282,-0.0401114672422409,38.50526428222656,97.80242919921876,0.3282928466796875
229410,0.16021728515625,1.115463256835938,-0.2050628662109375,0.7243102788925171,-0.3938831090927124,-0.0333808586001396,38.68705749511719,98.06710815429688,-0.3570556640625
229411,0.133514404296875,1.133926391601562,-0.123382568359375,0.7243102788925171,-0.3938831090927124,-0.0333808586001396,38.73155212402344,98.20425415039062,-0.7443695068359375
229412,0.0950927734375,1.150741577148438,-0.01983642578125,0.459246426820755,-0.4125699996948242,0.0006266417913138,38.837158203125,98.18655395507812,-1.114425659179688
229413,0.0950927734375,1.150741577148438,-0.01983642578125,0.459246426820755,-0.4125699996948242,0.0006266417913138,38.837158203125,98.18655395507812,-1.114425659179688
229414,0.0552978515625,1.229965209960938,0.159210205078125,0.2956734597682953,-0.4193536043167114,0.0403990894556045,38.88522338867188,98.43885803222656,-1.675674438476562
229415,0.0101318359375,1.247177124023438,0.1956787109375,0.2956734597682953,-0.4193536043167114,0.0403990894556045,39.02082824707031,98.40838623046876,-1.757339477539062
229416,-0.036346435546875,1.295379638671875,0.182403564453125,0.3149177432060242,-0.4236250221729279,0.0245623346418142,39.19340515136719,98.5103759765625,-1.846542358398438
229417,-0.036346435546875,1.295379638671875,0.182403564453125,0.3149177432060242,-0.4236250221729279,0.0245623346418142,39.19340515136719,98.5103759765625,-1.846542358398438
229418,-0.0699462890625,1.292465209960938,0.1556549072265625,0.4039176404476166,-0.4827021956443787,-0.04771239310503,39.25184631347656,98.46467590332033,-1.879470825195312
229419,-0.106903076171875,1.221099853515625,0.1262359619140625,0.5409340858459473,-0.5221364498138428,-0.1367216259241104,39.35311889648438,98.60513305664062,-2.100616455078125
229420,-0.12353515625,0.998443603515625,0.0208740234375,0.7775463461875916,-0.5867878794670105,-0.291167140007019,39.5064697265625,98.7364501953125,-2.480270385742188
229421,-0.12353515625,0.998443603515625,0.0208740234375,0.7775463461875916,-0.5867878794670105,-0.291167140007019,39.5064697265625,98.7364501953125,-2.480270385742188
229422,-0.1100616455078125,0.8949737548828125,-0.040618896484375,0.810900866985321,-0.6039170622825623,-0.348589688539505,39.53868103027344,98.86558532714844,-2.707977294921875
229423,-0.0892791748046875,0.7540435791015625,-0.1539154052734375,0.7337064743041992,-0.7487671971321106,-0.4174209237098694,39.38836669921875,98.84548950195312,-3.268798828125
229424,-0.0999755859375,0.7113189697265625,-0.1607666015625,0.6591241359710693,-0.7482710480690002,-0.4293583035469055,39.33381652832031,99.08987426757812,-3.574691772460938
229425,-0.0999755859375,0.7113189697265625,-0.1607666015625,0.6591241359710693,-0.7482710480690002,-0.4293583035469055,39.33381652832031,99.08987426757812,-3.574691772460938
229426,-0.1195068359375,0.6814422607421875,-0.1478118896484375,0.6006272435188293,-0.683521032333374,-0.4273699820041656,39.24946594238281,99.1873016357422,-3.92254638671875
229427,-0.1898956298828125,0.669219970703125,-0.05401611328125,0.4054665267467499,-0.5171424746513367,-0.4205962121486664,39.10470581054688,99.277587890625,-4.33544921875
229428,-0.25750732421875,0.681060791015625,-0.00341796875,0.2450073510408401,-0.3925131857395172,-0.4182382524013519,39.07965087890625,99.1904296875,-4.60150146484375
229429,-0.25750732421875,0.681060791015625,-0.00341796875,0.2450073510408401,-0.3925131857395172,-0.4182382524013519,39.07965087890625,99.1904296875,-4.60150146484375
229430,-0.367340087890625,0.7510223388671875,0.1138458251953125,-0.3079961836338043,0.2420267462730408,-0.359990656375885,38.91160583496094,99.25909423828124,-4.717422485351562
229431,-0.3899993896484375,0.7752838134765625,0.1712493896484375,-0.3079961836338043,0.2420267462730408,-0.359990656375885,38.77616882324219,99.1640167236328,-4.786102294921875
229432,-0.4000091552734375,0.7720489501953125,0.2091217041015625,-0.5025238394737244,0.4495293498039246,-0.2983563244342804,38.64283752441406,99.12649536132812,-4.686782836914062
229433,-0.4000091552734375,0.7720489501953125,0.2091217041015625,-0.5025238394737244,0.4495293498039246,-0.2983563244342804,38.64283752441406,99.12649536132812,-4.686782836914062
229434,-0.3964385986328125,0.7600860595703125,0.210662841796875,-0.6354832053184509,0.5945440530776978,-0.1821096241474152,38.54574584960938,99.0320281982422,-4.617279052734375
229435,-0.368133544921875,0.7517547607421875,0.2052459716796875,-0.6548891663551331,0.6836779117584229,0.183639332652092,38.4425048828125,99.05081176757812,-4.599151611328125
229436,-0.2335357666015625,0.771820068359375,0.2307586669921875,-0.6003561615943909,0.6700153946876526,0.357934445142746,38.42253112792969,98.64723205566406,-4.189605712890625
229437,-0.2335357666015625,0.771820068359375,0.2307586669921875,-0.6003561615943909,0.6700153946876526,0.357934445142746,38.42253112792969,98.64723205566406,-4.189605712890625
229438,-0.1309356689453125,0.8079681396484375,0.233184814453125,-0.5589700937271118,0.6009873151779175,0.4443390965461731,38.43714904785156,98.59239196777344,-3.968124389648438
229439,0.02410888671875,0.8789520263671875,0.232147216796875,-0.5458406805992126,0.318444550037384,0.434781551361084,38.61482238769531,98.54379272460938,-3.462448120117188
229440,0.07647705078125,0.9279022216796876,0.2488250732421875,-0.5594584941864014,0.1562788188457489,0.384827584028244,38.68911743164062,98.4722900390625,-3.205291748046875
229441,0.07647705078125,0.9279022216796876,0.2488250732421875,-0.5594584941864014,0.1562788188457489,0.384827584028244,38.68911743164062,98.4722900390625,-3.205291748046875
229442,0.113037109375,0.9856719970703124,0.2632904052734375,-0.6459614634513855,-0.0271216314285993,0.2008481472730637,38.80181884765625,98.38908386230467,-3.043228149414062
229443,0.1378173828125,1.126296997070312,0.2095794677734375,-0.7078402638435364,-0.0675164610147476,0.0750947520136833,38.86888122558594,98.29104614257812,-2.5118408203125
229444,0.125518798828125,1.215042114257812,0.142669677734375,-0.7026880979537964,-0.0768846645951271,-0.0682610794901847,38.96548461914062,98.16563415527344,-2.081771850585938
229445,0.125518798828125,1.215042114257812,0.142669677734375,-0.7026880979537964,-0.0768846645951271,-0.0682610794901847,38.96548461914062,98.16563415527344,-2.081771850585938
229446,0.07696533203125,1.279373168945312,0.063140869140625,-0.6185244917869568,-0.0616710856556892,-0.1939542889595032,38.95663452148438,98.15866088867188,-1.7606201171875
229447,-0.04266357421875,1.276123046875,-0.0625,-0.3842829465866089,0.1551845222711563,-0.2890523076057434,38.79438781738281,98.06640625,-1.3162841796875
229448,-0.107025146484375,1.222900390625,-0.05426025390625,-0.3241828680038452,0.0998075529932975,-0.2745465934276581,38.4996337890625,98.08251953125,-0.9675750732421876
229449,-0.107025146484375,1.222900390625,-0.05426025390625,-0.3241828680038452,0.0998075529932975,-0.2745465934276581,38.4996337890625,98.08251953125,-0.9675750732421876
229450,-0.1658477783203125,1.1700439453125,0.0228271484375,-0.3232454359531403,0.1084013059735298,-0.2659637629985809,38.29905700683594,98.07391357421876,-0.7761383056640625
229451,-0.3065185546875,1.132797241210938,0.00738525390625,-0.3705447614192963,0.3470218777656555,-0.1895121335983276,38.00251770019531,97.9878387451172,-0.5083770751953125
229452,-0.35223388671875,1.15472412109375,-0.07562255859375,-0.3396686315536499,0.4608994424343109,-0.1112671345472336,37.78265380859375,97.97450256347656,-0.3771514892578125
229453,-0.35223388671875,1.15472412109375,-0.07562255859375,-0.3396686315536499,0.4608994424343109,-0.1112671345472336,37.78265380859375,97.97450256347656,-0.3771514892578125
229454,-0.339752197265625,1.240264892578125,-0.2075347900390625,-0.2069936543703079,0.727520763874054,0.0294135492295026,37.52218627929688,97.88116455078124,-0.2223052978515625
229455,-0.292510986328125,1.26312255859375,-0.2217254638671875,-0.1725834906101227,0.8283541202545166,0.0964197441935539,37.2388916015625,97.8894500732422,-0.2448577880859375
229456,-0.2207794189453125,1.231307983398438,-0.2273406982421875,-0.1502800434827805,0.8851884007453918,0.1569816321134567,37.1446533203125,97.80992126464844,-0.103668212890625
229457,-0.2207794189453125,1.231307983398438,-0.2273406982421875,-0.1502800434827805,0.8851884007453918,0.1569816321134567,37.1446533203125,97.80992126464844,-0.103668212890625
229458,-0.0330657958984375,1.063644409179688,-0.2071380615234375,0.0107418606057763,0.99956876039505,0.2761929631233215,36.93293762207031,97.61981201171876,-0.0606536865234375
229459,0.0370330810546875,0.9942474365234376,-0.2304840087890625,0.1371210962533951,1.001523494720459,0.3302679359912872,36.82676696777344,97.68367004394533,-0.0919342041015625
229460,0.0874481201171875,0.92633056640625,-0.26910400390625,0.2915934920310974,0.8784345984458923,0.403881698846817,36.86495971679688,97.62876892089844,-0.0909271240234375
229461,0.0874481201171875,0.92633056640625,-0.26910400390625,0.2915934920310974,0.8784345984458923,0.403881698846817,36.86495971679688,97.62876892089844,-0.0909271240234375
229462,0.1641082763671875,0.8335418701171875,-0.3487548828125,0.3173065781593323,0.765771746635437,0.4097848534584045,36.86183166503906,97.7512664794922,-0.556488037109375
229463,0.197418212890625,0.8327789306640625,-0.3496856689453125,0.3078100085258484,0.6914160251617432,0.4009628593921661,36.85618591308594,97.84129333496094,-0.8411712646484375
229464,0.223114013671875,0.8841400146484375,-0.3083038330078125,0.2507651150226593,0.666628360748291,0.3717506527900696,36.99365234375,97.8811492919922,-1.080581665039062
229465,0.223114013671875,0.8841400146484375,-0.3083038330078125,0.2507651150226593,0.666628360748291,0.3717506527900696,36.99365234375,97.8811492919922,-1.080581665039062
229466,0.217803955078125,0.97039794921875,-0.2447967529296875,0.1549227386713028,0.6334733366966248,0.3164921998977661,37.06632995605469,97.97732543945312,-1.346023559570312
229467,0.20526123046875,1.049087524414062,-0.1999359130859375,0.1084841340780258,0.5695702433586121,0.2696059048175812,37.20599365234375,97.95477294921876,-1.463287353515625
229468,0.197723388671875,1.193511962890625,-0.1305389404296875,0.2423023879528046,0.4999312460422516,0.2025304734706879,37.26805114746094,98.1510009765625,-1.776412963867188
229469,0.197723388671875,1.193511962890625,-0.1305389404296875,0.2423023879528046,0.4999312460422516,0.2025304734706879,37.26805114746094,98.1510009765625,-1.776412963867188
229470,0.075897216796875,1.234664916992188,-0.1080474853515625,0.3935654163360596,0.5343672633171082,0.1491657793521881,37.35816955566406,98.2266082763672,-2.0147705078125
229471,0.038909912109375,1.21044921875,-0.1014862060546875,0.4651418626308441,0.496758908033371,0.1316959708929062,37.40321350097656,98.43385314941406,-2.304779052734375
229472,0.0241546630859375,1.146636962890625,-0.1057281494140625,0.5498229265213013,0.3957574665546417,0.114064522087574,37.49308776855469,98.44132995605467,-2.45269775390625
229473,0.0241546630859375,1.146636962890625,-0.1057281494140625,0.5498229265213013,0.3957574665546417,0.114064522087574,37.49308776855469,98.44132995605467,-2.45269775390625
229474,0.011138916015625,1.063919067382812,-0.1100006103515625,0.6305228471755981,0.2401691973209381,0.1157580241560936,37.48210144042969,98.46817016601562,-2.748489379882812
229475,-0.018829345703125,0.920623779296875,-0.0776824951171875,0.6061455607414246,-0.4376287460327148,0.2034471333026886,37.62969970703125,98.58926391601562,-3.495651245117188
229476,-0.029083251953125,0.87127685546875,-0.0153961181640625,0.6061455607414246,-0.4376287460327148,0.2034471333026886,37.73876953125,98.78651428222656,-3.797256469726562
229477,-0.024932861328125,0.8194122314453125,0.0293121337890625,0.3619611263275146,-0.6316890120506287,0.2828500866889954,37.86827087402344,98.85415649414062,-4.05780029296875
229478,-0.006500244140625,0.7873992919921875,0.0555419921875,0.3619611263275146,-0.6316890120506287,0.2828500866889954,38.15692138671875,98.69349670410156,-4.2152099609375
229479,0.009979248046875,0.76708984375,0.0866241455078125,0.2532455921173096,-0.6506409049034119,0.2990833818912506,38.47830200195312,98.73043823242188,-4.37652587890625
229480,-0.0073394775390625,0.7732391357421875,0.1337738037109375,0.1387280523777008,-0.4263438582420349,0.3433685600757599,38.68478393554688,98.6859130859375,-4.41094970703125
229481,-0.0073394775390625,0.7732391357421875,0.1337738037109375,0.1387280523777008,-0.4263438582420349,0.3433685600757599,38.68478393554688,98.6859130859375,-4.41094970703125
229482,-0.04119873046875,0.8005523681640625,0.178558349609375,0.1387280523777008,-0.4263438582420349,0.3433685600757599,38.95899963378906,98.67926025390624,-4.241546630859375
229483,-0.07562255859375,0.8367156982421875,0.195892333984375,0.12075225263834,-0.2389380186796188,0.3428343236446381,39.11170959472656,98.69459533691406,-4.37933349609375
229484,-0.13238525390625,0.8470916748046875,0.12420654296875,0.1252939999103546,0.0318173170089721,0.3217886984348297,39.54795837402344,98.74632263183594,-4.669281005859375
229485,-0.13238525390625,0.8470916748046875,0.12420654296875,0.1252939999103546,0.0318173170089721,0.3217886984348297,39.54795837402344,98.74632263183594,-4.669281005859375
229486,-0.1620025634765625,0.830596923828125,0.0931396484375,0.1254221051931381,0.1644960045814514,0.325918436050415,39.80647277832031,98.87353515625,-4.945663452148438
229487,-0.189361572265625,0.7982635498046875,0.076202392578125,0.0961949750781059,0.3585107624530792,0.3216682970523834,39.96441650390625,98.85350036621094,-5.007736206054688
229488,-0.1767578125,0.7924957275390625,0.07720947265625,-0.0697694942355155,0.6991154551506042,0.2610475718975067,40.13604736328125,98.80906677246094,-5.070999145507812
229489,-0.1767578125,0.7924957275390625,0.07720947265625,-0.0697694942355155,0.6991154551506042,0.2610475718975067,40.13604736328125,98.80906677246094,-5.070999145507812
229490,-0.09857177734375,0.8901519775390625,0.0851593017578125,-0.2186463177204132,0.7517866492271423,0.1493708491325378,40.23828125,98.8275146484375,-5.204818725585938
229491,-0.0676727294921875,0.9411468505859376,0.072784423828125,-0.2490012943744659,0.7141404747962952,0.0770218148827552,40.30914306640625,98.89520263671876,-5.3642578125
229492,-0.0513763427734375,0.981170654296875,0.065216064453125,-0.2585743069648743,0.6510137319564819,-0.0025505092926323,40.30120849609375,98.86192321777344,-5.371429443359375
229493,-0.0385284423828125,1.018753051757812,0.08551025390625,-0.2828593850135803,0.6321313977241516,-0.1607515960931778,40.20687866210938,98.9170379638672,-5.244705200195312
229494,-0.0385284423828125,1.018753051757812,0.08551025390625,-0.2828593850135803,0.6321313977241516,-0.1607515960931778,40.20687866210938,98.9170379638672,-5.244705200195312
229495,-0.0246429443359375,1.048294067382812,0.112762451171875,-0.2762464880943298,0.609390914440155,-0.2272089123725891,40.08981323242188,98.7904052734375,-5.059768676757812
229496,-0.0481414794921875,1.056640625,0.1354217529296875,-0.2648457884788513,0.5467402935028076,-0.2877164781093597,39.88304138183594,98.91934204101562,-5.044540405273438
229497,-0.0481414794921875,1.056640625,0.1354217529296875,-0.2648457884788513,0.5467402935028076,-0.2877164781093597,39.88304138183594,98.91934204101562,-5.044540405273438
229498,-0.091583251953125,1.024124145507812,0.1193695068359375,-0.2554756999015808,0.4708402156829834,-0.3366882801055908,39.52067565917969,98.90467834472656,-4.7750244140625
229499,-0.138885498046875,0.970550537109375,0.0778656005859375,-0.2456782013177872,0.4160715043544769,-0.3781885802745819,39.26602172851562,98.97605895996094,-4.718246459960938
229500,-0.1885223388671875,0.872894287109375,-0.0347442626953125,-0.2368010878562927,0.4021216034889221,-0.4565885663032532,38.80085754394531,98.87376403808594,-4.597015380859375
229501,-0.1885223388671875,0.872894287109375,-0.0347442626953125,-0.2368010878562927,0.4021216034889221,-0.4565885663032532,38.80085754394531,98.87376403808594,-4.597015380859375
229502,-0.2049713134765625,0.8168487548828125,-0.075775146484375,-0.3285797536373138,0.4318526089191437,-0.5071555972099304,38.27230834960938,98.86782836914062,-4.510177612304688
229503,-0.2080535888671875,0.8034820556640625,-0.0802001953125,-0.4102450609207153,0.4523536264896393,-0.5100653767585754,37.98698425292969,98.711181640625,-4.3111572265625
229504,-0.208587646484375,0.8100433349609375,-0.082275390625,-0.5069494843482971,0.4494787454605103,-0.5164085030555725,37.61372375488281,98.7197265625,-4.121322631835938
229505,-0.208587646484375,0.8100433349609375,-0.082275390625,-0.5069494843482971,0.4494787454605103,-0.5164085030555725,37.61372375488281,98.7197265625,-4.121322631835938
229506,-0.19622802734375,0.916656494140625,-0.0987548828125,-0.6951042413711548,0.5572510361671448,-0.4908829033374786,37.06454467773438,98.5037841796875,-3.779937744140625
229507,-0.196136474609375,1.015304565429688,-0.1198272705078125,-0.7323240041732788,0.5932912826538086,-0.4716103971004486,36.73098754882812,98.39186096191406,-3.49835205078125
229508,-0.194427490234375,1.102935791015625,-0.11517333984375,-0.7285327315330505,0.5955289006233215,-0.4204806387424469,36.42202758789062,98.3037567138672,-3.203781127929688
229509,-0.194427490234375,1.102935791015625,-0.11517333984375,-0.7285327315330505,0.5955289006233215,-0.4204806387424469,36.42202758789062,98.3037567138672,-3.203781127929688
229510,-0.1884613037109375,1.174880981445312,-0.095611572265625,-0.7205895781517029,0.5867140889167786,-0.3431669473648071,35.99079895019531,98.23194885253906,-2.993743896484375
229511,-0.176666259765625,1.241714477539062,-0.0873260498046875,-0.7110951542854309,0.5423951148986816,-0.25668665766716,35.66653442382812,98.17713928222656,-2.668792724609375
229512,-0.1019439697265625,1.31915283203125,-0.1016998291015625,-0.633669376373291,0.3774543404579163,-0.020674118772149,35.09524536132812,98.14031982421876,-2.0784912109375
229513,-0.1019439697265625,1.31915283203125,-0.1016998291015625,-0.633669376373291,0.3774543404579163,-0.020674118772149,35.09524536132812,98.14031982421876,-2.0784912109375
229514,0.01544189453125,1.299774169921875,-0.1263580322265625,-0.3462993502616882,0.2860655784606934,0.2104365974664688,34.82257080078125,97.93302917480467,-1.5927734375
229515,0.065643310546875,1.256851196289062,-0.1203460693359375,-0.1689466834068298,0.2720866501331329,0.2899330258369446,34.84019470214844,97.85392761230467,-1.498199462890625
229516,0.126708984375,1.195358276367188,-0.1384429931640625,-0.0174815226346254,0.2128211855888367,0.3258726298809052,34.85525512695312,97.74357604980467,-1.291000366210938
229517,0.126708984375,1.195358276367188,-0.1384429931640625,-0.0174815226346254,0.2128211855888367,0.3258726298809052,34.85525512695312,97.74357604980467,-1.291000366210938
229518,0.1909942626953125,1.110153198242188,-0.1712799072265625,0.2374836653470993,0.0271748956292867,0.373403936624527,34.95510864257812,97.77801513671876,-1.316757202148438
229519,0.291168212890625,1.0042724609375,-0.2822418212890625,0.3983726799488068,-0.0945813655853271,0.3829961121082306,35.16600036621094,97.96461486816406,-1.402969360351562
229520,0.3288421630859375,0.9559326171875,-0.33514404296875,0.5714272856712341,-0.2098240703344345,0.3870286643505096,35.24601745605469,98.03367614746094,-1.505538940429688
229521,0.3288421630859375,0.9559326171875,-0.33514404296875,0.5714272856712341,-0.2098240703344345,0.3870286643505096,35.24601745605469,98.03367614746094,-1.505538940429688
229522,0.372314453125,0.97320556640625,-0.4191741943359375,0.8190906047821045,-0.3807683885097504,0.3391935229301453,35.68377685546875,98.05787658691406,-2.019485473632812
229523,0.3845062255859375,1.004501342773438,-0.4501800537109375,0.8631020188331604,-0.4593122005462646,0.295058012008667,35.83207702636719,98.07521057128906,-2.336837768554688
229524,0.398101806640625,1.043106079101562,-0.4590911865234375,0.8557407855987549,-0.5384248495101929,0.2520096004009247,35.9964599609375,98.3401336669922,-2.693191528320312
229525,0.398101806640625,1.043106079101562,-0.4590911865234375,0.8557407855987549,-0.5384248495101929,0.2520096004009247,35.9964599609375,98.3401336669922,-2.693191528320312
229526,0.41851806640625,1.092300415039062,-0.439361572265625,0.8373180627822876,-0.6023780107498169,0.2291740626096725,36.15174865722656,98.4208984375,-2.995681762695312
229527,0.425201416015625,1.162521362304688,-0.393798828125,0.8189547657966614,-0.6196560859680176,0.2223904579877853,36.34962463378906,98.5102081298828,-3.189056396484375
229528,0.4016876220703125,1.297653198242188,-0.242706298828125,0.6650049090385437,-0.5690085887908936,0.1743651479482651,36.76898193359375,98.85125732421876,-4.049148559570312
229529,0.4016876220703125,1.297653198242188,-0.242706298828125,0.6650049090385437,-0.5690085887908936,0.1743651479482651,36.76898193359375,98.85125732421876,-4.049148559570312
229530,0.2865142822265625,1.37078857421875,-0.08245849609375,0.452938973903656,-0.5747572779655457,0.0743258967995643,37.13752746582031,98.87351989746094,-4.453384399414062
229531,0.207855224609375,1.398712158203125,-0.0110626220703125,0.4636049568653107,-0.6381818056106567,0.0026477146893739,37.35243225097656,99.0064697265625,-4.616653442382812
229532,0.1197662353515625,1.418533325195312,0.0627288818359375,0.5505850911140442,-0.6549623608589172,-0.0890156254172325,37.49118041992188,99.06163024902344,-4.708160400390625
229533,0.1197662353515625,1.418533325195312,0.0627288818359375,0.5505850911140442,-0.6549623608589172,-0.0890156254172325,37.49118041992188,99.06163024902344,-4.708160400390625
229534,0.0042266845703125,1.423095703125,0.0910186767578125,0.6571120619773865,-0.6643569469451904,-0.2111998647451401,37.68260192871094,99.08364868164062,-4.961441040039062
229535,-0.2530517578125,1.22705078125,0.0410919189453125,0.7920653820037842,-0.7961519956588745,-0.5905271768569946,37.95260620117188,99.1293487548828,-5.423751831054688
229536,-0.35076904296875,1.091705322265625,0.018402099609375,0.583022952079773,-0.8288191556930542,-0.6951332688331604,37.99519348144531,99.13160705566406,-5.671310424804688
229537,-0.35076904296875,1.091705322265625,0.018402099609375,0.583022952079773,-0.8288191556930542,-0.6951332688331604,37.99519348144531,99.13160705566406,-5.671310424804688
229538,-0.39190673828125,0.9881439208984376,-0.015777587890625,0.583022952079773,-0.8288191556930542,-0.6951332688331604,37.96156311035156,99.09036254882812,-5.98638916015625
229539,-0.379791259765625,0.8398284912109375,-0.0432586669921875,0.523089587688446,-1.011553764343262,-0.5987028479576111,37.68789672851562,98.88612365722656,-6.279953002929688
229540,-0.3626556396484375,0.7994842529296875,-0.0165557861328125,0.5272427797317505,-0.9949710965156556,-0.5056421160697937,37.63716125488281,98.75251770019533,-6.405136108398438
229541,-0.3626556396484375,0.7994842529296875,-0.0165557861328125,0.5272427797317505,-0.9949710965156556,-0.5056421160697937,37.63716125488281,98.75251770019533,-6.405136108398438
229542,-0.3555908203125,0.7653961181640625,0.00927734375,0.5447229743003845,-0.9186917543411256,-0.4127814471721649,37.61668395996094,98.64244079589844,-6.55908203125
229543,-0.3680419921875,0.6977996826171875,0.0970916748046875,0.626803457736969,-0.7032036781311035,-0.2624785006046295,37.60275268554688,98.51409912109376,-6.805191040039062
229544,-0.36358642578125,0.692291259765625,0.0924224853515625,0.6468208432197571,-0.5757224559783936,-0.212946891784668,37.60911560058594,98.50729370117188,-6.845458984375
229545,-0.36358642578125,0.692291259765625,0.0924224853515625,0.6468208432197571,-0.5757224559783936,-0.212946891784668,37.60911560058594,98.50729370117188,-6.845458984375
229546,-0.3655853271484375,0.6799163818359375,0.05963134765625,0.6595571637153625,-0.4624339640140533,-0.2130350470542908,37.68206787109375,98.43977355957033,-7.132003784179688
229547,-0.3675994873046875,0.6168212890625,0.000518798828125,0.6838028430938721,-0.1820773929357529,-0.2159860879182816,37.66213989257812,98.569580078125,-7.572372436523438
229548,-0.33575439453125,0.5718994140625,-0.0452880859375,0.6891502141952515,-0.0341182872653007,-0.2056477069854736,37.60429382324219,98.62876892089844,-7.770553588867188
229549,-0.283416748046875,0.522918701171875,-0.0612030029296875,0.6521703004837036,0.0744569227099418,-0.1944152861833572,37.48564147949219,98.53143310546876,-8.055755615234375
229550,-0.283416748046875,0.522918701171875,-0.0612030029296875,0.6521703004837036,0.0744569227099418,-0.1944152861833572,37.48564147949219,98.53143310546876,-8.055755615234375
229551,-0.129608154296875,0.505218505859375,-0.0068511962890625,0.285119354724884,0.3031273782253265,-0.0980935469269752,37.24302673339844,98.4285125732422,-8.759246826171875
229552,-0.0655670166015625,0.5962982177734375,0.031158447265625,0.0063279368914663,0.355763167142868,-0.0396768376231193,37.13392639160156,98.38615417480467,-9.003219604492188
229553,-0.0655670166015625,0.5962982177734375,0.031158447265625,0.0063279368914663,0.355763167142868,-0.0396768376231193,37.13392639160156,98.38615417480467,-9.003219604492188
229554,-0.016265869140625,0.6829681396484375,0.0501708984375,-0.2124368995428085,0.323081910610199,0.0169787164777517,36.94622802734375,98.51805114746094,-9.168548583984377
229555,0.0862579345703125,0.7336273193359375,0.0846405029296875,-0.3592194020748138,0.1873888075351715,0.1589576900005341,36.90603637695312,98.55580139160156,-9.0604248046875
229556,0.12237548828125,0.7733001708984375,0.0725860595703125,-0.3754492402076721,0.1482845395803452,0.2262776046991348,36.88526916503906,98.54631042480467,-8.958282470703125
229557,0.12237548828125,0.7733001708984375,0.0725860595703125,-0.3754492402076721,0.1482845395803452,0.2262776046991348,36.88526916503906,98.54631042480467,-8.958282470703125
229558,0.12921142578125,0.8299713134765625,0.055908203125,-0.3898082077503204,0.1423060148954391,0.261701911687851,36.89151000976562,98.6019287109375,-8.89117431640625
229559,0.082366943359375,0.9651031494140624,0.080718994140625,-0.5096640586853027,0.2617911398410797,0.2338092923164368,37.09857177734375,98.61048889160156,-8.598876953125
229560,0.0332489013671875,1.015792846679688,0.130096435546875,-0.6298631429672241,0.3307467699050903,0.1959937363862991,37.06053161621094,98.76486206054688,-8.43939208984375
229561,-0.02880859375,1.0516357421875,0.1877593994140625,-0.8570406436920166,0.3128191530704498,0.0519079379737377,37.11622619628906,98.86170959472656,-8.191848754882812
229562,-0.02880859375,1.0516357421875,0.1877593994140625,-0.8570406436920166,0.3128191530704498,0.0519079379737377,37.11622619628906,98.86170959472656,-8.191848754882812
229563,-0.1438140869140625,1.112503051757812,0.258087158203125,-0.9782128930091858,0.2859902083873749,-0.0149051798507571,37.15440368652344,98.9896240234375,-7.753311157226562
229564,-0.179718017578125,1.163970947265625,0.241180419921875,-1.097739577293396,0.2671291828155518,-0.0712249130010604,37.03668212890625,98.96084594726562,-7.368194580078125
229565,-0.179718017578125,1.163970947265625,0.241180419921875,-1.097739577293396,0.2671291828155518,-0.0712249130010604,37.03668212890625,98.96084594726562,-7.368194580078125
229566,-0.194488525390625,1.23431396484375,0.1726226806640625,-1.176056742668152,0.2739074528217316,-0.1073152720928192,37.04354858398438,98.909423828125,-6.941864013671875
229567,-0.212890625,1.302536010742188,0.0569000244140625,-1.158655047416687,0.2987715303897858,-0.1323950588703156,36.86203002929688,98.65414428710938,-6.3736572265625
229568,-0.2516326904296875,1.354461669921875,-0.1066436767578125,-0.8492546081542969,0.6059147119522095,-0.11395613104105,36.52468872070312,98.48779296875,-5.400283813476562
229569,-0.2516326904296875,1.354461669921875,-0.1066436767578125,-0.8492546081542969,0.6059147119522095,-0.11395613104105,36.52468872070312,98.48779296875,-5.400283813476562
229570,-0.25787353515625,1.352264404296875,-0.133392333984375,-0.694577693939209,0.653183102607727,-0.122053474187851,36.39302062988281,98.373046875,-4.909805297851562
229571,-0.1480712890625,1.396636962890625,-0.193878173828125,-0.6349862813949585,0.6112945079803467,-0.0875871032476425,36.02183532714844,98.33392333984376,-4.478622436523438
229572,-0.0776214599609375,1.440841674804688,-0.274810791015625,-0.5757671594619751,0.4935122430324554,-0.0507172383368015,35.89779663085938,98.16032409667967,-4.282363891601562
229573,-0.0776214599609375,1.440841674804688,-0.274810791015625,-0.5757671594619751,0.4935122430324554,-0.0507172383368015,35.89779663085938,98.16032409667967,-4.282363891601562
229574,-0.0133056640625,1.344696044921875,-0.31427001953125,-0.334589958190918,0.4108051061630249,0.1154115498065948,35.51191711425781,98.20228576660156,-3.7711181640625
229575,-0.033599853515625,1.235580444335938,-0.30169677734375,-0.1680329442024231,0.4797388911247253,0.2163735777139664,35.38388061523438,98.06544494628906,-3.5438232421875
229576,-0.0438232421875,1.099746704101562,-0.31805419921875,-0.0895916670560836,0.4861709773540497,0.2668745815753937,35.34567260742188,98.09237670898438,-3.333419799804688
229577,-0.02197265625,0.9829559326171876,-0.3689727783203125,-0.0895916670560836,0.4861709773540497,0.2668745815753937,35.28125,98.10177612304688,-3.253128051757812
229578,-0.02197265625,0.9829559326171876,-0.3689727783203125,-0.0895916670560836,0.4861709773540497,0.2668745815753937,35.28125,98.10177612304688,-3.253128051757812
229579,0.0604705810546875,0.898773193359375,-0.4789886474609375,0.1031365022063255,0.5458726286888123,0.3700166642665863,35.39018249511719,98.0417938232422,-3.1708984375
229580,0.1018829345703125,0.9231414794921876,-0.4993896484375,0.1207378655672073,0.5868475437164307,0.4189421236515045,35.48324584960938,97.92486572265624,-3.028121948242188
229581,0.1018829345703125,0.9231414794921876,-0.4993896484375,0.1207378655672073,0.5868475437164307,0.4189421236515045,35.48324584960938,97.92486572265624,-3.028121948242188
229582,0.1400299072265625,0.97711181640625,-0.4806671142578125,0.0832075402140617,0.6005318760871887,0.4383933246135712,35.57588195800781,98.1115264892578,-3.343017578125
229583,0.1678924560546875,1.038330078125,-0.4384918212890625,0.0582087114453315,0.5382599830627441,0.3940964341163635,35.69265747070312,98.15765380859376,-3.645858764648438
229584,0.199859619140625,1.164901733398438,-0.3594512939453125,0.0975113734602928,0.4813889861106873,0.3546640872955322,36.03472900390625,98.31973266601562,-4.119781494140625
229585,0.2056121826171875,1.214309692382812,-0.311859130859375,0.171161100268364,0.3711754083633423,0.2321618646383286,36.05914306640625,98.36888122558594,-4.067855834960938
229586,0.2056121826171875,1.214309692382812,-0.311859130859375,0.171161100268364,0.3711754083633423,0.2321618646383286,36.05914306640625,98.36888122558594,-4.067855834960938
229587,0.164947509765625,1.214401245117188,-0.2023468017578125,0.202183723449707,0.305744469165802,0.1626906394958496,36.26579284667969,98.47674560546876,-4.371078491210938
229588,0.1322784423828125,1.160430908203125,-0.1805267333984375,0.2506652474403381,0.199773833155632,0.1044925898313522,36.34992980957031,98.46339416503906,-4.579818725585938
229589,0.1089019775390625,1.079559326171875,-0.1597747802734375,0.3104052841663361,0.073563165962696,0.0678642690181732,36.41217041015625,98.57357788085938,-4.675765991210938
229590,0.1089019775390625,1.079559326171875,-0.1597747802734375,0.3104052841663361,0.073563165962696,0.0678642690181732,36.41217041015625,98.57357788085938,-4.675765991210938
229591,0.090240478515625,0.9991455078125,-0.1317138671875,0.3729392290115356,-0.0947020053863525,0.0738758221268653,36.50250244140625,98.67707824707033,-4.875640869140625
229592,0.075531005859375,0.9001617431640625,-0.0496826171875,0.3490740954875946,-0.5608433485031128,0.1828023046255112,36.54927062988281,98.73599243164062,-5.045501708984375
229593,0.075531005859375,0.9001617431640625,-0.0496826171875,0.3490740954875946,-0.5608433485031128,0.1828023046255112,36.54927062988281,98.73599243164062,-5.045501708984375
229594,0.0778961181640625,0.8834686279296875,0.073089599609375,0.050286341458559,-0.5317533612251282,0.2822923958301544,36.86912536621094,98.87057495117188,-5.630462646484375
229595,0.08282470703125,0.9105224609375,0.13043212890625,0.050286341458559,-0.5317533612251282,0.2822923958301544,37.05426025390625,98.9369659423828,-5.7406005859375
229596,0.079986572265625,0.91986083984375,0.1761016845703125,-0.0341265462338924,-0.4993490874767303,0.3063719272613525,37.26950073242188,99.03468322753906,-5.825271606445312
229597,0.079986572265625,0.91986083984375,0.1761016845703125,-0.0341265462338924,-0.4993490874767303,0.3063719272613525,37.26950073242188,99.03468322753906,-5.825271606445312
229598,0.06988525390625,0.9031219482421876,0.1987152099609375,-0.0183710176497697,-0.5236901044845581,0.288898378610611,37.52835083007812,98.91360473632812,-5.700454711914062
229599,0.0458526611328125,0.799468994140625,0.2008514404296875,0.1587797999382019,-0.6137438416481018,0.2216114848852158,38.073974609375,98.82229614257812,-5.610275268554688
229600,0.0340118408203125,0.68267822265625,0.1905059814453125,0.1916168332099915,-0.612977147102356,0.1694686561822891,38.42172241210938,98.80711364746094,-5.601943969726562
229601,0.0340118408203125,0.68267822265625,0.1905059814453125,0.1916168332099915,-0.612977147102356,0.1694686561822891,38.42172241210938,98.80711364746094,-5.601943969726562
229602,-0.0008544921875,0.4883880615234375,0.1532745361328125,0.0886792689561843,-0.4385912120342255,0.1638182252645493,38.95417785644531,98.724609375,-5.29998779296875
229603,-0.04864501953125,0.520843505859375,0.1187744140625,0.0165313053876161,-0.2490228712558746,0.1960278302431107,39.12794494628906,98.76666259765624,-5.326278686523438
229604,-0.116363525390625,0.6510009765625,0.0696868896484375,-0.0474532693624496,-0.0235934760421514,0.2092541456222534,39.26742553710938,98.73536682128906,-5.296035766601562
229605,-0.136871337890625,0.6983795166015625,0.0296173095703125,-0.0776545777916908,0.1856401711702347,0.2093870490789413,39.39128112792969,98.75393676757812,-5.29559326171875
229606,-0.136871337890625,0.6983795166015625,0.0296173095703125,-0.0776545777916908,0.1856401711702347,0.2093870490789413,39.39128112792969,98.75393676757812,-5.29559326171875
229607,-0.1263275146484375,0.670928955078125,0.0036773681640625,-0.1261563301086426,0.5889570116996765,0.1583049446344376,39.5634765625,98.9169921875,-5.407806396484375
229608,-0.1426544189453125,0.71185302734375,0.0127716064453125,-0.1261563301086426,0.5889570116996765,0.1583049446344376,39.61073303222656,98.83883666992188,-5.301925659179688
229609,-0.1426544189453125,0.71185302734375,0.0127716064453125,-0.1261563301086426,0.5889570116996765,0.1583049446344376,39.61073303222656,98.83883666992188,-5.301925659179688
229610,-0.1505279541015625,0.779998779296875,0.035064697265625,-0.2871302962303162,0.5924444198608398,0.0370653420686721,39.70498657226562,98.7373504638672,-5.216842651367188
229611,-0.116546630859375,0.9420318603515624,0.0637054443359375,-0.3378765881061554,0.5785762667655945,-0.0550858899950981,39.63516235351562,98.94680786132812,-5.319351196289062
229612,-0.1002960205078125,1.013534545898438,0.1115570068359375,-0.3531378209590912,0.5979084372520447,-0.1567555218935013,39.56591796875,98.93289184570312,-5.202651977539062
229613,-0.1002960205078125,1.013534545898438,0.1115570068359375,-0.3531378209590912,0.5979084372520447,-0.1567555218935013,39.56591796875,98.93289184570312,-5.202651977539062
229614,-0.104400634765625,1.069229125976562,0.1620635986328125,-0.3558561205863953,0.6353175640106201,-0.263677716255188,39.48219299316406,98.9262237548828,-5.165908813476562
229615,-0.1414947509765625,1.12725830078125,0.243255615234375,-0.3652125895023346,0.6335553526878357,-0.4214076995849609,39.12025451660156,99.0610809326172,-5.007965087890625
229616,-0.1612396240234375,1.124374389648438,0.263275146484375,-0.3686459362506866,0.6138879060745239,-0.4521839916706085,38.92417907714844,99.00660705566406,-4.878982543945312
229617,-0.1612396240234375,1.124374389648438,0.263275146484375,-0.3686459362506866,0.6138879060745239,-0.4521839916706085,38.92417907714844,99.00660705566406,-4.878982543945312
229618,-0.2149505615234375,1.09381103515625,0.170623779296875,-0.3129294216632843,0.5086672306060791,-0.4282152652740479,38.25448608398438,98.865478515625,-4.760284423828125
229619,-0.2261810302734375,1.029632568359375,0.09552001953125,-0.2335954457521439,0.4772110283374786,-0.4073898792266846,37.95866394042969,98.79562377929688,-4.587158203125
229620,-0.223236083984375,0.94189453125,0.038665771484375,-0.1351908445358276,0.4772624373435974,-0.3842746913433075,37.65773010253906,98.76522827148438,-4.462860107421875
229621,-0.223236083984375,0.94189453125,0.038665771484375,-0.1351908445358276,0.4772624373435974,-0.3842746913433075,37.65773010253906,98.76522827148438,-4.462860107421875
229622,-0.2037200927734375,0.8159027099609375,-0.005584716796875,-0.0490546263754367,0.4134986400604248,-0.3943395912647247,37.227294921875,98.71804809570312,-4.41217041015625
229623,-0.1962432861328125,0.7873992919921875,-0.015777587890625,-0.1047850027680397,0.3915398120880127,-0.4071176946163177,36.96882629394531,98.66905212402344,-4.39385986328125
229624,-0.1841888427734375,0.777618408203125,-0.01800537109375,-0.2075995355844498,0.3979012966156006,-0.423763781785965,36.69786071777344,98.62165832519533,-4.475830078125
229625,-0.1811676025390625,0.7924957275390625,-0.021270751953125,-0.4942813515663147,0.4367400407791138,-0.4692593812942505,36.43449401855469,98.68890380859376,-4.453506469726562
229626,-0.1811676025390625,0.7924957275390625,-0.021270751953125,-0.4942813515663147,0.4367400407791138,-0.4692593812942505,36.43449401855469,98.68890380859376,-4.453506469726562
229627,-0.195953369140625,0.928253173828125,-0.093109130859375,-0.6273589730262756,0.4216878414154053,-0.479128509759903,35.84765625,98.71612548828124,-4.334762573242188
229628,-0.190399169921875,1.004364013671875,-0.140533447265625,-0.7285833358764648,0.3427624106407166,-0.4534803926944733,35.43392944335938,98.56500244140624,-4.190109252929688
229629,-0.190399169921875,1.004364013671875,-0.140533447265625,-0.7285833358764648,0.3427624106407166,-0.4534803926944733,35.43392944335938,98.56500244140624,-4.190109252929688
229630,-0.1818695068359375,1.099334716796875,-0.17156982421875,-0.7482593059539795,0.2555800974369049,-0.3885599970817566,35.12193298339844,98.51402282714844,-3.859725952148438
229631,-0.160919189453125,1.209991455078125,-0.16900634765625,-0.6827660799026489,0.1851280480623245,-0.3041577637195587,34.69157409667969,98.50347900390624,-3.71142578125
229632,-0.13409423828125,1.435272216796875,-0.149505615234375,-0.559414267539978,0.1111930981278419,-0.019062640145421,34.18675231933594,98.3951416015625,-3.288192749023438
229633,-0.13409423828125,1.435272216796875,-0.149505615234375,-0.559414267539978,0.1111930981278419,-0.019062640145421,34.18675231933594,98.3951416015625,-3.288192749023438
229634,-0.091827392578125,1.447235107421875,-0.152557373046875,-0.4532806575298309,0.0279253739863634,0.1500829756259918,33.92210388183594,98.30140686035156,-3.018081665039062
229635,0.03125,1.22784423828125,-0.16094970703125,-0.0855769515037536,0.0277746394276619,0.3139179944992065,33.85614013671875,98.16294860839844,-2.472213745117188
229636,0.0860137939453125,1.1680908203125,-0.2340850830078125,0.0790671184659004,0.004422711674124,0.2899822890758514,33.92617797851562,98.27888488769533,-2.219711303710938
229637,0.0860137939453125,1.1680908203125,-0.2340850830078125,0.0790671184659004,0.004422711674124,0.2899822890758514,33.92617797851562,98.27888488769533,-2.219711303710938
229638,0.19696044921875,1.100906372070312,-0.3942108154296875,0.3180743753910065,-0.1712186187505722,0.2142747491598129,34.12010192871094,98.28814697265624,-1.983795166015625
229639,0.2479705810546875,1.058975219726562,-0.4602203369140625,0.3925099968910217,-0.2685414552688599,0.2043310403823853,34.18887329101562,98.23577880859376,-2.001541137695312
229640,0.2876434326171875,1.059127807617188,-0.502593994140625,0.4486102759838104,-0.3266082108020782,0.1874505877494812,34.41078186035156,98.25222778320312,-1.964111328125
229641,0.309356689453125,1.089401245117188,-0.520965576171875,0.5494154691696167,-0.4594725072383881,0.1109350398182869,34.47686767578125,98.3570556640625,-2.13250732421875
229642,0.309356689453125,1.089401245117188,-0.520965576171875,0.5494154691696167,-0.4594725072383881,0.1109350398182869,34.47686767578125,98.3570556640625,-2.13250732421875
229643,0.3314208984375,1.129669189453125,-0.472869873046875,0.5289019346237183,-0.5471997261047363,0.1172933354973793,34.64486694335938,98.52125549316406,-2.5181884765625
229644,0.3470001220703125,1.144973754882812,-0.45037841796875,0.5289019346237183,-0.5471997261047363,0.1172933354973793,34.75384521484375,98.525390625,-2.543502807617188
229645,0.3470001220703125,1.144973754882812,-0.45037841796875,0.5289019346237183,-0.5471997261047363,0.1172933354973793,34.75384521484375,98.525390625,-2.543502807617188
229646,0.352294921875,1.16046142578125,-0.3991851806640625,0.5263484716415405,-0.6006168723106384,0.2110619097948074,34.88020324707031,98.57154846191406,-2.826370239257812
229647,0.34283447265625,1.180191040039062,-0.3221282958984375,0.5263484716415405,-0.6006168723106384,0.2110619097948074,35.11717224121094,98.58956909179688,-3.031707763671875
229648,0.3203125,1.209869384765625,-0.217010498046875,0.5062628984451294,-0.6174086332321167,0.2417271435260773,35.22467041015625,98.6652374267578,-3.281158447265625
229649,0.217681884765625,1.2960205078125,0.0739593505859375,0.3352557718753815,-0.5970908403396606,0.1706891804933548,35.59425354003906,98.81655883789062,-3.5751953125
229650,0.217681884765625,1.2960205078125,0.0739593505859375,0.3352557718753815,-0.5970908403396606,0.1706891804933548,35.59425354003906,98.81655883789062,-3.5751953125
229651,0.042510986328125,1.39788818359375,0.26690673828125,0.1755518466234207,-0.4590048789978027,-0.0599871687591075,36.18133544921875,98.7423858642578,-3.75042724609375
229652,-0.0648040771484375,1.43017578125,0.2688140869140625,0.2118310332298279,-0.3488069772720337,-0.2322116643190384,36.38807678222656,98.91839599609376,-3.972885131835938
229653,-0.1798858642578125,1.422470092773438,0.2125396728515625,0.3578055500984192,-0.3474352061748505,-0.3861935138702393,36.47230529785156,98.96957397460938,-4.069992065429688
229654,-0.1798858642578125,1.422470092773438,0.2125396728515625,0.3578055500984192,-0.3474352061748505,-0.3861935138702393,36.47230529785156,98.96957397460938,-4.069992065429688
229655,-0.3541717529296875,1.21490478515625,0.086181640625,0.7906110286712646,-0.382445365190506,-0.4643812477588654,36.55882263183594,99.00529479980467,-4.173614501953125
229656,-0.37548828125,1.073715209960938,0.0009613037109375,0.9341972470283508,-0.3877953886985779,-0.3413634598255157,36.45384216308594,99.0717315673828,-4.30438232421875
229657,-0.37548828125,1.073715209960938,0.0009613037109375,0.9341972470283508,-0.3877953886985779,-0.3413634598255157,36.45384216308594,99.0717315673828,-4.30438232421875
229658,-0.322265625,0.97216796875,-0.0797119140625,0.9625220894813538,-0.4352942109107971,-0.2509499192237854,36.369384765625,99.0863037109375,-4.732528686523438
229659,-0.272369384765625,0.88946533203125,-0.0917205810546875,0.912010669708252,-0.5482463240623474,-0.2005533427000046,36.21614074707031,99.18597412109376,-4.995635986328125
229660,-0.2524566650390625,0.761749267578125,-0.00823974609375,0.7411220669746399,-0.525494396686554,-0.1214017942547798,36.24024963378906,99.25526428222656,-5.624664306640625
229661,-0.26513671875,0.7270965576171875,0.0186004638671875,0.6085192561149597,-0.4533051550388336,-0.1201194822788239,36.44853210449219,99.24082946777344,-6.431991577148438
229662,-0.26513671875,0.7270965576171875,0.0186004638671875,0.6085192561149597,-0.4533051550388336,-0.1201194822788239,36.44853210449219,99.24082946777344,-6.431991577148438
229663,-0.3031158447265625,0.7105712890625,-0.0019073486328125,0.2494729459285736,-0.3708057701587677,-0.115327924489975,36.58444213867188,99.21978759765624,-6.799514770507812
229664,-0.3095703125,0.7083740234375,-0.0154266357421875,0.2494729459285736,-0.3708057701587677,-0.115327924489975,36.68849182128906,99.03990173339844,-6.889205932617188
229665,-0.3095703125,0.7083740234375,-0.0154266357421875,0.2494729459285736,-0.3708057701587677,-0.115327924489975,36.68849182128906,99.03990173339844,-6.889205932617188
229666,-0.3023529052734375,0.6983642578125,-0.0310211181640625,0.2444422394037247,-0.295807957649231,-0.1035399734973907,36.70184326171875,98.97903442382812,-7.054885864257812
229667,-0.213043212890625,0.71832275390625,-0.005462646484375,0.2685236036777496,-0.1352726072072983,-0.0368661396205425,36.6732177734375,98.78604125976562,-7.135055541992188
229668,-0.13079833984375,0.762176513671875,0.091278076171875,0.2002132534980774,0.0357726439833641,0.0047252466902136,36.691162109375,98.74656677246094,-7.097824096679688
229669,-0.13079833984375,0.762176513671875,0.091278076171875,0.2002132534980774,0.0357726439833641,0.0047252466902136,36.691162109375,98.74656677246094,-7.097824096679688
229670,-0.0500030517578125,0.7908477783203125,0.1729888916015625,0.0887506380677223,0.2254786640405655,0.0505936704576015,36.72100830078125,98.7191925048828,-7.092193603515625
229671,0.0393524169921875,0.7851409912109375,0.2363739013671875,-0.1252612471580505,0.3754138350486755,0.1678478568792343,36.79226684570312,98.80062866210938,-7.312408447265625
229672,0.0655059814453125,0.7624359130859375,0.2443389892578125,-0.1686294972896576,0.2864405512809753,0.1813162565231323,36.81602478027344,98.6781005859375,-7.12738037109375
229673,0.0655059814453125,0.7624359130859375,0.2443389892578125,-0.1686294972896576,0.2864405512809753,0.1813162565231323,36.81602478027344,98.6781005859375,-7.12738037109375
229674,0.0908050537109375,0.7338104248046875,0.262420654296875,-0.1682760864496231,0.1526947319507599,0.1714631021022797,36.93621826171875,98.75163269042967,-7.170501708984375
229675,0.120086669921875,0.7783050537109375,0.2655181884765625,-0.1471641510725021,-0.0028474517166614,0.1249177008867264,37.02508544921875,98.66917419433594,-7.135665893554688
229676,0.0980224609375,0.8390350341796875,0.2269287109375,-0.2017400413751602,-0.0192972645163536,0.0877008214592933,37.0419921875,98.67759704589844,-6.930526733398438
229677,0.0858001708984375,0.8601837158203125,0.1912994384765625,-0.4009956121444702,-0.005714344792068,0.0154790906235575,37.11758422851562,98.6188507080078,-6.811355590820312
229678,0.0858001708984375,0.8601837158203125,0.1912994384765625,-0.4009956121444702,-0.005714344792068,0.0154790906235575,37.11758422851562,98.6188507080078,-6.811355590820312
229679,0.072662353515625,0.875244140625,0.205352783203125,-0.4871605932712555,0.0390709713101387,-0.0127658629789948,37.04109191894531,98.53483581542967,-6.374542236328125
229680,0.0318603515625,0.889129638671875,0.21533203125,-0.5523510575294495,0.0902880877256393,-0.0497798062860965,36.95750427246094,98.68367004394533,-6.083404541015625
229681,0.0318603515625,0.889129638671875,0.21533203125,-0.5523510575294495,0.0902880877256393,-0.0497798062860965,36.95750427246094,98.68367004394533,-6.083404541015625
229682,-0.108856201171875,0.9691162109375,0.178375244140625,-0.6087397933006287,0.1288442611694336,-0.1738407611846924,36.88137817382812,98.75228881835938,-6.106674194335938
229683,-0.17486572265625,1.022003173828125,0.1400909423828125,-0.6054020524024963,0.1517961919307709,-0.2322231233119965,36.72984313964844,98.70280456542967,-5.771728515625
229684,-0.22967529296875,1.086166381835938,0.0767364501953125,-0.5590648651123047,0.2700365483760834,-0.2471996694803238,36.52676391601562,98.68504333496094,-5.39739990234375
229685,-0.22967529296875,1.086166381835938,0.0767364501953125,-0.5590648651123047,0.2700365483760834,-0.2471996694803238,36.52676391601562,98.68504333496094,-5.39739990234375
229686,-0.2598419189453125,1.138626098632812,-0.0200042724609375,-0.45697021484375,0.3672262132167816,-0.2246592044830322,36.51106262207031,98.52957153320312,-5.187362670898438
229687,-0.2554473876953125,1.207778930664062,-0.046722412109375,-0.2829264998435974,0.3558566272258759,-0.187208503484726,36.0068359375,98.45469665527344,-4.95623779296875
229688,-0.2368316650390625,1.254806518554688,-0.093994140625,-0.2775085866451263,0.4079627096652985,-0.1632102280855179,35.76924133300781,98.38436889648438,-4.83734130859375
229689,-0.2368316650390625,1.254806518554688,-0.093994140625,-0.2775085866451263,0.4079627096652985,-0.1632102280855179,35.76924133300781,98.38436889648438,-4.83734130859375
229690,-0.118743896484375,1.34173583984375,-0.2597198486328125,-0.3462176024913788,0.3836520612239838,-0.1077616140246391,35.27064514160156,98.42860412597656,-4.7396240234375
229691,-0.0548248291015625,1.34283447265625,-0.2788848876953125,-0.3448657691478729,0.3714409172534943,-0.0852544456720352,35.10865783691406,98.34269714355467,-4.507598876953125
229692,0.004364013671875,1.30950927734375,-0.270050048828125,-0.3018890023231506,0.3752106428146362,-0.0478266440331935,34.88282775878906,98.35836791992188,-4.436294555664062
229693,0.004364013671875,1.30950927734375,-0.270050048828125,-0.3018890023231506,0.3752106428146362,-0.0478266440331935,34.88282775878906,98.35836791992188,-4.436294555664062
229694,0.0599365234375,1.158721923828125,-0.2738494873046875,-0.1858529597520828,0.3292098641395569,0.0125157916918396,34.67398071289062,98.16299438476562,-4.241073608398438
229695,0.0551605224609375,1.062362670898438,-0.3431396484375,-0.1057927384972572,0.2933847308158875,0.0374110229313373,34.68910217285156,98.13641357421876,-4.155746459960938
229696,0.062896728515625,0.966217041015625,-0.4264373779296875,0.0111732920631766,0.2697640955448151,0.0725777968764305,34.70411682128906,98.11477661132812,-4.048599243164062
229697,0.062896728515625,0.966217041015625,-0.4264373779296875,0.0111732920631766,0.2697640955448151,0.0725777968764305,34.70411682128906,98.11477661132812,-4.048599243164062
229698,0.0960540771484375,0.8796539306640625,-0.479095458984375,0.2490851879119873,0.3636623620986938,0.1769572049379349,34.6517333984375,98.0947265625,-4.055038452148438
229699,0.194366455078125,0.7964324951171875,-0.4656219482421875,0.2622321546077728,0.4275241792201996,0.2281940281391144,34.73161315917969,98.1433563232422,-4.22406005859375
229700,0.220062255859375,0.8256988525390625,-0.428619384765625,0.1978246569633484,0.4429832994937897,0.2425796240568161,34.73757934570312,98.1129913330078,-4.475082397460938
229701,0.220062255859375,0.8256988525390625,-0.428619384765625,0.1978246569633484,0.4429832994937897,0.2425796240568161,34.73757934570312,98.1129913330078,-4.475082397460938
229702,0.1916046142578125,0.992034912109375,-0.3853607177734375,0.1005902588367462,0.4326057434082031,0.1760373413562775,34.89151000976562,98.22634887695312,-4.733367919921875
229703,0.183563232421875,1.069915771484375,-0.3812103271484375,0.1149998232722282,0.4738107025623322,0.1474738717079163,34.91348266601562,98.31268310546876,-4.784332275390625
229704,0.1728515625,1.147354125976562,-0.36468505859375,0.1684800982475281,0.5307027697563171,0.1300442814826965,35.05368041992188,98.37936401367188,-4.850265502929688
229705,0.1728515625,1.147354125976562,-0.36468505859375,0.1684800982475281,0.5307027697563171,0.1300442814826965,35.05368041992188,98.37936401367188,-4.850265502929688
229706,0.09490966796875,1.257049560546875,-0.282928466796875,0.2684586346149445,0.6236686706542969,0.0898302868008613,35.06903076171875,98.48381042480467,-5.316375732421875
229707,0.0345458984375,1.287277221679688,-0.2091217041015625,0.2763711512088776,0.6196408867835999,0.050004843622446,35.08453369140625,98.50906372070312,-5.43603515625
229708,-0.02569580078125,1.284515380859375,-0.1070404052734375,0.2503310143947601,0.5753879547119141,0.0043018041178584,35.02799987792969,98.60855102539062,-5.669601440429688
229709,-0.02569580078125,1.284515380859375,-0.1070404052734375,0.2503310143947601,0.5753879547119141,0.0043018041178584,35.02799987792969,98.60855102539062,-5.669601440429688
229710,-0.0637969970703125,1.24786376953125,-0.016143798828125,0.151509627699852,0.3438918590545654,-0.0529276616871357,35.05213928222656,98.78990173339844,-6.016830444335938
229711,-0.0811614990234375,1.121505737304688,0.0637054443359375,0.100156158208847,0.1562069207429886,-0.0522927641868591,35.11569213867188,98.82757568359376,-6.466049194335938
229712,-0.076507568359375,1.048385620117188,0.079559326171875,0.0569911152124404,-0.0239591281861066,-0.0282835699617862,35.10380554199219,98.73208618164062,-6.558151245117188
229713,-0.076507568359375,1.048385620117188,0.079559326171875,0.0569911152124404,-0.0239591281861066,-0.0282835699617862,35.10380554199219,98.73208618164062,-6.558151245117188
229714,-0.05731201171875,0.9902496337890624,0.0827789306640625,0.041192177683115,-0.2087255120277405,0.0205630660057067,35.16072082519531,98.60841369628906,-6.565658569335938
229715,-0.0073394775390625,0.8807220458984375,0.0558013916015625,0.0537356659770011,-0.520788848400116,0.1056473329663277,35.35064697265625,98.781494140625,-6.739730834960938
229716,-0.0150146484375,0.8397064208984375,0.0822906494140625,0.0452327243983745,-0.5930774211883545,0.1365756839513779,35.42369079589844,98.7272491455078,-6.640106201171875
229717,-0.0370330810546875,0.816741943359375,0.1502838134765625,0.0177334565669298,-0.5581375956535339,0.1565789580345154,35.51382446289062,98.71539306640624,-6.400039672851562
229718,-0.0370330810546875,0.816741943359375,0.1502838134765625,0.0177334565669298,-0.5581375956535339,0.1565789580345154,35.51382446289062,98.71539306640624,-6.400039672851562
229719,-0.073028564453125,0.78204345703125,0.2622528076171875,-0.127597376704216,-0.291060596704483,0.1619177907705307,35.9652099609375,98.66584777832033,-6.546432495117188
229720,-0.1021728515625,0.7723388671875,0.311431884765625,-0.2408112734556198,-0.0895591750741004,0.1364281475543976,36.14213562011719,98.55055236816406,-6.33587646484375
229721,-0.1021728515625,0.7723388671875,0.311431884765625,-0.2408112734556198,-0.0895591750741004,0.1364281475543976,36.14213562011719,98.55055236816406,-6.33587646484375
229722,-0.1435089111328125,0.7550811767578125,0.3251953125,-0.3350405693054199,0.1477737426757812,0.1098663136363029,36.29598999023438,98.50114440917967,-6.088775634765625
229723,-0.19921875,0.69219970703125,0.15289306640625,-0.2862916886806488,0.4299889206886292,0.1369029879570007,36.43241882324219,98.4135284423828,-5.816665649414062
229724,-0.1659393310546875,0.670684814453125,0.07769775390625,-0.2862916886806488,0.4299889206886292,0.1369029879570007,36.45504760742188,98.403076171875,-5.703536987304688
229725,-0.1659393310546875,0.670684814453125,0.07769775390625,-0.2862916886806488,0.4299889206886292,0.1369029879570007,36.45504760742188,98.403076171875,-5.703536987304688
229726,-0.092193603515625,0.763427734375,0.03741455078125,-0.1394660174846649,0.613135039806366,0.1224753186106682,36.37319946289062,98.40756225585938,-5.547393798828125
229727,-0.092193603515625,0.763427734375,0.03741455078125,-0.1394660174846649,0.613135039806366,0.1224753186106682,36.37319946289062,98.40756225585938,-5.547393798828125
229728,-0.0875396728515625,0.95819091796875,0.0665283203125,-0.1846537292003632,0.746584951877594,0.0067055732943117,36.3441162109375,98.45719909667967,-5.574920654296875
229729,-0.0875396728515625,0.95819091796875,0.0665283203125,-0.1846537292003632,0.746584951877594,0.0067055732943117,36.3441162109375,98.45719909667967,-5.574920654296875
229730,-0.0919342041015625,1.032760620117188,0.076324462890625,-0.2119990736246109,0.7802039384841919,-0.099080242216587,36.29283142089844,98.25360107421876,-5.5283203125
229731,-0.0871124267578125,1.088607788085938,0.102325439453125,-0.1764669120311737,0.6739456653594971,-0.3091487884521484,36.06585693359375,98.33644104003906,-5.728164672851562
229732,-0.093841552734375,1.082077026367188,0.10699462890625,-0.1435308009386063,0.5995055437088013,-0.3952248096466064,35.86772155761719,98.2799072265625,-5.731842041015625
229733,-0.093841552734375,1.082077026367188,0.10699462890625,-0.1435308009386063,0.5995055437088013,-0.3952248096466064,35.86772155761719,98.2799072265625,-5.731842041015625
229734,-0.1266021728515625,1.0347900390625,0.087799072265625,-0.1121451780200005,0.5098038911819458,-0.4502609074115753,35.64875793457031,98.24211120605467,-5.686614990234375
229735,-0.2163848876953125,0.884185791015625,-0.0051116943359375,-0.0531108900904655,0.3492195010185242,-0.4759311079978943,35.07673645019531,98.2261962890625,-5.8004150390625
229736,-0.2393646240234375,0.8043975830078125,-0.031494140625,-0.0301168896257877,0.346804291009903,-0.4686074256896973,34.83674621582031,98.06422424316406,-5.6475830078125
229737,-0.26409912109375,0.7409820556640625,-0.0720367431640625,-0.0939536616206169,0.3782298564910889,-0.4319500923156738,34.63491821289062,98.0775909423828,-5.603347778320312
229738,-0.26409912109375,0.7409820556640625,-0.0720367431640625,-0.0939536616206169,0.3782298564910889,-0.4319500923156738,34.63491821289062,98.0775909423828,-5.603347778320312
229739,-0.282318115234375,0.71905517578125,-0.1361541748046875,-0.1476136893033981,0.3859738111495972,-0.422413557767868,34.14802551269531,98.20095825195312,-5.815567016601562
229740,-0.2865447998046875,0.767822265625,-0.1614990234375,-0.209973469376564,0.393725723028183,-0.4286163449287415,33.86210632324219,98.0570068359375,-5.8336181640625
229741,-0.2732086181640625,0.833770751953125,-0.18243408203125,-0.344851940870285,0.342951774597168,-0.4338742196559906,33.54719543457031,98.03550720214844,-5.873565673828125
229742,-0.2732086181640625,0.833770751953125,-0.18243408203125,-0.344851940870285,0.342951774597168,-0.4338742196559906,33.54719543457031,98.03550720214844,-5.873565673828125
229743,-0.20343017578125,1.005020141601562,-0.188934326171875,-0.4035682380199432,0.2909958958625793,-0.4220178127288818,33.03677368164062,97.93400573730467,-5.885971069335938
229744,-0.1539764404296875,1.087539672851562,-0.1800689697265625,-0.4462187588214874,0.2098791897296906,-0.3962149918079376,32.71304321289062,97.92201232910156,-5.795974731445312
229745,-0.1539764404296875,1.087539672851562,-0.1800689697265625,-0.4462187588214874,0.2098791897296906,-0.3962149918079376,32.71304321289062,97.92201232910156,-5.795974731445312
229746,-0.042633056640625,1.199874877929688,-0.1169891357421875,-0.4580202996730804,0.0593152567744255,-0.3076302707195282,32.290771484375,97.9053955078125,-5.442901611328125
229747,-0.003082275390625,1.246734619140625,-0.0964202880859375,-0.4230018556118011,-0.1056007295846939,-0.2023054361343384,32.05491638183594,97.79289245605467,-5.167556762695312
229748,0.0149688720703125,1.28973388671875,-0.090240478515625,-0.4230018556118011,-0.1056007295846939,-0.2023054361343384,31.75746154785156,97.82847595214844,-5.034530639648438
229749,0.0034942626953125,1.326812744140625,-0.07916259765625,-0.3144956231117249,-0.284371018409729,-0.0942103862762451,31.603271484375,97.7600555419922,-4.818023681640625
229750,0.0034942626953125,1.326812744140625,-0.07916259765625,-0.3144956231117249,-0.284371018409729,-0.0942103862762451,31.603271484375,97.7600555419922,-4.818023681640625
229751,-0.0314483642578125,1.346099853515625,-0.07391357421875,-0.2136797904968262,-0.3488767743110657,-0.03759291395545,31.44563293457031,97.6763916015625,-4.374298095703125
229752,-0.061065673828125,1.18096923828125,-0.043548583984375,-0.0707567259669303,-0.384949266910553,-0.0069252839311957,31.40945434570312,97.74290466308594,-4.147689819335938
229753,-0.061065673828125,1.18096923828125,-0.043548583984375,-0.0707567259669303,-0.384949266910553,-0.0069252839311957,31.40945434570312,97.74290466308594,-4.147689819335938
229754,-0.0778350830078125,1.06640625,-0.039154052734375,0.0626263618469238,-0.4019224047660828,0.005895972251892,31.37081909179688,97.6936492919922,-3.972244262695312
229755,-0.04412841796875,0.9302825927734376,-0.1499176025390625,0.2476976811885834,-0.4351301491260529,0.0433570593595504,31.53775024414062,97.6755828857422,-3.804779052734375
229756,-0.0085601806640625,0.905792236328125,-0.2263946533203125,0.3376012146472931,-0.4813381433486938,0.0548723042011261,31.61094665527344,97.6686553955078,-3.703414916992188
229757,-0.0085601806640625,0.905792236328125,-0.2263946533203125,0.3376012146472931,-0.4813381433486938,0.0548723042011261,31.61094665527344,97.6686553955078,-3.703414916992188
229758,0.02392578125,0.9186859130859376,-0.2872467041015625,0.4217096865177155,-0.5054053664207458,0.0685239359736442,31.65493774414062,97.71371459960938,-3.795791625976562
229759,0.0713348388671875,0.96392822265625,-0.3739471435546875,0.547378659248352,-0.533185601234436,0.0711591318249702,31.78543090820312,97.9031982421875,-3.936447143554688
229760,0.080474853515625,1.010818481445312,-0.3713836669921875,0.5830746293067932,-0.5433194637298584,0.0626972019672393,31.88075256347656,97.90960693359376,-3.980499267578125
229761,0.075103759765625,1.080230712890625,-0.2720489501953125,0.518678605556488,-0.501287579536438,0.0112808840349316,32.05101013183594,97.95883178710938,-4.307357788085938
229762,0.075103759765625,1.080230712890625,-0.2720489501953125,0.518678605556488,-0.501287579536438,0.0112808840349316,32.05101013183594,97.95883178710938,-4.307357788085938
229763,0.0635223388671875,1.115997314453125,-0.1878204345703125,0.3093083202838898,-0.3340099453926086,0.0039220373146235,32.1800537109375,98.0191650390625,-4.35821533203125
229764,0.04913330078125,1.164505004882812,-0.0957794189453125,0.3093083202838898,-0.3340099453926086,0.0039220373146235,32.2911376953125,98.10617065429688,-4.530914306640625
229765,0.025604248046875,1.215789794921875,0.0104522705078125,0.1983612924814224,-0.2611405253410339,0.000241548710619,32.23196411132812,98.09959411621094,-4.685043334960938
229766,0.025604248046875,1.215789794921875,0.0104522705078125,0.1983612924814224,-0.2611405253410339,0.000241548710619,32.23196411132812,98.09959411621094,-4.685043334960938
229767,-0.0795745849609375,1.31085205078125,0.1835479736328125,0.0654045715928077,-0.177934318780899,-0.0256334580481052,32.46720886230469,98.10028076171876,-5.001800537109375
229768,-0.1266632080078125,1.331634521484375,0.214019775390625,0.0754833072423934,-0.141737163066864,-0.0457326024770736,32.46408081054688,98.17604064941406,-5.078781127929688
229769,-0.1494598388671875,1.32318115234375,0.201995849609375,0.1372278928756714,-0.1227189972996712,-0.0677124708890914,32.49574279785156,98.15834045410156,-4.94659423828125
229770,-0.1494598388671875,1.32318115234375,0.201995849609375,0.1372278928756714,-0.1227189972996712,-0.0677124708890914,32.49574279785156,98.15834045410156,-4.94659423828125
229771,-0.130035400390625,1.243759155273438,0.14337158203125,0.3609805703163147,-0.1031064093112946,-0.1301992833614349,32.72572326660156,98.04014587402344,-4.875823974609375
229772,-0.130401611328125,1.186614990234375,0.0979766845703125,0.4417286813259125,-0.0994954332709312,-0.1797471195459366,32.74002075195312,97.9528350830078,-4.992568969726562
229773,-0.130401611328125,1.186614990234375,0.0979766845703125,0.4417286813259125,-0.0994954332709312,-0.1797471195459366,32.74002075195312,97.9528350830078,-4.992568969726562
229774,-0.1428070068359375,1.122329711914062,0.051422119140625,0.4809250831604004,-0.1366587728261948,-0.2357233166694641,32.86862182617188,97.89785766601562,-5.1282958984375
229775,-0.17633056640625,0.982391357421875,-0.008941650390625,0.3780799210071564,-0.2657837271690369,-0.3625869750976562,32.72981262207031,97.99551391601562,-5.605865478515625
229776,-0.1787567138671875,0.920928955078125,-0.0352020263671875,0.3780799210071564,-0.2657837271690369,-0.3625869750976562,32.77024841308594,97.89352416992188,-5.784317016601562
229777,-0.162933349609375,0.8720550537109375,-0.0616912841796875,0.3338565230369568,-0.3068201243877411,-0.349714607000351,32.74526977539062,97.7840576171875,-5.759872436523438
229778,-0.1559906005859375,0.84466552734375,-0.083343505859375,0.3052195608615875,-0.3730814456939697,-0.3157148063182831,32.71913146972656,97.81568908691406,-5.892715454101562
229779,-0.175018310546875,0.8237762451171875,-0.0879974365234375,0.2684610188007355,-0.4335996508598328,-0.2887130379676819,32.65180969238281,97.8204345703125,-5.834365844726562
229780,-0.219818115234375,0.798675537109375,-0.092193603515625,0.2417007684707642,-0.4479378461837769,-0.2807451188564301,32.73353576660156,97.58204650878906,-5.759048461914062
229781,-0.219818115234375,0.798675537109375,-0.092193603515625,0.2417007684707642,-0.4479378461837769,-0.2807451188564301,32.73353576660156,97.58204650878906,-5.759048461914062
229782,-0.3274078369140625,0.729522705078125,-0.1120147705078125,0.2029571086168289,-0.2388059198856354,-0.2485184669494629,32.65261840820312,97.61233520507812,-6.096939086914062
229783,-0.376190185546875,0.7092437744140625,-0.1039886474609375,0.2029571086168289,-0.2388059198856354,-0.2485184669494629,32.6072998046875,97.52699279785156,-6.124542236328125
229784,-0.400604248046875,0.69866943359375,-0.0727386474609375,0.1223890259861946,-0.1275771260261536,-0.2139450460672379,32.62605285644531,97.49607849121094,-6.209014892578125
229785,-0.400604248046875,0.69866943359375,-0.0727386474609375,0.1223890259861946,-0.1275771260261536,-0.2139450460672379,32.62605285644531,97.49607849121094,-6.209014892578125
229786,-0.380889892578125,0.694488525390625,-0.0286865234375,-0.2022620290517807,-0.0598225854337215,-0.0617107674479484,32.66535949707031,97.4517059326172,-6.213348388671875
229787,-0.2349700927734375,0.715484619140625,0.0877227783203125,-0.363122820854187,-0.0372997000813484,0.0548059903085231,32.56663513183594,97.38807678222656,-6.216873168945312
229788,-0.1532745361328125,0.746307373046875,0.122467041015625,-0.4768504500389099,-0.0082619246095418,0.1625092774629593,32.56779479980469,97.26084899902344,-6.111892700195312
229789,-0.091400146484375,0.7660675048828125,0.130126953125,-0.519440770149231,-0.0056701363064348,0.2442313134670258,32.5224609375,97.19085693359376,-6.01409912109375
229790,-0.091400146484375,0.7660675048828125,0.130126953125,-0.519440770149231,-0.0056701363064348,0.2442313134670258,32.5224609375,97.19085693359376,-6.01409912109375
229791,-0.016876220703125,0.7561798095703125,0.1091156005859375,-0.4583255052566528,-0.1015050560235977,0.3410281538963318,32.69538879394531,97.27232360839844,-5.429443359375
229792,0.0015869140625,0.7612152099609375,0.1082305908203125,-0.4295220673084259,-0.1246247515082359,0.3665527105331421,32.84274291992188,97.17996215820312,-5.141143798828125
229793,0.0185699462890625,0.8085479736328125,0.099609375,-0.4401198625564575,-0.1453015357255936,0.3640306890010834,32.89518737792969,97.24057006835938,-5.08502197265625
229794,0.0185699462890625,0.8085479736328125,0.099609375,-0.4401198625564575,-0.1453015357255936,0.3640306890010834,32.89518737792969,97.24057006835938,-5.08502197265625
229795,0.0369720458984375,0.9364776611328124,0.1295318603515625,-0.5506383776664734,-0.3101552128791809,0.2880719900131226,33.054443359375,97.3042449951172,-4.684173583984375
229796,0.03887939453125,0.9790802001953124,0.1642303466796875,-0.6116431355476379,-0.4024832546710968,0.2506809532642365,33.14173889160156,97.43977355957033,-4.44635009765625
229797,0.03887939453125,0.9790802001953124,0.1642303466796875,-0.6116431355476379,-0.4024832546710968,0.2506809532642365,33.14173889160156,97.43977355957033,-4.44635009765625
229798,0.0423736572265625,1.073455810546875,0.247772216796875,-0.6820278167724609,-0.4980864822864532,0.1734442263841629,33.34190368652344,97.50804138183594,-3.956390380859375
229799,0.034088134765625,1.127899169921875,0.2785186767578125,-0.6948035359382629,-0.4461005032062531,0.1212907433509827,33.41636657714844,97.55006408691406,-3.651580810546875
229800,0.0059051513671875,1.175064086914062,0.2939605712890625,-0.6673732399940491,-0.3351729214191437,0.0600156672298908,33.44563293457031,97.49009704589844,-3.249710083007812
229801,0.0059051513671875,1.175064086914062,0.2939605712890625,-0.6673732399940491,-0.3351729214191437,0.0600156672298908,33.44563293457031,97.49009704589844,-3.249710083007812
229802,-0.0571441650390625,1.192977905273438,0.2876129150390625,-0.6122316718101501,-0.2084898203611374,-0.0141568314284086,33.50926208496094,97.43853759765624,-2.835357666015625
229803,-0.2223052978515625,1.158172607421875,0.238494873046875,-0.4808808565139771,-0.0946695134043693,-0.1206065788865089,33.53396606445312,97.28524780273438,-2.082168579101562
229804,-0.3001861572265625,1.184249877929688,0.188751220703125,-0.4181804656982422,-0.0475917533040046,-0.1166616380214691,33.55593872070312,97.30558776855467,-1.97393798828125
229805,-0.3001861572265625,1.184249877929688,0.188751220703125,-0.4181804656982422,-0.0475917533040046,-0.1166616380214691,33.55593872070312,97.30558776855467,-1.97393798828125
229806,-0.349456787109375,1.2098388671875,0.112701416015625,-0.3791760802268982,-0.0130779854953289,-0.0968927219510078,33.48405456542969,97.33944702148438,-1.729995727539062
229807,-0.3315887451171875,1.154998779296875,0.008819580078125,-0.2334718704223633,0.1598746180534363,0.0152761582285165,33.33149719238281,97.26458740234376,-1.230224609375
229808,-0.31475830078125,1.13140869140625,-0.0203399658203125,-0.1742998957633972,0.324090987443924,0.0685356482863426,33.18145751953125,97.08328247070312,-1.0745849609375
229809,-0.31475830078125,1.13140869140625,-0.0203399658203125,-0.1742998957633972,0.324090987443924,0.0685356482863426,33.18145751953125,97.08328247070312,-1.0745849609375
229810,-0.282440185546875,1.114913940429688,-0.0545654296875,-0.1510150879621506,0.4625881612300873,0.1052641049027443,33.14244079589844,97.11769104003906,-1.112274169921875
229811,-0.1527252197265625,1.091476440429688,-0.119354248046875,-0.0672852993011474,0.637633740901947,0.1643093079328537,32.9779052734375,97.15821838378906,-0.9724884033203124
229812,-0.09259033203125,1.0816650390625,-0.1404266357421875,-0.0590643845498561,0.6500664353370667,0.1979817897081375,32.9556884765625,97.08058166503906,-0.9412078857421876
229813,-0.09259033203125,1.0816650390625,-0.1404266357421875,-0.0590643845498561,0.6500664353370667,0.1979817897081375,32.9556884765625,97.08058166503906,-0.9412078857421876
229814,0.0462188720703125,0.9882659912109376,-0.189849853515625,0.0854813456535339,0.5939754843711853,0.3430420458316803,32.82069396972656,97.10643005371094,-0.9589691162109376
229815,0.087127685546875,0.954833984375,-0.2432861328125,0.0854813456535339,0.5939754843711853,0.3430420458316803,32.70994567871094,97.02629089355467,-0.954681396484375
229816,0.1171875,0.92401123046875,-0.3151702880859375,0.1993788778781891,0.5259418487548828,0.3874078989028931,32.69163513183594,96.92088317871094,-1.07916259765625
229817,0.1171875,0.92401123046875,-0.3151702880859375,0.1993788778781891,0.5259418487548828,0.3874078989028931,32.69163513183594,96.92088317871094,-1.07916259765625
229818,0.1613616943359375,0.908447265625,-0.370208740234375,0.2940609157085419,0.4779782891273499,0.430856853723526,32.76414489746094,96.89076232910156,-1.278182983398438
229819,0.2156524658203125,0.9319915771484376,-0.3308258056640625,0.3009286820888519,0.5003176927566528,0.452936053276062,32.86688232421875,96.96031188964844,-1.510940551757812
229820,0.2748870849609375,1.018096923828125,-0.175323486328125,0.0110531840473413,0.3863250613212585,0.4145069122314453,33.0325927734375,97.16946411132812,-1.890518188476562
229821,0.2748870849609375,1.018096923828125,-0.175323486328125,0.0110531840473413,0.3863250613212585,0.4145069122314453,33.0325927734375,97.16946411132812,-1.890518188476562
229822,0.2864837646484375,1.189483642578125,-0.1116180419921875,0.0601248554885387,0.0989478826522827,0.3070976138114929,33.30522155761719,97.37855529785156,-2.220535278320312
229823,0.262237548828125,1.258041381835938,-0.0681915283203125,0.0601248554885387,0.0989478826522827,0.3070976138114929,33.4837646484375,97.36231994628906,-2.294158935546875
229824,0.216796875,1.290939331054688,-0.0443572998046875,0.1662153452634811,0.165271520614624,0.2401958256959915,33.5321044921875,97.48463439941406,-2.248626708984375
229825,0.1455078125,1.26385498046875,-0.0286712646484375,0.2778744995594025,0.2540642321109772,0.1438788771629333,33.84733581542969,97.54850769042967,-2.224945068359375
229826,0.1455078125,1.26385498046875,-0.0286712646484375,0.2778744995594025,0.2540642321109772,0.1438788771629333,33.84733581542969,97.54850769042967,-2.224945068359375
229827,-0.0308837890625,1.088226318359375,0.0386810302734375,0.4897388219833374,0.2176401764154434,-0.0393713749945163,34.19512939453125,97.57728576660156,-2.730819702148438
229828,-0.0627899169921875,0.9867401123046876,0.0513458251953125,0.5250832438468933,0.0788426175713539,-0.1081112921237946,34.2095947265625,97.54612731933594,-2.912353515625
229829,-0.0627899169921875,0.9867401123046876,0.0513458251953125,0.5250832438468933,0.0788426175713539,-0.1081112921237946,34.2095947265625,97.54612731933594,-2.912353515625
229830,-0.0732879638671875,0.890899658203125,0.059112548828125,0.4808310568332672,-0.1096806898713112,-0.1320821344852448,34.19126892089844,97.58737182617188,-3.243942260742188
229831,-0.01751708984375,0.7692108154296875,0.0682830810546875,0.3483065664768219,-0.4693834781646729,-0.0154894776642322,34.19073486328125,97.6355438232422,-3.533798217773438
229832,0.0072784423828125,0.7240753173828125,0.0534515380859375,0.2897260785102844,-0.5495938658714294,0.142223984003067,34.20335388183594,97.64143371582033,-3.65777587890625
229833,0.0072784423828125,0.7240753173828125,0.0534515380859375,0.2897260785102844,-0.5495938658714294,0.142223984003067,34.20335388183594,97.64143371582033,-3.65777587890625
229834,0.009490966796875,0.7521820068359375,0.040313720703125,0.2898153066635132,-0.5733242630958557,0.3903027772903442,34.49980163574219,97.77769470214844,-3.893478393554688
229835,-0.04443359375,0.7847137451171875,0.0583953857421875,0.2662868201732635,-0.536543071269989,0.4362303018569946,34.772705078125,97.83918762207033,-3.946762084960938
229836,-0.0929412841796875,0.8368682861328125,0.097381591796875,0.2233702391386032,-0.4833658635616302,0.4240804314613342,35.08879089355469,97.87013244628906,-3.9442138671875
229837,-0.1152801513671875,0.874908447265625,0.143035888671875,0.1808789670467377,-0.3754154443740845,0.3709264099597931,35.34220886230469,97.98988342285156,-3.992172241210938
229838,-0.1252593994140625,0.9004058837890625,0.174530029296875,0.1563352793455124,-0.1988984495401382,0.3125081062316895,35.69789123535156,98.06515502929688,-4.0450439453125
229839,-0.13739013671875,0.908355712890625,0.194549560546875,0.143104687333107,-0.0160593930631876,0.260164201259613,35.833740234375,97.96633911132812,-3.966705322265625
229840,-0.1512908935546875,0.8828125,0.2201080322265625,0.1131406724452972,0.1429006904363632,0.224248543381691,35.94313049316406,98.084228515625,-4.03326416015625
229841,-0.1512908935546875,0.81866455078125,0.2375030517578125,0.0655228197574615,0.2699558436870575,0.1998888850212097,36.06031799316406,98.12362670898438,-4.151596069335938
229842,-0.1512908935546875,0.81866455078125,0.2375030517578125,0.0655228197574615,0.2699558436870575,0.1998888850212097,36.06031799316406,98.12362670898438,-4.151596069335938
229843,-0.134979248046875,0.737701416015625,0.242523193359375,-0.003891411004588,0.3754018545150757,0.1978161484003067,36.23577880859375,98.0508270263672,-4.20123291015625
229844,-0.1332550048828125,0.686859130859375,0.21728515625,-0.1921617239713669,0.5520557165145874,0.1771513372659683,36.31600952148438,97.95257568359376,-4.34466552734375
229845,-0.179718017578125,0.812652587890625,0.1954498291015625,-0.2834162712097168,0.6205671429634094,0.112621083855629,36.39993286132812,97.85089111328124,-4.2901611328125
229846,-0.179718017578125,0.812652587890625,0.1954498291015625,-0.2834162712097168,0.6205671429634094,0.112621083855629,36.39993286132812,97.85089111328124,-4.2901611328125
229847,-0.2062835693359375,1.002105712890625,0.129119873046875,-0.2613658308982849,0.678205132484436,-0.0196133814752101,36.33918762207031,97.89195251464844,-4.29046630859375
229848,-0.192413330078125,1.066482543945312,0.1482391357421875,-0.1754218935966492,0.6576838493347168,-0.0910641327500343,36.3359375,97.84040832519533,-4.281463623046875
229849,-0.1561279296875,1.146240234375,0.240966796875,-0.0991769134998321,0.630995512008667,-0.2496934533119202,36.03742980957031,97.86666870117188,-4.07965087890625
229850,-0.1561279296875,1.146240234375,0.240966796875,-0.0991769134998321,0.630995512008667,-0.2496934533119202,36.03742980957031,97.86666870117188,-4.07965087890625
229851,-0.1441192626953125,1.14337158203125,0.248870849609375,-0.108849786221981,0.6122767329216003,-0.30745929479599,35.89862060546875,97.88215637207033,-4.130523681640625
229852,-0.13275146484375,1.112869262695312,0.2106781005859375,-0.1066739782691002,0.5257788300514221,-0.3306745886802673,35.58146667480469,97.90478515625,-4.278549194335938
229853,-0.13275146484375,1.112869262695312,0.2106781005859375,-0.1066739782691002,0.5257788300514221,-0.3306745886802673,35.58146667480469,97.90478515625,-4.278549194335938
229854,-0.12493896484375,1.047622680664062,0.14031982421875,-0.0819947347044944,0.4240548610687256,-0.3306988179683685,35.33619689941406,97.85125732421876,-4.465835571289062
229855,-0.1501312255859375,0.8714599609375,-0.016204833984375,-0.0111714284867048,0.3385687172412872,-0.3051271438598633,34.89984130859375,97.912353515625,-4.474349975585938
229856,-0.1578216552734375,0.7859954833984375,-0.05999755859375,0.0022240057587623,0.2976990640163422,-0.3047945201396942,34.66935729980469,97.90237426757812,-4.49822998046875
229857,-0.1578216552734375,0.7859954833984375,-0.05999755859375,0.0022240057587623,0.2976990640163422,-0.3047945201396942,34.66935729980469,97.90237426757812,-4.49822998046875
229858,-0.17144775390625,0.7312469482421875,-0.0717620849609375,-0.0442572087049484,0.2749258279800415,-0.3147086799144745,34.42277526855469,97.76434326171876,-4.475311279296875
229859,-0.18115234375,0.72821044921875,-0.1186981201171875,-0.2767889797687531,0.1618517488241196,-0.3798218965530396,34.05014038085938,97.78483581542967,-4.364028930664062
229860,-0.169158935546875,0.7931365966796875,-0.1234588623046875,-0.41053107380867,0.0955110788345336,-0.4111281633377075,33.85710144042969,97.6891632080078,-4.262008666992188
229861,-0.1427459716796875,0.8915252685546875,-0.1244049072265625,-0.5314481854438782,0.0550648495554924,-0.4267686307430267,33.70094299316406,97.55130004882812,-4.198974609375
229862,-0.1427459716796875,0.8915252685546875,-0.1244049072265625,-0.5314481854438782,0.0550648495554924,-0.4267686307430267,33.70094299316406,97.55130004882812,-4.198974609375
229863,-0.0999298095703125,1.104156494140625,-0.1105499267578125,-0.6082249879837036,0.0107703562825918,-0.3894494771957397,33.16743469238281,97.56007385253906,-3.768020629882812
229864,-0.090057373046875,1.20318603515625,-0.0877227783203125,-0.5927919745445251,0.0051689292304217,-0.3510275185108185,32.84664916992188,97.43357849121094,-3.433685302734375
229865,-0.090057373046875,1.20318603515625,-0.0877227783203125,-0.5927919745445251,0.0051689292304217,-0.3510275185108185,32.84664916992188,97.43357849121094,-3.433685302734375
229866,-0.0842132568359375,1.42767333984375,-0.0747222900390625,-0.5161616206169128,0.0795776471495628,-0.0418784730136394,32.32928466796875,97.54689025878906,-2.873397827148438
229867,-0.071563720703125,1.461807250976562,-0.1016387939453125,-0.5161616206169128,0.0795776471495628,-0.0418784730136394,32.2208251953125,97.47897338867188,-2.609573364257812
229868,-0.046356201171875,1.389144897460938,-0.0763092041015625,-0.4452834725379944,0.0407546199858188,0.0580553151667118,31.99336242675781,97.42396545410156,-2.38531494140625
229869,-0.046356201171875,1.389144897460938,-0.0763092041015625,-0.4452834725379944,0.0407546199858188,0.0580553151667118,31.99336242675781,97.42396545410156,-2.38531494140625
229870,-0.0482330322265625,1.331222534179688,-0.0337371826171875,-0.3217852115631104,0.0569599568843841,0.0855505838990211,31.91670227050781,97.40487670898438,-2.204818725585938
229871,-0.0562591552734375,1.215835571289062,-0.092559814453125,-0.0281144585460424,-0.0140122221782803,0.0377223454415798,31.87112426757812,97.38330078125,-1.867324829101562
229872,-0.0252838134765625,1.133377075195312,-0.1472320556640625,0.0959353148937225,-0.0713604688644409,0.0026650251820683,31.83863830566406,97.3369598388672,-1.716827392578125
229873,0.011627197265625,1.065765380859375,-0.1989898681640625,0.1963247656822205,-0.1331876218318939,-0.0267013851553201,31.91059875488281,97.30299377441406,-1.693618774414062
229874,0.011627197265625,1.065765380859375,-0.1989898681640625,0.1963247656822205,-0.1331876218318939,-0.0267013851553201,31.91059875488281,97.30299377441406,-1.693618774414062
229875,0.085601806640625,1.008758544921875,-0.3134918212890625,0.5827441215515137,-0.3069572746753693,-0.0208043474704027,31.88093566894531,97.435546875,-1.861007690429688
229876,0.1160125732421875,1.013168334960938,-0.35467529296875,0.6488341689109802,-0.398430198431015,-0.0173472985625267,31.97535705566406,97.33346557617188,-1.878448486328125
229877,0.1362152099609375,0.9963226318359376,-0.3807373046875,0.6488341689109802,-0.398430198431015,-0.0173472985625267,32.02674865722656,97.3284149169922,-1.814804077148438
229878,0.1362152099609375,0.9963226318359376,-0.3807373046875,0.6488341689109802,-0.398430198431015,-0.0173472985625267,32.02674865722656,97.3284149169922,-1.814804077148438
229879,0.149017333984375,1.010910034179688,-0.3531036376953125,0.7643772959709167,-0.4586533308029175,-0.0098904473707079,32.14205932617188,97.3335418701172,-2.011093139648438
229880,0.14886474609375,1.031204223632812,-0.350799560546875,0.8021968603134155,-0.4776970744132996,-0.0044956821948289,32.27981567382812,97.28758239746094,-2.148574829101562
229881,0.14093017578125,1.066696166992188,-0.33758544921875,0.8359233736991882,-0.4820169806480408,0.0029465213883668,32.28172302246094,97.4196319580078,-2.577896118164062
229882,0.14093017578125,1.066696166992188,-0.33758544921875,0.8359233736991882,-0.4820169806480408,0.0029465213883668,32.28172302246094,97.4196319580078,-2.577896118164062
229883,0.1230926513671875,1.105087280273438,-0.303741455078125,0.8694136738777161,-0.4663280248641968,0.0128670623525977,32.352294921875,97.71131896972656,-3.097869873046875
229884,0.0719451904296875,1.179443359375,-0.1886749267578125,0.8646059036254883,-0.4181578457355499,0.0163020081818103,32.38746643066406,97.68096923828124,-3.774185180664062
229885,0.0719451904296875,1.179443359375,-0.1886749267578125,0.8646059036254883,-0.4181578457355499,0.0163020081818103,32.38746643066406,97.68096923828124,-3.774185180664062
229886,0.0411529541015625,1.198562622070312,-0.0996551513671875,0.6629305481910706,-0.4158424735069275,-0.0084017403423786,32.4730224609375,97.7865753173828,-4.055770874023438
229887,-0.0415191650390625,1.25799560546875,0.1345672607421875,0.5246533751487732,-0.4233342111110687,-0.0153193017467856,32.74627685546875,97.9626007080078,-4.756622314453125
229888,-0.080291748046875,1.2884521484375,0.2169647216796875,0.4078985452651978,-0.39125856757164,-0.0341286770999431,32.85833740234375,98.02792358398438,-4.923568725585938
229889,-0.1237335205078125,1.297653198242188,0.2474365234375,0.2976551353931427,-0.302456259727478,-0.0754287093877792,32.95523071289062,98.11778259277344,-5.129745483398438
229890,-0.1237335205078125,1.297653198242188,0.2474365234375,0.2976551353931427,-0.302456259727478,-0.0754287093877792,32.95523071289062,98.11778259277344,-5.129745483398438
229891,-0.1584320068359375,1.305282592773438,0.1807098388671875,0.3909054398536682,-0.3411352336406708,-0.1317335218191147,33.11463928222656,97.92770385742188,-5.281906127929688
229892,-0.1629486083984375,1.237808227539062,0.1280059814453125,0.5622433423995972,-0.4420455992221832,-0.1888775080442429,33.18382263183594,97.93815612792967,-5.347671508789062
229893,-0.1629486083984375,1.237808227539062,0.1280059814453125,0.5622433423995972,-0.4420455992221832,-0.1888775080442429,33.18382263183594,97.93815612792967,-5.347671508789062
229894,-0.153656005859375,1.141632080078125,0.0905609130859375,0.7469629049301147,-0.5421956181526184,-0.227948471903801,33.20489501953125,98.11973571777344,-5.608932495117188
229895,-0.1208953857421875,0.9300994873046876,0.0221405029296875,0.9092484712600708,-0.6531320214271545,-0.2298260033130646,33.26348876953125,97.95338439941406,-5.967483520507812
229896,-0.1184844970703125,0.87371826171875,0.00946044921875,0.8831228613853455,-0.7332550883293152,-0.2334103584289551,33.27386474609375,98.00674438476562,-6.275192260742188
229897,-0.1144866943359375,0.8113861083984375,0.0111083984375,0.8291751742362976,-0.8211098313331604,-0.271414190530777,33.27073669433594,98.09211730957033,-6.547042846679688
229898,-0.1144866943359375,0.8113861083984375,0.0111083984375,0.8291751742362976,-0.8211098313331604,-0.271414190530777,33.27073669433594,98.09211730957033,-6.547042846679688
229899,-0.1544647216796875,0.696807861328125,0.0110015869140625,0.7192708253860474,-0.9223498702049256,-0.2600611448287964,33.22883605957031,98.01657104492188,-7.134384155273438
229900,-0.1795806884765625,0.674102783203125,-0.012664794921875,0.6785553097724915,-0.9125156402587892,-0.2355251759290695,33.21408081054688,98.04402160644533,-7.44024658203125
229901,-0.19952392578125,0.6335906982421875,-0.0359344482421875,0.6253088712692261,-0.8948620557785034,-0.2222128212451935,33.21929931640625,97.8924560546875,-7.67022705078125
229902,-0.19952392578125,0.6335906982421875,-0.0359344482421875,0.6253088712692261,-0.8948620557785034,-0.2222128212451935,33.21929931640625,97.8924560546875,-7.67022705078125
229903,-0.2391357421875,0.54345703125,-0.0173797607421875,0.4482323825359344,-0.6241735816001892,-0.2186814695596695,33.42036437988281,97.82789611816406,-7.782196044921875
229904,-0.239349365234375,0.4944915771484375,-0.016510009765625,0.341382622718811,-0.3850259780883789,-0.2235396206378937,33.4312744140625,97.77505493164062,-7.864044189453125
229905,-0.2245330810546875,0.4553070068359375,-0.019989013671875,0.2417553663253784,-0.1318994462490082,-0.2021211385726929,33.40339660644531,97.65184020996094,-7.994735717773438
229906,-0.2245330810546875,0.4553070068359375,-0.019989013671875,0.2417553663253784,-0.1318994462490082,-0.2021211385726929,33.40339660644531,97.65184020996094,-7.994735717773438
229907,-0.159088134765625,0.5310516357421875,0.0992431640625,-0.0467712320387363,0.1923683732748032,-0.0049020806327462,33.31399536132812,97.6572723388672,-8.24542236328125
229908,-0.1199188232421875,0.6463470458984375,0.185821533203125,-0.2502724230289459,0.3559455871582031,0.1189546138048172,33.32826232910156,97.51419067382812,-8.194839477539062
229909,-0.1024627685546875,0.81298828125,0.21746826171875,-0.5621786713600159,0.5479022264480591,0.2527230679988861,33.46905517578125,97.4471435546875,-8.227401733398438
229910,-0.1024627685546875,0.81298828125,0.21746826171875,-0.5621786713600159,0.5479022264480591,0.2527230679988861,33.46905517578125,97.4471435546875,-8.227401733398438
229911,-0.0970611572265625,0.847808837890625,0.2106170654296875,-0.5973315834999084,0.5368139147758484,0.3040152788162231,33.45269775390625,97.5020751953125,-8.02947998046875
229912,-0.0941619873046875,0.8827056884765625,0.21807861328125,-0.5866808295249939,0.524364173412323,0.3275885283946991,33.486328125,97.55622863769533,-7.898773193359375
229913,-0.0897064208984375,0.9316558837890624,0.2257232666015625,-0.5703566670417786,0.5737934708595276,0.333047479391098,33.50225830078125,97.67660522460938,-7.72528076171875
229914,-0.0897064208984375,0.9316558837890624,0.2257232666015625,-0.5703566670417786,0.5737934708595276,0.333047479391098,33.50225830078125,97.67660522460938,-7.72528076171875
229915,-0.0796966552734375,0.990325927734375,0.2120819091796875,-0.6034619212150574,0.5642197132110596,0.2848977744579315,33.61924743652344,97.75942993164062,-7.574127197265625
229916,-0.0461273193359375,1.058944702148438,0.2186737060546875,-0.6460115313529968,0.4377821385860443,0.2410136759281158,33.65092468261719,97.92518615722656,-7.194915771484375
229917,-0.0178070068359375,1.077713012695312,0.2455596923828125,-0.7152281403541565,0.2736065089702606,0.1932158023118973,33.6807861328125,97.91783142089844,-7.017684936523438
229918,-0.0178070068359375,1.077713012695312,0.2455596923828125,-0.7152281403541565,0.2736065089702606,0.1932158023118973,33.6807861328125,97.91783142089844,-7.017684936523438
229919,0.0311737060546875,1.150634765625,0.262939453125,-0.9203472137451172,-0.1191953644156456,0.0441831722855567,33.68305969238281,97.99429321289062,-6.682052612304688
229920,0.041412353515625,1.193893432617188,0.2271881103515625,-0.9882724285125732,-0.2960170209407806,-0.0506554543972015,33.70101928710938,97.9381103515625,-6.2083740234375
229921,0.037994384765625,1.228607177734375,0.1665191650390625,-0.9839927554130554,-0.4633572697639465,-0.1545022279024124,33.66157531738281,97.86256408691406,-5.796661376953125
229922,0.037994384765625,1.228607177734375,0.1665191650390625,-0.9839927554130554,-0.4633572697639465,-0.1545022279024124,33.66157531738281,97.86256408691406,-5.796661376953125
229923,0.0062408447265625,1.252792358398438,0.0104522705078125,-0.7747500538825989,-0.5053132176399231,-0.3067636787891388,33.65214538574219,97.6611785888672,-4.746246337890625
229924,-0.0323638916015625,1.27703857421875,-0.0853424072265625,-0.6391514539718628,-0.3944876492023468,-0.3615648746490479,33.53408813476562,97.59747314453124,-4.224029541015625
229925,-0.0834808349609375,1.279541015625,-0.1477813720703125,-0.4480209350585938,-0.2220810055732727,-0.3912359476089478,33.35238647460938,97.57878112792967,-3.761184692382812
229926,-0.0834808349609375,1.279541015625,-0.1477813720703125,-0.4480209350585938,-0.2220810055732727,-0.3912359476089478,33.35238647460938,97.57878112792967,-3.761184692382812
229927,-0.168701171875,1.273971557617188,-0.2176361083984375,-0.4045019447803497,-0.183620423078537,-0.358948826789856,32.91398620605469,97.3932647705078,-3.021102905273438
229928,-0.1912689208984375,1.299697875976562,-0.2422027587890625,-0.3738598823547363,-0.1253155767917633,-0.2884688079357147,32.79643249511719,97.30746459960938,-2.821365356445312
229929,-0.2022552490234375,1.3199462890625,-0.2591400146484375,-0.3019976615905762,-0.0460958555340766,-0.2115876078605652,32.61531066894531,97.22810363769533,-2.581207275390625
229930,-0.2022552490234375,1.3199462890625,-0.2591400146484375,-0.3019976615905762,-0.0460958555340766,-0.2115876078605652,32.61531066894531,97.22810363769533,-2.581207275390625
229931,-0.22003173828125,1.221389770507812,-0.290252685546875,-0.0781453996896743,0.1619084775447845,-0.0200581308454275,32.2794189453125,97.07960510253906,-2.091690063476562
229932,-0.2079925537109375,1.123825073242188,-0.323883056640625,0.0048024784773588,0.248566672205925,0.0295581575483083,32.09083557128906,97.09938049316406,-1.9412841796875
229933,-0.1576080322265625,1.013946533203125,-0.391998291015625,0.0879192054271698,0.3325744867324829,0.0936623066663742,32.09172058105469,97.13865661621094,-1.829147338867188
229934,-0.1576080322265625,1.013946533203125,-0.391998291015625,0.0879192054271698,0.3325744867324829,0.0936623066663742,32.09172058105469,97.13865661621094,-1.829147338867188
229935,-0.0391082763671875,0.87042236328125,-0.4888763427734375,0.3624330461025238,0.4835048913955688,0.2483445703983307,32.16421508789062,97.01939392089844,-1.96270751953125
229936,0.0071868896484375,0.8549041748046875,-0.49359130859375,0.4477218389511108,0.5596414804458618,0.3052051961421967,32.1131591796875,97.10842895507812,-2.18865966796875
229937,0.0352020263671875,0.8666534423828125,-0.502197265625,0.4486259818077087,0.6083030104637146,0.3247077763080597,32.16639709472656,97.2517547607422,-2.389862060546875
229938,0.0352020263671875,0.8666534423828125,-0.502197265625,0.4486259818077087,0.6083030104637146,0.3247077763080597,32.16639709472656,97.2517547607422,-2.389862060546875
229939,0.028411865234375,0.9761199951171876,-0.4683837890625,0.3395469188690186,0.6080446839332581,0.2927184104919434,32.35330200195312,97.25390625,-2.988494873046875
229940,0.0111083984375,1.03265380859375,-0.4099578857421875,0.3261536061763763,0.6192174553871155,0.2609442472457886,32.36944580078125,97.33290100097656,-3.326614379882812
229941,-0.055267333984375,1.111434936523438,-0.3018951416015625,0.3451443314552307,0.7135947942733765,0.1968057453632355,32.5650634765625,97.54074096679688,-3.8135986328125
229942,-0.055267333984375,1.111434936523438,-0.3018951416015625,0.3451443314552307,0.7135947942733765,0.1968057453632355,32.5650634765625,97.54074096679688,-3.8135986328125
229943,-0.0912933349609375,1.143722534179688,-0.23736572265625,0.254597395658493,0.8762327432632446,0.1336691081523895,32.6226806640625,97.65890502929688,-3.970138549804688
229944,-0.1238250732421875,1.156051635742188,-0.156463623046875,0.254597395658493,0.8762327432632446,0.1336691081523895,32.71241760253906,97.74378967285156,-4.210830688476562
229945,-0.15771484375,1.092071533203125,-0.0607147216796875,0.103654220700264,0.6655942797660828,0.162099152803421,32.74037170410156,97.85003662109376,-4.920074462890625
229946,-0.15771484375,1.092071533203125,-0.0607147216796875,0.103654220700264,0.6655942797660828,0.162099152803421,32.74037170410156,97.85003662109376,-4.920074462890625
229947,-0.1430511474609375,1.067276000976562,-0.006591796875,0.103654220700264,0.6655942797660828,0.162099152803421,32.78941345214844,97.8903350830078,-5.269012451171875
229948,-0.1024932861328125,1.048812866210938,0.08575439453125,0.1351479738950729,0.5131716728210449,0.2355968058109283,32.8621826171875,97.94476318359376,-5.389495849609375
229949,-0.0469207763671875,1.041290283203125,0.1660919189453125,0.1513916552066803,0.4262037873268127,0.3401432037353516,32.80667114257812,97.9315948486328,-5.682815551757812
229950,-0.0469207763671875,1.041290283203125,0.1660919189453125,0.1513916552066803,0.4262037873268127,0.3401432037353516,32.80667114257812,97.9315948486328,-5.682815551757812
229951,0.0128936767578125,1.035873413085938,0.202728271484375,0.1513173431158066,0.3005427718162537,0.4365048706531525,32.86164855957031,97.95294189453124,-5.898727416992188
229952,0.113006591796875,0.9756011962890624,0.2582550048828125,0.1405264884233475,-0.0903940796852111,0.4704969525337219,33.24935913085938,98.01376342773438,-6.068283081054688
229953,0.1934051513671875,0.862701416015625,0.20709228515625,0.1654872298240662,-0.4712404906749725,0.4157916009426117,33.70396423339844,98.05911254882812,-6.2977294921875
229954,0.1934051513671875,0.862701416015625,0.20709228515625,0.1654872298240662,-0.4712404906749725,0.4157916009426117,33.70396423339844,98.05911254882812,-6.2977294921875
229955,0.2145843505859375,0.7782440185546875,0.1779327392578125,0.1687783598899841,-0.605435311794281,0.3569221794605255,33.93516540527344,98.03939819335938,-6.4952392578125
229956,0.2306365966796875,0.6930999755859375,0.1655426025390625,0.1526555866003036,-0.6516312956809998,0.307762622833252,34.07266235351562,98.2666015625,-6.4150390625
229957,0.2173004150390625,0.6403350830078125,0.177764892578125,0.1215309575200081,-0.5719276666641235,0.2653975784778595,34.27568054199219,98.42291259765624,-6.414016723632812
229958,0.2173004150390625,0.6403350830078125,0.177764892578125,0.1215309575200081,-0.5719276666641235,0.2653975784778595,34.27568054199219,98.42291259765624,-6.414016723632812
229959,0.0067596435546875,0.7721710205078125,0.1838531494140625,-0.0066701532341539,-0.1339668482542038,0.2019656151533127,34.6280517578125,98.38711547851562,-6.437088012695312
229960,-0.068389892578125,0.7921905517578125,0.147247314453125,-0.1246852055191994,-0.0079604545608162,0.1279526352882385,34.82705688476562,98.3769073486328,-6.394973754882812
229961,-0.1135406494140625,0.7954254150390625,0.1421661376953125,-0.1246852055191994,-0.0079604545608162,0.1279526352882385,34.95455932617188,98.4075927734375,-6.29669189453125
229962,-0.1135406494140625,0.7954254150390625,0.1421661376953125,-0.1246852055191994,-0.0079604545608162,0.1279526352882385,34.95455932617188,98.4075927734375,-6.29669189453125
229963,-0.2052001953125,0.85113525390625,0.110595703125,-0.1336946785449982,0.1704186052083969,0.0144242132082581,35.22645568847656,98.4447784423828,-6.084136962890625
229964,-0.2421875,0.8871917724609375,0.103759765625,-0.1473713368177414,0.2277671098709106,-0.0587735697627067,35.25617980957031,98.35870361328124,-6.096405029296875
229965,-0.2771453857421875,0.9187774658203124,0.114776611328125,-0.2230237573385239,0.3652402758598328,-0.1905497014522552,35.23733520507812,98.37872314453124,-5.990249633789062
229966,-0.2771453857421875,0.9187774658203124,0.114776611328125,-0.2230237573385239,0.3652402758598328,-0.1905497014522552,35.23733520507812,98.37872314453124,-5.990249633789062
229967,-0.3248443603515625,0.9552001953125,0.1981658935546875,-0.2970295548439026,0.4657040536403656,-0.2122928202152252,35.20011901855469,98.50656127929688,-6.070770263671875
229968,-0.3229522705078125,0.97943115234375,0.2496795654296875,-0.3836299479007721,0.5212740898132324,-0.2091391086578369,35.03074645996094,98.4033203125,-6.004043579101562
229969,-0.3076171875,1.016769409179688,0.30572509765625,-0.5201760530471802,0.4704705774784088,-0.2591783106327057,34.97457885742188,98.5274658203125,-6.0260009765625
229970,-0.2969970703125,1.047088623046875,0.337677001953125,-0.543116569519043,0.3495683968067169,-0.2881066203117371,34.85330200195312,98.5154266357422,-5.944427490234375
229971,-0.296905517578125,1.054656982421875,0.3198394775390625,-0.543116569519043,0.3495683968067169,-0.2881066203117371,34.64817810058594,98.31329345703124,-5.75213623046875
229972,-0.2897796630859375,1.068405151367188,0.25592041015625,-0.5198301076889038,0.1892479509115219,-0.306746631860733,34.49156188964844,98.16360473632812,-5.564346313476562
229973,-0.2627410888671875,1.066253662109375,0.15203857421875,-0.4403997659683228,0.0286814458668232,-0.318109542131424,34.31985473632812,98.10984802246094,-5.464157104492188
229974,-0.2627410888671875,1.066253662109375,0.15203857421875,-0.4403997659683228,0.0286814458668232,-0.318109542131424,34.31985473632812,98.10984802246094,-5.464157104492188
229975,-0.193756103515625,0.9473876953125,0.0001068115234375,-0.1947255432605743,-0.1060758382081985,-0.3102409541606903,33.9346923828125,97.96075439453124,-5.2392578125
229976,-0.1639556884765625,0.8585968017578125,-0.0147857666015625,-0.1356622278690338,0.0221337974071502,-0.3249064385890961,33.67668151855469,98.000244140625,-4.990219116210938
229977,-0.1474761962890625,0.71759033203125,0.05279541015625,-0.2348854839801788,0.0793576762080192,-0.3556662201881409,33.44134521484375,97.764404296875,-4.623214721679688
229978,-0.1474761962890625,0.71759033203125,0.05279541015625,-0.2348854839801788,0.0793576762080192,-0.3556662201881409,33.44134521484375,97.764404296875,-4.623214721679688
229979,-0.1536407470703125,0.7171173095703125,0.03851318359375,-0.4116405546665192,0.0965438485145568,-0.3971726596355438,33.23204040527344,97.66293334960938,-4.39080810546875
229980,-0.157806396484375,0.7701416015625,-0.010162353515625,-0.630685031414032,0.0248816478997468,-0.4406982958316803,33.10955810546875,97.57731628417967,-4.136306762695312
229981,-0.139007568359375,1.004241943359375,-0.0772705078125,-0.953103005886078,-0.1236172765493393,-0.4413933753967285,32.58656311035156,97.71670532226562,-4.055755615234375
229982,-0.139007568359375,1.004241943359375,-0.0772705078125,-0.953103005886078,-0.1236172765493393,-0.4413933753967285,32.58656311035156,97.71670532226562,-4.055755615234375
229983,-0.147216796875,1.197113037109375,-0.1226654052734375,-0.9956579208374025,-0.1569584608078003,-0.3860994875431061,32.29153442382812,97.60516357421876,-3.89324951171875
229984,-0.106903076171875,1.329986572265625,-0.1476593017578125,-0.9242223501205444,-0.1493679136037827,-0.2373750060796738,32.00645446777344,97.54435729980467,-3.412612915039062
229985,-0.07403564453125,1.393829345703125,-0.153167724609375,-0.7181349396705627,-0.1807157248258591,-0.0223263446241617,31.69784545898438,97.41563415527344,-2.930892944335938
229986,-0.07403564453125,1.393829345703125,-0.153167724609375,-0.7181349396705627,-0.1807157248258591,-0.0223263446241617,31.69784545898438,97.41563415527344,-2.930892944335938
229987,0.0131683349609375,1.311813354492188,-0.0801239013671875,-0.6228476166725159,-0.1345428973436356,0.045770950615406,31.36967468261719,97.24615478515624,-1.923095703125
229988,0.0255279541015625,1.30718994140625,-0.1153717041015625,-0.4388079941272736,-0.1570359617471695,0.087077647447586,31.23490905761719,97.1521453857422,-1.1900634765625
229989,0.044921875,1.289993286132812,-0.1415557861328125,-0.1913188248872757,-0.242516502737999,0.1353644877672195,31.18544006347656,97.22244262695312,-0.924652099609375
229990,0.044921875,1.289993286132812,-0.1415557861328125,-0.1913188248872757,-0.242516502737999,0.1353644877672195,31.18544006347656,97.22244262695312,-0.924652099609375
229991,0.078582763671875,1.214065551757812,-0.1741790771484375,0.2011256515979767,-0.3246268033981323,0.1298314929008484,31.30111694335938,97.09504699707033,-0.6413726806640625
229992,0.09698486328125,1.142120361328125,-0.1993408203125,0.320311963558197,-0.3495148420333862,0.0772452503442764,31.47062683105469,97.07351684570312,-0.5720672607421875
229993,0.1160888671875,1.067031860351562,-0.235015869140625,0.4455676078796387,-0.4008664488792419,0.0280223134905099,31.49919128417969,97.14161682128906,-0.6333160400390625
229994,0.1142425537109375,1.014663696289062,-0.287933349609375,0.6227442622184753,-0.4436536133289337,-0.0003073287953156,31.61305236816406,97.24836730957033,-0.6422271728515625
229995,0.101959228515625,0.977813720703125,-0.3527069091796875,0.7855132222175598,-0.4983789026737213,0.021492775529623,31.72616577148438,97.28836059570312,-0.7600250244140625
229996,0.0797119140625,0.9576873779296876,-0.4088592529296875,0.8924127817153931,-0.5189526081085205,0.0413594245910644,31.75273132324219,97.3223876953125,-0.978424072265625
229997,0.061981201171875,0.920654296875,-0.4638671875,0.95586496591568,-0.5413298606872559,0.0285765174776315,31.85272216796875,97.54568481445312,-1.22833251953125
229998,0.061981201171875,0.920654296875,-0.4638671875,0.95586496591568,-0.5413298606872559,0.0285765174776315,31.85272216796875,97.54568481445312,-1.22833251953125
229999,0.047637939453125,0.9338226318359376,-0.4482879638671875,1.008225083351135,-0.5068000555038452,0.0128819765523076,32.22044372558594,97.57704162597656,-1.811569213867188
230000,0.04425048828125,0.9655303955078124,-0.4019622802734375,0.9912618398666382,-0.4422884583473206,0.0047641289420425,32.27580261230469,97.6450653076172,-2.163284301757812
230001,0.0382843017578125,1.012283325195312,-0.3444671630859375,0.8949174880981445,-0.3607938885688782,0.0036985981278121,32.31111145019531,97.74822998046876,-2.529067993164062
230002,0.0382843017578125,1.012283325195312,-0.3444671630859375,0.8949174880981445,-0.3607938885688782,0.0036985981278121,32.31111145019531,97.74822998046876,-2.529067993164062
230003,0.0138397216796875,1.158660888671875,-0.164794921875,0.5469403266906738,-0.3007449209690094,0.0030067088082432,32.51860046386719,97.7220458984375,-3.397201538085938
230004,-0.013458251953125,1.223098754882812,-0.0518951416015625,0.3780181407928467,-0.3183305859565735,-0.0204176567494869,32.55293273925781,97.75,-3.5889892578125
230005,-0.046295166015625,1.296234130859375,0.046478271484375,0.2822178304195404,-0.3451872169971466,-0.0370062217116355,32.720703125,97.7657470703125,-3.778289794921875
230006,-0.046295166015625,1.296234130859375,0.046478271484375,0.2822178304195404,-0.3451872169971466,-0.0370062217116355,32.720703125,97.7657470703125,-3.778289794921875
230007,-0.112823486328125,1.46044921875,0.1727752685546875,0.3507918417453766,-0.2078679800033569,-0.0564249269664287,32.83509826660156,97.82586669921876,-3.882949829101562
230008,-0.1303863525390625,1.485702514648438,0.172576904296875,0.4960955083370209,-0.1247861385345459,-0.0855790823698043,32.90826416015625,97.88597106933594,-4.087020874023438
230009,-0.1501007080078125,1.4271240234375,0.146484375,0.6563386917114258,-0.0698176994919776,-0.1155183389782906,32.95321655273438,97.88296508789062,-4.212478637695312
230010,-0.1501007080078125,1.4271240234375,0.146484375,0.6563386917114258,-0.0698176994919776,-0.1155183389782906,32.95321655273438,97.88296508789062,-4.212478637695312
230011,-0.1607818603515625,1.132110595703125,0.0554656982421875,1.047950387001038,-0.0630663186311721,-0.1690737158060074,33.07051086425781,98.0251007080078,-4.869430541992188
230012,-0.1724700927734375,0.9615325927734376,0.0388336181640625,1.164036512374878,-0.1021213084459305,-0.1959109157323837,33.075927734375,98.19276428222656,-5.256729125976562
230013,-0.1965484619140625,0.8169708251953125,0.0323638916015625,1.16570258140564,-0.105340801179409,-0.2297466397285461,32.98683166503906,98.12809753417967,-5.734130859375
230014,-0.1965484619140625,0.8169708251953125,0.0323638916015625,1.16570258140564,-0.105340801179409,-0.2297466397285461,32.98683166503906,98.12809753417967,-5.734130859375
230015,-0.2170867919921875,0.600860595703125,0.0044403076171875,0.9290866255760192,-0.1206715553998947,-0.2870126068592072,32.844482421875,98.33029174804688,-6.814788818359375
230016,-0.2424468994140625,0.551025390625,-0.019805908203125,0.7740437984466553,-0.1069533452391624,-0.3053053319454193,32.80256652832031,98.34852600097656,-7.209823608398438
230017,-0.261016845703125,0.54876708984375,-0.0637969970703125,0.6550582647323608,-0.1181724444031715,-0.2974228858947754,32.65338134765625,98.36080932617188,-7.734085083007812
230018,-0.261016845703125,0.54876708984375,-0.0637969970703125,0.6550582647323608,-0.1181724444031715,-0.2974228858947754,32.65338134765625,98.36080932617188,-7.734085083007812
230019,-0.2644195556640625,0.631500244140625,-0.1025390625,0.5515249371528625,-0.1867973059415817,-0.2568485736846924,32.53034973144531,98.36712646484376,-8.318359375
230020,-0.25048828125,0.6512603759765625,-0.0761871337890625,0.5379907488822937,-0.1995155066251755,-0.2369611412286758,32.47311401367188,98.38479614257812,-8.595794677734375
230021,-0.2244873046875,0.659576416015625,-0.034027099609375,0.5070205926895142,-0.1589968353509903,-0.2030817419290543,32.44020080566406,98.30972290039062,-8.671524047851562
230022,-0.2244873046875,0.659576416015625,-0.034027099609375,0.5070205926895142,-0.1589968353509903,-0.2030817419290543,32.44020080566406,98.30972290039062,-8.671524047851562
230023,-0.1567230224609375,0.7254180908203125,0.0495758056640625,0.2293796539306641,-0.0177781973034143,-0.0895879417657852,32.21273803710938,98.32711791992188,-9.069198608398438
230024,-0.1337127685546875,0.808258056640625,0.105865478515625,-0.0186413284391164,0.0167584735900163,-0.0241538062691688,32.08975219726562,98.3692626953125,-9.184646606445312
230025,-0.1214599609375,0.887176513671875,0.1747283935546875,-0.2541430592536926,0.051157459616661,0.0433554649353027,32.00544738769531,98.45455932617188,-9.336654663085938
230026,-0.1214599609375,0.887176513671875,0.1747283935546875,-0.2541430592536926,0.051157459616661,0.0433554649353027,32.00544738769531,98.45455932617188,-9.336654663085938
230027,-0.1037750244140625,0.968597412109375,0.2967529296875,-0.4765332639217377,0.191522553563118,0.18692247569561,32.18544006347656,98.45127868652344,-9.2774658203125
230028,-0.1003265380859375,0.9671173095703124,0.312255859375,-0.4670558571815491,0.2416115552186966,0.2406413704156876,32.24595642089844,98.4351043701172,-9.139511108398438
230029,-0.0960845947265625,0.92645263671875,0.30657958984375,-0.3983029127120972,0.2156233638525009,0.272794783115387,32.31765747070312,98.25079345703124,-8.879486083984375
230030,-0.0960845947265625,0.92645263671875,0.30657958984375,-0.3983029127120972,0.2156233638525009,0.272794783115387,32.31765747070312,98.25079345703124,-8.879486083984375
230031,-0.0857391357421875,0.870025634765625,0.319091796875,-0.2645352482795715,-0.015801066532731,0.2654883861541748,32.61044311523438,98.3358154296875,-8.666275024414062
230032,-0.092041015625,0.8964996337890625,0.3330230712890625,-0.2845489084720612,-0.1058337539434433,0.2373843193054199,32.77113342285156,98.43568420410156,-8.483840942382812
230033,-0.0998992919921875,0.9451141357421876,0.3126983642578125,-0.381470650434494,-0.1810227781534195,0.1833261549472809,32.84086608886719,98.45036315917967,-8.4298095703125
230034,-0.097503662109375,0.9864654541015624,0.2492523193359375,-0.638605535030365,-0.4934826791286469,0.0481906980276107,32.92169189453125,98.41502380371094,-8.356063842773438
230035,-0.08447265625,1.019683837890625,0.1865081787109375,-0.638605535030365,-0.4934826791286469,0.0481906980276107,32.90187072753906,98.39077758789062,-8.086807250976562
230036,-0.059600830078125,1.056472778320312,0.142913818359375,-0.7401608824729919,-0.6393197774887085,-0.0219071637839078,32.93319702148438,98.42190551757812,-7.791427612304688
230037,-0.0246734619140625,1.108795166015625,0.1152496337890625,-0.8048503994941711,-0.6833178400993347,-0.0767443105578422,33.04293823242188,98.28240966796876,-7.3114013671875
230038,-0.0246734619140625,1.108795166015625,0.1152496337890625,-0.8048503994941711,-0.6833178400993347,-0.0767443105578422,33.04293823242188,98.28240966796876,-7.3114013671875
230039,-0.0045166015625,1.193496704101562,0.0761871337890625,-0.7825283408164978,-0.3574542701244354,-0.1906913816928864,32.92161560058594,98.2431640625,-6.485565185546875
230040,-0.0445556640625,1.175643920898438,0.0314788818359375,-0.7249952554702759,-0.1291593164205551,-0.2398373633623123,32.82308959960938,98.14347839355467,-5.890762329101562
230041,-0.098052978515625,1.149581909179688,-0.0147857666015625,-0.6583656668663025,-0.0457834675908088,-0.2593711018562317,32.66632080078125,98.0623779296875,-5.506103515625
230042,-0.1448822021484375,1.158676147460938,-0.033599853515625,-0.6097885370254517,-0.0427828840911388,-0.2712551951408386,32.54428100585938,97.96932983398438,-4.960189819335938
230043,-0.1891937255859375,1.211380004882812,-0.0684661865234375,-0.5721540451049805,-0.022537799552083,-0.2874040901660919,32.32719421386719,97.93952941894533,-4.712997436523438
230044,-0.221923828125,1.270034790039062,-0.138275146484375,-0.4906373620033264,0.0350650437176227,-0.3004258871078491,32.17059326171875,97.85203552246094,-4.2933349609375
230045,-0.2364959716796875,1.307876586914062,-0.2053375244140625,-0.2296925783157349,0.2469368129968643,-0.2265782803297043,32.02790832519531,97.83348083496094,-3.969955444335938
230046,-0.2364959716796875,1.307876586914062,-0.2053375244140625,-0.2296925783157349,0.2469368129968643,-0.2265782803297043,32.02790832519531,97.83348083496094,-3.969955444335938
230047,-0.23504638671875,1.320755004882812,-0.240234375,-0.1458608061075211,0.329656720161438,-0.184753343462944,31.63972473144531,97.6405792236328,-3.606918334960938
230048,-0.221527099609375,1.274429321289062,-0.228271484375,-0.1071996912360191,0.4268804788589478,-0.1468344479799271,31.51722717285156,97.62158203125,-3.529464721679688
230049,-0.200958251953125,1.189453125,-0.247467041015625,0.029308620840311,0.5248544812202454,-0.0476870946586132,31.40846252441406,97.52235412597656,-3.605392456054688
230050,-0.1790313720703125,1.085357666015625,-0.2677154541015625,0.029308620840311,0.5248544812202454,-0.0476870946586132,31.2996826171875,97.45523071289062,-3.632888793945312
230051,-0.1462554931640625,0.9696807861328124,-0.2945098876953125,0.1131268218159676,0.5784532427787781,0.0118657145649194,31.15866088867188,97.44371032714844,-3.585723876953125
230052,-0.1076202392578125,0.885528564453125,-0.3409423828125,0.1912333369255066,0.643387496471405,0.077425017952919,31.13166809082031,97.45660400390624,-3.596282958984375
230053,-0.0705108642578125,0.8455810546875,-0.39959716796875,0.2538700997829437,0.704952597618103,0.1288748979568481,31.0657958984375,97.5616455078125,-3.812301635742188
