time_idx,accelerometerAccelerationX(G),accelerometerAccelerationY(G),accelerometerAccelerationZ(G),gyroRotationX(rad/s),gyroRotationY(rad/s),gyroRotationZ(rad/s),magnetometerX(µT),magnetometerY(µT),magnetometerZ(µT)
215809,0.0154876708984375,-0.3132781982421875,-0.4811248779296875,0.0293757319450378,-0.0161925517022609,0.6185268759727478,36.54548645019531,97.69711303710938,-6.871078491210938
215810,0.0154876708984375,-0.3132781982421875,-0.4811248779296875,0.0293757319450378,-0.0161925517022609,0.6185268759727478,36.54548645019531,97.69711303710938,-6.871078491210938
215811,0.00457763671875,-0.3651275634765625,-0.429718017578125,-0.1200726106762886,-0.385391891002655,0.6111382246017456,37.26826477050781,97.98236083984376,-7.115036010742188
215812,0.0110321044921875,-0.3673248291015625,-0.2687835693359375,-0.1429108083248138,-0.5006622672080994,0.5878081321716309,37.70730590820312,97.94793701171876,-6.888778686523438
215813,0.0238800048828125,-0.3513946533203125,-0.08905029296875,-0.0389620475471019,-0.3119150102138519,0.5467386841773987,38.13746643066406,98.07546997070312,-6.542495727539062
215814,0.0238800048828125,-0.3513946533203125,-0.08905029296875,-0.0389620475471019,-0.3119150102138519,0.5467386841773987,38.13746643066406,98.07546997070312,-6.542495727539062
215815,0.04901123046875,-0.271575927734375,0.1151885986328125,0.205412283539772,0.2382490485906601,0.4337112307548523,39.28219604492188,98.03082275390624,-5.772537231445312
215816,0.0566864013671875,-0.237762451171875,0.149505615234375,0.1557033061981201,0.4137154221534729,0.3495430946350098,39.65220642089844,97.9551239013672,-5.598876953125
215817,0.0638427734375,-0.2080535888671875,0.112091064453125,-0.0396041348576545,0.4335761964321136,0.2502308785915375,39.97430419921875,97.8176727294922,-5.548248291015625
215818,0.0638427734375,-0.2080535888671875,0.112091064453125,-0.0396041348576545,0.4335761964321136,0.2502308785915375,39.97430419921875,97.8176727294922,-5.548248291015625
215819,-0.010284423828125,0.1017608642578125,0.0613250732421875,-0.4914925098419189,-0.0141752073541283,-0.0173888429999351,40.48731994628906,97.5314483642578,-5.384445190429688
215820,-0.010284423828125,0.1017608642578125,0.0613250732421875,-0.4914925098419189,-0.0141752073541283,-0.0173888429999351,40.48731994628906,97.5314483642578,-5.384445190429688
215821,-0.045013427734375,0.225189208984375,0.1249237060546875,-1.142863631248474,-0.2453860640525818,-0.4051048755645752,40.46263122558594,97.61692810058594,-4.957427978515625
215822,-0.050201416015625,0.274749755859375,0.1117706298828125,-1.142863631248474,-0.2453860640525818,-0.4051048755645752,40.42169189453125,97.61337280273438,-4.760223388671875
215823,-0.0468597412109375,0.3210906982421875,0.214752197265625,-1.443168044090271,-0.1890229135751724,-0.5452918410301208,40.242431640625,97.74070739746094,-4.607925415039062
215824,-0.030548095703125,0.333404541015625,0.5102386474609375,-1.721526741981506,0.2944113910198212,-0.6827785968780518,39.83979797363281,97.68312072753906,-4.185043334960938
215825,-0.0108642578125,0.3610992431640625,0.8597869873046875,-1.96478807926178,1.19927978515625,-0.8206037878990173,39.3280029296875,97.59666442871094,-3.7803955078125
215826,-0.0108642578125,0.3610992431640625,0.8597869873046875,-1.96478807926178,1.19927978515625,-0.8206037878990173,39.3280029296875,97.59666442871094,-3.7803955078125
215827,-0.076416015625,1.73931884765625,1.334793090820312,-2.14689040184021,2.551702737808228,-0.311689168214798,38.24610900878906,97.28659057617188,-3.258285522460938
215828,-0.24957275390625,5.036865234375,1.752792358398438,-2.14689040184021,2.551702737808228,-0.311689168214798,37.44169616699219,97.04066467285156,-3.473098754882812
215829,-1.011398315429688,7.131744384765625,2.245010375976562,-1.721558094024658,1.741225004196167,1.349255919456482,36.84065246582031,96.93324279785156,-4.024871826171875
215830,-1.011398315429688,7.131744384765625,2.245010375976562,-1.721558094024658,1.741225004196167,1.349255919456482,36.84065246582031,96.93324279785156,-4.024871826171875
215831,-1.348602294921875,5.488327026367188,1.296417236328125,-0.3960248231887817,1.145195484161377,-0.8724097609519958,37.12158203125,96.70716857910156,-4.9906005859375
215832,-1.348602294921875,5.488327026367188,1.296417236328125,-0.3960248231887817,1.145195484161377,-0.8724097609519958,37.12158203125,96.70716857910156,-4.9906005859375
215833,-0.3146209716796875,1.659866333007812,0.2724456787109375,-0.8173331618309021,-1.510130882263184,-0.7851584553718567,37.05064392089844,96.41159057617188,-4.425186157226562
215834,0.017120361328125,1.25653076171875,-0.030853271484375,-1.039624810218811,-1.607709050178528,-0.4683826565742493,36.33915710449219,96.392822265625,-4.005844116210938
215835,0.4906768798828125,1.392410278320312,-1.158187866210938,-1.21373987197876,-2.156892538070679,0.1440016478300095,35.55029296875,96.44197082519533,-3.297744750976562
215836,0.767608642578125,1.961013793945312,-1.375564575195312,-1.203620195388794,-0.9873057007789612,0.6400412321090698,34.85780334472656,96.54434204101562,-2.583419799804688
215837,0.5181884765625,2.164825439453125,-0.892425537109375,0.2926313281059265,0.3027588129043579,0.678288459777832,34.642333984375,96.5937042236328,-1.728424072265625
215838,0.5181884765625,2.164825439453125,-0.892425537109375,0.2926313281059265,0.3027588129043579,0.678288459777832,34.642333984375,96.5937042236328,-1.728424072265625
215839,0.0999755859375,1.515899658203125,-0.048980712890625,2.08851170539856,0.1918517202138901,0.4174273312091827,35.22140502929688,96.35702514648438,-0.4690399169921875
215840,0.0230865478515625,1.232925415039062,-0.255218505859375,1.676644682884216,-0.2603407800197601,0.3886920809745789,35.5615234375,96.2734832763672,-0.8437347412109375
215841,0.0095672607421875,1.010101318359375,-0.259796142578125,1.064692378044128,-0.790590763092041,0.336672306060791,35.87818908691406,96.49142456054688,-1.671859741210938
215842,0.0095672607421875,1.010101318359375,-0.259796142578125,1.064692378044128,-0.790590763092041,0.336672306060791,35.87818908691406,96.49142456054688,-1.671859741210938
215843,0.06298828125,0.6002044677734375,-0.1358642578125,0.2686295807361603,-0.965797245502472,0.3454950749874115,36.637939453125,96.6096649169922,-2.932083129882812
215844,0.11279296875,0.43780517578125,-0.20330810546875,0.234534740447998,-0.946368932723999,0.4246993660926819,37.03656005859375,96.55999755859376,-3.072647094726562
215845,0.12945556640625,0.2973480224609375,-0.2417449951171875,0.7586283087730408,-0.7305021286010742,0.5262771248817444,37.30889892578125,96.56950378417967,-3.067047119140625
215846,0.12945556640625,0.2973480224609375,-0.2417449951171875,0.7586283087730408,-0.7305021286010742,0.5262771248817444,37.30889892578125,96.56950378417967,-3.067047119140625
215847,0.099090576171875,0.1000518798828125,-0.178436279296875,0.9809138774871826,-0.4057901203632355,0.5140960812568665,37.89111328125,96.728515625,-3.01318359375
215848,0.0795135498046875,0.046722412109375,-0.143646240234375,1.033861994743347,-0.0785693749785423,0.4791953563690186,38.18592834472656,96.89529418945312,-3.033843994140625
215849,0.0583648681640625,0.0284423828125,-0.1195220947265625,0.8611754775047302,0.1331007927656174,0.3214475214481354,38.4501953125,97.0080108642578,-3.22528076171875
215850,0.0583648681640625,0.0284423828125,-0.1195220947265625,0.8611754775047302,0.1331007927656174,0.3214475214481354,38.4501953125,97.0080108642578,-3.22528076171875
215851,0.0408935546875,-0.03253173828125,-0.1918182373046875,0.7288091778755188,-0.0255463719367981,0.2259399145841599,38.87164306640625,97.49183654785156,-3.959747314453125
215852,0.0408935546875,-0.03253173828125,-0.1918182373046875,0.7288091778755188,-0.0255463719367981,0.2259399145841599,38.87164306640625,97.49183654785156,-3.959747314453125
215853,0.0720977783203125,-0.16204833984375,-0.295989990234375,0.5013411641120911,-0.6473380327224731,0.0970213562250137,39.2259521484375,97.68939208984376,-4.537063598632812
215854,0.0720977783203125,-0.16204833984375,-0.295989990234375,0.5013411641120911,-0.6473380327224731,0.0970213562250137,39.2259521484375,97.68939208984376,-4.537063598632812
215855,0.142578125,-0.23138427734375,-0.2230224609375,0.4572714269161224,-0.926038920879364,0.1022699102759361,39.36322021484375,97.77761840820312,-4.98602294921875
215856,0.1686859130859375,-0.23187255859375,-0.1582183837890625,0.5127165913581848,-0.758380651473999,0.1155151426792145,39.537109375,97.82676696777344,-5.02972412109375
215857,0.1786041259765625,-0.210235595703125,-0.1254730224609375,0.6017265915870667,-0.4604320526123047,0.0928857326507568,39.62530517578125,97.8865203857422,-4.998001098632812
215858,0.1786041259765625,-0.210235595703125,-0.1254730224609375,0.6017265915870667,-0.4604320526123047,0.0928857326507568,39.62530517578125,97.8865203857422,-4.998001098632812
215859,0.1849822998046875,-0.161590576171875,-0.0925140380859375,0.5696772933006287,-0.4317516684532166,0.062647670507431,39.84886169433594,97.9376983642578,-4.912033081054688
215860,0.183349609375,-0.137725830078125,-0.0601959228515625,0.480729341506958,-0.4385533928871155,0.0185784772038459,39.95997619628906,97.94920349121094,-4.879669189453125
215861,0.1741485595703125,-0.1106719970703125,3.0517578125e-05,0.3612569868564606,-0.4005407691001892,-0.0366887710988521,40.10012817382812,97.99880981445312,-4.95635986328125
215862,0.161529541015625,-0.09185791015625,0.0482635498046875,0.2384679615497589,-0.325435608625412,-0.103024385869503,40.20109558105469,97.95257568359376,-4.957534790039062
215863,0.149993896484375,-0.0799560546875,0.0728607177734375,0.1094484627246857,-0.2433799058198929,-0.1711829304695129,40.26614379882812,97.97682189941406,-5.002853393554688
215864,0.1389007568359375,-0.06280517578125,0.1270599365234375,-0.052542570978403,-0.1530550569295883,-0.2387862056493759,40.26785278320312,97.96200561523438,-4.886032104492188
215865,0.1137847900390625,0.020904541015625,0.2513885498046875,-0.5662881731987,0.5224488377571106,-0.5069915652275085,40.27334594726562,98.0403289794922,-4.905349731445312
215866,0.1137847900390625,0.020904541015625,0.2513885498046875,-0.5662881731987,0.5224488377571106,-0.5069915652275085,40.27334594726562,98.0403289794922,-4.905349731445312
215867,-0.0203094482421875,0.3057098388671875,0.5433502197265625,-0.9646177291870116,1.148864507675171,-0.7196835875511169,40.23670959472656,98.096923828125,-4.669754028320312
215868,-0.0614013671875,0.4355316162109375,0.6279449462890625,-1.553394436836243,1.71562671661377,-1.017293930053711,40.13569641113281,98.05638122558594,-4.47198486328125
215869,-0.14324951171875,0.4981231689453125,0.7320098876953125,-2.238457441329956,2.084306478500366,-1.347593545913696,39.90733337402344,97.94953918457033,-4.15673828125
215870,-0.440277099609375,1.387619018554688,0.9004974365234375,-2.546008110046387,1.913965344429016,-1.86343777179718,39.50355529785156,97.6962432861328,-3.822906494140625
215871,-0.9820404052734376,3.515457153320312,1.231643676757812,-1.817803382873535,2.106205940246582,-3.067645072937012,38.80625915527344,97.54820251464844,-3.571090698242188
215872,-1.4212646484375,4.926223754882812,1.33392333984375,-0.4007921516895294,1.846506714820862,-3.502448558807373,37.9635009765625,97.29786682128906,-3.304718017578125
215873,-1.893890380859375,5.758743286132812,1.406036376953125,0.9782464504241944,0.5677555799484253,-2.445399284362793,36.91226196289062,97.04826354980467,-3.49493408203125
215874,-1.893890380859375,5.758743286132812,1.406036376953125,0.9782464504241944,0.5677555799484253,-2.445399284362793,36.91226196289062,97.04826354980467,-3.49493408203125
215875,-1.023727416992188,3.398666381835938,0.68487548828125,1.408109426498413,0.0127336382865905,0.0001113201360567,34.33641052246094,96.96849060058594,-5.39471435546875
215876,-1.023727416992188,3.398666381835938,0.68487548828125,1.408109426498413,0.0127336382865905,0.0001113201360567,34.33641052246094,96.96849060058594,-5.39471435546875
215877,-0.171600341796875,1.014877319335938,0.1903839111328125,-1.274187803268433,-4.032436370849609,-0.2291799187660217,33.85955810546875,96.49826049804688,-6.064743041992188
215878,-0.171600341796875,1.014877319335938,0.1903839111328125,-1.274187803268433,-4.032436370849609,-0.2291799187660217,33.85955810546875,96.49826049804688,-6.064743041992188
215879,-0.0793914794921875,0.9585418701171876,0.3264007568359375,-1.732733249664307,-4.747111320495605,-0.7726210951805115,34.21351623535156,95.92463684082033,-4.920074462890625
215880,-0.0085906982421875,1.2403564453125,0.6494140625,-2.059025049209595,-4.045154571533203,-1.098875880241394,34.46369934082031,95.21578979492188,-3.296737670898438
215881,0.304901123046875,1.489944458007812,0.216278076171875,-2.270412921905518,-1.931174993515015,-0.6995959281921387,34.31886291503906,94.69126892089844,-1.741561889648438
215882,0.304901123046875,1.489944458007812,0.216278076171875,-2.270412921905518,-1.931174993515015,-0.6995959281921387,34.31886291503906,94.69126892089844,-1.741561889648438
215883,0.58331298828125,1.416915893554688,-1.424392700195312,-0.3275411128997803,-1.038673281669617,0.2227412015199661,33.67012023925781,94.3943328857422,1.120315551757812
215884,0.1981201171875,1.19244384765625,-0.3976593017578125,1.522277235984802,-0.3744295239448547,-0.0251442361623048,33.72482299804688,94.36688232421876,2.221359252929688
215885,0.087860107421875,1.014892578125,-0.2662811279296875,2.118031024932861,-0.1936357766389847,0.0072379391640424,33.99005126953125,94.45323181152344,2.334320068359375
215886,0.087860107421875,1.014892578125,-0.2662811279296875,2.118031024932861,-0.1936357766389847,0.0072379391640424,33.99005126953125,94.45323181152344,2.334320068359375
215887,0.0850372314453125,0.877105712890625,-0.045623779296875,1.176026344299316,-0.7466211915016174,0.204182967543602,34.52835083007812,94.50933837890624,1.065750122070312
215888,0.1146240234375,0.763397216796875,0.13702392578125,0.6163066029548645,-0.7142326235771179,0.2711838185787201,34.80928039550781,94.5846710205078,0.546478271484375
215889,0.1628265380859375,0.6677093505859375,0.1325836181640625,0.4510758221149445,-0.3792160153388977,0.4115422666072845,35.07632446289062,94.57945251464844,0.2418365478515625
215890,0.1628265380859375,0.6677093505859375,0.1325836181640625,0.4510758221149445,-0.3792160153388977,0.4115422666072845,35.07632446289062,94.57945251464844,0.2418365478515625
215891,0.1916351318359375,0.487457275390625,-0.3054351806640625,1.133622169494629,-0.5159595012664795,0.5165653824806213,35.59391784667969,95.07362365722656,-0.05450439453125
215892,0.1513214111328125,0.4327545166015625,-0.1618499755859375,1.513954043388367,-0.5973134636878967,0.4872546195983887,35.74301147460938,95.39356994628906,-0.281280517578125
215893,0.0943145751953125,0.3852996826171875,-0.0435028076171875,1.588468790054321,-0.4300549626350403,0.4235999882221222,35.95809936523438,95.6759033203125,-0.5683441162109375
215894,0.0943145751953125,0.3852996826171875,-0.0435028076171875,1.588468790054321,-0.4300549626350403,0.4235999882221222,35.95809936523438,95.6759033203125,-0.5683441162109375
215895,-0.0073394775390625,0.2552642822265625,-0.0405120849609375,1.208524107933044,-0.19049271941185,0.2996200025081635,36.55189514160156,96.16831970214844,-1.56036376953125
215896,-0.0458221435546875,0.1742401123046875,-0.0693817138671875,1.038623213768005,-0.1908948570489883,0.253776878118515,36.7520751953125,96.3148193359375,-2.11895751953125
215897,-0.0776519775390625,0.0869903564453125,-0.112457275390625,0.9748296141624452,-0.248022049665451,0.2093681395053864,36.85845947265625,96.56399536132812,-2.853759765625
215898,-0.0776519775390625,0.0869903564453125,-0.112457275390625,0.9748296141624452,-0.248022049665451,0.2093681395053864,36.85845947265625,96.56399536132812,-2.853759765625
215899,-0.109375,-0.080841064453125,-0.1377105712890625,1.001732110977173,-0.3258990049362183,0.1795756220817566,37.13279724121094,96.95458984375,-3.743698120117188
215900,-0.1183319091796875,-0.14508056640625,-0.1283111572265625,0.968570113182068,-0.2452883124351501,0.191185399889946,37.32579040527344,97.01081848144533,-4.107513427734375
215901,-0.1171722412109375,-0.1945343017578125,-0.1306610107421875,0.8578159213066101,-0.1343333125114441,0.2250863760709763,37.45561218261719,97.27897644042967,-4.510696411132812
215902,-0.0973358154296875,-0.21435546875,-0.1353759765625,0.6913145184516907,-0.0547444708645343,0.2829230427742004,37.62138366699219,97.37808227539062,-4.819747924804688
215903,-0.072906494140625,-0.2034149169921875,-0.148162841796875,0.4974135160446167,-0.0595834366977214,0.3326730132102966,37.74679565429688,97.39152526855467,-5.07061767578125
215904,-0.0474395751953125,-0.1981353759765625,-0.1836700439453125,0.3064941465854645,-0.1776397675275803,0.3642807602882385,37.97593688964844,97.3446807861328,-5.432693481445312
215905,-0.016387939453125,-0.203125,-0.238494873046875,0.1128397360444069,-0.4117745161056519,0.3920466005802155,38.13456726074219,97.47320556640624,-5.589797973632812
215906,0.0211639404296875,-0.1951904296875,-0.204498291015625,-0.0522504225373268,-0.6963692307472229,0.4222180843353271,38.42156982421875,97.574462890625,-5.696365356445312
215907,0.048736572265625,-0.1407012939453125,-0.00537109375,-0.176741749048233,-0.7632100582122803,0.4202990233898163,38.71644592285156,97.77278137207033,-5.484405517578125
215908,0.048736572265625,-0.1407012939453125,-0.00537109375,-0.176741749048233,-0.7632100582122803,0.4202990233898163,38.71644592285156,97.77278137207033,-5.484405517578125
215909,0.0772705078125,-0.05584716796875,0.250457763671875,-0.3113099336624146,-0.5203225612640381,0.3563506603240967,38.88902282714844,97.79078674316406,-5.299301147460938
215910,0.07391357421875,0.1722412109375,0.591064453125,-0.743585467338562,0.5700567960739136,0.1980241388082504,39.19903564453125,98.10951232910156,-4.877395629882812
215911,0.05206298828125,0.272613525390625,0.791656494140625,-1.080207705497742,1.349116921424866,0.0809955149888992,39.27206420898438,98.18263244628906,-4.645263671875
215912,0.03399658203125,0.694976806640625,1.1168212890625,-1.62796688079834,2.237688064575195,-0.0892201587557792,39.25527954101562,98.09294128417967,-4.336944580078125
215913,0.021484375,1.953536987304688,1.498016357421875,-2.211389541625977,3.058745145797729,-0.1287526488304138,39.07321166992188,98.0675811767578,-4.239212036132812
215914,-0.26104736328125,3.114059448242188,1.848129272460938,-2.686768770217896,3.138556957244873,0.1346792578697205,38.78736877441406,97.88870239257812,-4.159149169921875
215915,-0.9210052490234376,4.447708129882812,2.249267578125,-2.607918262481689,2.373164415359497,0.0163898915052413,38.69287109375,97.6666259765625,-3.8858642578125
215916,-1.534194946289062,5.429153442382812,2.682571411132812,-1.729713201522827,1.473867893218994,-0.3922098577022552,38.72079467773438,97.24801635742188,-3.22650146484375
215917,-1.721206665039062,4.9918212890625,2.671783447265625,-0.9940965175628662,1.832307815551758,-0.6444545984268188,38.68453979492188,96.90362548828124,-2.84100341796875
215918,-1.721206665039062,4.9918212890625,2.671783447265625,-0.9940965175628662,1.832307815551758,-0.6444545984268188,38.68453979492188,96.90362548828124,-2.84100341796875
215919,-0.50543212890625,1.579010009765625,0.510528564453125,-1.317841529846191,1.096201300621033,-0.8896236419677734,37.905517578125,96.67581176757812,-2.323837280273438
215920,-0.2915802001953125,0.935516357421875,0.127197265625,-1.59495735168457,0.2153330892324448,-0.89488285779953,37.13055419921875,96.44361877441406,-1.98199462890625
215921,-0.1359405517578125,0.735107421875,-0.2923126220703125,-1.836886644363403,-2.66301441192627,-0.8295464515686035,36.43142700195312,96.1929931640625,-1.479721069335938
215922,0.0419921875,0.8195037841796875,-1.190887451171875,-1.836886644363403,-2.66301441192627,-0.8295464515686035,35.86483764648438,95.70974731445312,-0.639190673828125
215923,0.1929931640625,1.231048583984375,-2.2120361328125,-1.690472602844238,-4.820223331451416,-0.1273297220468521,35.55549621582031,95.24977111816406,0.3274383544921875
215924,0.4454803466796875,1.7020263671875,-0.8901824951171875,-0.2908304929733276,-1.614743590354919,1.064215183258057,35.50801086425781,94.5596160888672,1.711151123046875
215925,0.41632080078125,1.701339721679688,-0.1651611328125,0.8736845850944519,0.488390177488327,1.109945893287659,35.87994384765625,94.25149536132812,2.81024169921875
215926,0.1304168701171875,1.521347045898438,0.1566009521484375,0.974822163581848,0.9159441590309144,0.5671230554580688,36.29411315917969,94.33815002441406,3.3201904296875
215927,0.0279541015625,1.340057373046875,0.1945953369140625,0.5450792908668518,0.9960731267929076,0.0327574126422405,36.49424743652344,94.46893310546876,3.178680419921875
215928,0.0279541015625,1.340057373046875,0.1945953369140625,0.5450792908668518,0.9960731267929076,0.0327574126422405,36.49424743652344,94.46893310546876,3.178680419921875
215929,-0.1886138916015625,1.286972045898438,-0.19598388671875,-0.3438207507133484,0.3163752853870392,-0.2131447643041611,36.38374328613281,94.88224792480467,2.533248901367188
215930,-0.1398162841796875,1.305282592773438,-0.209136962890625,-0.2671142518520355,-0.2964716255664825,-0.0479004122316837,36.18585205078125,94.74411010742188,2.423858642578125
215931,-0.0205841064453125,1.337020874023438,-0.0774688720703125,0.6153926253318787,0.034850925207138,0.1836563795804977,36.16282653808594,94.70515441894533,2.465240478515625
215932,0.0622711181640625,1.298934936523438,-0.0872039794921875,0.6153926253318787,0.034850925207138,0.1836563795804977,36.2095947265625,94.51368713378906,2.6424560546875
215933,0.0482330322265625,1.187942504882812,-0.17071533203125,0.9969383478164672,0.2323919683694839,0.2247865051031113,36.2452392578125,94.60182189941406,2.61468505859375
215934,-0.0064697265625,1.028533935546875,-0.1493682861328125,1.128954172134399,0.1677389293909073,0.2533742189407349,36.3363037109375,94.68519592285156,2.383087158203125
215935,-0.0155792236328125,0.884033203125,-0.0713958740234375,1.153322100639343,0.0855905339121818,0.2712738513946533,36.41322326660156,94.87838745117188,2.045394897460938
215936,-0.0131072998046875,0.7493133544921875,-0.0449066162109375,1.178030610084534,-0.0068539115600287,0.2946065962314606,36.466064453125,95.00611877441406,1.56463623046875
215937,-0.0205078125,0.6249542236328125,-0.0323486328125,1.204121112823486,-0.1051453277468681,0.314671128988266,36.58425903320312,95.42872619628906,0.84893798828125
215938,-0.0364532470703125,0.521026611328125,-0.030181884765625,1.186100602149963,-0.2190822809934616,0.3228118717670441,36.72885131835938,95.5960693359375,0.3274078369140625
215939,-0.0488433837890625,0.4448699951171875,-0.03179931640625,1.112430095672607,-0.3405439853668213,0.3170330822467804,36.94171142578125,95.85794067382812,-0.025848388671875
215940,-0.0614013671875,0.3932952880859375,-0.0254974365234375,0.9822840690612792,-0.4428362846374512,0.2854525148868561,37.10005187988281,96.12811279296876,-0.39959716796875
215941,-0.0537872314453125,0.3385467529296875,-0.02764892578125,0.8347966074943542,-0.5044857859611511,0.244758352637291,37.33805847167969,96.27899169921876,-0.8268280029296875
215942,-0.0247650146484375,0.296173095703125,-0.046112060546875,0.7262248396873474,-0.5552682876586914,0.201176792383194,37.55642700195312,96.2511749267578,-1.058929443359375
215943,0.01361083984375,0.25335693359375,-0.0657806396484375,0.6838781833648682,-0.610738217830658,0.1612112522125244,37.67436218261719,96.38833618164062,-1.37176513671875
215944,0.050872802734375,0.2143402099609375,-0.0895843505859375,0.6845961809158325,-0.6631726622581482,0.1436711549758911,37.79588317871094,96.4665985107422,-1.5665283203125
215945,0.08807373046875,0.2090911865234375,-0.0861663818359375,0.7213627099990845,-0.5088419318199158,0.1341149210929871,38.01329040527344,96.48072814941406,-1.750152587890625
215946,0.130523681640625,0.2335662841796875,-0.08685302734375,0.7213627099990845,-0.5088419318199158,0.1341149210929871,38.12896728515625,96.58665466308594,-1.954544067382812
215947,0.1444549560546875,0.3142852783203125,-0.108306884765625,0.6832403540611267,-0.3540028035640717,0.1011252850294113,38.2412109375,96.735107421875,-2.059219360351562
215948,0.1404571533203125,0.4071044921875,-0.135833740234375,0.5845302939414978,-0.2886360585689545,0.0138047616928815,38.38568115234375,96.8040008544922,-2.258102416992188
215949,0.1139984130859375,0.47314453125,-0.1255950927734375,0.3877434730529785,-0.2318345606327057,-0.1372811645269394,38.53683471679688,96.98439025878906,-2.583694458007812
215950,0.0445709228515625,0.4939422607421875,-0.084869384765625,0.3877434730529785,-0.2318345606327057,-0.1372811645269394,38.56939697265625,97.05300903320312,-2.69891357421875
215951,-0.0104217529296875,0.5059051513671875,-0.0586090087890625,0.393346756696701,-0.1831391900777817,-0.1546987593173981,38.54353332519531,97.1636962890625,-2.746124267578125
215952,-0.030426025390625,0.5058441162109375,-0.0106658935546875,0.4137646853923798,-0.2076144516468048,-0.1803567260503769,38.46603393554688,97.22569274902344,-2.980178833007812
215953,-0.043792724609375,0.5121307373046875,0.100433349609375,0.3734460175037384,-0.1960770934820175,-0.2067198902368546,38.40492248535156,97.32025146484376,-3.135848999023438
215954,-0.079132080078125,0.5440673828125,0.19915771484375,0.2441191971302032,-0.1186989545822144,-0.2600739300251007,38.38243103027344,97.48622131347656,-3.362884521484375
215955,-0.133819580078125,0.5838775634765625,0.2424468994140625,0.053022738546133,-0.031413048505783,-0.3532060086727142,38.31314086914062,97.47674560546876,-3.460586547851562
215956,-0.133819580078125,0.5838775634765625,0.2424468994140625,0.053022738546133,-0.031413048505783,-0.3532060086727142,38.31314086914062,97.47674560546876,-3.460586547851562
215957,-0.314453125,0.6114349365234375,0.21746826171875,-0.3819383084774017,0.2502255439758301,-0.685314953327179,37.90107727050781,97.53956604003906,-3.670669555664062
215958,-0.314453125,0.6114349365234375,0.21746826171875,-0.3819383084774017,0.2502255439758301,-0.685314953327179,37.90107727050781,97.53956604003906,-3.670669555664062
215959,-0.404693603515625,0.632171630859375,0.221527099609375,-0.4908328354358673,0.4347463846206665,-0.7108935713768005,37.62178039550781,97.57058715820312,-3.460372924804688
215960,-0.404693603515625,0.632171630859375,0.221527099609375,-0.4908328354358673,0.4347463846206665,-0.7108935713768005,37.62178039550781,97.57058715820312,-3.460372924804688
215961,-0.492706298828125,0.6926422119140625,0.22760009765625,-0.6073378920555115,0.6166890263557434,-0.67746502161026,37.43281555175781,97.600341796875,-3.461685180664062
215962,-0.480499267578125,0.9238739013671876,0.304351806640625,-0.8360051512718201,0.7543675303459167,-0.7012244462966919,36.72581481933594,97.6400909423828,-3.248748779296875
215963,-0.418121337890625,1.362838745117188,0.3425750732421875,-1.148865580558777,0.7588802576065063,-0.6424657702445984,36.33515930175781,97.51234436035156,-3.163848876953125
215964,-0.418121337890625,1.362838745117188,0.3425750732421875,-1.148865580558777,0.7588802576065063,-0.6424657702445984,36.33515930175781,97.51234436035156,-3.163848876953125
215965,-0.5465240478515625,1.424713134765625,0.532867431640625,-1.898475646972656,-0.262553870677948,-0.7403507828712463,35.47041320800781,97.43351745605467,-2.78338623046875
215966,-0.438140869140625,1.3763427734375,0.7829132080078125,-2.097789764404297,-0.7852511405944824,-0.5579357147216797,34.89039611816406,97.29684448242188,-2.299530029296875
215967,-0.2603912353515625,1.430999755859375,0.965667724609375,-2.01624321937561,-0.667752742767334,-0.2042844295501709,34.47587585449219,96.95925903320312,-1.657821655273438
215968,-0.0546112060546875,1.550735473632812,0.8048858642578125,-1.551557064056396,-0.4126813113689423,0.0189353413879871,34.15501403808594,96.75267028808594,-0.62591552734375
215969,0.0789794921875,1.606246948242188,0.5097503662109375,-0.8951283693313599,-0.5497179627418518,0.08826195448637,33.89389038085938,96.66790771484376,0.3528594970703125
215970,0.0789794921875,1.606246948242188,0.5097503662109375,-0.8951283693313599,-0.5497179627418518,0.08826195448637,33.89389038085938,96.66790771484376,0.3528594970703125
215971,0.061187744140625,1.53570556640625,0.1650390625,0.0324482209980487,-0.9945948123931884,0.145534560084343,33.82463073730469,96.43019104003906,1.82244873046875
215972,0.061187744140625,1.53570556640625,0.1650390625,0.0324482209980487,-0.9945948123931884,0.145534560084343,33.82463073730469,96.43019104003906,1.82244873046875
215973,0.0688018798828125,1.549942016601562,0.06964111328125,0.1330304890871048,-1.042531967163086,0.0327012203633785,34.0548095703125,96.25086975097656,2.2752685546875
215974,0.17022705078125,1.657608032226562,-0.0741119384765625,0.1674161553382874,-0.9544223546981812,-0.0638013482093811,34.24617004394531,96.23379516601562,2.553176879882812
215975,0.2852020263671875,2.027801513671875,-0.189300537109375,0.6901369094848633,-0.6230323910713196,-0.182083785533905,34.66844177246094,96.13319396972656,3.283935546875
215976,0.2852020263671875,2.027801513671875,-0.189300537109375,0.6901369094848633,-0.6230323910713196,-0.182083785533905,34.66844177246094,96.13319396972656,3.283935546875
215977,0.0291900634765625,1.856948852539062,-0.09844970703125,0.5934263467788696,-0.0982562601566314,-0.3813033998012543,34.67802429199219,96.08041381835938,3.132110595703125
215978,-0.1208343505859375,1.712493896484375,-0.1339263916015625,0.5934263467788696,-0.0982562601566314,-0.3813033998012543,34.59292602539062,96.14291381835938,2.895187377929688
215979,-0.19866943359375,1.666534423828125,-0.229583740234375,0.6928085684776306,0.1024677827954292,-0.1995985954999924,34.55439758300781,96.10520935058594,2.649002075195312
215980,-0.2516937255859375,1.639236450195312,-0.2992706298828125,0.6928085684776306,0.1024677827954292,-0.1995985954999924,34.472412109375,96.13064575195312,2.471359252929688
215981,-0.2225494384765625,1.494888305664062,-0.3418731689453125,0.7871646285057068,0.1993786245584488,-0.1404806822538376,34.5289306640625,96.16349792480467,2.247543334960938
215982,-0.2225494384765625,1.494888305664062,-0.3418731689453125,0.7871646285057068,0.1993786245584488,-0.1404806822538376,34.5289306640625,96.16349792480467,2.247543334960938
215983,-0.175872802734375,1.227584838867188,-0.2419586181640625,0.8521204590797424,0.3652940988540649,-0.0149898687377572,34.38677978515625,96.3072509765625,1.444229125976562
215984,-0.1612548828125,1.12652587890625,-0.24346923828125,0.8593237996101379,0.2938758432865143,0.0279216468334198,34.47306823730469,96.43351745605467,1.159759521484375
215985,-0.1562042236328125,1.0313720703125,-0.2033843994140625,0.812187671661377,0.126911073923111,0.0704723000526428,34.48443603515625,96.48332214355467,0.7019500732421875
215986,-0.154571533203125,0.9574127197265624,-0.121063232421875,0.724381685256958,0.0332234688103199,0.0936668366193771,34.57608032226562,96.60633850097656,0.23370361328125
215987,-0.155609130859375,0.909759521484375,-0.0780792236328125,0.6472064852714539,0.0664756968617439,0.1386769264936447,34.67880249023438,96.56741333007812,-0.2388153076171875
215988,-0.147552490234375,0.858123779296875,-0.0966949462890625,0.6524893641471863,0.0911048725247383,0.2062849998474121,34.74484252929688,96.73040771484376,-0.634307861328125
215989,-0.1320037841796875,0.8141632080078125,-0.10845947265625,0.82652348279953,0.0978264287114143,0.2864815592765808,34.87461853027344,96.8495635986328,-1.003860473632812
215990,-0.112518310546875,0.7842559814453125,-0.067596435546875,0.867233395576477,0.2325190007686615,0.3327864706516266,34.95137023925781,97.06472778320312,-1.328720092773438
215991,-0.0937347412109375,0.764404296875,-0.0164947509765625,0.8412774205207825,0.3312735259532928,0.3625129461288452,35.17048645019531,97.23849487304688,-1.59423828125
215992,-0.0937347412109375,0.764404296875,-0.0164947509765625,0.8412774205207825,0.3312735259532928,0.3625129461288452,35.17048645019531,97.23849487304688,-1.59423828125
215993,-0.0851593017578125,0.72821044921875,0.0012359619140625,0.8412774205207825,0.3312735259532928,0.3625129461288452,35.36329650878906,97.24855041503906,-1.852569580078125
215994,-0.079620361328125,0.666473388671875,0.0034637451171875,0.7379169464111328,0.2838775217533112,0.284560889005661,35.5731201171875,97.2510986328125,-2.195968627929688
215995,-0.08746337890625,0.473052978515625,-0.04486083984375,0.7128941416740417,0.1617108732461929,0.2511315643787384,35.97059631347656,97.20767211914062,-2.895004272460938
215996,-0.081817626953125,0.3665618896484375,-0.063568115234375,0.69016033411026,0.0703900083899498,0.2356841564178467,36.18266296386719,97.321533203125,-3.228103637695312
215997,-0.0757598876953125,0.278076171875,-0.0890350341796875,0.6737027764320374,0.0939754992723465,0.2394786328077316,36.23646545410156,97.40690612792967,-3.790481567382812
215998,-0.0757598876953125,0.278076171875,-0.0890350341796875,0.6737027764320374,0.0939754992723465,0.2394786328077316,36.23646545410156,97.40690612792967,-3.790481567382812
215999,-0.096832275390625,0.2523651123046875,-0.001220703125,0.6365394592285156,0.3069615364074707,0.2425862699747086,36.35064697265625,97.67469787597656,-4.589385986328125
216000,-0.096832275390625,0.2523651123046875,-0.001220703125,0.6365394592285156,0.3069615364074707,0.2425862699747086,36.35064697265625,97.67469787597656,-4.589385986328125
216001,-0.0934295654296875,0.35369873046875,0.0485687255859375,0.4585473239421844,0.5481230020523071,0.2433087974786758,36.57426452636719,97.98452758789062,-5.111236572265625
216002,-0.0845794677734375,0.377716064453125,0.1087646484375,0.3851394355297089,0.6029937267303467,0.1920482665300369,36.59407043457031,98.13096618652344,-5.424240112304688
216003,-0.0787353515625,0.422454833984375,0.163543701171875,0.3294521868228912,0.6849743723869324,0.1229671984910965,36.78805541992188,98.2806396484375,-5.772781372070312
216004,-0.0863800048828125,0.387542724609375,0.1995391845703125,0.3109261989593506,0.7382128238677979,0.0739892721176147,36.91152954101562,98.45346069335938,-5.989028930664062
216005,-0.1148223876953125,0.3720245361328125,0.2261505126953125,0.323903501033783,0.678059458732605,0.0574260093271732,36.92208862304688,98.5207977294922,-6.09912109375
216006,-0.1728973388671875,0.457611083984375,0.2948760986328125,0.3523061275482178,0.5208738446235657,0.0467651076614856,37.07174682617188,98.46539306640624,-6.42291259765625
216007,-0.25372314453125,0.61700439453125,0.4233856201171875,0.3368286192417145,0.345082551240921,0.0197412148118019,37.10658264160156,98.5573272705078,-6.770004272460938
216008,-0.3287200927734375,0.837860107421875,0.5619354248046875,0.2365065515041351,0.1713168919086456,-0.0313486009836196,37.20339965820312,98.646240234375,-7.083267211914062
216009,-0.39691162109375,0.986541748046875,0.6808013916015625,-0.3597789406776428,-0.2446539551019669,-0.2517427504062653,37.16702270507812,98.86546325683594,-7.349349975585938
216010,-0.39691162109375,0.986541748046875,0.6808013916015625,-0.3597789406776428,-0.2446539551019669,-0.2517427504062653,37.16702270507812,98.86546325683594,-7.349349975585938
216011,-0.476837158203125,1.022750854492188,0.863250732421875,-0.8090246319770813,-0.4743140339851379,-0.3470650017261505,37.19976806640625,98.90623474121094,-7.753585815429688
216012,-0.4525604248046875,0.9495849609375,0.887481689453125,-1.231926679611206,-0.6687633991241455,-0.349714070558548,37.07646179199219,98.8081512451172,-7.691085815429688
216013,-0.3824462890625,0.854949951171875,0.84881591796875,-1.672186374664307,-0.8531503081321716,-0.2308667749166489,36.8831787109375,98.72998046875,-7.342575073242188
216014,-0.3824462890625,0.854949951171875,0.84881591796875,-1.672186374664307,-0.8531503081321716,-0.2308667749166489,36.8831787109375,98.72998046875,-7.342575073242188
216015,-0.2054290771484375,0.73956298828125,0.6418304443359375,-1.773656010627747,-0.8115370869636536,-0.2242765128612518,36.68563842773438,98.2673797607422,-6.17694091796875
216016,-0.12774658203125,0.72357177734375,0.4929656982421875,-1.894930481910706,-0.7569854259490967,-0.2523273229598999,36.68588256835938,97.98538208007812,-5.321273803710938
216017,-0.053802490234375,0.7628631591796875,0.4144439697265625,-2.225477933883667,0.2159083336591721,-0.1123260110616684,36.50848388671875,97.7413330078125,-4.343719482421875
216018,-0.053802490234375,0.7628631591796875,0.4144439697265625,-2.225477933883667,0.2159083336591721,-0.1123260110616684,36.50848388671875,97.7413330078125,-4.343719482421875
216019,0.1667327880859375,0.9546051025390624,-0.515289306640625,-2.285256385803223,0.2900983989238739,0.0796045511960983,36.14251708984375,97.27764892578124,-2.4095458984375
216020,0.2717132568359375,1.231521606445312,-1.2783203125,-1.891452312469482,-1.511093854904175,0.0360442884266376,35.90341186523438,96.91099548339844,-1.381179809570312
216021,0.2650909423828125,1.3218994140625,-0.372283935546875,-1.099781155586243,-1.058664798736572,-0.0460777468979358,35.63327026367188,96.74957275390624,-0.31683349609375
216022,0.2650909423828125,1.3218994140625,-0.372283935546875,-1.099781155586243,-1.058664798736572,-0.0460777468979358,35.63327026367188,96.74957275390624,-0.31683349609375
216023,0.0870208740234375,1.342315673828125,-0.1498260498046875,-0.4241728484630585,0.5350798964500427,-0.1406508535146713,35.38319396972656,96.59571838378906,1.693008422851562
216024,0.0870208740234375,1.342315673828125,-0.1498260498046875,-0.4241728484630585,0.5350798964500427,-0.1406508535146713,35.38319396972656,96.59571838378906,1.693008422851562
216025,-0.0167999267578125,1.678619384765625,-0.1606903076171875,-0.4246716499328613,0.289528489112854,-0.409265547990799,34.90708923339844,96.43946838378906,2.430709838867188
216026,-0.005096435546875,1.799346923828125,-0.3002471923828125,-0.4246716499328613,0.289528489112854,-0.409265547990799,34.52033996582031,96.4044952392578,2.682022094726562
216027,0.042266845703125,1.81561279296875,-0.332244873046875,0.0526853166520595,0.1559760123491287,-0.1788744032382965,34.16560363769531,96.34835815429688,2.826675415039062
216028,0.042266845703125,1.81561279296875,-0.332244873046875,0.0526853166520595,0.1559760123491287,-0.1788744032382965,34.16560363769531,96.34835815429688,2.826675415039062
216029,0.0979766845703125,1.771514892578125,-0.35589599609375,0.0526853166520595,0.1559760123491287,-0.1788744032382965,33.76406860351562,96.32339477539062,2.97015380859375
216030,0.171722412109375,1.69598388671875,-0.44921875,0.2649379074573517,0.2255835980176926,0.0543524548411369,33.46324157714844,96.25479125976562,2.983551025390625
216031,0.0993499755859375,1.714309692382812,-0.5591583251953125,0.4571555554866791,0.3637417256832123,0.4919106066226959,33.01661682128906,96.2744140625,2.988983154296875
216032,0.01123046875,1.76751708984375,-0.5310516357421875,0.5256046652793884,0.4464967846870422,0.6423273086547852,32.96739196777344,96.35061645507812,2.990081787109375
216033,-0.048797607421875,1.780242919921875,-0.4795074462890625,0.7198212742805481,0.5765935182571411,0.6599001288414001,33.02639770507812,96.47030639648438,2.736495971679688
216034,-0.048797607421875,1.780242919921875,-0.4795074462890625,0.7198212742805481,0.5765935182571411,0.6599001288414001,33.02639770507812,96.47030639648438,2.736495971679688
216035,-0.056365966796875,1.592239379882812,-0.3540191650390625,0.7653682827949524,0.6268559098243713,0.6365189552307129,33.45152282714844,96.82887268066406,2.16290283203125
216036,-0.056365966796875,1.592239379882812,-0.3540191650390625,0.7653682827949524,0.6268559098243713,0.6365189552307129,33.45152282714844,96.82887268066406,2.16290283203125
216037,-0.000457763671875,1.388320922851562,-0.3709716796875,0.969396471977234,0.8216520547866821,0.5653957724571228,34.03411865234375,97.28427124023438,1.356719970703125
