time_idx,accelerometerAccelerationX(G),accelerometerAccelerationY(G),accelerometerAccelerationZ(G),gyroRotationX(rad/s),gyroRotationY(rad/s),gyroRotationZ(rad/s),magnetometerX(µT),magnetometerY(µT),magnetometerZ(µT)
262750,-0.3381805419921875,1.969406127929688,-0.5169525146484375,0.1005223467946053,0.939197301864624,-0.7715598344802856,46.53651428222656,99.19996643066406,-4.735549926757812
262751,-0.3381805419921875,1.969406127929688,-0.5169525146484375,0.1005223467946053,0.939197301864624,-0.7715598344802856,46.53651428222656,99.19996643066406,-4.735549926757812
262752,-0.16961669921875,1.727401733398438,-0.5148468017578125,0.8307339549064636,1.06896436214447,-0.0053558833897113,45.83277893066406,98.9722900390625,-5.0712890625
262753,-0.16961669921875,1.727401733398438,-0.5148468017578125,0.8307339549064636,1.06896436214447,-0.0053558833897113,45.83277893066406,98.9722900390625,-5.0712890625
262754,0.069976806640625,2.082565307617188,-0.955902099609375,0.1575984209775925,1.223185300827026,0.9902533292770386,45.18592834472656,98.9825439453125,-5.832244873046875
262755,-0.0966949462890625,2.375930786132812,-0.900482177734375,-0.1510904431343079,1.293244123458862,0.8599957227706909,45.25526428222656,98.99569702148438,-6.138946533203125
262756,-0.4760284423828125,2.59332275390625,-0.7001953125,-0.0570837929844856,1.300991177558899,0.5017635226249695,45.41700744628906,99.11769104003906,-6.292755126953125
262757,-0.833038330078125,2.896148681640625,-0.4299774169921875,0.2399777173995972,1.472971796989441,-0.0851854681968689,45.53211975097656,99.17617797851562,-6.441177368164062
262758,-1.128692626953125,3.324676513671875,-0.19281005859375,0.4494582414627075,1.939583420753479,-1.019979000091553,45.39143371582031,99.43572998046876,-6.840972900390625
262759,-1.3577880859375,3.506256103515625,-0.1476593017578125,0.4207557439804077,2.394095182418823,-2.192936658859253,45.01567077636719,99.49786376953124,-7.217987060546875
262760,-1.534927368164062,3.157562255859375,-0.335174560546875,0.1491561979055405,2.24654483795166,-3.205448865890503,44.07745361328125,99.64125061035156,-7.881973266601562
262761,-1.534927368164062,3.157562255859375,-0.335174560546875,0.1491561979055405,2.24654483795166,-3.205448865890503,44.07745361328125,99.64125061035156,-7.881973266601562
262762,-1.981460571289062,2.0386962890625,-0.415802001953125,-0.4160347580909729,1.852039933204651,-3.091803073883057,42.70513916015625,99.6673583984375,-8.656723022460938
262763,-2.425125122070312,0.5091400146484375,0.04510498046875,-0.5645067691802979,1.335901021957397,0.8541402220726013,39.74884033203125,99.83261108398438,-10.09796142578125
262764,-1.908554077148438,0.832122802734375,0.4503631591796875,-0.0586542598903179,0.9782669544219972,1.229061126708984,39.41726684570312,99.93960571289062,-10.1802978515625
262765,-1.908554077148438,0.832122802734375,0.4503631591796875,-0.0586542598903179,0.9782669544219972,1.229061126708984,39.41726684570312,99.93960571289062,-10.1802978515625
262766,-1.324172973632812,0.8402099609375,0.7682037353515625,0.3930868208408356,1.205755472183228,0.8396589756011963,40.35926818847656,100.3034820556641,-10.06906127929688
262767,-1.001907348632812,0.708038330078125,0.6422119140625,0.3930868208408356,1.205755472183228,0.8396589756011963,40.9388427734375,100.3601226806641,-10.18228149414062
262768,-0.724761962890625,0.5463104248046875,0.399658203125,0.5001187324523926,1.255589127540588,0.742315948009491,41.29617309570312,100.42919921875,-10.35392761230469
262769,-0.5250091552734375,0.37957763671875,0.2846221923828125,0.6470027565956116,1.212223291397095,0.6299715638160706,41.65756225585938,100.5462493896484,-10.56956481933594
262770,-0.373809814453125,0.259033203125,0.26318359375,0.7618105411529541,1.288151025772095,0.4775700271129608,42.09132385253906,100.5960845947266,-10.73287963867188
262771,-0.247314453125,0.192901611328125,0.242828369140625,0.7993371486663818,1.423587203025818,0.3181563913822174,42.38320922851562,100.6873016357422,-11.10820007324219
262772,-0.1642608642578125,0.196533203125,0.18896484375,0.7193102240562439,1.519805312156677,0.1579294502735138,42.55453491210938,100.7105102539062,-11.21002197265625
262773,-0.11138916015625,0.23297119140625,0.07244873046875,0.5618612170219421,1.423223614692688,-0.00998898409307,42.71990966796875,100.5541839599609,-11.56170654296875
262774,-0.0802459716796875,0.2705078125,-0.060638427734375,0.3814703822135925,1.067038655281067,-0.1954278200864792,42.94476318359375,100.4697265625,-11.83830261230469
262775,-0.06793212890625,0.3077392578125,-0.1457061767578125,0.2102344632148743,0.5096957683563232,-0.4010646045207977,43.00804138183594,100.3205261230469,-12.09092712402344
262776,-0.079071044921875,0.336273193359375,-0.176300048828125,0.0975957959890365,-0.0926990434527397,-0.6499434113502502,42.9296875,100.2968444824219,-12.26910400390625
262777,-0.1466064453125,0.3296661376953125,-0.170562744140625,0.0387697666883468,-0.5788953304290771,-0.9048694372177124,42.83055114746094,100.2040252685547,-12.27613830566406
262778,-0.2414093017578125,0.2819366455078125,-0.188079833984375,-0.0441701225936412,-1.029764771461487,-1.072611570358276,42.61686706542969,100.0361022949219,-12.23582458496094
262779,-0.2414093017578125,0.2819366455078125,-0.188079833984375,-0.0441701225936412,-1.029764771461487,-1.072611570358276,42.61686706542969,100.0361022949219,-12.23582458496094
262780,-0.370635986328125,0.1375885009765625,-0.26336669921875,-0.1221384257078171,-1.163576364517212,-1.026412844657898,41.96363830566406,99.80010986328124,-12.24627685546875
262781,-0.353302001953125,0.10595703125,-0.261474609375,-0.2433045357465744,-1.246323466300964,-0.930902898311615,41.63691711425781,99.57138061523438,-12.14439392089844
262782,-0.2901458740234375,0.087738037109375,-0.2233123779296875,-0.3696784377098083,-1.216832160949707,-0.8122332096099854,41.29319763183594,99.40794372558594,-11.9407958984375
262783,-0.2901458740234375,0.087738037109375,-0.2233123779296875,-0.3696784377098083,-1.216832160949707,-0.8122332096099854,41.29319763183594,99.40794372558594,-11.9407958984375
262784,-0.24298095703125,0.1698455810546875,-0.0619354248046875,-0.578154981136322,-0.241409957408905,-0.5920348167419434,40.31973266601562,99.1353759765625,-11.46176147460938
262785,-0.24298095703125,0.1698455810546875,-0.0619354248046875,-0.578154981136322,-0.241409957408905,-0.5920348167419434,40.31973266601562,99.1353759765625,-11.46176147460938
262786,-0.24688720703125,0.2606353759765625,-0.0656280517578125,-0.6368536949157715,0.3684861361980438,-0.5298420190811157,39.93505859375,99.02191162109376,-11.09367370605469
262787,-0.2161407470703125,0.5062255859375,0.0479888916015625,-0.4840721487998962,0.8837111592292786,-0.4616717398166656,39.27513122558594,99.01335144042967,-10.66453552246094
262788,-0.219024658203125,0.6183624267578125,0.1114349365234375,-0.3971865177154541,1.024947881698608,-0.4615937173366547,38.93733215332031,99.12190246582033,-10.38548278808594
262789,-0.26165771484375,0.72174072265625,0.145416259765625,-0.3068925738334656,1.058218717575073,-0.4963091015815735,38.6484375,99.02113342285156,-10.22966003417969
262790,-0.334686279296875,0.8023681640625,0.1709442138671875,-0.0974748879671096,0.8031848669052124,-0.7822018265724182,38.34111022949219,99.04794311523438,-10.07316589355469
262791,-0.4214630126953125,0.8181610107421875,0.174560546875,-0.0974748879671096,0.8031848669052124,-0.7822018265724182,37.92137145996094,99.13558959960938,-10.28471374511719
262792,-0.4897003173828125,0.7248382568359375,0.149261474609375,-0.0210027527064085,0.4694250226020813,-0.9707962274551392,37.47090148925781,99.25582885742188,-10.46519470214844
262793,-0.53515625,0.5904083251953125,0.1172027587890625,-0.024419056251645,0.0275235027074813,-1.129183769226074,36.96493530273438,99.25131225585938,-10.52915954589844
262794,-0.53515625,0.5904083251953125,0.1172027587890625,-0.024419056251645,0.0275235027074813,-1.129183769226074,36.96493530273438,99.25131225585938,-10.52915954589844
262795,-0.5696563720703125,0.355926513671875,0.1037139892578125,-0.2774696946144104,-1.173417806625366,-1.122046709060669,36.05233764648438,98.974853515625,-10.84147644042969
262796,-0.5514068603515625,0.287384033203125,0.15185546875,-0.5594542622566223,-1.653125524520874,-0.949059009552002,35.68814086914062,98.97642517089844,-10.72119140625
262797,-0.5514068603515625,0.287384033203125,0.15185546875,-0.5594542622566223,-1.653125524520874,-0.949059009552002,35.68814086914062,98.97642517089844,-10.72119140625
262798,-0.4388427734375,0.21099853515625,0.2525482177734375,-1.318059921264648,-1.323080778121948,-0.5314859747886658,34.96011352539062,98.63232421875,-10.22677612304688
262799,-0.415771484375,0.2047576904296875,0.2384490966796875,-1.318059921264648,-1.323080778121948,-0.5314859747886658,34.68124389648438,98.40748596191406,-9.67926025390625
262800,-0.369842529296875,0.200286865234375,0.050811767578125,-1.413691878318787,-0.8362703919410706,-0.4395107924938202,34.3685302734375,98.23403930664062,-8.82025146484375
262801,-0.369842529296875,0.200286865234375,0.050811767578125,-1.413691878318787,-0.8362703919410706,-0.4395107924938202,34.3685302734375,98.23403930664062,-8.82025146484375
262802,-0.2430877685546875,0.1377105712890625,-0.3680572509765625,-1.193276762962341,-0.9378002285957336,-0.3309121429920197,34.16160583496094,98.0406494140625,-8.022354125976562
262803,-0.0477142333984375,0.2181549072265625,-0.23785400390625,-0.5162167549133301,-0.9620235562324524,-0.0975800827145576,34.02020263671875,97.74014282226562,-6.522262573242188
262804,-0.0060577392578125,0.2696380615234375,-0.1368865966796875,-0.4855930805206299,-0.5663734078407288,-0.1455518752336502,34.09107971191406,97.61373901367188,-5.846893310546875
262805,-0.0060577392578125,0.2696380615234375,-0.1368865966796875,-0.4855930805206299,-0.5663734078407288,-0.1455518752336502,34.09107971191406,97.61373901367188,-5.846893310546875
262806,0.0815277099609375,0.111480712890625,-0.1570892333984375,-0.6651511192321777,-0.8147059679031372,0.0039864857681095,34.0584716796875,97.23121643066406,-4.732421875
262807,0.1218414306640625,0.0334320068359375,-0.1628875732421875,-0.8351870179176331,-1.197858452796936,0.2239643931388855,34.14936828613281,97.050537109375,-4.196533203125
262808,0.169219970703125,-0.002197265625,-0.25128173828125,-0.9515522718429564,-1.674300312995911,0.4923412501811981,34.30410766601562,96.87265014648438,-3.422439575195312
262809,0.2494354248046875,0.0561676025390625,-0.4060211181640625,-0.932089865207672,-2.051688194274902,0.8007686138153076,34.62167358398438,96.50462341308594,-2.556777954101562
262810,0.2482147216796875,0.3795623779296875,-0.6877288818359375,-0.6544603705406189,-1.824112176895142,0.9765156507492064,35.03605651855469,96.29548645019533,-1.856124877929688
262811,0.0986785888671875,0.8303680419921875,-0.9969482421875,0.1313428431749344,-1.338346004486084,0.8870696425437927,35.47990417480469,96.15402221679688,-0.9995574951171876
262812,-0.073394775390625,1.196304321289062,-1.088409423828125,1.028635263442993,-0.4214867949485779,0.8816171288490295,36.02180480957031,96.10931396484376,-0.2042083740234375
262813,-0.073394775390625,1.196304321289062,-1.088409423828125,1.028635263442993,-0.4214867949485779,0.8816171288490295,36.02180480957031,96.10931396484376,-0.2042083740234375
262814,-0.2802734375,1.898590087890625,-1.038238525390625,0.5217643976211548,2.059330940246582,1.701620936393738,37.31825256347656,95.96400451660156,0.374908447265625
262815,-0.27862548828125,2.223587036132812,-0.5243072509765625,-0.8431645035743713,2.123621463775635,1.833518266677856,37.77352905273438,96.08132934570312,0.006988525390625
262816,-0.4953765869140625,2.745010375976562,-0.5072021484375,-1.525593400001526,1.278438806533813,1.108804702758789,38.26516723632812,96.08828735351562,-0.3500823974609375
262817,-0.4953765869140625,2.745010375976562,-0.5072021484375,-1.525593400001526,1.278438806533813,1.108804702758789,38.26516723632812,96.08828735351562,-0.3500823974609375
262818,-0.7017669677734375,3.857864379882812,-0.418365478515625,1.115813136100769,-0.2629573345184326,-0.0343723557889461,39.15864562988281,96.12139892578124,-0.3765716552734375
262819,-0.891357421875,4.057708740234375,-0.56500244140625,1.222884654998779,1.291011214256287,0.4354052543640137,39.42707824707031,95.92953491210938,-0.3026123046875
262820,-0.9897613525390624,3.818527221679688,-1.165847778320312,0.3037987649440765,2.122891187667847,1.017638087272644,39.21730041503906,95.96783447265624,-0.7437286376953125
262821,-0.9897613525390624,3.818527221679688,-1.165847778320312,0.3037987649440765,2.122891187667847,1.017638087272644,39.21730041503906,95.96783447265624,-0.7437286376953125
262822,-0.9304351806640624,3.338775634765625,-0.878082275390625,0.1603462696075439,1.583664655685425,0.7547502517700195,39.02436828613281,96.1976318359375,-1.448074340820312
262823,-1.07281494140625,3.002914428710938,-0.1960296630859375,1.421000480651855,1.365390419960022,-0.3532240986824036,38.87603759765625,96.58551025390624,-2.366470336914062
262824,-1.20794677734375,2.81390380859375,-0.1806488037109375,1.787850856781006,1.558061838150024,-0.65325528383255,38.81634521484375,96.92478942871094,-2.929702758789062
262825,-1.20794677734375,2.81390380859375,-0.1806488037109375,1.787850856781006,1.558061838150024,-0.65325528383255,38.81634521484375,96.92478942871094,-2.929702758789062
262826,-1.1669921875,1.941818237304688,-0.558197021484375,1.500616431236267,-0.1849373579025269,-0.7662875652313232,37.98068237304688,97.4098663330078,-4.882522583007812
262827,-1.160507202148438,1.466110229492188,-0.3594818115234375,1.500616431236267,-0.1849373579025269,-0.7662875652313232,37.46421813964844,97.69691467285156,-5.973480224609375
262828,-1.204376220703125,1.183319091796875,-0.116851806640625,1.415146231651306,-0.1670062988996506,-0.6003146171569824,36.92289733886719,97.91990661621094,-6.893814086914062
262829,-1.204376220703125,1.183319091796875,-0.116851806640625,1.415146231651306,-0.1670062988996506,-0.6003146171569824,36.92289733886719,97.91990661621094,-6.893814086914062
262830,-1.224761962890625,1.061614990234375,0.07574462890625,1.416984677314758,0.1924450844526291,-0.3719410598278046,36.70051574707031,97.98899841308594,-7.6954345703125
262831,-1.1719970703125,1.042678833007812,0.299652099609375,1.444885015487671,0.7258126139640808,-0.2058029621839523,36.47752380371094,98.20126342773438,-8.487457275390625
262832,-1.073760986328125,0.7902069091796875,0.6615142822265625,1.12784743309021,2.389799356460571,-0.0829476118087768,36.28549194335938,98.334228515625,-10.05157470703125
262833,-0.9846038818359376,0.4954986572265625,0.6021575927734375,0.8681740164756775,2.830383777618408,0.1668342649936676,36.38055419921875,98.38832092285156,-10.90937805175781
262834,-0.9846038818359376,0.4954986572265625,0.6021575927734375,0.8681740164756775,2.830383777618408,0.1668342649936676,36.38055419921875,98.38832092285156,-10.90937805175781
262835,-0.569000244140625,0.065185546875,0.43133544921875,0.2968242168426514,2.549871683120728,0.4012755155563354,37.11489868164062,98.28697204589844,-12.716796875
262836,-0.3949127197265625,-0.1037750244140625,0.37591552734375,-0.0019164107507094,2.280286312103271,0.542516827583313,37.55036926269531,98.253173828125,-13.29814147949219
262837,-0.224884033203125,-0.1517791748046875,0.27691650390625,-0.3799388110637665,1.677863597869873,0.6900790929794312,37.98158264160156,98.28509521484376,-13.84620666503906
262838,-0.224884033203125,-0.1517791748046875,0.27691650390625,-0.3799388110637665,1.677863597869873,0.6900790929794312,37.98158264160156,98.28509521484376,-13.84620666503906
262839,-0.064605712890625,-0.03179931640625,0.1616973876953125,-0.4831538796424866,1.359013795852661,0.6100175380706787,38.57978820800781,98.4752197265625,-14.39669799804688
262840,-0.0269927978515625,0.01361083984375,0.12689208984375,-0.5419180989265442,0.9445617198944092,0.4696604311466217,38.84016418457031,98.57585144042967,-14.28427124023438
262841,-0.0269927978515625,0.01361083984375,0.12689208984375,-0.5419180989265442,0.9445617198944092,0.4696604311466217,38.84016418457031,98.57585144042967,-14.28427124023438
262842,-0.0170745849609375,0.0758056640625,0.1329803466796875,-0.6044150590896606,0.4757481515407562,0.2821509838104248,38.98896789550781,98.64283752441406,-14.11177062988281
262843,-0.0641326904296875,0.14251708984375,0.17364501953125,-0.7520769238471985,0.0697095692157745,-0.0159278344362974,39.18569946289062,98.76179504394533,-14.01216125488281
262844,-0.2852325439453125,0.0033111572265625,0.3233184814453125,-1.427418947219849,-0.1814190596342087,-0.5972412824630737,39.13783264160156,99.10276794433594,-13.142578125
262845,-0.2852325439453125,0.0033111572265625,0.3233184814453125,-1.427418947219849,-0.1814190596342087,-0.5972412824630737,39.13783264160156,99.10276794433594,-13.142578125
262846,-0.3377685546875,-0.11297607421875,0.3087615966796875,-1.684737205505371,-0.1403043866157532,-0.6578851938247681,38.94622802734375,99.2536163330078,-12.65948486328125
262847,-0.3990020751953125,-0.2234039306640625,0.307281494140625,-1.826758623123169,-0.0347396060824394,-0.6212289333343506,38.66786193847656,99.27919006347656,-11.98002624511719
262848,-0.5944366455078125,-0.2941436767578125,0.2739105224609375,-2.030618667602539,0.2637975513935089,-0.3625760674476624,38.13189697265625,99.22242736816406,-10.44371032714844
262849,-0.5944366455078125,-0.2941436767578125,0.2739105224609375,-2.030618667602539,0.2637975513935089,-0.3625760674476624,38.13189697265625,99.22242736816406,-10.44371032714844
262850,-0.70166015625,-0.1695709228515625,0.244537353515625,-2.151034832000732,0.3623952269554138,-0.2355017364025116,37.883544921875,99.05372619628906,-9.562576293945312
262851,-0.857452392578125,0.331878662109375,-0.306182861328125,-2.333757638931274,-0.2555209696292877,-0.440570205450058,37.47390747070312,98.67033386230467,-7.6829833984375
262852,-0.951019287109375,0.54327392578125,-0.59527587890625,-2.078659534454346,-1.671095728874207,-0.8224025368690491,37.32890319824219,98.49313354492188,-6.674148559570312
262853,-0.9698944091796876,0.6378936767578125,-0.2297821044921875,-1.770275115966797,-2.498730421066284,-1.178996801376343,37.20359802246094,98.3031005859375,-5.5589599609375
262854,-0.9698944091796876,0.6378936767578125,-0.2297821044921875,-1.770275115966797,-2.498730421066284,-1.178996801376343,37.20359802246094,98.3031005859375,-5.5589599609375
262855,-0.8320159912109375,0.7594757080078125,0.2898101806640625,-1.27735698223114,-1.327378392219543,-1.162232518196106,36.65878295898438,97.6555633544922,-3.111007690429688
262856,-0.813018798828125,0.9424896240234376,0.279693603515625,-0.9720625877380372,-0.3989362120628357,-1.085469007492065,36.12957763671875,96.58805847167967,-1.188873291015625
262857,-0.813018798828125,0.9424896240234376,0.279693603515625,-0.9720625877380372,-0.3989362120628357,-1.085469007492065,36.12957763671875,96.58805847167967,-1.188873291015625
262858,-0.68389892578125,0.965484619140625,0.2243804931640625,-0.7675400376319885,0.9493975043296814,-1.01391339302063,35.50994873046875,95.82208251953124,-0.5491485595703125
262859,-0.68389892578125,0.965484619140625,0.2243804931640625,-0.7675400376319885,0.9493975043296814,-1.01391339302063,35.50994873046875,95.82208251953124,-0.5491485595703125
262860,-0.3801727294921875,0.752655029296875,-0.0540771484375,-1.055144667625427,0.8136013150215149,-0.7627919316291809,34.64494323730469,95.30183410644533,-0.209381103515625
262861,-0.3801727294921875,0.752655029296875,-0.0540771484375,-1.055144667625427,0.8136013150215149,-0.7627919316291809,34.64494323730469,95.30183410644533,-0.209381103515625
262862,-0.2198333740234375,0.6289825439453125,-0.1368255615234375,-1.186965346336365,0.2703931331634521,-0.6090673208236694,34.05976867675781,95.00929260253906,-0.0135650634765625
262863,-0.137542724609375,0.3183441162109375,-0.1162872314453125,-1.181229114532471,-0.663112998008728,-0.2295951098203659,33.28721618652344,94.57533264160156,0.67901611328125
262864,-0.128936767578125,0.1546478271484375,-0.13067626953125,-1.107015013694763,-1.076599597930908,-0.1676750183105469,33.22796630859375,94.31971740722656,1.326065063476562
262865,-0.128936767578125,0.1546478271484375,-0.13067626953125,-1.107015013694763,-1.076599597930908,-0.1676750183105469,33.22796630859375,94.31971740722656,1.326065063476562
262866,-0.1095428466796875,-0.0002288818359375,-0.1414794921875,-1.022617340087891,-1.438453197479248,-0.1051642373204231,33.4669189453125,94.124267578125,1.816726684570312
262867,-0.0087432861328125,-0.10015869140625,-0.2574005126953125,-0.695692777633667,-1.856129288673401,0.1656435579061508,33.9952392578125,93.724365234375,3.396224975585938
262868,0.03662109375,-0.0587310791015625,-0.3026275634765625,-0.3528083860874176,-1.823318362236023,0.4135236740112305,34.26487731933594,93.58204650878906,4.087921142578125
262869,0.03662109375,-0.0587310791015625,-0.3026275634765625,-0.3528083860874176,-1.823318362236023,0.4135236740112305,34.26487731933594,93.58204650878906,4.087921142578125
262870,-0.0096893310546875,0.0878448486328125,-0.30487060546875,0.0113083142787218,-1.603564381599426,0.5619373917579651,34.53010559082031,93.46769714355467,4.67901611328125
262871,-0.112091064453125,0.270294189453125,-0.28961181640625,0.3434825241565704,-1.254027366638184,0.4469362199306488,34.89935302734375,93.48196411132812,5.0067138671875
262872,-0.2591552734375,0.446563720703125,-0.4310760498046875,0.7225710153579712,-0.3827582895755768,-0.0265357363969087,35.25260925292969,93.58865356445312,5.135574340820312
262873,-0.2591552734375,0.446563720703125,-0.4310760498046875,0.7225710153579712,-0.3827582895755768,-0.0265357363969087,35.25260925292969,93.58865356445312,5.135574340820312
262874,-0.3688812255859375,0.496124267578125,-0.637115478515625,0.7189954519271851,-0.0614524409174919,-0.2388117760419846,35.23291015625,93.779541015625,4.999740600585938
262875,-0.4887847900390625,0.56292724609375,-1.003448486328125,0.2198237031698227,-0.0042030005715787,-0.2382120341062546,34.83106994628906,93.87478637695312,4.3426513671875
262876,-0.4184417724609375,0.6683502197265625,-0.808563232421875,0.0736156329512596,-0.4900474548339844,-0.1971711218357086,34.63148498535156,93.91485595703124,4.249755859375
262877,-0.4184417724609375,0.6683502197265625,-0.808563232421875,0.0736156329512596,-0.4900474548339844,-0.1971711218357086,34.63148498535156,93.91485595703124,4.249755859375
262878,-0.34100341796875,0.771270751953125,-0.5299072265625,0.0037643781397491,-0.6227450370788574,-0.1541504263877869,34.5484619140625,93.96632385253906,4.254989624023438
262879,-0.2289581298828125,1.015289306640625,-0.346343994140625,0.0317233093082904,-0.1017047911882401,0.0254528950899839,34.27439880371094,93.87078857421876,4.461593627929688
262880,-0.237030029296875,1.18231201171875,-0.4195709228515625,0.1302309781312943,-0.1107097342610359,0.1321308761835098,34.21560668945312,93.90267944335938,4.491180419921875
262881,-0.237030029296875,1.18231201171875,-0.4195709228515625,0.1302309781312943,-0.1107097342610359,0.1321308761835098,34.21560668945312,93.90267944335938,4.491180419921875
262882,-0.4226226806640625,1.679763793945312,-0.5229339599609375,0.5462404489517212,-0.3566859364509583,0.1581361144781113,34.32882690429688,93.72015380859376,4.586502075195312
262883,-0.5361785888671875,2.0062255859375,-0.5963592529296875,1.118527889251709,-0.3072238564491272,0.0923112854361534,34.47100830078125,93.73063659667967,4.640029907226562
262884,-0.648406982421875,2.325042724609375,-0.5783843994140625,1.714879751205444,0.07041797041893,0.1280868649482727,34.64234924316406,93.82601928710938,4.397140502929688
262885,-0.648406982421875,2.325042724609375,-0.5783843994140625,1.714879751205444,0.07041797041893,0.1280868649482727,34.64234924316406,93.82601928710938,4.397140502929688
262886,-0.7336273193359375,2.591781616210938,-0.57855224609375,2.036120414733887,0.4828401505947113,0.2115761637687683,34.64497375488281,94.04034423828124,3.804840087890625
262887,-0.69818115234375,2.775543212890625,-0.662750244140625,1.997355580329895,0.5461384057998657,0.3108494877815247,34.5865478515625,94.3217315673828,3.075088500976562
262888,-0.5327606201171875,3.011032104492188,-0.545074462890625,1.692226648330688,-0.0558829717338085,0.7209475040435791,34.58610534667969,94.93092346191406,1.186721801757812
262889,-0.5327606201171875,3.011032104492188,-0.545074462890625,1.692226648330688,-0.0558829717338085,0.7209475040435791,34.58610534667969,94.93092346191406,1.186721801757812
262890,-0.542388916015625,3.095260620117188,-0.2925262451171875,1.713835000991821,-0.0787808299064636,0.9710465669631958,34.76802062988281,95.36277770996094,0.2872467041015625
262891,-0.8214263916015625,3.120010375976562,-0.1910552978515625,1.932878851890564,0.2449442446231842,1.166581511497498,35.54362487792969,96.2315673828125,-1.307891845703125
262892,-0.969268798828125,2.815811157226562,-0.242767333984375,2.094889640808105,0.1188579425215721,1.067767024040222,36.04737854003906,96.70613098144533,-2.17193603515625
262893,-0.969268798828125,2.815811157226562,-0.242767333984375,2.094889640808105,0.1188579425215721,1.067767024040222,36.04737854003906,96.70613098144533,-2.17193603515625
262894,-1.081298828125,1.6690673828125,0.050750732421875,2.399635314941406,0.127338245511055,1.041510105133057,37.27275085449219,97.55337524414062,-4.331954956054688
262895,-1.028076171875,1.354629516601562,0.08929443359375,2.346022844314575,0.3235644698143005,0.9443734288215636,37.96308898925781,98.05413818359376,-5.605880737304688
262896,-0.9761810302734376,1.087890625,0.105987548828125,2.246214866638184,0.4825964868068695,0.8718787431716919,38.57093811035156,98.40682983398438,-6.842056274414062
262897,-0.985504150390625,0.88665771484375,0.0904693603515625,2.027519464492798,0.5172428488731384,0.8336104154586792,39.18032836914062,98.64607238769533,-8.139923095703125
262898,-0.985504150390625,0.88665771484375,0.0904693603515625,2.027519464492798,0.5172428488731384,0.8336104154586792,39.18032836914062,98.64607238769533,-8.139923095703125
262899,-1.008819580078125,0.639007568359375,0.1173553466796875,1.233904838562012,0.4760898351669312,0.7124943733215332,40.16874694824219,99.14053344726562,-10.30607604980469
262900,-0.9823760986328124,0.4922637939453125,0.186981201171875,0.7899497747421265,0.5120062828063965,0.6952989101409912,40.68711853027344,99.31460571289062,-11.19650268554688
262901,-0.9823760986328124,0.4922637939453125,0.186981201171875,0.7899497747421265,0.5120062828063965,0.6952989101409912,40.68711853027344,99.31460571289062,-11.19650268554688
262902,-0.7913055419921875,0.397613525390625,0.4373931884765625,-0.1098242327570915,1.778480291366577,0.6494874358177185,41.4429931640625,99.29693603515624,-12.28935241699219
262903,-0.6921844482421875,0.491790771484375,0.55718994140625,-0.1098242327570915,1.778480291366577,0.6494874358177185,41.86215209960938,99.39248657226562,-12.61045837402344
262904,-0.607666015625,0.613067626953125,0.6843109130859375,-0.2935914099216461,2.420073509216309,0.574867844581604,42.16465759277344,99.4356689453125,-12.73345947265625
262905,-0.607666015625,0.613067626953125,0.6843109130859375,-0.2935914099216461,2.420073509216309,0.574867844581604,42.16465759277344,99.4356689453125,-12.73345947265625
262906,-0.4865875244140625,0.677825927734375,0.651275634765625,-0.4611242115497589,2.848057270050049,0.5276835560798645,42.46287536621094,99.34982299804688,-12.79008483886719
262907,-0.311920166015625,0.711181640625,0.3997650146484375,-0.8102236390113831,2.218281269073486,0.5125839114189148,43.017822265625,99.28541564941406,-12.88114929199219
262908,-0.2681884765625,0.670989990234375,0.393096923828125,-0.9493932127952576,1.593043327331543,0.4305420517921448,43.29914855957031,99.20857238769533,-12.64688110351562
262909,-0.2681884765625,0.670989990234375,0.393096923828125,-0.9493932127952576,1.593043327331543,0.4305420517921448,43.29914855957031,99.20857238769533,-12.64688110351562
262910,-0.21295166015625,0.5931396484375,0.419464111328125,-1.037804007530212,1.094650864601135,0.2979456782341003,43.49630737304688,99.44471740722656,-12.48124694824219
262911,-0.1071929931640625,0.410369873046875,0.409149169921875,-1.081896185874939,0.4527645409107208,0.0371817238628864,44.01617431640625,99.29133605957033,-11.47230529785156
262912,-0.057159423828125,0.3282012939453125,0.37994384765625,-1.128888964653015,0.19471275806427,-0.0440582707524299,44.13755798339844,99.2551727294922,-10.83340454101562
262913,-0.057159423828125,0.3282012939453125,0.37994384765625,-1.128888964653015,0.19471275806427,-0.0440582707524299,44.13755798339844,99.2551727294922,-10.83340454101562
262914,0.0358734130859375,0.2214508056640625,0.39166259765625,-1.735550403594971,-0.6031332612037659,-0.0484026856720447,44.37173461914062,99.0478057861328,-9.734420776367188
262915,0.0333251953125,0.2485504150390625,0.474273681640625,-2.072478532791138,-0.6601398587226868,-0.1457305699586868,44.33723449707031,98.97647094726562,-8.943099975585938
262916,0.0004119873046875,0.3195343017578125,0.5695037841796875,-2.072478532791138,-0.6601398587226868,-0.1457305699586868,44.37199401855469,98.84950256347656,-8.105621337890625
262917,0.0004119873046875,0.3195343017578125,0.5695037841796875,-2.072478532791138,-0.6601398587226868,-0.1457305699586868,44.37199401855469,98.84950256347656,-8.105621337890625
262918,-0.0727691650390625,0.3687744140625,0.6653289794921875,-2.366220712661743,-0.6243187189102173,-0.232108861207962,44.38992309570312,98.68577575683594,-7.341506958007812
262919,-0.169525146484375,0.42041015625,0.73822021484375,-2.586388111114502,-0.4602541625499725,-0.2319546639919281,44.25408935546875,98.5067901611328,-6.316024780273438
262920,-0.2839202880859375,0.53070068359375,0.6453399658203125,-2.606042623519897,-0.27036252617836,-0.3056792318820953,44.33966064453125,98.08628845214844,-3.879287719726562
262921,-0.2839202880859375,0.53070068359375,0.6453399658203125,-2.606042623519897,-0.27036252617836,-0.3056792318820953,44.33966064453125,98.08628845214844,-3.879287719726562
262922,-0.3376617431640625,0.6343994140625,0.3333587646484375,-2.29742693901062,-0.3906734883785248,-0.4576138854026794,44.27325439453125,97.34796142578124,-1.580963134765625
262923,-0.289825439453125,0.6529083251953125,0.1269989013671875,-2.085148334503174,-0.6071381568908691,-0.5767242908477783,44.11454772949219,96.9095458984375,-0.3863525390625
262924,-0.2090301513671875,0.67364501953125,-0.0144805908203125,-1.886557221412659,-0.8505726456642151,-0.7028825283050537,43.86521911621094,96.61393737792967,0.472015380859375
262925,-0.1457061767578125,0.7145538330078125,-0.047271728515625,-1.711817860603333,-0.9710881114006042,-0.8230038285255432,43.49935913085938,96.30021667480467,1.410720825195312
262926,-0.1457061767578125,0.7145538330078125,-0.047271728515625,-1.711817860603333,-0.9710881114006042,-0.8230038285255432,43.49935913085938,96.30021667480467,1.410720825195312
262927,-0.052215576171875,0.776885986328125,-0.3867645263671875,-1.362252116203308,-0.6248441934585571,-1.004064440727234,42.83100891113281,95.5739288330078,3.006729125976562
262928,-0.06768798828125,0.827362060546875,-1.027450561523438,-0.0988557413220405,-1.323708176612854,-1.172864675521851,42.4503173828125,95.1724090576172,3.845108032226562
262929,-0.06768798828125,0.827362060546875,-1.027450561523438,-0.0988557413220405,-1.323708176612854,-1.172864675521851,42.4503173828125,95.1724090576172,3.845108032226562
262930,-0.162994384765625,0.38104248046875,-0.272857666015625,1.167661666870117,-1.37770140171051,-1.258751630783081,41.64764404296875,94.69050598144533,4.406234741210938
262931,-0.2060394287109375,0.20684814453125,-0.3548126220703125,1.071940422058105,-0.6433390378952026,-1.114502549171448,41.17509460449219,94.769287109375,4.354843139648438
262932,-0.23394775390625,0.1150970458984375,-0.5692901611328125,0.8740590214729309,-0.3965372145175934,-0.9201583862304688,40.72450256347656,95.10096740722656,3.99591064453125
262933,-0.23394775390625,0.1150970458984375,-0.5692901611328125,0.8740590214729309,-0.3965372145175934,-0.9201583862304688,40.72450256347656,95.10096740722656,3.99591064453125
262934,-0.2793426513671875,0.1338958740234375,-0.68890380859375,0.6216097474098206,-0.5515307784080505,-0.7370556592941284,40.26966857910156,95.12733459472656,3.479049682617188
262935,-0.3229827880859375,0.3627471923828125,-0.6458892822265625,0.2569234073162079,-0.9875752329826356,-0.4516183137893677,39.23768615722656,95.52261352539062,2.844680786132812
262936,-0.3370208740234375,0.443267822265625,-0.5547637939453125,0.261214554309845,-0.8041524291038513,-0.3734060823917389,39.00044250488281,95.65005493164062,2.733200073242188
262937,-0.3635711669921875,0.482666015625,-0.49847412109375,0.3085168302059174,-0.2101130187511444,-0.2681366503238678,38.86616516113281,95.63833618164062,2.802780151367188
262938,-0.3635711669921875,0.482666015625,-0.49847412109375,0.3085168302059174,-0.2101130187511444,-0.2681366503238678,38.86616516113281,95.63833618164062,2.802780151367188
262939,-0.326416015625,0.5325927734375,-0.5303802490234375,0.4320038855075836,0.6231687664985657,-0.0378392562270164,38.63032531738281,95.6147918701172,2.990280151367188
262940,-0.333099365234375,0.6266326904296875,-0.591033935546875,0.4774968028068542,0.5354653000831604,-0.0159600581973791,38.56582641601562,95.68539428710938,2.915481567382812
262941,-0.333099365234375,0.6266326904296875,-0.591033935546875,0.4774968028068542,0.5354653000831604,-0.0159600581973791,38.56582641601562,95.68539428710938,2.915481567382812
262942,-0.3656768798828125,0.8127593994140625,-0.658233642578125,0.5568877458572388,0.2263673543930054,-0.071407601237297,38.50588989257812,95.84228515625,2.721221923828125
262943,-0.3661041259765625,1.061050415039062,-0.5935516357421875,0.7023874521255493,-0.0340778082609176,-0.1931124627590179,38.40509033203125,95.9140625,2.559555053710938
262944,-0.381439208984375,1.510101318359375,-0.0830230712890625,1.027907729148865,0.4497296214103699,-0.3867844641208649,38.18112182617188,96.01589965820312,2.112289428710938
262945,-0.381439208984375,1.510101318359375,-0.0830230712890625,1.027907729148865,0.4497296214103699,-0.3867844641208649,38.18112182617188,96.01589965820312,2.112289428710938
262946,-0.4766387939453125,1.691497802734375,0.20428466796875,1.003491878509521,1.116631746292114,-0.529137372970581,37.83976745605469,96.20329284667967,1.822998046875
262947,-0.8987274169921875,2.056182861328125,0.2081146240234375,0.7551848888397217,2.088142871856689,-1.257434964179993,36.86311340332031,96.55392456054688,0.583465576171875
262948,-1.524520874023438,2.1243896484375,0.171783447265625,0.5306345820426941,1.979314804077148,-1.285196542739868,36.11796569824219,96.70979309082033,-0.17584228515625
262949,-1.524520874023438,2.1243896484375,0.171783447265625,0.5306345820426941,1.979314804077148,-1.285196542739868,36.11796569824219,96.70979309082033,-0.17584228515625
262950,-2.25604248046875,2.301254272460938,0.06787109375,0.1857506930828094,1.668570518493652,-0.5805011987686157,35.294921875,96.758056640625,-1.020919799804688
262951,-2.505096435546875,2.85772705078125,-0.0995330810546875,-0.1224745139479637,-0.5155200958251953,0.344896674156189,34.0950927734375,96.77395629882812,-2.36279296875
262952,-1.421829223632812,2.317108154296875,0.1881866455078125,-0.0451323240995407,-1.120964407920837,0.5602196455001831,34.09025573730469,96.78599548339844,-2.598098754882812
262953,-1.421829223632812,2.317108154296875,0.1881866455078125,-0.0451323240995407,-1.120964407920837,0.5602196455001831,34.09025573730469,96.78599548339844,-2.598098754882812
262954,-0.546142578125,1.781600952148438,0.2620391845703125,0.4023309350013733,-0.5343805551528931,1.143402695655823,34.7060546875,96.71360778808594,-2.018203735351562
262955,-0.48345947265625,1.777496337890625,0.2504730224609375,0.6500067710876465,-0.3523340821266174,1.199434757232666,35.05950927734375,96.86091613769533,-1.820388793945312
262956,-0.5025482177734375,1.7860107421875,0.2651214599609375,0.8042482733726501,-0.3038653433322906,1.013176679611206,35.56034851074219,96.92117309570312,-1.834487915039062
262957,-0.5025482177734375,1.7860107421875,0.2651214599609375,0.8042482733726501,-0.3038653433322906,1.013176679611206,35.56034851074219,96.92117309570312,-1.834487915039062
262958,-0.5595245361328125,1.724853515625,0.2480621337890625,0.775556206703186,-0.2502647042274475,0.7457213401794434,36.12342834472656,97.17839050292967,-2.058868408203125
262959,-0.6453399658203125,1.651168823242188,-0.02276611328125,0.3577397763729095,-0.3223575353622437,0.519817590713501,37.30134582519531,97.58796691894533,-3.0172119140625
262960,-0.645294189453125,1.510665893554688,-0.09942626953125,0.3804091215133667,-0.4144027829170227,0.4829003512859344,37.84063720703125,97.6670379638672,-3.108551025390625
262961,-0.645294189453125,1.510665893554688,-0.09942626953125,0.3804091215133667,-0.4144027829170227,0.4829003512859344,37.84063720703125,97.6670379638672,-3.108551025390625
262962,-0.5633544921875,1.2777099609375,-0.18951416015625,0.5965784192085266,-0.4790419638156891,0.5414643287658691,38.26828002929688,97.6951141357422,-3.23291015625
262963,-0.3135986328125,0.918792724609375,-0.2456817626953125,0.9780278205871582,-0.4813809990882874,0.733202338218689,39.09889221191406,97.76992797851562,-3.468017578125
262964,-0.2376708984375,0.7559814453125,-0.216278076171875,1.07686173915863,-0.3522278070449829,0.8409314751625061,39.53169250488281,97.97042846679688,-3.808822631835938
262965,-0.1912994384765625,0.6196746826171875,-0.1875,1.107715487480164,0.0609722733497619,0.9638717770576476,40.0233154296875,97.99143981933594,-3.916748046875
262966,-0.1912994384765625,0.6196746826171875,-0.1875,1.107715487480164,0.0609722733497619,0.9638717770576476,40.0233154296875,97.99143981933594,-3.916748046875
262967,-0.136322021484375,0.428436279296875,-0.0912322998046875,1.083849787712097,0.3224720656871796,1.022987008094788,40.98335266113281,98.3198699951172,-4.83721923828125
262968,-0.137451171875,0.4312286376953125,0.0400238037109375,1.003035664558411,0.6705671548843384,1.035812258720398,41.49081420898438,98.45913696289062,-5.348297119140625
262969,-0.137451171875,0.4312286376953125,0.0400238037109375,1.003035664558411,0.6705671548843384,1.035812258720398,41.49081420898438,98.45913696289062,-5.348297119140625
262970,-0.1307830810546875,0.4224090576171875,0.148956298828125,0.6724241971969604,1.28882884979248,1.065183758735657,42.06791687011719,98.59713745117188,-5.992477416992188
262971,-0.1103057861328125,0.4022674560546875,0.1793975830078125,0.6724241971969604,1.28882884979248,1.065183758735657,42.70330810546875,98.73704528808594,-6.444107055664062
262972,-0.074615478515625,0.3062286376953125,0.0659027099609375,0.1397459208965302,1.285390615463257,0.959894061088562,43.88690185546875,98.82818603515624,-7.1309814453125
262973,-0.074615478515625,0.3062286376953125,0.0659027099609375,0.1397459208965302,1.285390615463257,0.959894061088562,43.88690185546875,98.82818603515624,-7.1309814453125
262974,-0.055419921875,0.2394561767578125,0.058074951171875,-0.1155721321702003,1.122282981872559,0.8659042119979858,44.44950866699219,98.85508728027344,-7.42681884765625
262975,-0.046539306640625,0.177642822265625,0.24761962890625,-0.5701881051063538,1.154508590698242,0.6141246557235718,45.32957458496094,98.94534301757812,-7.530960083007812
262976,-0.05780029296875,0.2012939453125,0.345947265625,-0.8322884440422058,1.39548659324646,0.4914008975028992,45.7100830078125,98.9875946044922,-7.287704467773438
262977,-0.05780029296875,0.2012939453125,0.345947265625,-0.8322884440422058,1.39548659324646,0.4914008975028992,45.7100830078125,98.9875946044922,-7.287704467773438
262978,-0.1331939697265625,0.2680816650390625,0.4256134033203125,-1.157983422279358,1.676309704780579,0.3411703705787659,45.8721923828125,98.9412841796875,-7.024734497070312
262979,-0.2764434814453125,0.3608856201171875,0.4594268798828125,-1.534683108329773,1.899024844169617,0.1772043406963348,46.12644958496094,98.98556518554688,-6.814346313476562
262980,-0.6579132080078125,0.6195831298828125,0.54583740234375,-2.354325294494629,1.999823808670044,-0.1627359241247177,46.2178955078125,99.06883239746094,-5.81341552734375
262981,-0.6579132080078125,0.6195831298828125,0.54583740234375,-2.354325294494629,1.999823808670044,-0.1627359241247177,46.2178955078125,99.06883239746094,-5.81341552734375
262982,-0.8663787841796875,0.74810791015625,0.592071533203125,-2.687578201293945,1.866973638534546,-0.3039809167385101,46.04972839355469,98.97361755371094,-5.054443359375
262983,-1.076065063476562,0.922515869140625,0.571380615234375,-2.994308471679688,1.255949378013611,-0.0946596637368202,45.32273864746094,98.80012512207033,-3.104629516601562
262984,-0.9737396240234376,1.01373291015625,0.5540618896484375,-2.946149110794067,0.9295393824577332,-0.0211915709078311,44.72361755371094,98.73324584960938,-2.01373291015625
262985,-0.9737396240234376,1.01373291015625,0.5540618896484375,-2.946149110794067,0.9295393824577332,-0.0211915709078311,44.72361755371094,98.73324584960938,-2.01373291015625
262986,-0.782073974609375,0.957244873046875,0.49237060546875,-2.733661651611328,0.7619956135749817,-0.1514094918966293,44.11695861816406,98.52067565917967,-0.69110107421875
262987,-0.4395751953125,0.6472930908203125,0.3004302978515625,-1.775659441947937,0.6553008556365967,-0.4792542159557343,43.0509033203125,98.0533447265625,1.795806884765625
262988,-0.336944580078125,0.533966064453125,0.2164459228515625,-1.248676896095276,0.5957198143005371,-0.6803956031799316,42.6553955078125,97.57470703125,2.75469970703125
262989,-0.336944580078125,0.533966064453125,0.2164459228515625,-1.248676896095276,0.5957198143005371,-0.6803956031799316,42.6553955078125,97.57470703125,2.75469970703125
262990,-0.161773681640625,0.4368133544921875,0.0148468017578125,-0.5326932072639465,0.3059777617454529,-0.9085243344306946,42.00910949707031,96.68017578125,4.19390869140625
262991,-0.081695556640625,0.3971099853515625,-0.088043212890625,-0.3614921569824219,-0.015664979815483,-0.9271544814109802,41.63937377929688,96.2607879638672,4.470428466796875
262992,0.0139312744140625,0.352447509765625,-0.2780914306640625,-0.2872655987739563,-0.4496963322162628,-0.8652003407478333,41.39299011230469,95.78060913085938,4.833526611328125
262993,0.0139312744140625,0.352447509765625,-0.2780914306640625,-0.2872655987739563,-0.4496963322162628,-0.8652003407478333,41.39299011230469,95.78060913085938,4.833526611328125
262994,0.1544952392578125,0.2825927734375,-0.6409454345703125,0.1578002870082855,-2.241093873977661,-0.2382876724004745,41.20986938476562,95.31428527832033,5.099075317382812
262995,0.2906036376953125,0.0592803955078125,-0.441619873046875,0.4010211825370789,-2.570167064666748,0.3201697468757629,41.02290344238281,94.47195434570312,5.511627197265625
262996,0.198516845703125,0.02947998046875,-0.2379608154296875,0.6015806794166565,-2.097830772399902,0.6836382150650024,40.97752380371094,94.27552795410156,5.798965454101562
262997,0.198516845703125,0.02947998046875,-0.2379608154296875,0.6015806794166565,-2.097830772399902,0.6836382150650024,40.97752380371094,94.27552795410156,5.798965454101562
262998,0.1930999755859375,0.000274658203125,-0.298675537109375,0.5211009979248047,-0.3772516846656799,0.6915941834449768,41.52093505859375,94.45977783203124,6.046478271484375
262999,0.1989898681640625,0.044403076171875,-0.4547271728515625,-0.0125850336626172,0.5314308404922485,0.4277835488319397,41.97013854980469,94.80357360839844,6.24664306640625
263000,0.1074981689453125,0.194488525390625,-0.5707855224609375,-0.246962383389473,0.6418561935424805,0.1183277070522308,42.29986572265625,94.90789794921876,6.441848754882812
263001,0.1074981689453125,0.194488525390625,-0.5707855224609375,-0.246962383389473,0.6418561935424805,0.1183277070522308,42.29986572265625,94.90789794921876,6.441848754882812
263002,0.00836181640625,0.3360595703125,-0.559722900390625,-0.191238671541214,0.2870458960533142,-0.1963231712579727,42.51519775390625,94.95890808105467,6.494735717773438
263003,-0.038818359375,0.42742919921875,-0.4434051513671875,0.0367361754179,-0.0863633826375007,-0.486897736787796,42.53744506835938,94.74333190917967,6.655654907226562
263004,-0.12994384765625,0.73712158203125,-0.4133453369140625,0.1163495108485222,-0.0252909753471612,-0.5133586525917053,42.3819580078125,94.75241088867188,6.82659912109375
263005,-0.12994384765625,0.73712158203125,-0.4133453369140625,0.1163495108485222,-0.0252909753471612,-0.5133586525917053,42.3819580078125,94.75241088867188,6.82659912109375
263006,-0.2487030029296875,0.925201416015625,-0.495849609375,0.5175470113754272,0.0683750659227371,-0.7403926253318787,42.11256408691406,94.6881103515625,6.857772827148438
263007,-0.436981201171875,1.277938842773438,-0.5233306884765625,0.7733864784240723,0.1099078580737114,-0.9474579095840454,41.43606567382812,94.71849060058594,6.93255615234375
263008,-0.42401123046875,1.417633056640625,-0.481048583984375,0.9114319682121276,0.1318706870079041,-1.001662254333496,41.09080505371094,94.7734832763672,6.751235961914062
263009,-0.42401123046875,1.417633056640625,-0.481048583984375,0.9114319682121276,0.1318706870079041,-1.001662254333496,41.09080505371094,94.7734832763672,6.751235961914062
263010,-0.409576416015625,1.571884155273438,-0.4038238525390625,0.9275249242782592,0.2336870580911636,-0.8355995416641235,40.75480651855469,94.86264038085938,6.449172973632812
263011,-0.4669952392578125,1.737503051757812,-0.3944549560546875,1.221076607704163,0.0637598037719726,-0.7771639227867126,40.25370788574219,94.90359497070312,6.005096435546875
263012,-0.7636871337890625,2.16229248046875,-0.5597381591796875,1.571265339851379,-0.3420028686523438,-1.154808163642883,39.34376525878906,95.1134033203125,5.06781005859375
263013,-1.021652221679688,2.325942993164062,-0.5290985107421875,1.577665090560913,-0.4168962836265564,-1.535829067230225,38.81639099121094,95.33073425292967,4.654983520507812
263014,-1.021652221679688,2.325942993164062,-0.5290985107421875,1.577665090560913,-0.4168962836265564,-1.535829067230225,38.81639099121094,95.33073425292967,4.654983520507812
263015,-1.428848266601562,2.375961303710938,-0.4342193603515625,1.046251535415649,0.1867448538541794,-1.70603621006012,38.20498657226562,95.57046508789062,3.933151245117188
263016,-2.03363037109375,2.013671875,-0.407806396484375,-0.0033643713686615,1.596906781196594,-0.4027426540851593,36.55303955078125,96.1084442138672,1.907440185546875
263017,-2.03363037109375,2.013671875,-0.407806396484375,-0.0033643713686615,1.596906781196594,-0.4027426540851593,36.55303955078125,96.1084442138672,1.907440185546875
263018,-1.8800048828125,1.933120727539062,-0.2597503662109375,0.4276831746101379,1.084095597267151,0.1374824941158295,35.79281616210938,96.36019897460938,1.234878540039062
263019,-1.615737915039062,1.650314331054688,-0.03009033203125,1.066826939582825,0.1891898959875107,0.6129483580589294,35.24630737304688,96.28001403808594,0.2627716064453125
263020,-1.284637451171875,1.569656372070312,-0.118499755859375,0.7383893728256226,0.0866824313998222,0.779819130897522,35.43484497070312,96.4425048828125,-0.2702178955078125
263021,-1.284637451171875,1.569656372070312,-0.118499755859375,0.7383893728256226,0.0866824313998222,0.779819130897522,35.43484497070312,96.4425048828125,-0.2702178955078125
263022,-0.9565887451171876,1.676437377929688,-0.0599822998046875,0.3933408856391907,-0.0732928588986396,0.98217111825943,35.73127746582031,96.62237548828124,-0.7787628173828125
263023,-0.5925750732421875,1.837905883789062,0.323638916015625,0.5333158373832703,0.2133114784955978,1.008984327316284,36.37643432617188,96.9346923828125,-1.295684814453125
263024,-0.45947265625,1.7822265625,0.28509521484375,0.8110119104385376,0.6248897314071655,0.9986912608146667,37.310791015625,97.22152709960938,-1.856170654296875
263025,-0.45947265625,1.7822265625,0.28509521484375,0.8110119104385376,0.6248897314071655,0.9986912608146667,37.310791015625,97.22152709960938,-1.856170654296875
263026,-0.332275390625,1.467178344726562,0.162017822265625,0.9553520679473876,0.5848450660705566,1.006386756896973,38.40232849121094,97.32131958007812,-2.47686767578125
263027,-0.2853240966796875,1.324783325195312,0.1416168212890625,1.09491503238678,0.450541079044342,0.983659565448761,38.92694091796875,97.532958984375,-2.853363037109375
263028,-0.230926513671875,1.185409545898438,0.11834716796875,1.158031105995178,0.3164727389812469,0.9392181038856506,39.49479675292969,97.52011108398438,-3.231536865234375
263029,-0.230926513671875,1.185409545898438,0.11834716796875,1.158031105995178,0.3164727389812469,0.9392181038856506,39.49479675292969,97.52011108398438,-3.231536865234375
263030,-0.1880645751953125,1.07763671875,0.0946502685546875,1.134607315063477,0.2353627234697342,0.8550043702125549,40.0673828125,97.66978454589844,-3.755783081054688
263031,-0.177154541015625,0.8904876708984375,0.102569580078125,0.9830965995788574,0.2677640616893768,0.6501803994178772,40.82162475585938,98.12208557128906,-4.866867065429688
263032,-0.243194580078125,0.832244873046875,0.244232177734375,0.8687961101531982,0.5242685675621033,0.6001782417297363,41.26272583007812,98.2261962890625,-5.28265380859375
263033,-0.243194580078125,0.832244873046875,0.244232177734375,0.8687961101531982,0.5242685675621033,0.6001782417297363,41.26272583007812,98.2261962890625,-5.28265380859375
263034,-0.4680633544921875,0.6795654296875,0.4376068115234375,0.4684348404407501,1.324938654899597,0.6443893909454346,42.1007080078125,98.28805541992188,-6.276336669921875
263035,-0.5203094482421875,0.5306549072265625,0.2736358642578125,0.1661615371704102,1.363509654998779,0.6531476974487305,42.56158447265625,98.4722137451172,-6.473541259765625
263036,-0.530303955078125,0.332733154296875,0.0705413818359375,-0.1477417945861816,1.006409645080566,0.6608221530914307,42.93850708007812,98.59071350097656,-6.718475341796875
263037,-0.480255126953125,0.177459716796875,0.02783203125,-0.4077999889850616,0.5653097033500671,0.6775297522544861,43.3011474609375,98.61680603027344,-6.893417358398438
263038,-0.480255126953125,0.177459716796875,0.02783203125,-0.4077999889850616,0.5653097033500671,0.6775297522544861,43.3011474609375,98.61680603027344,-6.893417358398438
263039,-0.225372314453125,0.1511993408203125,0.232208251953125,-0.6407943964004517,0.6772053837776184,0.6896988153457642,43.77523803710938,98.57843017578124,-6.619720458984375
263040,-0.1038818359375,0.2014007568359375,0.2693023681640625,-0.6986424922943115,1.068527340888977,0.6472834348678589,44.04501342773438,98.56640625,-6.34832763671875
263041,-0.1038818359375,0.2014007568359375,0.2693023681640625,-0.6986424922943115,1.068527340888977,0.6472834348678589,44.04501342773438,98.56640625,-6.34832763671875
263042,-0.0354461669921875,0.2622528076171875,0.3122711181640625,-0.7759407162666321,1.41277551651001,0.6418407559394836,44.25440979003906,98.53858947753906,-6.199661254882812
263043,-0.13812255859375,0.48126220703125,0.45880126953125,-1.140251636505127,1.878473401069641,0.3708331882953644,44.58207702636719,98.44647216796876,-5.4990234375
263044,-0.2737274169921875,0.60479736328125,0.469757080078125,-1.497003078460693,1.807305812835693,-0.0433325618505477,44.73390197753906,98.33474731445312,-4.977951049804688
263045,-0.2737274169921875,0.60479736328125,0.469757080078125,-1.497003078460693,1.807305812835693,-0.0433325618505477,44.73390197753906,98.33474731445312,-4.977951049804688
263046,-0.4896697998046875,0.6547393798828125,0.550140380859375,-1.884228229522705,1.591144442558289,-0.4278325736522675,44.67146301269531,98.15127563476562,-4.5115966796875
263047,-0.8995513916015625,0.6817779541015625,0.747222900390625,-2.447161912918091,1.547778129577637,-0.7190313935279846,44.00740051269531,97.79005432128906,-3.06719970703125
263048,-0.9770355224609376,0.659942626953125,0.7033843994140625,-2.603478670120239,1.563376426696777,-0.617316722869873,43.35890197753906,97.55087280273438,-2.241989135742188
263049,-0.9770355224609376,0.659942626953125,0.7033843994140625,-2.603478670120239,1.563376426696777,-0.617316722869873,43.35890197753906,97.55087280273438,-2.241989135742188
263050,-0.895660400390625,0.6667633056640625,0.55975341796875,-2.705801963806152,1.425910711288452,-0.485219419002533,42.66900634765625,97.2985382080078,-1.26007080078125
263051,-0.5468597412109375,0.762451171875,0.2621307373046875,-2.577948331832886,0.5903586149215698,-0.5312540531158447,41.22410583496094,96.799560546875,0.8610992431640625
263052,-0.407989501953125,0.8132171630859375,0.120513916015625,-1.996058940887451,-0.3454316854476929,-0.7058740258216858,40.58554077148438,96.38499450683594,1.93841552734375
263053,-0.2812652587890625,0.8820037841796875,-0.0552825927734375,-1.63050651550293,-0.6871663928031921,-0.8214597702026367,40.05479431152344,95.91162109375,3.105514526367188
263054,-0.2812652587890625,0.8820037841796875,-0.0552825927734375,-1.63050651550293,-0.6871663928031921,-0.8214597702026367,40.05479431152344,95.91162109375,3.105514526367188
263055,-0.083587646484375,0.9319305419921876,0.0420074462890625,-1.29118275642395,-0.72020423412323,-0.8915435075759888,39.4954833984375,94.78599548339844,5.065780639648438
263056,0.00482177734375,0.9830169677734376,0.0487213134765625,-1.013485670089722,-0.5328269004821777,-0.8669782280921936,39.32435607910156,94.28053283691406,5.88623046875
263057,0.00482177734375,0.9830169677734376,0.0487213134765625,-1.013485670089722,-0.5328269004821777,-0.8669782280921936,39.32435607910156,94.28053283691406,5.88623046875
263058,0.09869384765625,0.97723388671875,0.0258636474609375,-0.7959796786308289,-0.1643178313970566,-0.7039336562156677,38.9949951171875,93.87222290039062,6.129623413085938
263059,0.122222900390625,0.812591552734375,0.00128173828125,-0.6284351944923401,0.3322450518608093,-0.390994668006897,38.66581726074219,93.43765258789062,6.486831665039062
263060,-0.0131988525390625,0.248321533203125,-0.244720458984375,-0.3412041962146759,0.9128269553184508,-0.3376214504241943,38.11302185058594,92.8466339111328,7.251373291015625
263061,-0.0089263916015625,0.073760986328125,-0.4141845703125,0.0832749158143997,0.1292296200990677,-0.3335020542144775,37.83216857910156,92.7871551513672,7.5406494140625
263062,-0.0089263916015625,0.073760986328125,-0.4141845703125,0.0832749158143997,0.1292296200990677,-0.3335020542144775,37.83216857910156,92.7871551513672,7.5406494140625
263063,-0.0045166015625,-0.0720977783203125,-0.5063629150390625,0.3261344432830811,-0.3828206062316895,-0.294195145368576,37.37069702148438,92.53849792480467,7.952590942382812
263064,-0.01202392578125,-0.038116455078125,-0.4067230224609375,0.4935495257377625,-0.5836479663848877,-0.3014876842498779,37.16598510742188,92.41213989257812,7.956222534179688
263065,-0.01202392578125,-0.038116455078125,-0.4067230224609375,0.4935495257377625,-0.5836479663848877,-0.3014876842498779,37.16598510742188,92.41213989257812,7.956222534179688
263066,-0.021759033203125,0.0211029052734375,-0.306549072265625,0.5524408221244812,-0.4887457191944122,-0.37351393699646,37.04911804199219,92.59317016601562,7.84149169921875
263067,-0.0446014404296875,0.1450347900390625,-0.31787109375,0.3433954417705536,0.0154777597635984,-0.5425199866294861,36.60411071777344,92.6772918701172,7.6220703125
263068,-0.084320068359375,0.2162322998046875,-0.3977508544921875,0.1716412603855133,0.1931875646114349,-0.5927733182907104,36.26174926757812,92.7361297607422,7.416473388671875
263069,-0.084320068359375,0.2162322998046875,-0.3977508544921875,0.1716412603855133,0.1931875646114349,-0.5927733182907104,36.26174926757812,92.7361297607422,7.416473388671875
263070,-0.1932220458984375,0.3461456298828125,-0.47894287109375,-0.0739194974303245,0.3260044753551483,-0.4300927817821503,35.47134399414062,92.78756713867188,7.495681762695312
263071,-0.2287445068359375,0.4488525390625,-0.4850311279296875,-0.0045944852754473,0.2827587425708771,-0.265578418970108,35.02679443359375,92.63414001464844,7.492385864257812
263072,-0.2598114013671875,0.5841827392578125,-0.501068115234375,0.1812859028577805,0.2158502638339996,-0.1154259294271469,34.71835327148438,92.55990600585938,7.443862915039062
263073,-0.2598114013671875,0.5841827392578125,-0.501068115234375,0.1812859028577805,0.2158502638339996,-0.1154259294271469,34.71835327148438,92.55990600585938,7.443862915039062
263074,-0.292877197265625,0.738739013671875,-0.4820709228515625,0.3910729587078094,0.1730546057224274,0.0195499993860721,34.53854370117188,92.52352905273438,7.569656372070312
263075,-0.3916168212890625,1.084136962890625,-0.4591217041015625,0.4142957031726837,0.5467922687530518,0.3102220594882965,34.21720886230469,92.67298889160156,7.357070922851562
263076,-0.4223785400390625,1.34332275390625,-0.356781005859375,0.1951298117637634,0.8447275161743164,0.3602314293384552,34.15760803222656,92.72048950195312,7.405563354492188
263077,-0.4223785400390625,1.34332275390625,-0.356781005859375,0.1951298117637634,0.8447275161743164,0.3602314293384552,34.15760803222656,92.72048950195312,7.405563354492188
263078,-0.447265625,1.790481567382812,0.0352630615234375,-0.0327835120260715,1.698936462402344,-0.1771241724491119,34.13967895507812,92.71849060058594,7.253250122070312
263079,-0.550445556640625,2.014007568359375,-0.208770751953125,0.2562781274318695,1.570063710212708,-0.6142075061798096,33.92716979980469,92.66506958007812,6.8865966796875
263080,-0.7200927734375,2.323883056640625,-0.4746856689453125,0.7008640766143799,0.7613412737846375,-1.12901246547699,33.53813171386719,92.63214111328124,6.645095825195312
263081,-0.7200927734375,2.323883056640625,-0.4746856689453125,0.7008640766143799,0.7613412737846375,-1.12901246547699,33.53813171386719,92.63214111328124,6.645095825195312
263082,-1.873138427734375,2.40130615234375,-0.35064697265625,1.069911956787109,0.7923554182052612,-1.418516278266907,32.16978454589844,92.75788879394533,5.678054809570312
263083,-2.520034790039062,2.21112060546875,-0.6226806640625,0.7563713192939758,2.366710662841797,-0.2742131650447845,31.18313598632812,92.95870971679688,4.883255004882812
263084,-2.111740112304688,2.303024291992188,-0.64739990234375,0.9368545413017272,2.301930665969849,-0.1007559075951576,30.28779602050781,93.07582092285156,4.004745483398438
263085,-2.111740112304688,2.303024291992188,-0.64739990234375,0.9368545413017272,2.301930665969849,-0.1007559075951576,30.28779602050781,93.07582092285156,4.004745483398438
263086,-1.773422241210938,1.956787109375,-0.2215576171875,1.104873895645142,1.66466236114502,-0.2552250921726227,29.73460388183594,93.37648010253906,3.181488037109375
263087,-1.661483764648438,1.463973999023438,-0.3697357177734375,0.8535804152488708,1.626220941543579,-0.1430335938930511,29.03778076171875,93.84512329101562,1.553146362304688
263088,-1.59039306640625,1.43792724609375,-0.508636474609375,0.4088663160800934,1.467453360557556,-0.0062435148283839,28.76388549804688,94.07443237304688,0.7947235107421875
263089,-1.44879150390625,1.4384765625,-0.3724365234375,0.0460258163511753,1.373265624046326,0.1648712456226349,28.49264526367188,94.10147094726562,0.011138916015625
263090,-1.44879150390625,1.4384765625,-0.3724365234375,0.0460258163511753,1.373265624046326,0.1648712456226349,28.49264526367188,94.10147094726562,0.011138916015625
263091,-1.077911376953125,1.564041137695312,0.0240936279296875,-0.0932423323392868,1.497033357620239,0.5543844103813171,28.21458435058594,93.99722290039062,-0.8708953857421875
263092,-0.8645172119140625,1.5650634765625,0.0756072998046875,0.0262885950505733,1.447378277778625,0.7573508024215698,28.29249572753906,93.9833526611328,-1.043487548828125
263093,-0.6182708740234375,1.505279541015625,0.0743408203125,0.3155518174171448,1.434568166732788,0.944220006465912,28.33634948730469,93.96882629394533,-1.23388671875
263094,-0.6182708740234375,1.505279541015625,0.0743408203125,0.3155518174171448,1.434568166732788,0.944220006465912,28.33634948730469,93.96882629394533,-1.23388671875
263095,-0.2172088623046875,1.415054321289062,-0.0684967041015625,0.7547070980072021,0.9639239311218262,1.03264331817627,28.60394287109375,94.16952514648438,-2.049346923828125
263096,-0.0967864990234375,1.372756958007812,-0.0486297607421875,0.8347291946411133,0.53132164478302,1.042182564735413,28.88090515136719,94.3761749267578,-2.698379516601562
263097,-0.0967864990234375,1.372756958007812,-0.0486297607421875,0.8347291946411133,0.53132164478302,1.042182564735413,28.88090515136719,94.3761749267578,-2.698379516601562
263098,-0.0191650390625,1.35101318359375,0.0038604736328125,0.8066715002059937,0.1291811615228653,0.8648905754089355,29.10441589355469,94.52804565429688,-3.25628662109375
263099,-0.012969970703125,1.387924194335938,0.050079345703125,0.7553984522819519,0.2258975803852081,0.6338709592819214,29.66851806640625,95.13890075683594,-3.870925903320312
263100,-0.08599853515625,1.231246948242188,0.0284881591796875,0.7335312366485596,0.3754039704799652,0.4198766350746155,30.03849792480469,95.4408721923828,-4.252975463867188
263101,-0.232666015625,0.9783782958984376,0.0583648681640625,0.7481234669685364,0.5835627913475037,0.458916187286377,30.34861755371094,95.54881286621094,-4.639923095703125
263102,-0.3383026123046875,0.8553466796875,0.042266845703125,0.7397278547286987,0.7988300919532776,0.670670747756958,30.65467834472656,95.66041564941406,-5.02081298828125
263103,-0.382598876953125,0.7595977783203125,0.0197906494140625,0.7397278547286987,0.7988300919532776,0.670670747756958,30.88322448730469,95.6842041015625,-5.419708251953125
263104,-0.3815765380859375,0.643035888671875,0.03662109375,0.6673665642738342,0.8731676936149597,0.7106307148933411,31.16767883300781,95.84336853027344,-5.873306274414062
263105,-0.3577423095703125,0.497650146484375,0.0009765625,0.5076006054878235,0.935017228126526,0.7333663702011108,31.45309448242188,95.9654541015625,-6.333694458007812
263106,-0.3577423095703125,0.497650146484375,0.0009765625,0.5076006054878235,0.935017228126526,0.7333663702011108,31.45309448242188,95.9654541015625,-6.333694458007812
263107,-0.315673828125,0.2458343505859375,-0.06292724609375,0.0878278538584709,0.8773919939994812,0.6991426348686218,32.13131713867188,96.31452941894533,-7.15740966796875
263108,-0.30419921875,0.18194580078125,-0.0574951171875,-0.0839966312050819,0.8227806687355042,0.6005982160568237,32.44258117675781,96.42283630371094,-7.343185424804688
263109,-0.30419921875,0.18194580078125,-0.0574951171875,-0.0839966312050819,0.8227806687355042,0.6005982160568237,32.44258117675781,96.42283630371094,-7.343185424804688
263110,-0.2933807373046875,0.1617584228515625,-0.0040740966796875,-0.3911038339138031,0.9046441316604614,0.3260377645492554,32.792724609375,96.52644348144533,-7.527877807617188
263111,-0.2732391357421875,0.1759033203125,0.0925750732421875,-0.5482218265533447,1.027677655220032,0.2346617728471756,33.40733337402344,96.75775146484376,-7.646133422851562
263112,-0.28741455078125,0.2267303466796875,0.1418304443359375,-0.7303391695022583,1.178242683410645,0.1556905210018158,33.61134338378906,96.6923370361328,-7.58709716796875
263113,-0.28741455078125,0.2267303466796875,0.1418304443359375,-0.7303391695022583,1.178242683410645,0.1556905210018158,33.61134338378906,96.6923370361328,-7.58709716796875
263114,-0.340911865234375,0.29583740234375,0.226654052734375,-0.9510494470596312,1.401006698608398,0.0457371287047863,33.7296142578125,96.58578491210938,-7.497711181640625
263115,-0.508148193359375,0.4630584716796875,0.3025360107421875,-1.448052763938904,1.815260410308838,-0.318254679441452,33.94784545898438,96.50416564941406,-7.128921508789062
263116,-0.5999603271484375,0.5168304443359375,0.2447357177734375,-1.644283294677734,1.753849267959595,-0.4994588196277618,33.82295227050781,96.41725158691406,-6.839645385742188
263117,-0.5999603271484375,0.5168304443359375,0.2447357177734375,-1.644283294677734,1.753849267959595,-0.4994588196277618,33.82295227050781,96.41725158691406,-6.839645385742188
263118,-0.6945953369140625,0.5519256591796875,0.173828125,-1.757918834686279,1.428582429885864,-0.5971017479896545,33.68757629394531,96.34066772460938,-6.593399047851562
263119,-0.794891357421875,0.7620086669921875,0.35137939453125,-1.77392041683197,0.8168322443962097,-0.503230631351471,32.78117370605469,96.01242065429688,-5.668304443359375
263120,-0.7621917724609375,0.9061431884765624,0.4353485107421875,-1.694345712661743,0.8454442024230957,-0.4448432326316833,32.15554809570312,95.89973449707033,-5.05584716796875
263121,-0.7621917724609375,0.9061431884765624,0.4353485107421875,-1.694345712661743,0.8454442024230957,-0.4448432326316833,32.15554809570312,95.89973449707033,-5.05584716796875
263122,-0.7086181640625,0.990692138671875,0.414581298828125,-1.577181458473206,0.8756234049797058,-0.4411201477050781,31.57466125488281,95.81309509277344,-4.550689697265625
263123,-0.4980010986328125,0.927093505859375,0.3694305419921875,-1.445876717567444,0.7758491039276123,-0.6035940051078796,30.47056579589844,95.53424072265624,-3.2919921875
263124,-0.4119720458984375,0.812957763671875,0.3494415283203125,-1.415497303009033,0.6064755320549011,-0.6868728995323181,29.908203125,95.46351623535156,-2.861053466796875
263125,-0.36151123046875,0.688812255859375,0.2984619140625,-1.425774931907654,0.3595530986785889,-0.7649421691894531,29.525390625,95.25180053710938,-2.22442626953125
263126,-0.36151123046875,0.688812255859375,0.2984619140625,-1.425774931907654,0.3595530986785889,-0.7649421691894531,29.525390625,95.25180053710938,-2.22442626953125
263127,-0.2727508544921875,0.4439849853515625,0.184051513671875,-1.4274742603302,-0.482858270406723,-0.9236037135124208,28.75953674316406,94.6956787109375,-1.409637451171875
263128,-0.220428466796875,0.3632659912109375,0.1562957763671875,-1.377730488777161,-0.9430429339408876,-0.9475082159042358,28.51026916503906,94.35049438476562,-0.8063812255859375
263129,-0.220428466796875,0.3632659912109375,0.1562957763671875,-1.377730488777161,-0.9430429339408876,-0.9475082159042358,28.51026916503906,94.35049438476562,-0.8063812255859375
263130,-0.1377716064453125,0.2596282958984375,0.1450958251953125,-1.268289685249329,-1.422132253646851,-0.8600108623504639,28.09281921386719,93.57606506347656,0.5283966064453125
263131,-0.1231689453125,0.1995086669921875,0.1170654296875,-1.244787573814392,-1.3585125207901,-0.7869046926498413,27.97479248046875,93.14340209960938,1.207473754882812
263132,-0.1146240234375,0.1775360107421875,0.0661468505859375,-1.215357780456543,-1.191445827484131,-0.7348305583000183,27.867431640625,92.71554565429688,2.17620849609375
263133,-0.1146240234375,0.1775360107421875,0.0661468505859375,-1.215357780456543,-1.191445827484131,-0.7348305583000183,27.867431640625,92.71554565429688,2.17620849609375
263134,-0.113037109375,0.1879730224609375,-0.3255767822265625,-0.3975843787193298,-1.487531781196594,-0.8160184025764465,27.81097412109375,91.86123657226562,3.760055541992188
263135,-0.1060791015625,0.22906494140625,-0.6739044189453125,-0.3975843787193298,-1.487531781196594,-0.8160184025764465,27.681396484375,91.51724243164062,4.300125122070312
263136,-0.1474151611328125,0.305877685546875,-0.432861328125,0.156907856464386,-1.662896990776062,-0.8606143593788147,27.53196716308594,91.13131713867188,5.000991821289062
263137,-0.2099761962890625,0.33197021484375,-0.0821533203125,0.3453227877616882,-0.9831187129020692,-0.8737778067588806,27.29618835449219,90.82579040527344,5.503707885742188
263138,-0.2099761962890625,0.33197021484375,-0.0821533203125,0.3453227877616882,-0.9831187129020692,-0.8737778067588806,27.29618835449219,90.82579040527344,5.503707885742188
263139,-0.218475341796875,0.3436431884765625,-0.2147064208984375,0.0845516324043273,0.8758998513221741,-0.6903741955757141,26.79173278808594,90.27058410644533,5.900161743164062
263140,-0.2125396728515625,0.30865478515625,-0.4252471923828125,-0.0580020509660244,1.111776828765869,-0.6066555976867676,26.32273864746094,90.09463500976562,5.98992919921875
263141,-0.2125396728515625,0.30865478515625,-0.4252471923828125,-0.0580020509660244,1.111776828765869,-0.6066555976867676,26.32273864746094,90.09463500976562,5.98992919921875
263142,-0.1855926513671875,0.2687225341796875,-0.5219573974609375,-0.1556804031133652,0.8829848766326904,-0.4962305426597595,25.73297119140625,89.9505615234375,6.00799560546875
263143,-0.1590728759765625,0.2805938720703125,-0.5034942626953125,-0.2767106890678406,0.1088868007063866,-0.1761928647756577,25.18458557128906,89.84492492675781,5.922164916992188
263144,-0.20220947265625,0.516693115234375,-0.5708465576171875,-0.1843037903308868,-0.2455027103424072,-0.0204791761934757,24.6390380859375,89.26164245605469,6.084121704101562
263145,-0.20220947265625,0.516693115234375,-0.5708465576171875,-0.1843037903308868,-0.2455027103424072,-0.0204791761934757,24.6390380859375,89.26164245605469,6.084121704101562
263146,-0.3229217529296875,1.170639038085938,-0.80438232421875,0.3548981845378876,-0.2397100627422333,0.2747223675251007,24.37025451660156,88.93740844726562,6.636642456054688
263147,-0.3148956298828125,1.582611083984375,-0.6617431640625,0.3115720152854919,1.178483605384827,0.548949122428894,24.39488220214844,88.67893981933594,6.9998779296875
263148,-0.2846832275390625,1.891952514648438,-0.73394775390625,0.1902050971984863,1.9858158826828,0.6716998219490051,24.38356018066406,88.54975891113281,7.1910400390625
263149,-0.3462371826171875,2.164596557617188,-0.8629302978515625,0.8096728920936584,0.5832434892654419,-0.2793179154396057,24.54391479492188,88.52241516113281,7.066619873046875
263150,-0.3462371826171875,2.164596557617188,-0.8629302978515625,0.8096728920936584,0.5832434892654419,-0.2793179154396057,24.54391479492188,88.52241516113281,7.066619873046875
263151,-0.58721923828125,2.248199462890625,-0.6741790771484375,1.413759827613831,0.1353453099727631,-0.5872448682785034,24.53128051757812,88.49711608886719,6.200927734375
263152,-0.8536529541015625,2.119781494140625,-0.743865966796875,1.728549718856812,0.2761974930763245,-0.4868636727333069,24.42185974121094,88.46585083007812,5.763107299804688
263153,-1.133331298828125,1.811813354492188,-0.877838134765625,1.667253375053406,0.8538842797279358,-0.1038100197911263,24.07759094238281,88.73086547851562,5.303939819335938
263154,-1.133331298828125,1.811813354492188,-0.877838134765625,1.667253375053406,0.8538842797279358,-0.1038100197911263,24.07759094238281,88.73086547851562,5.303939819335938
263155,-0.8614349365234375,1.565475463867188,-0.91485595703125,1.496501564979553,1.186098456382751,-0.0545175708830356,23.33158874511719,89.49557495117188,3.84490966796875
263156,-0.9714813232421876,1.5797119140625,-0.913055419921875,1.310490727424622,0.9347101449966432,0.0075806877575814,22.91696166992188,90.02700805664062,3.025131225585938
263157,-0.9714813232421876,1.5797119140625,-0.913055419921875,1.310490727424622,0.9347101449966432,0.0075806877575814,22.91696166992188,90.02700805664062,3.025131225585938
263158,-1.13812255859375,1.961990356445312,-0.6260528564453125,0.5091926455497742,0.8640812635421753,0.2009885013103485,22.34523010253906,90.77130126953124,0.8827972412109375
263159,-1.254791259765625,2.211441040039062,-0.28216552734375,0.1940736025571823,1.039122581481934,0.2104192823171616,22.24076843261719,90.98049926757812,0.230621337890625
263160,-1.490753173828125,2.43902587890625,0.0862579345703125,0.0963025689125061,1.398899674415588,0.2249324470758438,22.18057250976562,91.32095336914062,-0.3753814697265625
263161,-1.490753173828125,2.43902587890625,0.0862579345703125,0.0963025689125061,1.398899674415588,0.2249324470758438,22.18057250976562,91.32095336914062,-0.3753814697265625
263162,-1.763687133789062,2.573333740234375,0.306976318359375,0.1595302671194077,1.833331823348999,0.2593277096748352,22.03167724609375,91.6710205078125,-0.9445343017578124
263163,-1.866226196289062,2.4239501953125,0.334808349609375,0.4196185767650604,1.868593096733093,0.4817943274974823,21.959228515625,91.79629516601562,-1.396682739257812
263164,-1.210006713867188,1.934463500976562,0.393463134765625,1.065097451210022,1.66032350063324,0.7359358072280884,22.09591674804688,92.03688049316406,-2.866867065429688
263165,-1.210006713867188,1.934463500976562,0.393463134765625,1.065097451210022,1.66032350063324,0.7359358072280884,22.09591674804688,92.03688049316406,-2.866867065429688
263166,-0.6712188720703125,1.359893798828125,0.4584808349609375,1.228227019309998,1.470494270324707,0.6375301480293274,22.56077575683594,92.28900146484376,-4.6455078125
263167,-0.492279052734375,1.194869995117188,0.5327301025390625,1.194216251373291,1.573690891265869,0.697868287563324,22.77023315429688,92.51905822753906,-5.828216552734375
263168,-0.35552978515625,1.119338989257812,0.488250732421875,1.133547306060791,1.664435744285583,0.7067340016365051,23.06927490234375,92.73728942871094,-6.723678588867188
263169,-0.2860565185546875,1.118896484375,0.4361724853515625,0.8881956338882446,1.243142604827881,0.4635697901248932,23.36967468261719,92.87660217285156,-7.69732666015625
263170,-0.2860565185546875,1.118896484375,0.4361724853515625,0.8881956338882446,1.243142604827881,0.4635697901248932,23.36967468261719,92.87660217285156,-7.69732666015625
263171,-0.250396728515625,1.05303955078125,0.413116455078125,0.6796003580093384,0.7669389843940735,0.2890320718288422,24.11448669433594,93.22149658203124,-9.409622192382812
263172,-0.2678680419921875,0.883758544921875,0.4561309814453125,0.4285082221031189,0.3290865421295166,0.2021839916706085,24.40043640136719,93.20272827148438,-10.14019775390625
263173,-0.2678680419921875,0.883758544921875,0.4561309814453125,0.4285082221031189,0.3290865421295166,0.2021839916706085,24.40043640136719,93.20272827148438,-10.14019775390625
263174,-0.311737060546875,0.717254638671875,0.5240936279296875,0.2081047296524048,0.2231563925743103,0.2108049094676971,24.75595092773438,93.18695068359376,-10.58592224121094
263175,-0.3721923828125,0.49493408203125,0.4076690673828125,-0.1063669174909592,0.6066736578941345,0.3505590856075287,25.07728576660156,93.36166381835938,-11.15385437011719
263176,-0.3955535888671875,0.4124908447265625,0.2690582275390625,-0.2812100946903229,0.6957830786705017,0.4221935868263245,25.17347717285156,93.44110107421876,-11.298583984375
263177,-0.3955535888671875,0.4124908447265625,0.2690582275390625,-0.2812100946903229,0.6957830786705017,0.4221935868263245,25.17347717285156,93.44110107421876,-11.298583984375
263178,-0.38555908203125,0.342742919921875,0.1658477783203125,-0.4796571433544159,0.6202102899551392,0.4779460728168488,25.37648010253906,93.40469360351562,-11.30601501464844
263179,-0.2765960693359375,0.2425537109375,0.1366119384765625,-0.7017666697502136,0.4262277483940125,0.4925599098205566,25.75425720214844,93.73345947265624,-11.3052978515625
263180,-0.218780517578125,0.19329833984375,0.1484222412109375,-0.6982030868530273,0.4668926298618317,0.458696722984314,26.07411193847656,93.72819519042967,-11.26593017578125
263181,-0.218780517578125,0.19329833984375,0.1484222412109375,-0.6982030868530273,0.4668926298618317,0.458696722984314,26.07411193847656,93.72819519042967,-11.26593017578125
263182,-0.1266937255859375,0.0721435546875,0.1442718505859375,-0.8550033569335938,0.6112090349197388,0.3698049485683441,26.67433166503906,93.64494323730467,-10.82984924316406
263183,-0.083099365234375,0.0141143798828125,0.15386962890625,-0.8550033569335938,0.6112090349197388,0.3698049485683441,26.95889282226562,93.70709228515624,-10.67356872558594
263184,-0.0406341552734375,-0.020172119140625,0.1624603271484375,-1.039894104003906,0.6964909434318542,0.3022570610046387,27.21080017089844,93.67576599121094,-10.3148193359375
263185,-0.007415771484375,-0.027435302734375,0.154205322265625,-1.275362253189087,0.7425590753555298,0.2124866992235184,27.47892761230469,93.66998291015624,-10.06329345703125
263186,-0.007415771484375,-0.027435302734375,0.154205322265625,-1.275362253189087,0.7425590753555298,0.2124866992235184,27.47892761230469,93.66998291015624,-10.06329345703125
263187,-0.0744476318359375,0.0442352294921875,0.1129608154296875,-1.787087321281433,0.5931416153907776,-0.1890812367200851,27.73190307617188,93.53694152832033,-9.217376708984377
263188,-0.1920013427734375,0.1005706787109375,0.0994873046875,-2.042130708694458,0.3819103538990021,-0.5253726840019226,27.66496276855469,93.5870361328125,-8.688552856445312
263189,-0.1920013427734375,0.1005706787109375,0.0994873046875,-2.042130708694458,0.3819103538990021,-0.5253726840019226,27.66496276855469,93.5870361328125,-8.688552856445312
263190,-0.436553955078125,0.3061065673828125,0.2349090576171875,-2.250178813934326,0.1754482537508011,-1.041473865509033,26.75384521484375,93.11848449707033,-6.498672485351562
263191,-0.5087890625,0.47784423828125,0.2777862548828125,-2.245327949523926,0.3308141529560089,-1.263254523277283,26.18142700195312,92.77915954589844,-5.569061279296875
263192,-0.541778564453125,0.63922119140625,0.2663421630859375,-2.076910972595215,0.5488783121109009,-1.3858243227005,25.54385375976562,92.4247589111328,-4.820663452148438
263193,-0.541778564453125,0.63922119140625,0.2663421630859375,-2.076910972595215,0.5488783121109009,-1.3858243227005,25.54385375976562,92.4247589111328,-4.820663452148438
263194,-0.5850677490234375,0.852813720703125,0.3006134033203125,-1.752848625183105,0.8292734622955322,-1.413386225700378,24.6868896484375,91.96832275390624,-4.09869384765625
263195,-0.6318359375,1.378463745117188,0.076690673828125,-1.0745929479599,1.22455096244812,-1.658591628074646,23.04731750488281,90.80596923828124,-3.11846923828125
263196,-0.5718536376953125,1.368698120117188,-0.0252685546875,-0.8349851369857788,0.7395180463790894,-1.569507837295532,22.2821044921875,90.13279724121094,-2.978363037109375
263197,-0.5718536376953125,1.368698120117188,-0.0252685546875,-0.8349851369857788,0.7395180463790894,-1.569507837295532,22.2821044921875,90.13279724121094,-2.978363037109375
263198,-0.3508758544921875,1.116668701171875,-0.0738677978515625,-1.121013164520264,-0.6238526701927185,-0.9418649673461914,21.06829833984375,88.94989013671875,-2.67303466796875
263199,-0.2578277587890625,0.743408203125,-0.016632080078125,-1.071088552474976,-0.8188405632972717,-0.839746356010437,20.62680053710938,88.4005126953125,-2.25079345703125
263200,-0.244537353515625,0.405181884765625,0.0294036865234375,-0.8765957355499268,-0.4797223806381226,-0.7912009358406067,20.19203186035156,88.0089111328125,-1.6268310546875
263201,-0.244537353515625,0.405181884765625,0.0294036865234375,-0.8765957355499268,-0.4797223806381226,-0.7912009358406067,20.19203186035156,88.0089111328125,-1.6268310546875
263202,-0.19854736328125,0.088897705078125,-0.1086273193359375,-0.4847794771194458,0.2126976251602173,-0.7009668946266174,19.49176025390625,87.51483154296875,-0.7334747314453125
263203,-0.2066192626953125,0.0456695556640625,-0.1891326904296875,-0.3386249244213104,0.2235944718122482,-0.649220883846283,19.15226745605469,87.27735900878906,-0.39898681640625
263204,-0.2375335693359375,0.0671844482421875,-0.238433837890625,-0.1641098409891129,0.1108910962939262,-0.6166397929191589,18.83207702636719,87.06428527832031,-0.2400360107421875
263205,-0.2766876220703125,0.138092041015625,-0.25860595703125,0.03721634298563,0.0264601036906242,-0.6143568754196167,18.65196228027344,86.97415161132812,-0.18792724609375
263206,-0.2766876220703125,0.138092041015625,-0.25860595703125,0.03721634298563,0.0264601036906242,-0.6143568754196167,18.65196228027344,86.97415161132812,-0.18792724609375
263207,-0.2894287109375,0.295379638671875,-0.27752685546875,0.5795453786849976,0.1384473592042923,-0.6919568777084351,18.01156616210938,86.65031433105469,-0.1855621337890625
263208,-0.2641754150390625,0.3220672607421875,-0.3024139404296875,0.9014371633529664,0.3694302439689636,-0.683134913444519,17.64384460449219,86.47050476074219,-0.20306396484375
263209,-0.2641754150390625,0.3220672607421875,-0.3024139404296875,0.9014371633529664,0.3694302439689636,-0.683134913444519,17.64384460449219,86.47050476074219,-0.20306396484375
263210,-0.23388671875,0.341033935546875,-0.3475494384765625,1.517905712127686,0.8862038850784302,-0.4263494610786438,17.24464416503906,86.40289306640625,-0.482513427734375
263211,-0.19744873046875,0.3868408203125,-0.395233154296875,1.517905712127686,0.8862038850784302,-0.4263494610786438,16.81866455078125,86.37882995605469,-0.8739471435546875
263212,-0.055511474609375,0.4405517578125,-0.51708984375,1.499137878417969,1.215073585510254,0.0937752276659011,16.13970947265625,86.42185974121094,-2.098175048828125
263213,-0.0014495849609375,0.5447540283203125,-0.8255767822265625,1.300124049186707,0.673348069190979,0.3022136688232422,15.94303894042969,86.55870056152344,-2.880523681640625
263214,-0.0014495849609375,0.5447540283203125,-0.8255767822265625,1.300124049186707,0.673348069190979,0.3022136688232422,15.94303894042969,86.55870056152344,-2.880523681640625
263215,0.0113983154296875,0.962066650390625,-1.068099975585938,0.6004027128219604,-0.6406910419464111,0.3795023262500763,15.86416625976562,86.98638916015625,-3.848541259765625
263216,-0.082427978515625,1.232681274414062,-1.083602905273438,0.2383023202419281,-0.7105692028999329,0.2562640011310577,15.96109008789062,87.06979370117188,-3.949691772460938
263217,-0.082427978515625,1.232681274414062,-1.083602905273438,0.2383023202419281,-0.7105692028999329,0.2562640011310577,15.96109008789062,87.06979370117188,-3.949691772460938
263218,-0.4203948974609375,1.685714721679688,-0.6446380615234375,0.2734725475311279,0.3134854733943939,0.0699838772416114,16.22232055664062,87.10867309570312,-3.467437744140625
263219,-0.5805511474609375,1.90289306640625,-0.591217041015625,0.4640688598155975,0.5844602584838867,-0.1849197894334793,16.15681457519531,87.08070373535156,-3.341781616210938
263220,-0.873779296875,2.114944458007812,-0.75048828125,0.6390108466148376,0.4050169885158539,-0.633386492729187,16.12843322753906,87.22479248046875,-3.567276000976562
263221,-0.873779296875,2.114944458007812,-0.75048828125,0.6390108466148376,0.4050169885158539,-0.633386492729187,16.12843322753906,87.22479248046875,-3.567276000976562
263222,-1.625808715820312,2.010787963867188,-0.7267608642578125,0.5387170314788818,0.7332028746604919,-1.046750664710999,15.49411010742188,87.15921020507812,-4.394607543945312
263223,-1.855072021484375,1.8599853515625,-0.730560302734375,0.4661104381084442,1.14731240272522,-0.7403966188430786,14.95060729980469,87.05064392089844,-5.013565063476562
263224,-1.71990966796875,1.864364624023438,-0.7019500732421875,0.5534639954566956,1.164346575737,-0.5402480363845825,14.52012634277344,86.87986755371094,-5.624664306640625
263225,-1.478988647460938,1.8988037109375,-0.655670166015625,0.688529372215271,0.7931585907936096,-0.3148887157440186,14.15153503417969,86.86676025390625,-6.276336669921875
263226,-1.289382934570312,1.935028076171875,-0.7242279052734375,0.7562541365623474,0.5062309503555298,0.0697947964072227,13.85633850097656,86.82835388183594,-6.98455810546875
263227,-1.110382080078125,1.90582275390625,-0.9300994873046876,0.6112892031669617,0.3499076664447784,0.5551812052726746,13.77439880371094,86.68466186523438,-7.488265991210938
263228,-0.950714111328125,1.817459106445312,-0.9076080322265624,0.3406087160110474,0.3642421364784241,1.017279863357544,13.86924743652344,86.95352172851562,-8.011856079101562
263229,-0.950714111328125,1.817459106445312,-0.9076080322265624,0.3406087160110474,0.3642421364784241,1.017279863357544,13.86924743652344,86.95352172851562,-8.011856079101562
263230,-0.6765594482421875,1.637191772460938,-0.40618896484375,0.3285704255104065,0.9243845343589784,1.456237554550171,14.14666748046875,87.64437866210938,-8.8133544921875
263231,-0.6360321044921875,1.577056884765625,-0.2886810302734375,0.4075848162174225,1.162084460258484,1.399538516998291,14.50564575195312,88.12994384765625,-9.230270385742188
263232,-0.646728515625,1.502288818359375,-0.204345703125,0.30645552277565,1.192954182624817,1.250326991081238,14.97015380859375,88.61653137207031,-9.84771728515625
263233,-0.6278533935546875,1.4840087890625,-0.0884552001953125,0.0167211890220642,1.143329977989197,1.00316321849823,15.44932556152344,89.0826416015625,-10.60176086425781
263234,-0.6278533935546875,1.4840087890625,-0.0884552001953125,0.0167211890220642,1.143329977989197,1.00316321849823,15.44932556152344,89.0826416015625,-10.60176086425781
263235,-0.5135345458984375,1.658493041992188,0.2401275634765625,-0.2577236890792847,0.9688308238983154,0.5279229283332825,16.50332641601562,89.72401428222656,-11.63296508789062
263236,-0.4507293701171875,1.689300537109375,0.313629150390625,0.4606709480285645,0.5000628232955933,0.6109925508499146,16.91761779785156,89.85870361328125,-11.98135375976562
263237,-0.4507293701171875,1.689300537109375,0.313629150390625,0.4606709480285645,0.5000628232955933,0.6109925508499146,16.91761779785156,89.85870361328125,-11.98135375976562
263238,-0.1954803466796875,1.270645141601562,0.33233642578125,1.03777289390564,0.1567645817995071,0.6594082713127136,17.69441223144531,90.12001037597656,-12.57533264160156
263239,-0.17913818359375,1.001220703125,0.3330841064453125,1.03777289390564,0.1567645817995071,0.6594082713127136,18.09190368652344,90.2175750732422,-12.87736511230469
263240,-0.20318603515625,0.80291748046875,0.276214599609375,0.9164627194404602,0.1665216088294983,0.7509624361991882,18.45217895507812,90.32989501953124,-13.31356811523438
263241,-0.20318603515625,0.80291748046875,0.276214599609375,0.9164627194404602,0.1665216088294983,0.7509624361991882,18.45217895507812,90.32989501953124,-13.31356811523438
263242,-0.408782958984375,0.574188232421875,0.198211669921875,0.2871691882610321,0.15931536257267,0.5482756495475769,19.27227783203125,90.5655517578125,-14.19046020507812
263243,-0.562957763671875,0.5410919189453125,0.2440948486328125,-0.0996171385049819,0.284189909696579,0.4286727905273438,19.61782836914062,90.77424621582033,-14.5267333984375
263244,-0.6740875244140625,0.522796630859375,0.2361907958984375,-0.484500914812088,0.4555379748344421,0.3500370979309082,19.96022033691406,90.88314819335938,-14.58570861816406
263245,-0.730194091796875,0.46099853515625,0.157196044921875,-0.951751172542572,0.40388223528862,0.331964373588562,20.12870788574219,90.97663879394533,-14.69883728027344
263246,-0.730194091796875,0.46099853515625,0.157196044921875,-0.951751172542572,0.40388223528862,0.331964373588562,20.12870788574219,90.97663879394533,-14.69883728027344
263247,-0.55755615234375,0.3647308349609375,0.0462188720703125,-0.9574042558670044,0.2800335288047791,0.3467086851596832,20.48185729980469,91.2404327392578,-14.45735168457031
263248,-0.364471435546875,0.4020233154296875,-0.0188140869140625,-0.866655707359314,0.1835248172283173,0.3003813922405243,20.7137451171875,91.26165771484376,-14.13908386230469
263249,-0.364471435546875,0.4020233154296875,-0.0188140869140625,-0.866655707359314,0.1835248172283173,0.3003813922405243,20.7137451171875,91.26165771484376,-14.13908386230469
263250,-0.225738525390625,0.4232330322265625,-0.027618408203125,-0.7489565014839172,0.1976733952760696,0.264093428850174,20.94522094726562,91.29078674316406,-13.86294555664062
263251,-0.02587890625,0.455596923828125,0.041839599609375,-0.5154929161071777,0.5776180624961853,0.1673362702131271,21.15029907226562,91.32437133789062,-13.18632507324219
263252,0.002593994140625,0.4506072998046875,0.0606536865234375,-0.4380527138710022,0.7695081233978271,0.1359969824552536,21.24339294433594,91.36061096191406,-13.03396606445312
263253,0.0088958740234375,0.430877685546875,0.0559539794921875,-0.4173833727836609,0.8172868490219116,0.1219898238778114,21.3681640625,91.3434600830078,-12.93580627441406
263254,0.0088958740234375,0.430877685546875,0.0559539794921875,-0.4173833727836609,0.8172868490219116,0.1219898238778114,21.3681640625,91.3434600830078,-12.93580627441406
263255,-0.0316925048828125,0.365570068359375,0.090484619140625,-0.5986945629119873,0.5331579446792603,0.0844775959849357,21.46501159667969,91.2137451171875,-12.82389831542969
263256,-0.0961761474609375,0.3626251220703125,0.10540771484375,-0.7788742184638977,0.3811026215553284,-0.0006418218254111,21.45529174804688,91.21926879882812,-12.68177795410156
263257,-0.0961761474609375,0.3626251220703125,0.10540771484375,-0.7788742184638977,0.3811026215553284,-0.0006418218254111,21.45529174804688,91.21926879882812,-12.68177795410156
263258,-0.2022247314453125,0.357086181640625,0.131072998046875,-0.9757864475250244,0.244124248623848,-0.1300719827413559,21.50386047363281,91.2844696044922,-12.68572998046875
263259,-0.3433380126953125,0.371795654296875,0.1894378662109375,-1.16921055316925,0.1969964206218719,-0.2259417921304703,21.46768188476562,91.37429809570312,-12.62222290039062
263260,-0.537750244140625,0.4593353271484375,0.328826904296875,-1.437305688858032,0.3819396495819092,-0.39739128947258,21.15652465820312,91.44808959960938,-11.81298828125
263261,-0.537750244140625,0.4593353271484375,0.328826904296875,-1.437305688858032,0.3819396495819092,-0.39739128947258,21.15652465820312,91.44808959960938,-11.81298828125
263262,-0.59027099609375,0.49188232421875,0.3484039306640625,-1.476563334465027,0.507477343082428,-0.5314463376998901,20.76336669921875,91.23001098632812,-10.71307373046875
263263,-0.573028564453125,0.4768218994140625,0.3001861572265625,-1.48738956451416,0.4320432841777802,-0.5848024487495422,20.49806213378906,91.07521057128906,-10.40371704101562
263264,-0.54351806640625,0.4536895751953125,0.243896484375,-1.498332500457764,0.2453258633613586,-0.6394039392471313,20.10836791992188,90.94873046875,-9.922805786132812
263265,-0.54351806640625,0.4536895751953125,0.243896484375,-1.498332500457764,0.2453258633613586,-0.6394039392471313,20.10836791992188,90.94873046875,-9.922805786132812
263266,-0.4875030517578125,0.4923248291015625,0.255096435546875,-1.367999792098999,-0.3536320924758911,-0.9402146339416504,19.30809020996094,90.594970703125,-9.206375122070312
263267,-0.466827392578125,0.4888916015625,0.2670135498046875,-1.367999792098999,-0.3536320924758911,-0.9402146339416504,19.02647399902344,90.23527526855467,-8.688278198242188
263268,-0.4246673583984375,0.455108642578125,0.21673583984375,-1.318997144699097,-0.3991923928260803,-1.053787589073181,18.65153503417969,89.82621765136719,-8.078811645507812
263269,-0.4246673583984375,0.455108642578125,0.21673583984375,-1.318997144699097,-0.3991923928260803,-1.053787589073181,18.65153503417969,89.82621765136719,-8.078811645507812
263270,-0.2856903076171875,0.353759765625,0.0226593017578125,-0.9218289852142334,-0.5890443325042725,-1.011091470718384,17.81219482421875,88.90803527832031,-6.977645874023438
263271,-0.218841552734375,0.3015289306640625,-0.078948974609375,-0.9218289852142334,-0.5890443325042725,-1.011091470718384,17.47442626953125,88.56715393066406,-6.536849975585938
263272,-0.1677703857421875,0.2581329345703125,-0.1303253173828125,-0.7265065908432007,-0.6603659391403198,-0.9053828716278076,17.08767700195312,88.12539672851562,-5.832489013671875
263273,-0.1677703857421875,0.2581329345703125,-0.1303253173828125,-0.7265065908432007,-0.6603659391403198,-0.9053828716278076,17.08767700195312,88.12539672851562,-5.832489013671875
263274,-0.1213531494140625,0.2394561767578125,-0.143096923828125,-0.5757796764373779,-0.652959406375885,-0.794463038444519,16.71084594726562,87.72572326660156,-5.38446044921875
263275,-0.044189453125,0.313873291015625,-0.2034912109375,-0.4145444631576538,-0.6496430039405823,-0.516517162322998,16.13461303710938,86.74093627929688,-4.56402587890625
263276,-0.047393798828125,0.4154510498046875,-0.2576446533203125,-0.333496481180191,-0.7583519220352173,-0.4392953515052795,15.88398742675781,86.48820495605469,-4.148773193359375
263277,-0.047393798828125,0.4154510498046875,-0.2576446533203125,-0.333496481180191,-0.7583519220352173,-0.4392953515052795,15.88398742675781,86.48820495605469,-4.148773193359375
263278,-0.0615234375,0.650543212890625,-0.3480377197265625,0.0999838560819625,-1.09582257270813,-0.3153451681137085,15.38882446289062,86.19427490234375,-3.207305908203125
263279,-0.0632476806640625,0.761077880859375,-0.377655029296875,0.0999838560819625,-1.09582257270813,-0.3153451681137085,15.17501831054688,86.02243041992188,-2.81353759765625
263280,-0.075347900390625,0.8657684326171875,-0.389984130859375,0.3294351696968079,-0.9291428327560424,-0.2217827290296555,14.96626281738281,85.91224670410156,-2.292877197265625
263281,-0.075347900390625,0.8657684326171875,-0.389984130859375,0.3294351696968079,-0.9291428327560424,-0.2217827290296555,14.96626281738281,85.91224670410156,-2.292877197265625
263282,-0.13128662109375,1.031600952148438,-0.506927490234375,0.6064270734786987,-0.2694567739963531,-0.1480408608913422,14.5853271484375,85.9483642578125,-1.645401000976562
263283,-0.1638946533203125,1.055465698242188,-0.6412506103515625,0.5806564688682556,-0.0982453450560569,-0.1867312639951706,14.49671936035156,85.93693542480469,-1.471588134765625
263284,-0.1958770751953125,1.046600341796875,-0.824310302734375,0.4977397322654724,-0.1868545711040497,-0.2131005525588989,14.37509155273438,85.92742919921875,-1.17242431640625
263285,-0.1958770751953125,1.046600341796875,-0.824310302734375,0.4977397322654724,-0.1868545711040497,-0.2131005525588989,14.37509155273438,85.92742919921875,-1.17242431640625
263286,-0.2008514404296875,1.055938720703125,-0.87567138671875,0.4807485044002533,-0.4649176299571991,-0.101214237511158,14.386474609375,85.91435241699219,-1.064315795898438
263287,-0.148040771484375,1.327224731445312,-0.6557769775390625,0.7966811656951904,-0.2725982367992401,0.4535911977291107,14.49195861816406,85.88630676269531,-0.979522705078125
263288,-0.16290283203125,1.616790771484375,-0.6490020751953125,1.1034916639328,-0.0049899648874998,0.6859722137451172,14.76017761230469,85.82662963867188,-0.83966064453125
263289,-0.16290283203125,1.616790771484375,-0.6490020751953125,1.1034916639328,-0.0049899648874998,0.6859722137451172,14.76017761230469,85.82662963867188,-0.83966064453125
263290,-0.3010711669921875,1.963424682617188,-0.6552581787109375,1.969511151313782,0.0458282083272934,0.1518904566764832,15.05050659179688,85.81430053710938,-0.8596954345703125
263291,-0.66748046875,2.204559326171875,-0.482574462890625,2.320567607879639,0.0823302939534187,-0.4142126142978668,15.49871826171875,86.56027221679688,-1.717803955078125
263292,-0.83294677734375,2.069671630859375,-0.4131927490234375,2.379355907440186,0.4371426999568939,-0.8669798374176025,15.57675170898438,86.878662109375,-2.375473022460938
263293,-0.83294677734375,2.069671630859375,-0.4131927490234375,2.379355907440186,0.4371426999568939,-0.8669798374176025,15.57675170898438,86.878662109375,-2.375473022460938
263294,-1.051361083984375,1.99859619140625,-0.56182861328125,2.125715732574463,0.8535529971122742,-1.162644743919373,15.39633178710938,87.08303833007812,-3.1673583984375
263295,-1.44268798828125,2.165145874023438,-0.7013092041015625,1.113380551338196,1.501752495765686,-0.8448031544685364,14.11238098144531,87.41252136230469,-5.511077880859375
263296,-1.517242431640625,2.365142822265625,-0.5309295654296875,0.8521843552589417,1.708379983901978,-0.2703680992126465,13.37326049804688,87.38002014160156,-6.637130737304688
263297,-1.517242431640625,2.365142822265625,-0.5309295654296875,0.8521843552589417,1.708379983901978,-0.2703680992126465,13.37326049804688,87.38002014160156,-6.637130737304688
263298,-1.521942138671875,2.58123779296875,-0.3297576904296875,0.8653444051742554,1.937772154808044,0.2183541804552078,12.89396667480469,87.45639038085938,-7.850128173828125
263299,-1.548690795898438,2.53350830078125,-0.0854339599609375,1.093905448913574,2.035521745681763,0.8552840352058411,12.55535888671875,87.70295715332031,-10.14675903320312
263300,-1.520233154296875,2.336654663085938,0.0482025146484375,1.107754588127136,2.19309663772583,0.8994741439819336,12.68812561035156,88.01869201660156,-11.41015625
263301,-1.375076293945312,1.97662353515625,0.077972412109375,1.170804381370544,2.317447900772095,0.8515169620513916,12.88821411132812,88.37773132324219,-12.71182250976562
263302,-1.375076293945312,1.97662353515625,0.077972412109375,1.170804381370544,2.317447900772095,0.8515169620513916,12.88821411132812,88.37773132324219,-12.71182250976562
263303,-1.021926879882812,1.460464477539062,0.10626220703125,1.061289072036743,2.249129772186279,0.694262683391571,13.50605773925781,88.87158203125,-15.50517272949219
263304,-0.8143768310546875,1.33624267578125,0.1058502197265625,0.7434837222099304,2.056925058364868,0.6222459673881531,13.97610473632812,88.95919799804688,-16.73851013183594
263305,-0.8143768310546875,1.33624267578125,0.1058502197265625,0.7434837222099304,2.056925058364868,0.6222459673881531,13.97610473632812,88.95919799804688,-16.73851013183594
263306,-0.6314849853515625,1.179107666015625,0.014495849609375,0.4168376922607422,1.620256543159485,0.6404638886451721,14.44271850585938,88.906494140625,-17.8472900390625
263307,-0.24163818359375,0.8405609130859375,-0.20001220703125,0.1535813063383102,0.0630849599838256,0.8254526257514954,15.45469665527344,89.2593994140625,-19.73944091796875
263308,-0.029510498046875,0.72967529296875,-0.2371978759765625,0.3199191391468048,-0.784906268119812,0.9289156198501588,15.95213317871094,89.166748046875,-19.96305847167969
263309,-0.029510498046875,0.72967529296875,-0.2371978759765625,0.3199191391468048,-0.784906268119812,0.9289156198501588,15.95213317871094,89.166748046875,-19.96305847167969
263310,0.123809814453125,0.603546142578125,-0.191741943359375,0.6710460186004639,-1.279309034347534,1.05272650718689,16.42523193359375,89.22105407714844,-19.95805358886719
263311,0.0169830322265625,0.359130859375,-0.04290771484375,1.086217164993286,-0.388454258441925,0.9657583236694336,17.08648681640625,89.70478820800781,-19.5311279296875
263312,-0.1263885498046875,0.245880126953125,-0.06817626953125,0.7127082347869873,0.5236017107963562,0.5992216467857361,17.43145751953125,89.96908569335938,-19.33164978027344
263313,-0.235015869140625,0.1858978271484375,-0.1650848388671875,-0.3610183894634247,0.9652358293533324,0.2462617009878159,17.76310729980469,90.22398376464844,-19.39839172363281
263314,-0.294036865234375,0.21575927734375,-0.1779327392578125,-0.3610183894634247,0.9652358293533324,0.2462617009878159,18.15458679199219,90.48933410644533,-19.81889343261719
263315,-0.3244476318359375,0.2570648193359375,-0.064971923828125,-0.6880502700805664,0.8867940306663513,0.1687147170305252,18.55122375488281,90.54074096679688,-20.14875793457031
263316,-0.328460693359375,0.2361297607421875,0.0187225341796875,-0.7605186700820923,0.8144599199295044,0.0575612969696521,19.02656555175781,90.4290771484375,-20.25529479980469
263317,-0.332733154296875,0.161773681640625,0.0829925537109375,-0.4628861546516418,0.5381015539169312,0.1357548981904984,19.49613952636719,90.4331512451172,-20.34046936035156
263318,-0.332733154296875,0.161773681640625,0.0829925537109375,-0.4628861546516418,0.5381015539169312,0.1357548981904984,19.49613952636719,90.4331512451172,-20.34046936035156
263319,-0.1945953369140625,0.172210693359375,0.1350860595703125,-0.3782985806465149,0.4112168252468109,0.1059112548828125,20.122314453125,90.25848388671876,-20.25918579101562
263320,-0.1054229736328125,0.188690185546875,0.1410369873046875,-0.4056985080242157,0.3383937478065491,0.0471587218344211,20.30099487304688,90.2952880859375,-20.18525695800781
263321,-0.0314483642578125,0.321136474609375,0.353363037109375,-0.6958682537078857,0.646294355392456,-0.0484389066696167,20.57037353515625,90.3222198486328,-20.1290283203125
263322,-0.0314483642578125,0.321136474609375,0.353363037109375,-0.6958682537078857,0.646294355392456,-0.0484389066696167,20.57037353515625,90.3222198486328,-20.1290283203125
263323,-0.07025146484375,0.4340362548828125,0.4963836669921875,-0.9078260660171508,0.9586631655693054,-0.0916284546256065,20.48036193847656,90.39291381835938,-20.04536437988281
263324,-0.1819915771484375,0.6208648681640625,0.642059326171875,-1.156089901924133,1.303427219390869,-0.1751457154750824,20.50303649902344,90.40283203125,-20.03915405273438
263325,-0.1819915771484375,0.6208648681640625,0.642059326171875,-1.156089901924133,1.303427219390869,-0.1751457154750824,20.50303649902344,90.40283203125,-20.03915405273438
263326,-0.527435302734375,0.9147796630859376,0.785797119140625,-1.840565800666809,1.620619297027588,-0.4428741037845612,20.54484558105469,90.5979461669922,-19.80348205566406
263327,-0.6981964111328125,0.973876953125,0.7269744873046875,-1.840565800666809,1.620619297027588,-0.4428741037845612,20.47323608398438,90.64463806152344,-19.77778625488281
263328,-0.836090087890625,0.973846435546875,0.627685546875,-1.983241081237793,1.123644590377808,-0.5013427138328552,20.33517456054688,90.80740356445312,-19.87835693359375
263329,-0.8857879638671875,0.9368896484375,0.50408935546875,-2.067975282669067,0.3920964002609253,-0.5801821351051331,20.32780456542969,90.81095886230467,-19.7664794921875
263330,-0.8857879638671875,0.9368896484375,0.50408935546875,-2.067975282669067,0.3920964002609253,-0.5801821351051331,20.32780456542969,90.81095886230467,-19.7664794921875
263331,-0.687286376953125,0.87353515625,0.1421661376953125,-2.063927412033081,-1.227751016616821,-0.8233199715614319,19.83003234863281,90.71078491210938,-18.97784423828125
263332,-0.535247802734375,0.838226318359375,-0.148223876953125,-1.92340099811554,-2.18441915512085,-0.9329324960708618,19.4969482421875,90.62281799316406,-18.055419921875
263333,-0.535247802734375,0.838226318359375,-0.148223876953125,-1.92340099811554,-2.18441915512085,-0.9329324960708618,19.4969482421875,90.62281799316406,-18.055419921875
263334,-0.227752685546875,0.71539306640625,-0.0140228271484375,-0.7666705250740051,-2.310596704483032,-0.9528462886810304,18.66770935058594,90.25572204589844,-15.72467041015625
263335,-0.105712890625,0.6535491943359375,0.07684326171875,-0.7666705250740051,-2.310596704483032,-0.9528462886810304,18.25218200683594,89.9556884765625,-14.20974731445312
263336,-0.0487060546875,0.511260986328125,0.014190673828125,-0.4650337398052216,-1.427773952484131,-0.880092203617096,17.87106323242188,89.45133972167969,-12.81011962890625
263337,-0.0671539306640625,0.32659912109375,-0.1360931396484375,-0.2530330717563629,-0.682020902633667,-0.8125410676002502,17.52789306640625,88.95053100585938,-11.45480346679688
263338,-0.0671539306640625,0.32659912109375,-0.1360931396484375,-0.2530330717563629,-0.682020902633667,-0.8125410676002502,17.52789306640625,88.95053100585938,-11.45480346679688
263339,-0.0647125244140625,0.0645904541015625,-0.3321685791015625,-0.0180354602634906,-0.358873724937439,-0.6884785294532776,17.22047424316406,88.26235961914062,-10.02210998535156
263340,-0.028594970703125,-0.032470703125,-0.34649658203125,-0.0180354602634906,-0.358873724937439,-0.6884785294532776,17.08612060546875,88.01298522949219,-9.711669921875
263341,-0.028594970703125,-0.032470703125,-0.34649658203125,-0.0180354602634906,-0.358873724937439,-0.6884785294532776,17.08612060546875,88.01298522949219,-9.711669921875
263342,0.0379486083984375,-0.136566162109375,-0.3489227294921875,0.0195292271673679,-0.8252393007278442,-0.4186257421970367,16.96440124511719,87.56086730957031,-9.380340576171877
263343,0.062103271484375,-0.1496734619140625,-0.3699493408203125,0.10667984187603,-1.052766799926758,-0.2684503495693207,16.96121215820312,87.37699890136719,-9.0782470703125
263344,0.0723724365234375,-0.1149139404296875,-0.34478759765625,0.2094664126634598,-1.232528567314148,-0.1428996324539185,16.80479431152344,87.21116638183594,-8.868087768554688
263345,0.0723724365234375,-0.1149139404296875,-0.34478759765625,0.2094664126634598,-1.232528567314148,-0.1428996324539185,16.80479431152344,87.21116638183594,-8.868087768554688
263346,0.080047607421875,-0.0378875732421875,-0.26959228515625,0.222992330789566,-1.252721190452576,-0.0950538143515586,16.64193725585938,87.10923767089844,-8.540603637695312
263347,0.1287994384765625,0.12042236328125,-0.3089447021484375,0.1775470823049545,-1.004646062850952,-0.1298227161169052,16.50442504882812,86.97529602050781,-7.663009643554688
263348,0.136505126953125,0.2289886474609375,-0.38763427734375,0.142483115196228,-0.9298554658889772,-0.1685490608215332,16.52964782714844,86.85421752929688,-7.126327514648438
263349,0.1281585693359375,0.36260986328125,-0.470367431640625,0.152612715959549,-0.98223215341568,-0.2348825484514236,16.50559997558594,86.81430053710938,-6.703460693359375
263350,0.1281585693359375,0.36260986328125,-0.470367431640625,0.152612715959549,-0.98223215341568,-0.2348825484514236,16.50559997558594,86.81430053710938,-6.703460693359375
263351,0.03619384765625,0.723480224609375,-0.5833282470703125,0.6453632712364197,-0.6475681066513062,-0.2142379879951477,16.33273315429688,86.69706726074219,-5.398849487304688
263352,-0.04632568359375,0.9263458251953124,-0.7093353271484375,1.036259174346924,-0.3143560588359833,-0.1557877361774445,16.33273315429688,86.69706726074219,-5.398849487304688
263353,-0.1557769775390625,1.100067138671875,-0.8557586669921875,1.036259174346924,-0.3143560588359833,-0.1557877361774445,16.23835754394531,86.713623046875,-4.944061279296875
263354,-0.1557769775390625,1.100067138671875,-0.8557586669921875,1.036259174346924,-0.3143560588359833,-0.1557877361774445,16.23835754394531,86.713623046875,-4.944061279296875
263355,-0.4503326416015625,1.4522705078125,-0.7710723876953125,1.13084614276886,0.586008608341217,-0.1181290373206139,15.87458801269531,86.74818420410156,-4.576187133789062
263356,-0.589935302734375,1.66473388671875,-0.35821533203125,0.7128413915634155,1.020343542098999,-0.4510590434074402,15.56794738769531,86.88662719726562,-5.0250244140625
263357,-0.589935302734375,1.66473388671875,-0.35821533203125,0.7128413915634155,1.020343542098999,-0.4510590434074402,15.56794738769531,86.88662719726562,-5.0250244140625
263358,-0.6925201416015625,1.912765502929688,0.046783447265625,0.2489776015281677,1.544456839561462,-1.214580655097961,15.22392272949219,87.04130554199219,-5.86407470703125
263359,-1.188385009765625,2.818328857421875,-0.082672119140625,-0.1603241562843323,1.597649455070496,-3.883159160614014,13.79743957519531,86.54946899414062,-7.496170043945312
263360,-2.522598266601562,2.689437866210938,-0.1603546142578125,-0.7065110802650452,1.779736161231995,-4.220525741577148,12.63624572753906,85.84214782714844,-8.50048828125
263361,-2.522598266601562,2.689437866210938,-0.1603546142578125,-0.7065110802650452,1.779736161231995,-4.220525741577148,12.63624572753906,85.84214782714844,-8.50048828125
263362,-4.183944702148438,2.447906494140625,-0.279541015625,-1.143293499946594,2.475561380386353,-1.441190958023071,11.16348266601562,85.01242065429688,-9.552749633789062
263363,-2.737213134765625,2.669708251953125,0.147735595703125,0.1363557130098343,0.8150186538696289,0.0018780612153932,9.756668090820312,84.06965637207031,-11.17596435546875
263364,-1.643783569335938,1.90576171875,0.0965728759765625,0.0787070617079734,0.8312660455703735,0.2286992222070694,9.650588989257812,84.04241943359375,-11.60932922363281
263365,-1.643783569335938,1.90576171875,0.0965728759765625,0.0787070617079734,0.8312660455703735,0.2286992222070694,9.650588989257812,84.04241943359375,-11.60932922363281
263366,-1.033935546875,1.923385620117188,-0.31561279296875,0.3420497477054596,0.2661179602146149,0.7952795624732971,9.62164306640625,84.062744140625,-12.76785278320312
263367,-0.864288330078125,1.988906860351562,0.108642578125,0.603039562702179,0.1869304776191711,0.7249960899353027,9.758392333984377,84.26571655273438,-13.01463317871094
263368,-0.6809234619140625,1.977630615234375,0.3275299072265625,0.6659023761749268,0.1497239768505096,0.7559385299682617,10.03314208984375,84.23699951171875,-13.18205261230469
263369,-0.6809234619140625,1.977630615234375,0.3275299072265625,0.6659023761749268,0.1497239768505096,0.7559385299682617,10.03314208984375,84.23699951171875,-13.18205261230469
263370,-0.4359283447265625,1.713241577148438,0.275848388671875,0.7385302782058716,-0.02580177038908,0.6792725324630737,10.91416931152344,84.55216979980469,-13.88862609863281
263371,-0.279449462890625,1.3985595703125,0.189666748046875,0.9913124442100524,-0.4801660776138306,0.773398756980896,11.28927612304688,84.68048095703125,-14.10200500488281
263372,-0.1428070068359375,1.10516357421875,0.1455230712890625,1.355268239974976,-0.9993602633476256,0.857233464717865,11.83226013183594,84.681640625,-14.27998352050781
263373,-0.1428070068359375,1.10516357421875,0.1455230712890625,1.355268239974976,-0.9993602633476256,0.857233464717865,11.83226013183594,84.681640625,-14.27998352050781
263374,0.1569671630859375,0.70758056640625,0.11962890625,1.88725733757019,-1.388461351394653,1.038826107978821,12.47749328613281,85.04196166992188,-14.50079345703125
263375,0.21539306640625,0.609649658203125,0.1261749267578125,1.893240928649902,-0.9354329109191896,1.035648465156555,12.81251525878906,85.39338684082031,-14.39654541015625
263376,0.205841064453125,0.5669403076171875,0.145904541015625,1.758531093597412,-0.1696846336126328,0.9551810622215272,13.14642333984375,85.61811828613281,-14.48953247070312
263377,0.205841064453125,0.5669403076171875,0.145904541015625,1.758531093597412,-0.1696846336126328,0.9551810622215272,13.14642333984375,85.61811828613281,-14.48953247070312
263378,-0.051025390625,0.586639404296875,0.0169677734375,1.181477546691895,0.8560022711753845,0.6503995656967163,13.8128662109375,86.23831176757812,-15.3447265625
263379,-0.3224945068359375,0.5797882080078125,0.0643157958984375,0.8198195099830627,0.8337278962135315,0.6698635816574097,14.15299987792969,86.47207641601562,-16.09213256835938
263380,-0.466461181640625,0.597381591796875,0.1567230224609375,0.4202580153942108,0.8529886603355408,0.6772487759590149,14.5008544921875,86.56059265136719,-16.76058959960938
263381,-0.48699951171875,0.5231170654296875,0.121917724609375,0.1214015260338783,0.6935777068138123,0.6732351183891296,14.944580078125,86.64871215820312,-17.32015991210938
263382,-0.48699951171875,0.5231170654296875,0.121917724609375,0.1214015260338783,0.6935777068138123,0.6732351183891296,14.944580078125,86.64871215820312,-17.32015991210938
263383,-0.3360748291015625,0.2794647216796875,0.1215362548828125,0.039608396589756,0.2551095187664032,0.7477484941482544,15.76359558105469,87.1083984375,-17.85478210449219
263384,-0.2163543701171875,0.25146484375,0.1276092529296875,0.0435586608946323,0.215187668800354,0.7265936732292175,16.09695434570312,87.34205627441406,-18.05171203613281
263385,-0.0595245361328125,0.2073211669921875,0.108367919921875,9.294431947637348e-05,0.4084375500679016,0.6440426111221313,16.75773620605469,87.78526306152344,-18.48988342285156
263386,-0.0595245361328125,0.2073211669921875,0.108367919921875,9.294431947637348e-05,0.4084375500679016,0.6440426111221313,16.75773620605469,87.78526306152344,-18.48988342285156
263387,-0.007568359375,0.182037353515625,0.1171875,-0.0162000078707933,0.547458827495575,0.594377338886261,17.13557434082031,87.98272705078125,-18.70039367675781
263388,0.0177154541015625,0.158355712890625,0.1818389892578125,-0.0606982335448265,0.773317813873291,0.5429311990737915,17.45692443847656,88.16409301757812,-18.78797912597656
263389,0.0124359130859375,0.1788787841796875,0.2534942626953125,-0.2046628594398499,1.066761374473572,0.4501378834247589,17.74337768554688,88.24505615234375,-18.87692260742188
263390,0.0124359130859375,0.1788787841796875,0.2534942626953125,-0.2046628594398499,1.066761374473572,0.4501378834247589,17.74337768554688,88.24505615234375,-18.87692260742188
263391,-0.113739013671875,0.27191162109375,0.3223876953125,-0.8841140866279602,1.503784775733948,0.0860624462366104,18.36749267578125,88.53472900390625,-19.37147521972656
263392,-0.268646240234375,0.347930908203125,0.2506866455078125,-1.313815951347351,1.36768901348114,-0.112654909491539,18.60472106933594,88.76483154296875,-19.45994567871094
263393,-0.4476165771484375,0.4796905517578125,0.1431732177734375,-1.69580078125,0.8496996760368347,-0.3522251546382904,18.71063232421875,88.87322998046875,-19.55107116699219
263394,-0.5817108154296875,0.5644989013671875,0.1998748779296875,-2.108048677444458,-0.0291179381310939,-0.6801484227180481,18.63825988769531,89.050048828125,-19.45718383789062
263395,-0.6452789306640625,0.559478759765625,0.3730926513671875,-2.108048677444458,-0.0291179381310939,-0.6801484227180481,18.46083068847656,89.00932312011719,-18.95826721191406
263396,-0.6175994873046875,0.5401153564453125,0.434478759765625,-2.048675060272217,0.036365732550621,-0.6317470669746399,18.08332824707031,89.1319580078125,-18.22727966308594
263397,-0.462310791015625,0.67620849609375,0.34002685546875,-1.756801128387451,0.4520140588283539,-0.3899592161178589,17.27438354492188,89.09970092773438,-16.66300964355469
263398,-0.462310791015625,0.67620849609375,0.34002685546875,-1.756801128387451,0.4520140588283539,-0.3899592161178589,17.27438354492188,89.09970092773438,-16.66300964355469
263399,-0.4283599853515625,0.7945404052734375,0.31329345703125,-1.63815701007843,0.4518398940563202,-0.3377937376499176,16.8665771484375,88.9764404296875,-16.115478515625
263400,-0.40008544921875,0.8508148193359375,0.3672637939453125,-1.575780391693115,0.3283203542232513,-0.3526387512683868,16.66067504882812,88.89791870117188,-15.78543090820312
263401,-0.39697265625,0.90484619140625,0.4465484619140625,-1.534054040908813,0.1044875234365463,-0.3340259194374084,16.43525695800781,88.90232849121094,-15.277099609375
263402,-0.437530517578125,1.037490844726562,0.4875335693359375,-1.487366080284119,-0.0297304652631282,-0.4252301156520844,16.2711181640625,88.74217224121094,-14.86933898925781
263403,-0.454345703125,1.00518798828125,0.41925048828125,-1.355709075927734,-0.1387879699468613,-0.5023558139801025,16.0457763671875,88.60025024414062,-14.37886047363281
263404,-0.43450927734375,0.8426513671875,0.31451416015625,-1.204538106918335,-0.1917731612920761,-0.6202834844589233,15.80683898925781,88.59526062011719,-13.82978820800781
263405,-0.36865234375,0.612030029296875,0.14202880859375,-1.009565472602844,-0.2907556593418121,-0.7140102386474609,15.57305908203125,88.38673400878906,-13.39111328125
263406,-0.36865234375,0.612030029296875,0.14202880859375,-1.009565472602844,-0.2907556593418121,-0.7140102386474609,15.57305908203125,88.38673400878906,-13.39111328125
263407,-0.2081298828125,0.1779022216796875,-0.12664794921875,-0.5588377118110657,-0.6405690908432007,-0.7196303009986877,15.01422119140625,88.0443115234375,-12.25238037109375
263408,-0.142791748046875,0.0533294677734375,-0.2386322021484375,-0.3455414175987244,-0.8148782849311829,-0.6783207058906555,14.73043823242188,87.83419799804688,-11.79591369628906
263409,-0.1045074462890625,0.0019073486328125,-0.309295654296875,-0.1494102627038956,-0.948689341545105,-0.6307920813560486,14.46865844726562,87.57577514648438,-11.44764709472656
263410,-0.0903472900390625,0.02001953125,-0.34136962890625,0.1213226988911629,-0.8825883269309998,-0.658195436000824,14.22952270507812,87.2283935546875,-11.00640869140625
263411,-0.0969085693359375,0.1127166748046875,-0.367462158203125,0.1213226988911629,-0.8825883269309998,-0.658195436000824,13.99130249023438,86.88801574707031,-10.50491333007812
263412,-0.0901641845703125,0.2508697509765625,-0.3852996826171875,0.2026678919792175,-0.7249130010604858,-0.7301753759384155,13.69902038574219,86.74346923828125,-10.07527160644531
263413,-0.084747314453125,0.3634185791015625,-0.407012939453125,0.2307205647230148,-0.5137243270874023,-0.7474275827407837,13.39714050292969,86.42683410644531,-9.78448486328125
263414,-0.084747314453125,0.3634185791015625,-0.407012939453125,0.2307205647230148,-0.5137243270874023,-0.7474275827407837,13.39714050292969,86.42683410644531,-9.78448486328125
263415,-0.084747314453125,0.50921630859375,-0.5406341552734375,0.1754391938447952,-0.2190127670764923,-0.6389224529266357,12.6025390625,85.93798828125,-9.315017700195312
263416,-0.0992431640625,0.5843048095703125,-0.6203765869140625,0.1503040194511414,-0.2021930515766144,-0.5524623990058899,12.19099426269531,85.74826049804688,-9.1148681640625
263417,-0.1356964111328125,0.6818695068359375,-0.695037841796875,0.1879669725894928,-0.2091012895107269,-0.4656776785850525,11.923583984375,85.51359558105469,-8.965301513671875
263418,-0.1356964111328125,0.6818695068359375,-0.695037841796875,0.1879669725894928,-0.2091012895107269,-0.4656776785850525,11.923583984375,85.51359558105469,-8.965301513671875
263419,-0.21783447265625,0.9265899658203124,-0.9456939697265624,0.552160918712616,-0.260052889585495,-0.2665494084358215,11.60415649414062,84.93682861328125,-8.536102294921875
263420,-0.2028350830078125,1.096115112304688,-1.09454345703125,0.8096920251846313,-0.193986251950264,-0.0204157922416925,11.54434204101562,84.63473510742188,-8.427215576171875
263421,-0.1874237060546875,1.533538818359375,-0.9878082275390624,0.90347820520401,0.441391795873642,0.5149338841438293,11.57139587402344,84.41685485839844,-8.320022583007812
263422,-0.1874237060546875,1.533538818359375,-0.9878082275390624,0.90347820520401,0.441391795873642,0.5149338841438293,11.57139587402344,84.41685485839844,-8.320022583007812
263423,-0.2042236328125,1.723846435546875,-0.8763580322265625,1.077044129371643,-0.1219277679920197,0.1781385838985443,11.64109802246094,84.52961730957031,-8.511550903320312
263424,-0.257659912109375,1.826141357421875,-0.891632080078125,1.077044129371643,-0.1219277679920197,0.1781385838985443,11.90769958496094,84.68325805664062,-8.946044921875
263425,-0.52117919921875,1.590652465820312,-0.6511993408203125,1.828536510467529,-0.4889489114284515,-0.1253464668989182,12.23350524902344,84.93637084960938,-9.804275512695312
263426,-0.52117919921875,1.590652465820312,-0.6511993408203125,1.828536510467529,-0.4889489114284515,-0.1253464668989182,12.23350524902344,84.93637084960938,-9.804275512695312
263427,-0.6898040771484375,1.3673095703125,-0.644439697265625,1.87318229675293,0.1789471060037613,-0.1340004056692123,12.25993347167969,85.1495361328125,-10.13328552246094
263428,-0.78692626953125,1.27862548828125,-0.7555999755859375,1.691362619400024,0.6778000593185425,-0.2034846842288971,12.09503173828125,85.32118225097656,-10.76190185546875
263429,-0.8730926513671875,1.344085693359375,-0.884002685546875,1.405211567878723,0.8120539784431458,-0.3469371795654297,11.87725830078125,85.5086669921875,-11.54364013671875
263430,-0.8730926513671875,1.344085693359375,-0.884002685546875,1.405211567878723,0.8120539784431458,-0.3469371795654297,11.87725830078125,85.5086669921875,-11.54364013671875
263431,-1.157028198242188,1.785247802734375,-1.107452392578125,0.9298160672187804,0.667374312877655,-0.651080310344696,11.47048950195312,85.7401123046875,-13.16131591796875
263432,-1.275711059570312,2.08050537109375,-0.888458251953125,0.6014573574066162,1.121042728424072,-0.6051040291786194,11.0872802734375,85.73597717285156,-13.66998291015625
263433,-1.5404052734375,2.672119140625,-0.07501220703125,-0.2169757187366486,2.173925161361694,-0.0369122102856636,10.20413208007812,85.72898864746094,-15.44439697265625
263434,-1.5404052734375,2.672119140625,-0.07501220703125,-0.2169757187366486,2.173925161361694,-0.0369122102856636,10.20413208007812,85.72898864746094,-15.44439697265625
263435,-1.753616333007812,2.887298583984375,0.2866363525390625,-0.1517072319984436,2.241096973419189,0.5294574499130249,9.988372802734377,85.73649597167969,-16.52281188964844
263436,-1.814666748046875,3.054885864257812,0.4889068603515625,0.1803423464298248,2.123029947280884,1.127421259880066,9.993194580078123,85.84295654296875,-17.62800598144531
263437,-1.199676513671875,2.464508056640625,0.4306640625,0.4193882048130035,1.490816831588745,1.280684113502502,10.78701782226562,86.60391235351562,-19.88792419433594
263438,-1.199676513671875,2.464508056640625,0.4306640625,0.4193882048130035,1.490816831588745,1.280684113502502,10.78701782226562,86.60391235351562,-19.88792419433594
263439,-0.917633056640625,1.983413696289062,0.44781494140625,0.5070632100105286,1.056822776794434,1.01787006855011,11.47294616699219,86.97906494140625,-20.91654968261719
