time_idx,accelerometerAccelerationX(G),accelerometerAccelerationY(G),accelerometerAccelerationZ(G),gyroRotationX(rad/s),gyroRotationY(rad/s),gyroRotationZ(rad/s),magnetometerX(µT),magnetometerY(µT),magnetometerZ(µT)
109870,-0.1673431396484375,0.5085296630859375,-0.069427490234375,-0.5975877642631531,-1.652964949607849,-0.4161514043807983,51.6846923828125,101.9131622314453,-23.24555969238281
109871,0.079742431640625,0.6844024658203125,-0.258209228515625,0.1788728088140488,0.7032055258750916,0.024074176326394,50.35403442382812,102.0639495849609,-22.88734436035156
109872,0.079742431640625,0.6844024658203125,-0.258209228515625,0.1788728088140488,0.7032055258750916,0.024074176326394,50.35403442382812,102.0639495849609,-22.88734436035156
109873,0.0488739013671875,0.59564208984375,0.01068115234375,0.3986080884933472,1.019580602645874,0.0007185208378359,50.27944946289062,102.0159301757812,-22.53654479980469
109874,0.055084228515625,0.514068603515625,-0.010101318359375,0.390550971031189,1.077829241752625,-0.0491497032344341,50.36936950683594,102.0245666503906,-22.49989318847656
109875,0.1524200439453125,0.4111480712890625,-0.2252349853515625,0.3495465517044067,0.0477171875536441,-0.0083841634914278,50.42448425292969,101.9884643554688,-22.57090759277344
109876,0.1524200439453125,0.4111480712890625,-0.2252349853515625,0.3495465517044067,0.0477171875536441,-0.0083841634914278,50.42448425292969,101.9884643554688,-22.57090759277344
109877,0.1962890625,0.38641357421875,-0.205780029296875,0.4212071597576141,-0.7279585599899292,0.1666310578584671,50.45950317382812,101.8583374023438,-22.74310302734375
109878,0.2014923095703125,0.3769683837890625,-0.110748291015625,0.5084613561630249,-1.24792218208313,0.3673234283924103,50.53129577636719,101.8495941162109,-22.73609924316406
109879,0.067626953125,0.2214508056640625,-0.0680694580078125,0.7604267597198486,-1.089308738708496,0.5559042692184448,50.53282165527344,101.7445220947266,-22.99647521972656
109880,0.067626953125,0.2214508056640625,-0.0680694580078125,0.7604267597198486,-1.089308738708496,0.5559042692184448,50.53282165527344,101.7445220947266,-22.99647521972656
109881,0.00714111328125,0.080230712890625,-0.0931549072265625,0.8581895232200623,-0.6427158117294312,0.5359997749328613,50.63124084472656,101.7629547119141,-23.32537841796875
109882,-0.016326904296875,-0.03131103515625,-0.1199493408203125,0.8335097432136536,-0.100711427628994,0.5055529475212097,50.77009582519531,101.7025299072266,-23.62632751464844
109883,-0.035736083984375,-0.0910797119140625,-0.1690216064453125,0.4948803186416626,0.3253666460514069,0.4452570974826813,51.25495910644531,101.4630889892578,-24.24476623535156
109884,-0.0553436279296875,-0.0537567138671875,-0.1269378662109375,0.2442012131214142,0.1503935009241104,0.3602993190288544,51.64067077636719,101.2815093994141,-24.60020446777344
109885,-0.08441162109375,0.0034332275390625,-0.0857391357421875,-0.0076046562753617,-0.1410588473081589,0.227911189198494,52.04875183105469,101.2587280273438,-24.63638305664062
109886,-0.1166534423828125,0.211456298828125,-0.1071929931640625,-0.3022160530090332,-0.8683156967163086,-0.0698986575007438,52.43338012695312,101.2006225585938,-24.66543579101562
109887,-0.1166534423828125,0.211456298828125,-0.1071929931640625,-0.3022160530090332,-0.8683156967163086,-0.0698986575007438,52.43338012695312,101.2006225585938,-24.66543579101562
109888,-0.1542816162109375,0.4665374755859375,-0.1317291259765625,-0.2675347626209259,-1.122478485107422,-0.175024539232254,52.34625244140625,101.3205261230469,-24.83638000488281
109889,-0.3059844970703125,1.31109619140625,0.0919342041015625,-0.1276663541793823,-0.5301392078399658,-0.3299398124217987,51.91183471679688,101.6000366210938,-24.7689208984375
109890,-0.400421142578125,1.683456420898438,0.28375244140625,-0.3317915201187134,0.5037867426872253,-0.4120522737503052,51.47950744628906,101.696533203125,-24.85725402832031
109891,-0.400421142578125,1.683456420898438,0.28375244140625,-0.3317915201187134,0.5037867426872253,-0.4120522737503052,51.47950744628906,101.696533203125,-24.85725402832031
109892,-0.4629669189453125,2.019119262695312,0.34228515625,-0.7122930288314819,1.513250946998596,-0.5359827280044556,51.06202697753906,101.8901977539062,-24.85026550292969
109893,-0.552154541015625,2.562347412109375,0.35491943359375,-1.12549364566803,2.105848550796509,-0.8291014432907104,50.64169311523438,101.9965972900391,-24.68702697753906
109894,-1.301361083984375,4.441314697265625,0.5682373046875,-2.015221357345581,1.730289340019226,-1.987741351127625,49.68115234375,102.4779510498047,-23.70231628417969
109895,-1.301361083984375,4.441314697265625,0.5682373046875,-2.015221357345581,1.730289340019226,-1.987741351127625,49.68115234375,102.4779510498047,-23.70231628417969
109896,-2.080398559570312,4.271102905273438,0.9129180908203124,-2.185170888900757,1.343460321426392,-0.7966151237487793,49.01559448242188,102.7143859863281,-23.06776428222656
109897,-1.839828491210938,3.4532470703125,1.152236938476562,-1.5475914478302,0.7063813805580139,0.1146115362644196,48.29447937011719,102.8742370605469,-22.09877014160156
109898,-1.110931396484375,2.444000244140625,1.255050659179688,-0.8968698382377625,0.0750180482864379,0.1076827868819237,47.96324157714844,103.1713562011719,-21.40090942382812
109899,-0.6626434326171875,2.006134033203125,0.837310791015625,-0.1056678369641304,0.0862741693854332,0.350015252828598,47.916748046875,103.2298583984375,-20.74270629882812
109900,-0.37933349609375,2.03515625,0.2283477783203125,0.6306019425392151,0.0716387629508972,0.4862836301326752,48.11836242675781,103.1398773193359,-20.16500854492188
109901,-0.2351837158203125,2.204544067382812,-0.190887451171875,0.9124304056167604,-0.2002201825380325,0.627033531665802,48.24952697753906,103.1221160888672,-19.81056213378906
109902,-0.20965576171875,1.875030517578125,-0.5208740234375,0.4290150105953217,-0.1942179501056671,0.6598389148712158,48.9627685546875,102.9128875732422,-20.46975708007812
109903,-0.20965576171875,1.875030517578125,-0.5208740234375,0.4290150105953217,-0.1942179501056671,0.6598389148712158,48.9627685546875,102.9128875732422,-20.46975708007812
109904,-0.1723480224609375,1.49700927734375,-0.60882568359375,0.1382926255464554,-0.2571585476398468,0.6723917126655579,49.45646667480469,102.6489105224609,-20.79261779785156
109905,-0.1529693603515625,1.21636962890625,-0.470947265625,-0.0455120913684368,-0.4863283634185791,0.6367650032043457,50.02847290039062,102.4605560302734,-20.95417785644531
109906,-0.1904144287109375,0.8207855224609375,-0.16009521484375,0.0327614098787307,-0.2818247675895691,0.5735461115837097,51.2252197265625,101.99560546875,-21.05001831054688
109907,-0.1904144287109375,0.8207855224609375,-0.16009521484375,0.0327614098787307,-0.2818247675895691,0.5735461115837097,51.2252197265625,101.99560546875,-21.05001831054688
109908,-0.1857147216796875,0.6567535400390625,-0.1171112060546875,0.238815501332283,-0.0806833952665329,0.5522440075874329,51.71429443359375,101.8855285644531,-21.15129089355469
109909,-0.15777587890625,0.50518798828125,-0.0760345458984375,0.4079970717430115,0.0982213765382766,0.5062147378921509,52.21856689453125,101.8956604003906,-21.21859741210938
109910,-0.090057373046875,0.214080810546875,-0.1259613037109375,0.4995307326316833,0.1665453016757965,0.3666150271892548,52.98541259765625,101.4481811523438,-21.32069396972656
109911,-0.090057373046875,0.214080810546875,-0.1259613037109375,0.4995307326316833,0.1665453016757965,0.3666150271892548,52.98541259765625,101.4481811523438,-21.32069396972656
109912,-0.0437469482421875,0.0766754150390625,-0.252197265625,0.5305144786834717,-0.110386960208416,0.3290964066982269,53.27809143066406,101.3879089355469,-21.55116271972656
109913,0.017303466796875,-0.0413818359375,-0.367523193359375,0.5656120181083679,-0.6153912544250488,0.3468849956989288,53.45858764648438,101.2596893310547,-21.79136657714844
109914,0.1271514892578125,-0.14495849609375,-0.2201080322265625,0.6097160577774048,-1.173769116401672,0.4518934190273285,53.83670043945312,100.9852600097656,-22.25260925292969
109915,0.1271514892578125,-0.14495849609375,-0.2201080322265625,0.6097160577774048,-1.173769116401672,0.4518934190273285,53.83670043945312,100.9852600097656,-22.25260925292969
109916,0.1830291748046875,-0.153350830078125,-0.1284027099609375,0.6334749460220337,-0.8924745321273804,0.4691272675991058,53.91746520996094,100.9126586914062,-22.52586364746094
109917,0.23321533203125,-0.1447906494140625,-0.1126861572265625,0.7061941623687744,-0.4615756273269653,0.4530796110630035,53.95584106445312,100.9298858642578,-22.66778564453125
109918,0.286712646484375,-0.046661376953125,-0.2252349853515625,0.9201282858848572,0.1106333062052727,0.3560284078121185,54.22271728515625,100.6473541259766,-23.12525939941406
109919,0.286712646484375,-0.046661376953125,-0.2252349853515625,0.9201282858848572,0.1106333062052727,0.3560284078121185,54.22271728515625,100.6473541259766,-23.12525939941406
109920,0.2593231201171875,0.093780517578125,-0.2647247314453125,0.9778051376342772,0.0216927789151668,0.2499656230211258,54.49752807617188,100.5160064697266,-23.41842651367188
109921,0.1612396240234375,0.18731689453125,-0.2264251708984375,0.9763678312301636,-0.1210297495126724,0.1128924638032913,54.64900207519531,100.3763427734375,-23.79478454589844
109922,0.0714111328125,0.211334228515625,-0.0652313232421875,0.9679389595985411,-0.1185088008642197,0.1361293494701385,54.86723327636719,100.1964416503906,-24.82881164550781
109923,0.0714111328125,0.211334228515625,-0.0652313232421875,0.9679389595985411,-0.1185088008642197,0.1361293494701385,54.86723327636719,100.1964416503906,-24.82881164550781
109924,0.0884552001953125,0.27911376953125,0.0381011962890625,0.9645034670829772,0.0774553790688514,0.1561235636472702,54.86460876464844,100.1680297851562,-25.50230407714844
109925,0.0831756591796875,0.3378143310546875,0.125213623046875,0.9695192575454712,0.290274977684021,0.1850358992815018,54.86300659179688,100.1131896972656,-25.96295166015625
109926,0.00787353515625,0.6061248779296875,0.349212646484375,0.7995530962944031,0.9210883378982544,0.3378456830978394,55.22586059570312,100.0015869140625,-26.93228149414062
109927,0.00787353515625,0.6061248779296875,0.349212646484375,0.7995530962944031,0.9210883378982544,0.3378456830978394,55.22586059570312,100.0015869140625,-26.93228149414062
109928,-0.0987396240234375,0.9015350341796876,0.4851837158203125,0.5073812007904053,1.526358246803284,0.3360477983951569,55.33172607421875,99.87818908691406,-27.4716796875
109929,-0.2335662841796875,1.208267211914062,0.6407470703125,0.0288929007947444,2.24011492729187,0.1370278894901276,55.70887756347656,99.78359985351562,-27.86996459960938
109930,-0.5879364013671875,1.78076171875,0.648468017578125,-0.632407546043396,2.154886484146118,-0.4741334915161133,56.6461181640625,99.74908447265624,-27.9971923828125
109931,-0.5879364013671875,1.78076171875,0.648468017578125,-0.632407546043396,2.154886484146118,-0.4741334915161133,56.6461181640625,99.74908447265624,-27.9971923828125
109932,-0.8350372314453125,1.949005126953125,0.653228759765625,-0.2886371314525604,1.02729070186615,-0.5882326364517212,57.11746215820312,99.77752685546876,-27.73240661621094
109933,-0.984466552734375,2.09942626953125,0.7622222900390625,0.318819522857666,-0.1206625029444695,-0.4672601222991943,57.52583312988281,99.75894165039062,-27.20649719238281
109934,-0.8042449951171875,2.195556640625,0.97869873046875,0.8752667903900146,-0.8623046278953552,0.1144070029258728,57.49971008300781,99.99821472167967,-27.2076416015625
109935,-0.8042449951171875,2.195556640625,0.97869873046875,0.8752667903900146,-0.8623046278953552,0.1144070029258728,57.49971008300781,99.99821472167967,-27.2076416015625
109936,-0.60308837890625,2.045761108398438,0.9165191650390624,0.4084205031394958,-0.8396102786064148,0.0953544825315475,57.24688720703125,99.9866180419922,-27.54817199707031
109937,-0.5538330078125,1.793914794921875,0.8643035888671875,-0.2895974516868591,-0.9178730845451356,-0.1707363277673721,57.059326171875,100.0382843017578,-28.06800842285156
109938,-0.6760101318359375,1.343597412109375,0.799591064453125,-0.9595382809638976,-0.8518107533454895,-0.3183625340461731,57.01675415039062,99.89625549316406,-28.27531433105469
109939,-0.64447021484375,1.2137451171875,0.64141845703125,-0.920670211315155,-0.6976214051246643,-0.315680205821991,56.80764770507812,99.96864318847656,-28.02960205078125
109940,-0.64447021484375,1.2137451171875,0.64141845703125,-0.920670211315155,-0.6976214051246643,-0.315680205821991,56.80764770507812,99.96864318847656,-28.02960205078125
109941,-0.5796661376953125,1.084548950195312,0.4409027099609375,-0.9224904775619508,-0.6119555234909058,-0.3954005837440491,56.6573486328125,100.0794372558594,-27.63131713867188
109942,-0.50799560546875,0.938323974609375,0.2653045654296875,-1.013481140136719,-0.5953757762908936,-0.5364077687263489,56.46978759765625,100.1702270507812,-27.14006042480469
109943,-0.4366455078125,0.7905120849609375,0.1416168212890625,-1.148059725761414,-0.5695556402206421,-0.7087872624397278,56.18301391601562,100.3232421875,-26.82170104980469
109944,-0.377532958984375,0.6628875732421875,0.01287841796875,-1.24037766456604,-0.5339105129241943,-0.8796918988227844,55.79841613769531,100.5669555664062,-26.39530944824219
109945,-0.2836151123046875,0.5230712890625,-0.694671630859375,-1.28291130065918,-1.058153510093689,-0.9689823389053344,55.40095520019531,100.8865356445312,-25.73808288574219
109946,-0.020904541015625,0.4505157470703125,-0.607666015625,-1.195814490318298,-4.867197513580322,-0.8309541940689087,54.18312072753906,101.3818054199219,-24.65725708007812
109947,-0.020904541015625,0.4505157470703125,-0.607666015625,-1.195814490318298,-4.867197513580322,-0.8309541940689087,54.18312072753906,101.3818054199219,-24.65725708007812
109948,-0.07794189453125,0.4409027099609375,0.1077117919921875,-1.178750276565552,-3.620722532272339,-0.5725409984588623,53.23414611816406,101.7686309814453,-24.265869140625
109949,0.1100616455078125,0.5126190185546875,-0.1582489013671875,-0.8377223610877991,-2.049800395965576,-0.0922822579741478,52.29629516601562,101.9935913085938,-23.84910583496094
109950,0.285919189453125,0.724822998046875,0.0996551513671875,0.9054052829742432,-0.5225963592529297,0.9342009425163268,50.82150268554688,102.2815246582031,-22.90182495117188
109951,0.285919189453125,0.724822998046875,0.0996551513671875,0.9054052829742432,-0.5225963592529297,0.9342009425163268,50.82150268554688,102.2815246582031,-22.90182495117188
109952,0.2300567626953125,0.7113037109375,0.14697265625,1.301375508308411,0.5729924440383911,1.053341507911682,50.587646484375,102.3401794433594,-22.57807922363281
109953,0.21124267578125,0.60980224609375,-0.0149383544921875,1.291898369789124,1.125352025032043,1.009705781936646,50.66438293457031,102.2382659912109,-22.70260620117188
109954,0.146820068359375,0.4085693359375,-0.27496337890625,0.7065616846084595,0.3862867057323456,0.725875973701477,51.6539306640625,101.9353790283203,-23.394775390625
109955,0.146820068359375,0.4085693359375,-0.27496337890625,0.7065616846084595,0.3862867057323456,0.725875973701477,51.6539306640625,101.9353790283203,-23.394775390625
109956,0.1198883056640625,0.277923583984375,-0.2742919921875,0.382815033197403,-0.2656830847263336,0.5611059069633484,52.21504211425781,101.7759857177734,-23.73904418945312
109957,0.0632171630859375,0.1066741943359375,-0.21826171875,0.1620602756738663,-0.5482726693153381,0.4288871884346008,52.81266784667969,101.5924682617188,-24.07969665527344
109958,0.021148681640625,-0.0320281982421875,-0.178955078125,0.0514972805976867,-0.3797531723976135,0.3305486142635345,53.14564514160156,101.4632720947266,-24.18540954589844
109959,0.0076141357421875,-0.12530517578125,-0.18463134765625,0.0285189934074878,0.0028133634477853,0.2941522598266602,53.40330505371094,101.3514862060547,-24.24528503417969
109960,0.0076904296875,-0.1563262939453125,-0.2049102783203125,0.0799483582377433,0.2968140840530396,0.27764493227005,53.59136962890625,101.3486938476562,-24.23280334472656
109961,0.013153076171875,-0.14306640625,-0.209442138671875,0.1611076593399048,0.3763720393180847,0.2512173056602478,53.76856994628906,101.2834320068359,-24.24366760253906
109962,0.016204833984375,-0.1150970458984375,-0.1839447021484375,0.2037789523601532,0.3069660663604736,0.2161125838756561,54.01206970214844,101.2300720214844,-24.22773742675781
109963,0.0079498291015625,-0.0772552490234375,-0.137939453125,0.2025986462831497,0.1748865842819214,0.1576151996850967,54.248291015625,101.15283203125,-24.09574890136719
109964,-0.0126953125,-0.004730224609375,-0.07525634765625,0.1577416956424713,-0.0018040252616629,0.0589826256036758,54.56808471679688,101.0197601318359,-24.07769775390625
109965,-0.011322021484375,0.0904388427734375,-0.0187225341796875,0.0677478909492492,-0.1599830090999603,-0.0249961633235216,54.78944396972656,100.9485321044922,-24.13693237304688
109966,-0.01568603515625,0.330413818359375,-0.0041656494140625,-0.0930404588580131,-0.5036982893943787,-0.1282650232315063,54.88987731933594,101.043212890625,-24.22634887695312
109967,-0.01568603515625,0.330413818359375,-0.0041656494140625,-0.0930404588580131,-0.5036982893943787,-0.1282650232315063,54.88987731933594,101.043212890625,-24.22634887695312
109968,-0.0691375732421875,0.878997802734375,0.1104278564453125,-0.1572247743606567,-0.4692356586456299,-0.2753833830356598,54.72711181640625,101.1366119384766,-24.33638000488281
109969,-0.1550750732421875,1.401214599609375,0.305755615234375,-0.4133239388465881,-0.116688534617424,-0.5141112804412842,54.56219482421875,101.2865447998047,-24.47274780273438
109970,-0.2678985595703125,2.062271118164062,0.7494049072265625,-1.432624816894531,1.32416844367981,-0.8486793637275696,53.87913513183594,101.7398223876953,-24.6044921875
109971,-0.2678985595703125,2.062271118164062,0.7494049072265625,-1.432624816894531,1.32416844367981,-0.8486793637275696,53.87913513183594,101.7398223876953,-24.6044921875
109972,-0.4703216552734375,2.573944091796875,0.8132476806640625,-1.769347786903381,1.762128472328186,-0.9574082493782043,53.50013732910156,101.9186553955078,-24.34312438964844
109973,-0.913330078125,3.48272705078125,0.8582611083984375,-1.422949075698853,1.357237458229065,-1.188917875289917,53.09165954589844,102.1381530761719,-23.79385375976562
109974,-2.157211303710938,3.506607055664062,1.365951538085938,-0.5575271844863892,0.2032601833343506,-0.896535336971283,51.30570983886719,103.0972900390625,-22.18266296386719
109975,-2.157211303710938,3.506607055664062,1.365951538085938,-0.5575271844863892,0.2032601833343506,-0.896535336971283,51.30570983886719,103.0972900390625,-22.18266296386719
109976,-2.157211303710938,3.506607055664062,1.365951538085938,-0.5575271844863892,0.2032601833343506,-0.896535336971283,51.30570983886719,103.0972900390625,-22.18266296386719
109977,-1.46246337890625,2.546188354492188,0.853515625,-0.7648431062698364,-0.1465891748666763,-0.6268172860145569,50.68301391601562,103.0693511962891,-22.21377563476562
109978,-0.2719879150390625,2.074874877929688,-0.0428619384765625,0.2775077819824219,-1.557868480682373,0.4307343363761902,49.84527587890625,102.9663543701172,-21.58932495117188
109979,-0.2719879150390625,2.074874877929688,-0.0428619384765625,0.2775077819824219,-1.557868480682373,0.4307343363761902,49.84527587890625,102.9663543701172,-21.58932495117188
109980,-0.0466156005859375,2.156936645507812,-0.0910186767578125,0.5279048085212708,-1.298550724983215,0.6017116904258728,49.53749084472656,102.9095916748047,-21.15156555175781
109981,0.0426483154296875,2.170516967773438,-0.2318115234375,0.4934789538383484,-0.7476638555526733,0.6963500380516052,49.52899169921875,102.7254180908203,-20.93632507324219
109982,0.069488525390625,1.635284423828125,-0.36279296875,0.4347104430198669,-0.1245765462517738,0.9280208349227904,50.08552551269531,102.3763580322266,-21.03160095214844
109983,0.069488525390625,1.635284423828125,-0.36279296875,0.4347104430198669,-0.1245765462517738,0.9280208349227904,50.08552551269531,102.3763580322266,-21.03160095214844
109984,0.0594940185546875,1.312362670898438,-0.282440185546875,0.3295049369335175,0.0027971181552857,0.8981055021286011,50.5098876953125,102.1028289794922,-21.31085205078125
109985,0.0511627197265625,1.04156494140625,-0.2383270263671875,0.1922307014465332,0.1112415716052055,0.7856208086013794,51.02931213378906,101.9889068603516,-21.49577331542969
109986,-0.0411376953125,0.6971893310546875,-0.2266387939453125,0.0249825809150934,0.0226645655930042,0.5341712832450867,52.12788391113281,101.6649932861328,-21.59642028808594
109987,-0.0411376953125,0.6971893310546875,-0.2266387939453125,0.0249825809150934,0.0226645655930042,0.5341712832450867,52.12788391113281,101.6649932861328,-21.59642028808594
109988,-0.118408203125,0.589691162109375,-0.1782379150390625,0.0198016669601202,-0.099725529551506,0.3473342657089233,52.639892578125,101.5599822998047,-21.78659057617188
109989,-0.13616943359375,0.4630889892578125,-0.1110382080078125,-0.0408536903560161,-0.1470128893852234,0.1855669319629669,53.07630920410156,101.4560546875,-22.02586364746094
109990,-0.0619354248046875,0.16229248046875,-0.096221923828125,-0.2146430611610413,-0.1175878793001175,0.1816851049661636,53.62962341308594,101.2414245605469,-22.20133972167969
109991,-0.0619354248046875,0.16229248046875,-0.096221923828125,-0.2146430611610413,-0.1175878793001175,0.1816851049661636,53.62962341308594,101.2414245605469,-22.20133972167969
109992,-0.0223846435546875,0.0222625732421875,-0.1909637451171875,-0.165034756064415,-0.1817671358585358,0.2683039009571075,53.81707763671875,101.1194305419922,-22.16947937011719
109993,0.0127410888671875,-0.0781097412109375,-0.2763214111328125,0.0378041043877601,-0.3370022475719452,0.3896359205245972,53.84791564941406,101.0981750488281,-22.02302551269531
109994,0.08087158203125,-0.1771697998046875,-0.2987823486328125,0.5947682857513428,-0.2766587734222412,0.6472360491752625,54.2784423828125,101.1056060791016,-21.99137878417969
109995,0.08087158203125,-0.1771697998046875,-0.2987823486328125,0.5947682857513428,-0.2766587734222412,0.6472360491752625,54.2784423828125,101.1056060791016,-21.99137878417969
109996,0.143646240234375,-0.1835479736328125,-0.3305816650390625,0.8183944821357727,-0.0674493461847305,0.7901985049247742,54.40802001953125,101.0414886474609,-22.18943786621094
109997,0.2264251708984375,-0.16510009765625,-0.4044189453125,0.8994355201721191,0.0698717609047889,0.9060550928115844,54.59779357910156,100.9898681640625,-22.28819274902344
109998,0.2677001953125,0.059326171875,-0.3948211669921875,0.7937660813331604,-0.080839991569519,1.000075578689575,55.27725219726562,100.6711120605469,-22.60313415527344
109999,0.2677001953125,0.059326171875,-0.3948211669921875,0.7937660813331604,-0.080839991569519,1.000075578689575,55.27725219726562,100.6711120605469,-22.60313415527344
110000,0.2347259521484375,0.1901397705078125,-0.3164215087890625,0.7892275452613831,-0.2084645181894302,0.8710190653800964,55.78297424316406,100.5847930908203,-22.93132019042969
110001,0.2052764892578125,0.2678985595703125,-0.2483062744140625,0.8721836805343628,-0.2339190244674683,0.6989186406135559,56.25361633300781,100.3592224121094,-23.06114196777344
110002,0.1556549072265625,0.32379150390625,-0.2281646728515625,1.015651822090149,-0.1873376667499542,0.5158761143684387,56.75559997558594,100.1865081787109,-23.32838439941406
110003,0.0909271240234375,0.34332275390625,-0.208282470703125,1.127683639526367,-0.1226367056369781,0.3576161861419678,57.142333984375,100.0707397460938,-23.77690124511719
110004,0.0548095703125,0.341583251953125,-0.194061279296875,1.15484619140625,-0.0801278576254844,0.2414786666631699,57.50347900390625,99.80491638183594,-24.1429443359375
110005,0.0513458251953125,0.379486083984375,-0.1480865478515625,1.103515625,-0.0954226553440094,0.1475942432880402,57.67398071289062,99.64027404785156,-24.82525634765625
110006,0.04791259765625,0.808502197265625,0.2404632568359375,0.6825535297393799,0.5339694023132324,0.0779565870761871,57.73828125,99.63658142089844,-25.90362548828125
110007,0.04791259765625,0.808502197265625,0.2404632568359375,0.6825535297393799,0.5339694023132324,0.0779565870761871,57.73828125,99.63658142089844,-25.90362548828125
110008,-0.0035858154296875,1.015731811523438,0.4496612548828125,0.3329244256019592,1.241351008415222,0.0957795232534408,57.79393005371094,99.46473693847656,-26.5614013671875
110009,-0.07379150390625,1.233978271484375,0.6417236328125,-0.0607070215046405,2.159319162368774,0.0073159695602953,57.89613342285156,99.44523620605467,-27.10783386230469
110010,-0.3360443115234375,1.781158447265625,0.7064666748046875,-0.490144670009613,2.731223583221436,-0.4222047626972198,58.92721557617188,99.20460510253906,-27.2093505859375
110011,-0.3360443115234375,1.781158447265625,0.7064666748046875,-0.490144670009613,2.731223583221436,-0.4222047626972198,58.92721557617188,99.20460510253906,-27.2093505859375
110012,-0.6009368896484375,2.0347900390625,0.7241363525390625,-0.1205112338066101,1.684825897216797,-0.5455983281135559,59.44697570800781,99.15025329589844,-26.66917419433594
110013,-0.8060455322265625,2.250946044921875,0.82940673828125,0.5054889917373657,0.3497401475906372,-0.5096480846405029,59.70606994628906,99.06576538085938,-26.27708435058594
110014,-0.8847808837890625,2.621337890625,1.256271362304688,1.176721692085266,-1.154473662376404,-0.0421101674437522,59.74618530273438,99.12419128417967,-26.65133666992188
110015,-0.8847808837890625,2.621337890625,1.256271362304688,1.176721692085266,-1.154473662376404,-0.0421101674437522,59.74618530273438,99.12419128417967,-26.65133666992188
110016,-0.8344879150390625,2.5438232421875,1.35693359375,0.698973536491394,-0.9427433013916016,0.0836112722754478,59.50650024414062,99.1457061767578,-27.2454833984375
110017,-0.74835205078125,2.192718505859375,1.253372192382812,-0.1071908995509148,-0.5677827596664429,-0.0867359638214111,59.4312744140625,99.08709716796876,-27.89701843261719
110018,-0.566864013671875,1.473800659179688,0.7659912109375,-0.8591570854187012,-0.6658435463905334,-0.3956013917922974,59.27383422851562,99.03829956054688,-28.50270080566406
110019,-0.566864013671875,1.473800659179688,0.7659912109375,-0.8591570854187012,-0.6658435463905334,-0.3956013917922974,59.27383422851562,99.03829956054688,-28.50270080566406
110020,-0.5076446533203125,1.255355834960938,0.6155242919921875,-0.7436088919639587,-0.704663872718811,-0.382250964641571,59.13685607910156,99.1210479736328,-28.07957458496094
110021,-0.427825927734375,1.088485717773438,0.4588775634765625,-0.5874112844467163,-0.704577624797821,-0.3660099506378174,58.84738159179688,99.18309020996094,-27.64494323730469
110022,-0.2263946533203125,0.73858642578125,0.2002716064453125,-0.6240531802177429,-0.8161507248878479,-0.3465624749660492,58.44987487792969,99.46656799316406,-27.19462585449219
110023,-0.2263946533203125,0.73858642578125,0.2002716064453125,-0.6240531802177429,-0.8161507248878479,-0.3465624749660492,58.44987487792969,99.46656799316406,-27.19462585449219
110024,-0.1583404541015625,0.565887451171875,0.1337432861328125,-0.7521680593490601,-0.8375231623649597,-0.3262287080287933,58.09376525878906,99.61972045898438,-26.84243774414062
110025,-0.1125030517578125,0.422943115234375,0.0849609375,-0.8884222507476807,-0.7848159670829773,-0.3292276859283447,57.88423156738281,99.8013153076172,-26.61553955078125
110026,-0.026580810546875,0.1680145263671875,-0.09051513671875,-1.049375772476196,-0.6836068034172058,-0.3601501882076263,57.33645629882812,99.99432373046876,-25.75753784179688
110027,-0.026580810546875,0.1680145263671875,-0.09051513671875,-1.049375772476196,-0.6836068034172058,-0.3601501882076263,57.33645629882812,99.99432373046876,-25.75753784179688
110028,0.0877532958984375,0.0005645751953125,-0.5434417724609375,-0.9236188530921936,-1.410714268684387,-0.2552189826965332,57.10911560058594,100.0806579589844,-25.25082397460938
110029,0.18994140625,-0.0201263427734375,-0.3858795166015625,-0.1184877678751945,-3.452338218688965,0.1838435977697372,56.45896911621094,100.0459899902344,-24.3834228515625
110030,0.16168212890625,0.0744171142578125,-0.0826416015625,0.2464667707681656,-3.259594678878784,0.3444926738739014,56.04576110839844,100.1637115478516,-24.36093139648438
110031,0.16168212890625,0.0744171142578125,-0.0826416015625,0.2464667707681656,-3.259594678878784,0.3444926738739014,56.04576110839844,100.1637115478516,-24.36093139648438
110032,0.1182861328125,0.2147216796875,0.0452117919921875,0.5084986686706543,-2.385108232498169,0.3877831399440765,55.36259460449219,100.5648803710938,-24.54252624511719
110033,0.1112213134765625,0.3568115234375,0.005950927734375,0.608201265335083,-1.367980360984802,0.329762190580368,54.93086242675781,100.8883514404297,-24.78070068359375
110034,0.1254425048828125,0.5251312255859375,-0.47906494140625,0.3780823051929474,0.4493383765220642,-0.0704659074544906,54.22282409667969,101.0375671386719,-25.23324584960938
110035,0.1254425048828125,0.5251312255859375,-0.47906494140625,0.3780823051929474,0.4493383765220642,-0.0704659074544906,54.22282409667969,101.0375671386719,-25.23324584960938
110036,0.0896453857421875,0.4373931884765625,-0.4393463134765625,0.4611425697803497,0.3674398064613342,-0.2394248396158218,54.10124206542969,101.0050964355469,-25.33946228027344
110037,0.065277099609375,0.3137054443359375,-0.2191314697265625,0.6617174744606018,0.3208557665348053,-0.2707065939903259,54.10824584960938,100.9338684082031,-25.51570129394531
110038,0.02008056640625,0.132568359375,-0.17095947265625,0.9351106882095336,0.4657820761203766,0.0387812182307243,53.93917846679688,100.7680511474609,-26.2706298828125
110039,0.02008056640625,0.132568359375,-0.17095947265625,0.9351106882095336,0.4657820761203766,0.0387812182307243,53.93917846679688,100.7680511474609,-26.2706298828125
110040,0.037322998046875,0.0181427001953125,-0.21160888671875,0.8808991312980652,0.4879212081432343,0.2440065443515778,53.97151184082031,100.6674041748047,-26.61970520019531
110041,0.0767364501953125,-0.0449066162109375,-0.217041015625,0.7146638035774231,0.5880084037780762,0.3841604590415955,54.01239013671875,100.6492004394531,-26.99044799804688
110042,0.0471038818359375,0.01300048828125,-0.2830352783203125,0.28123939037323,0.3644485175609589,0.4257337152957916,54.43960571289062,100.5042877197266,-27.63327026367188
110043,0.0471038818359375,0.01300048828125,-0.2830352783203125,0.28123939037323,0.3644485175609589,0.4257337152957916,54.43960571289062,100.5042877197266,-27.63327026367188
110044,0.021209716796875,0.13507080078125,-0.2188568115234375,0.0348818190395832,0.0644823163747787,0.2670705914497375,54.69668579101562,100.4358367919922,-27.85919189453125
110045,0.00482177734375,0.2880096435546875,-0.1221160888671875,-0.2074109762907028,-0.2127823084592819,0.0654115006327629,54.84596252441406,100.4266815185547,-27.96595764160156
110046,-0.0058746337890625,0.69256591796875,-0.020355224609375,-0.4918003678321838,-0.5031164288520813,-0.4101057648658752,54.97611999511719,100.4170532226562,-27.70797729492188
110047,-0.0058746337890625,0.69256591796875,-0.020355224609375,-0.4918003678321838,-0.5031164288520813,-0.4101057648658752,54.97611999511719,100.4170532226562,-27.70797729492188
110048,-0.02740478515625,1.007720947265625,0.06341552734375,-0.4876234531402588,-0.4934680461883545,-0.7318025827407837,54.78652954101562,100.5780944824219,-27.63775634765625
110049,-0.0966796875,1.3282470703125,0.3272705078125,-0.5035627484321594,-0.1061836928129196,-1.111805319786072,54.38491821289062,100.7844696044922,-27.40164184570312
110050,-0.3278350830078125,1.822250366210938,0.87884521484375,-1.235818028450012,1.97403085231781,-1.675301432609558,53.32232666015625,101.2201843261719,-27.12142944335938
110051,-0.3278350830078125,1.822250366210938,0.87884521484375,-1.235818028450012,1.97403085231781,-1.675301432609558,53.32232666015625,101.2201843261719,-27.12142944335938
110052,-0.467803955078125,2.26312255859375,0.852752685546875,-1.763208627700806,2.905833005905151,-2.027347803115845,52.59884643554688,101.5687255859375,-26.98121643066406
110053,-0.987701416015625,2.787918090820312,0.6552886962890625,-1.746205449104309,2.510627746582031,-2.340190172195435,52.01490783691406,101.8012084960938,-26.3583984375
110054,-2.323257446289062,3.609344482421875,0.9362335205078124,-0.9418988227844238,0.6201479434967041,-0.6426042318344116,50.51817321777344,102.6636657714844,-24.73873901367188
110055,-2.323257446289062,3.609344482421875,0.9362335205078124,-0.9418988227844238,0.6201479434967041,-0.6426042318344116,50.51817321777344,102.6636657714844,-24.73873901367188
110056,-2.115066528320312,3.55975341796875,1.087326049804688,-0.7770307660102844,-0.0806618258357048,-0.3996421992778778,49.76667785644531,103.0058746337891,-24.09356689453125
110057,-1.500396728515625,3.045547485351562,1.061294555664062,-1.10430908203125,-1.026156663894653,-0.6881062388420105,49.37661743164062,102.9708099365234,-23.35733032226562
110058,-0.39935302734375,2.271331787109375,0.2605743408203125,-0.0488405115902423,-1.446670889854431,-0.0460796095430851,48.51980590820312,103.0917663574219,-22.32774353027344
110059,-0.39935302734375,2.271331787109375,0.2605743408203125,-0.0488405115902423,-1.446670889854431,-0.0460796095430851,48.51980590820312,103.0917663574219,-22.32774353027344
110060,-0.170928955078125,2.3837890625,0.1030731201171875,0.7464395761489868,-0.7194644212722778,0.2407779842615128,48.15664672851562,103.0927886962891,-21.78192138671875
110061,-0.141143798828125,2.312393188476562,-0.1646881103515625,1.065828204154968,0.5683087110519409,0.4863914847373962,47.94963073730469,103.0450439453125,-21.4903564453125
110062,-0.1767120361328125,1.601394653320312,-0.845916748046875,0.8193646669387817,1.038073778152466,0.962650179862976,48.28533935546875,102.8128204345703,-22.25590515136719
110063,-0.148284912109375,1.334808349609375,-0.75482177734375,0.4911105930805206,0.4274402856826782,1.052751779556274,48.77131652832031,102.6196594238281,-22.74336242675781
110064,-0.148284912109375,1.334808349609375,-0.75482177734375,0.4911105930805206,0.4274402856826782,1.052751779556274,48.77131652832031,102.6196594238281,-22.74336242675781
110065,-0.07574462890625,1.17938232421875,-0.5895538330078125,0.1805508732795715,0.0346003212034702,1.02265727519989,49.51736450195312,102.3951721191406,-22.99057006835938
110066,-0.01690673828125,1.078720092773438,-0.4830780029296875,-0.0127118006348609,-0.183766633272171,0.926330268383026,50.20571899414062,102.24267578125,-23.2779541015625
110067,0.0106048583984375,0.9652862548828124,-0.3946533203125,-0.0603632070124149,-0.3152271807193756,0.7957227230072021,50.97740173339844,102.0354919433594,-23.49031066894531
110068,0.005401611328125,0.8258514404296875,-0.31097412109375,-0.003458114573732,-0.4065722823143005,0.6836209297180176,51.65632629394531,101.7985687255859,-23.48789978027344
110069,-0.041351318359375,0.6904449462890625,-0.2536773681640625,0.123476929962635,-0.5444534420967102,0.576737642288208,52.27511596679688,101.4808502197266,-23.51509094238281
110070,-0.0365753173828125,0.388336181640625,-0.07659912109375,0.19813571870327,-0.6596490144729614,0.3310911059379578,53.29454040527344,101.13427734375,-23.92643737792969
110071,-0.0365753173828125,0.388336181640625,-0.07659912109375,0.19813571870327,-0.6596490144729614,0.3310911059379578,53.29454040527344,101.13427734375,-23.92643737792969
110072,0.0189208984375,0.2075653076171875,-0.031982421875,0.1402694880962372,-0.5139402747154236,0.3832424581050873,53.58816528320312,101.0077209472656,-24.14619445800781
110073,0.0651092529296875,0.050201416015625,-0.0854644775390625,0.1406564563512802,-0.2856948673725128,0.5249140858650208,53.79067993164062,100.9234619140625,-24.20063781738281
110074,0.1488037109375,-0.164337158203125,-0.391754150390625,0.7147964239120483,0.0408475659787654,0.900870442390442,54.17550659179688,100.836181640625,-24.59852600097656
110075,0.1488037109375,-0.164337158203125,-0.391754150390625,0.7147964239120483,0.0408475659787654,0.900870442390442,54.17550659179688,100.836181640625,-24.59852600097656
110076,0.222930908203125,-0.2216339111328125,-0.575927734375,1.06592857837677,0.0565879121422767,1.06890606880188,54.43501281738281,100.7868957519531,-24.64697265625
110077,0.2648162841796875,-0.19775390625,-0.54852294921875,1.209541440010071,-0.0501547791063785,1.214148163795471,54.74061584472656,100.7194976806641,-24.79638671875
110078,0.23565673828125,-0.060089111328125,-0.164337158203125,1.052582740783691,-0.0804450437426567,1.346298813819885,55.85226440429688,100.4314575195312,-25.59318542480469
110079,0.23565673828125,-0.060089111328125,-0.164337158203125,1.052582740783691,-0.0804450437426567,1.346298813819885,55.85226440429688,100.4314575195312,-25.59318542480469
110080,0.2419891357421875,-0.018829345703125,-0.174713134765625,0.95354425907135,-0.1016824170947075,1.349206447601318,56.50390625,99.98899841308594,-25.80400085449219
110081,0.265960693359375,0.0658416748046875,-0.3416290283203125,1.012220144271851,-0.2920451760292053,1.135755658149719,57.87127685546875,99.22132873535156,-26.22413635253906
110082,0.272125244140625,0.1130523681640625,-0.360748291015625,1.070833086967468,-0.2241369634866714,0.8962218761444092,58.38980102539062,99.16584777832033,-26.67720031738281
110083,0.272125244140625,0.1130523681640625,-0.360748291015625,1.070833086967468,-0.2241369634866714,0.8962218761444092,58.38980102539062,99.16584777832033,-26.67720031738281
110084,0.2599029541015625,0.1924896240234375,-0.350494384765625,1.071026682853699,-0.0875024199485778,0.6454706192016602,58.88323974609375,98.91354370117188,-26.95797729492188
110085,0.185791015625,0.2837066650390625,-0.275634765625,1.025542020797729,-0.0810362622141838,0.4586352109909058,59.30494689941406,98.6672821044922,-27.38334655761719
110086,0.0974884033203125,0.449737548828125,0.2071685791015625,0.8057175278663635,0.2421292811632156,0.1447313576936722,59.84951782226562,98.2417449951172,-28.40486145019531
110087,0.1049652099609375,0.6872100830078125,0.4934234619140625,0.5754870176315308,0.9333865642547609,-0.1417243778705597,59.93545532226562,98.130126953125,-28.97422790527344
110088,0.1049652099609375,0.6872100830078125,0.4934234619140625,0.5754870176315308,0.9333865642547609,-0.1417243778705597,59.93545532226562,98.130126953125,-28.97422790527344
110089,0.1089630126953125,1.068649291992188,0.6922760009765625,0.1942765414714813,1.95902156829834,-0.510918378829956,60.0701904296875,98.03988647460938,-29.56729125976562
110090,-0.1474609375,2.189697265625,0.7677459716796875,-1.035883903503418,3.267899990081787,-1.282014012336731,60.20390319824219,98.01374816894533,-29.94990539550781
110091,-0.1474609375,2.189697265625,0.7677459716796875,-1.035883903503418,3.267899990081787,-1.282014012336731,60.20390319824219,98.01374816894533,-29.94990539550781
110092,-0.4696502685546875,2.45703125,0.67840576171875,-1.141006350517273,2.469565391540527,-1.584154486656189,60.50650024414062,97.99197387695312,-29.70474243164062
110093,-0.7718505859375,2.399505615234375,0.6487884521484375,-0.4548934698104858,0.8668879270553589,-1.475863099098206,60.63531494140625,98.1261749267578,-28.98153686523438
110094,-0.9868316650390624,2.2666015625,1.063613891601562,1.585894823074341,-1.231490135192871,-0.1781825125217438,60.46028137207031,98.59922790527344,-28.143798828125
110095,-0.9868316650390624,2.2666015625,1.063613891601562,1.585894823074341,-1.231490135192871,-0.1781825125217438,60.46028137207031,98.59922790527344,-28.143798828125
110096,-0.94366455078125,2.3006591796875,1.195693969726562,1.740354776382446,-0.8802490234375,0.1848585307598114,60.07077026367188,98.72901916503906,-28.39476013183594
110097,-0.9180908203125,2.149566650390625,1.164077758789062,1.075175881385803,-0.1705507040023804,-0.014117949642241,59.72810363769531,98.70204162597656,-29.14077758789062
110098,-0.8029632568359375,1.405899047851562,0.7273712158203125,-0.6997261047363281,0.2618779540061951,-0.7318310737609863,59.57157897949219,98.54229736328124,-30.70130920410156
110099,-0.8029632568359375,1.405899047851562,0.7273712158203125,-0.6997261047363281,0.2618779540061951,-0.7318310737609863,59.57157897949219,98.54229736328124,-30.70130920410156
110100,-0.699127197265625,1.063629150390625,0.538360595703125,-0.9931673407554626,-0.0372917130589485,-0.6968363523483276,59.49586486816406,98.4893035888672,-30.96987915039062
110101,-0.5858001708984375,0.843963623046875,0.419891357421875,-0.9140522480010986,-0.3834869265556335,-0.5126907229423523,59.368408203125,98.56187438964844,-30.646240234375
110102,-0.3603973388671875,0.6442413330078125,0.2664947509765625,-0.5397647023200989,-0.6612839102745056,-0.3621688783168793,58.71151733398438,99.1211395263672,-29.67277526855469
110103,-0.258331298828125,0.5437469482421875,0.182891845703125,-0.5339174270629883,-0.6861158013343811,-0.4033016562461853,58.41682434082031,99.46003723144533,-29.41358947753906
110104,-0.258331298828125,0.5437469482421875,0.182891845703125,-0.5339174270629883,-0.6861158013343811,-0.4033016562461853,58.41682434082031,99.46003723144533,-29.41358947753906
110105,-0.1623382568359375,0.4196624755859375,0.10107421875,-0.6284612417221069,-0.7102048993110657,-0.4192007184028625,58.14183044433594,99.52899169921876,-29.04815673828125
110106,-0.0498809814453125,0.23193359375,0.02197265625,-0.946368396282196,-0.5828818082809448,-0.4653871357440948,57.60560607910156,99.8826904296875,-28.55537414550781
110107,-0.0498809814453125,0.23193359375,0.02197265625,-0.946368396282196,-0.5828818082809448,-0.4653871357440948,57.60560607910156,99.8826904296875,-28.55537414550781
110108,0.041748046875,0.14727783203125,-0.30499267578125,-1.048709630966187,-0.6771520972251892,-0.4376505613327026,57.16583251953125,99.93351745605467,-28.1534423828125
110109,0.22601318359375,0.10882568359375,-0.992889404296875,-0.9108335971832277,-2.226163387298584,-0.2398014068603516,56.83244323730469,99.98640441894533,-27.86811828613281
110110,0.2610321044921875,0.411865234375,-0.16876220703125,-0.2437388896942139,-4.078052997589111,0.1694742441177368,55.9283447265625,100.1220855712891,-26.96661376953125
110111,0.2610321044921875,0.411865234375,-0.16876220703125,-0.2437388896942139,-4.078052997589111,0.1694742441177368,55.9283447265625,100.1220855712891,-26.96661376953125
110112,0.2055816650390625,0.56719970703125,0.1742095947265625,0.1033833771944046,-2.94578742980957,0.2160547971725464,55.18582153320312,100.3363952636719,-26.95037841796875
110113,0.2441558837890625,0.63787841796875,0.1652679443359375,0.1658856421709061,-0.9756006002426147,0.1377067267894745,54.39579772949219,100.5780181884766,-26.96488952636719
110114,0.1922760009765625,0.7194671630859375,-0.5238189697265625,0.1431273370981216,1.298481464385986,-0.1078359186649323,53.05404663085938,101.2093811035156,-27.03834533691406
110115,0.1922760009765625,0.7194671630859375,-0.5238189697265625,0.1431273370981216,1.298481464385986,-0.1078359186649323,53.05404663085938,101.2093811035156,-27.03834533691406
110116,0.109954833984375,0.5560302734375,-0.420867919921875,0.550299346446991,0.989998698234558,-0.4052106142044067,53.00053405761719,101.3251800537109,-27.03718566894531
110117,0.1251220703125,0.3951416015625,-0.226318359375,0.8483643531799316,0.6970624327659607,-0.3780969679355621,53.07888793945312,101.2266387939453,-26.77574157714844
110118,0.135833740234375,0.345367431640625,-0.160675048828125,0.9002302289009094,0.5427977442741394,-0.0876033529639244,53.12176513671875,101.0826568603516,-27.19514465332031
110119,0.135528564453125,0.272369384765625,-0.193572998046875,0.7701566219329834,0.4042337536811829,0.2109042406082153,53.21902465820312,100.8521270751953,-27.73124694824219
110120,0.1538848876953125,0.1020355224609375,-0.227508544921875,0.647878885269165,0.3480549156665802,0.3773028254508972,53.20327758789062,100.7359008789062,-28.19210815429688
110121,0.1391143798828125,-0.025421142578125,-0.250762939453125,0.6082923412322998,0.3037438988685608,0.5161113142967224,53.41397094726562,100.6334991455078,-28.51933288574219
110122,0.0716400146484375,-0.053863525390625,-0.1799163818359375,0.551488995552063,0.1217237710952759,0.6288242340087891,53.97695922851562,100.4313507080078,-28.95822143554688
110123,0.0716400146484375,-0.053863525390625,-0.1799163818359375,0.551488995552063,0.1217237710952759,0.6288242340087891,53.97695922851562,100.4313507080078,-28.95822143554688
110124,0.029937744140625,0.001312255859375,-0.1155853271484375,0.4264967143535614,0.0007398261222988,0.5427008271217346,54.36141967773438,100.1964416503906,-29.22911071777344
110125,0.004547119140625,0.1075286865234375,-0.06170654296875,0.2005613297224045,-0.1458536088466644,0.341383695602417,54.76351928710938,100.0597839355469,-29.41178894042969
110126,-0.0137939453125,0.43115234375,-0.0865936279296875,-0.280708372592926,-0.5300188660621643,-0.164041131734848,55.27571105957031,100.0885467529297,-29.77525329589844
110127,-0.0137939453125,0.43115234375,-0.0865936279296875,-0.280708372592926,-0.5300188660621643,-0.164041131734848,55.27571105957031,100.0885467529297,-29.77525329589844
110128,-0.0353240966796875,0.7902374267578125,-0.069000244140625,-0.3987908065319061,-0.7580035328865051,-0.5994336009025574,55.32656860351562,100.2268981933594,-29.7513427734375
110129,-0.0992889404296875,1.252822875976562,0.0681915283203125,-0.5226759910583496,-0.7398831248283386,-1.16311776638031,55.19659423828125,100.3784027099609,-29.61497497558594
110130,-0.2858734130859375,1.87200927734375,0.5745391845703125,-1.171173572540283,0.4657794237136841,-2.20312762260437,53.96913146972656,100.950927734375,-29.62893676757812
110131,-0.2858734130859375,1.87200927734375,0.5745391845703125,-1.171173572540283,0.4657794237136841,-2.20312762260437,53.96913146972656,100.950927734375,-29.62893676757812
110132,-0.5100555419921875,2.2080078125,0.816802978515625,-1.636147141456604,1.782229781150818,-2.34661078453064,53.00790405273438,101.4097442626953,-29.64166259765625
110133,-0.901641845703125,2.820632934570312,0.75274658203125,-2.013761758804321,2.827399253845215,-2.520946979522705,51.91790771484375,101.8528747558594,-29.38423156738281
110134,-1.900192260742188,3.356246948242188,0.619049072265625,-1.673823952674866,2.590855121612549,-1.655260324478149,50.96870422363281,102.178955078125,-28.87164306640625
110135,-2.529281616210938,3.930984497070312,0.7055816650390625,-1.17309558391571,1.344536542892456,-0.1742983013391495,50.27336120605469,102.5768890380859,-28.28828430175781
110136,-2.349441528320312,4.0150146484375,1.011810302734375,-0.6748812198638916,0.2660095691680908,0.0572728775441646,49.93302917480469,102.6755828857422,-27.43121337890625
110137,-1.666213989257812,3.237594604492188,1.078231811523438,-0.8649427890777588,-0.4436091184616089,-0.5485224723815918,49.76539611816406,102.7732391357422,-26.55694580078125
110138,-0.4310150146484375,2.149154663085938,0.0528717041015625,-0.1756463944911957,-1.327990889549255,0.0388307534158229,49.5130615234375,103.034423828125,-25.48397827148438
110139,-0.4310150146484375,2.149154663085938,0.0528717041015625,-0.1756463944911957,-1.327990889549255,0.0388307534158229,49.5130615234375,103.034423828125,-25.48397827148438
110140,-0.1869964599609375,2.322601318359375,-0.112701416015625,0.4636150598526001,-1.14925229549408,0.2340045124292374,49.2071533203125,103.0609283447266,-25.00529479980469
110141,-0.1501922607421875,2.358169555664062,-0.25372314453125,0.6600005626678467,-0.2770478427410126,0.311539500951767,49.04753112792969,102.9689483642578,-24.51902770996094
110142,-0.1259613037109375,1.707962036132812,-0.723297119140625,0.6271587014198303,0.5354064106941223,0.7794159054756165,49.12031555175781,102.5242156982422,-24.52873229980469
110143,-0.1259613037109375,1.707962036132812,-0.723297119140625,0.6271587014198303,0.5354064106941223,0.7794159054756165,49.12031555175781,102.5242156982422,-24.52873229980469
110144,-0.078643798828125,1.370620727539062,-0.6666717529296875,0.4655125737190247,0.2600446343421936,0.862983763217926,49.44143676757812,102.2710876464844,-24.88505554199219
110145,-0.0040130615234375,1.157333374023438,-0.5984954833984375,0.2825608551502228,0.0022679478861391,0.813450813293457,49.89158630371094,102.0644989013672,-25.19612121582031
110146,0.0693511962890625,0.8924102783203125,-0.4584503173828125,0.023151658475399,-0.0616383291780948,0.6462956666946411,50.98312377929688,101.662841796875,-25.63682556152344
110147,0.0693511962890625,0.8924102783203125,-0.4584503173828125,0.023151658475399,-0.0616383291780948,0.6462956666946411,50.98312377929688,101.662841796875,-25.63682556152344
110148,0.0426483154296875,0.8011322021484375,-0.3590087890625,0.0525212660431861,-0.0260326657444238,0.5853199362754822,51.59432983398438,101.573486328125,-25.85594177246094
110149,-0.0195159912109375,0.716064453125,-0.244415283203125,0.1511458456516266,-0.0308937337249517,0.4892165660858154,52.13114929199219,101.4178161621094,-25.79537963867188
110150,-0.048095703125,0.410186767578125,-0.0540618896484375,0.135162353515625,-0.1244697570800781,0.3332546651363373,53.0623779296875,101.0250701904297,-26.05307006835938
110151,-0.048095703125,0.410186767578125,-0.0540618896484375,0.135162353515625,-0.1244697570800781,0.3332546651363373,53.0623779296875,101.0250701904297,-26.05307006835938
110152,-0.0296173095703125,0.2391204833984375,-0.0618896484375,0.0338248088955879,-0.1695589423179626,0.3207487165927887,53.25987243652344,100.9815521240234,-26.09382629394531
110153,-0.0095672607421875,0.093292236328125,-0.1266937255859375,0.0310284905135631,-0.2416323274374008,0.3304871022701263,53.52227783203125,100.9326477050781,-26.1295166015625
110154,0.067840576171875,-0.16717529296875,-0.39984130859375,0.4527855813503265,-0.5785629749298096,0.4737614393234253,53.69377136230469,101.0313262939453,-26.41294860839844
110155,0.067840576171875,-0.16717529296875,-0.39984130859375,0.4527855813503265,-0.5785629749298096,0.4737614393234253,53.69377136230469,101.0313262939453,-26.41294860839844
110156,0.1071929931640625,-0.2266387939453125,-0.4383087158203125,0.7553630471229553,-0.8125855922698975,0.6159231066703796,53.74740600585938,101.0093841552734,-26.48500061035156
110157,0.1391448974609375,-0.212646484375,-0.2878570556640625,0.8836296796798706,-0.6166291236877441,0.7001469135284424,53.88833618164062,100.9538879394531,-26.62059020996094
110158,0.1895294189453125,-0.151214599609375,-0.2242889404296875,0.9214313626289368,-0.0915163308382034,0.7345288395881653,54.344970703125,100.7191009521484,-27.14480590820312
110159,0.1895294189453125,-0.151214599609375,-0.2242889404296875,0.9214313626289368,-0.0915163308382034,0.7345288395881653,54.344970703125,100.7191009521484,-27.14480590820312
110160,0.2185516357421875,-0.133514404296875,-0.2859954833984375,1.000638604164124,-0.2538264095783234,0.7458957433700562,54.59974670410156,100.5156860351562,-27.46165466308594
110161,0.25372314453125,-0.0982208251953125,-0.3040618896484375,1.112957119941711,-0.4848164916038513,0.7437979578971863,54.91255187988281,100.2223510742188,-27.72735595703125
110162,0.2820587158203125,-0.0256195068359375,-0.2750396728515625,1.215775609016418,-0.5243993401527405,0.7079606056213379,55.21078491210938,99.9506378173828,-28.02595520019531
110163,0.2817535400390625,0.0850067138671875,-0.255218505859375,1.291848063468933,-0.3801750242710114,0.647656261920929,55.59049987792969,99.6488800048828,-28.371337890625
110164,0.231109619140625,0.1858978271484375,-0.2181549072265625,1.329553842544556,-0.258930891752243,0.5894254446029663,55.7330322265625,99.5811004638672,-28.99824523925781
110165,0.169281005859375,0.2434539794921875,-0.1392974853515625,1.344632148742676,-0.2635959684848785,0.5171757340431213,56.00700378417969,99.3647918701172,-29.52937316894531
110166,0.1131744384765625,0.30438232421875,0.2461700439453125,1.214513540267944,0.0750004723668098,0.2775945961475372,56.45542907714844,99.07513427734376,-30.71540832519531
110167,0.1131744384765625,0.30438232421875,0.2461700439453125,1.214513540267944,0.0750004723668098,0.2775945961475372,56.45542907714844,99.07513427734376,-30.71540832519531
110168,0.145538330078125,0.59454345703125,0.541015625,0.9893859028816224,1.014768004417419,0.1299002021551132,56.56367492675781,98.95921325683594,-31.46759033203125
110169,0.160308837890625,1.080108642578125,0.7078857421875,0.5460302829742432,2.404633760452271,0.0791230499744415,56.65829467773438,98.85269165039062,-32.25115966796875
110170,-0.2266998291015625,1.958633422851562,0.765411376953125,-1.063697934150696,4.484137535095215,-0.6373685002326965,57.06062316894531,98.44009399414062,-33.28724670410156
110171,-0.2266998291015625,1.958633422851562,0.765411376953125,-1.063697934150696,4.484137535095215,-0.6373685002326965,57.06062316894531,98.44009399414062,-33.28724670410156
110172,-0.5560455322265625,2.158294677734375,0.5211029052734375,-1.478551626205444,3.711690187454224,-1.303187489509583,57.70672607421875,98.279052734375,-33.31581115722656
110173,-0.9475555419921876,2.1683349609375,0.421600341796875,-0.9964600801467896,1.595515251159668,-1.618193387985229,59.16830444335938,98.28767395019533,-31.76570129394531
110174,-1.265594482421875,2.22210693359375,1.003082275390625,1.030598640441895,-1.652187585830688,-1.139549612998962,58.92295837402344,98.5934600830078,-30.70396423339844
110175,-1.265594482421875,2.22210693359375,1.003082275390625,1.030598640441895,-1.652187585830688,-1.139549612998962,58.92295837402344,98.5934600830078,-30.70396423339844
110176,-1.143508911132812,2.275985717773438,1.2520751953125,1.448701024055481,-1.459472417831421,-0.6039527058601379,58.13763427734375,98.90768432617188,-31.09901428222656
110177,-0.997283935546875,2.13427734375,1.235977172851562,1.065508127212524,-0.5231068730354309,-0.2499469816684723,57.39688110351562,99.11866760253906,-31.89213562011719
110178,-0.6634521484375,1.484359741210938,0.658721923828125,-0.7254850268363953,0.4574650228023529,-0.4361618757247925,56.60893249511719,99.40110778808594,-33.20510864257812
110179,-0.6634521484375,1.484359741210938,0.658721923828125,-0.7254850268363953,0.4574650228023529,-0.4361618757247925,56.60893249511719,99.40110778808594,-33.20510864257812
110180,-0.6322479248046875,1.266738891601562,0.4395751953125,-1.234407901763916,-0.0667984709143638,-0.6297036409378052,56.57644653320312,99.27726745605467,-33.15359497070312
110181,-0.6262359619140625,1.095596313476562,0.360260009765625,-1.3619065284729,-0.6806584000587463,-0.6855821013450623,56.59310913085938,99.33328247070312,-32.67369079589844
110182,-0.608245849609375,0.9795379638671876,0.3445281982421875,-1.238287568092346,-1.037324190139771,-0.6712470650672913,56.35806274414062,99.59695434570312,-31.99351501464844
110183,-0.5595245361328125,0.890869140625,0.3005218505859375,-1.031960248947144,-1.089906096458435,-0.7284150123596191,56.00410461425781,99.685302734375,-31.2049560546875
110184,-0.4758453369140625,0.785980224609375,0.2224273681640625,-0.8729298710823059,-0.9946179389953612,-0.8422678112983704,55.58158874511719,99.83810424804688,-30.40200805664062
110185,-0.372589111328125,0.6566619873046875,0.1414794921875,-0.8262920379638672,-0.8728883266448975,-0.9559237957000732,55.19255065917969,99.94757080078124,-29.73899841308594
110186,-0.1527099609375,0.3916778564453125,-0.0234222412109375,-0.9865760207176208,-0.9170563220977784,-0.9686795473098756,54.04777526855469,100.4502716064453,-29.15774536132812
110187,-0.1527099609375,0.3916778564453125,-0.0234222412109375,-0.9865760207176208,-0.9170563220977784,-0.9686795473098756,54.04777526855469,100.4502716064453,-29.15774536132812
110188,-0.0805511474609375,0.300628662109375,-0.1084136962890625,-1.138244152069092,-1.165690422058105,-0.8998056650161743,53.49209594726562,100.7080230712891,-28.87452697753906
110189,0.005126953125,0.2763824462890625,-0.528717041015625,-1.235046029090881,-1.756760597229004,-0.8764239549636841,52.83717346191406,100.8469543457031,-28.28500366210938
110190,0.181427001953125,0.32769775390625,-1.35003662109375,-0.9711989164352416,-4.081280708312988,-0.9181697964668274,52.2042236328125,101.0309906005859,-27.63763427734375
110191,0.1846771240234375,0.404571533203125,-0.9764556884765624,-0.3799244165420532,-6.154486179351807,-0.9545975923538208,51.29505920410156,101.0799560546875,-27.07075500488281
110192,0.0750579833984375,0.5665283203125,0.0320892333984375,0.175287663936615,-5.692039966583252,-0.8489590287208557,50.24725341796875,101.0986175537109,-26.56298828125
110193,-0.0644073486328125,0.852874755859375,0.6087646484375,0.6608660817146301,-1.103007316589355,-0.3159081637859344,49.00714111328125,101.2875061035156,-26.38032531738281
110194,-0.001800537109375,0.6417236328125,-0.6185302734375,1.626574397087097,2.714009046554565,-0.0823188424110412,47.20930480957031,101.5710296630859,-26.8665771484375
110195,-0.001800537109375,0.6417236328125,-0.6185302734375,1.626574397087097,2.714009046554565,-0.0823188424110412,47.20930480957031,101.5710296630859,-26.8665771484375
110196,0.0040130615234375,0.3688812255859375,-0.3553009033203125,1.545105576515198,2.113451242446899,-0.134340226650238,47.47547912597656,101.3838195800781,-27.37336730957031
110197,0.0276641845703125,0.2616119384765625,-0.307525634765625,0.5770689249038696,0.462158590555191,0.070687748491764,48.12548828125,100.6746520996094,-28.79946899414062
110198,0.0417633056640625,0.2046661376953125,-0.2946624755859375,0.1822299957275391,-0.1297127157449722,0.2554240524768829,48.38583374023438,100.5374603271484,-29.3902587890625
110199,0.0417633056640625,0.2046661376953125,-0.2946624755859375,0.1822299957275391,-0.1297127157449722,0.2554240524768829,48.38583374023438,100.5374603271484,-29.3902587890625
110200,0.070556640625,0.0502471923828125,-0.290435791015625,0.0423852726817131,-0.3556172251701355,0.4505381286144257,48.50700378417969,100.4371337890625,-29.68916320800781
110201,0.09716796875,-0.058319091796875,-0.264404296875,0.0905014052987098,-0.3706111013889313,0.6559925079345703,48.65547180175781,100.3843994140625,-29.77204895019531
110202,0.112274169921875,-0.1230316162109375,-0.133331298828125,0.1919097900390625,-0.071933314204216,0.9282562136650084,49.16378784179688,100.3431701660156,-29.78279113769531
110203,0.112274169921875,-0.1230316162109375,-0.133331298828125,0.1919097900390625,-0.071933314204216,0.9282562136650084,49.16378784179688,100.3431701660156,-29.78279113769531
110204,0.101715087890625,-0.0936279296875,-0.0938568115234375,0.1510230749845505,-0.0168402325361967,0.9814339876174928,49.48631286621094,100.3259429931641,-29.94851684570312
110205,0.0872802734375,-0.06304931640625,-0.0521087646484375,0.0572401210665702,-0.061688132584095,0.9704796075820924,49.9361572265625,100.2193298339844,-29.7982177734375
110206,0.0766754150390625,-0.0367431640625,-0.0358123779296875,-0.0960543602705001,-0.1879523247480392,0.9259475469589232,50.32466125488281,100.1531372070312,-29.75686645507812
110207,0.0639801025390625,0.019561767578125,-0.015472412109375,-0.2723873257637024,-0.4198028743267059,0.8185316324234009,50.89390563964844,100.1365661621094,-29.49815368652344
110208,0.05133056640625,0.1171112060546875,0.0265045166015625,-0.4424868822097778,-0.6614053845405579,0.6231120228767395,51.25918579101562,100.0632934570312,-29.21736145019531
110209,0.03387451171875,0.272735595703125,0.039154052734375,-0.528556764125824,-0.895938515663147,0.3721528053283691,51.62913513183594,100.2317962646484,-29.01202392578125
110210,-0.0724945068359375,1.125732421875,0.1697235107421875,-0.4690819978713989,-1.237582921981812,-0.8916258215904236,51.60101318359375,100.5440063476562,-28.38702392578125
110211,-0.0724945068359375,1.125732421875,0.1697235107421875,-0.4690819978713989,-1.237582921981812,-0.8916258215904236,51.60101318359375,100.5440063476562,-28.38702392578125
110212,-0.0982208251953125,1.82672119140625,0.524627685546875,-0.618510365486145,-0.6833876371383667,-1.954144477844238,51.188232421875,100.7490844726562,-28.24234008789062
110213,-0.1469879150390625,2.31134033203125,0.9147796630859376,-1.128292441368103,0.7465463876724243,-2.498667240142822,50.24533081054688,101.0455932617188,-28.16990661621094
110214,-0.430328369140625,3.01611328125,1.056304931640625,-1.880074858665466,2.444733858108521,-2.808274030685425,49.06210327148438,101.4166717529297,-28.12814331054688
110215,-1.1396484375,4.241134643554688,0.606414794921875,-2.789433479309082,2.78520655632019,-3.342238426208496,47.7413330078125,101.9520721435547,-27.70925903320312
110216,-2.295654296875,4.5926513671875,0.459808349609375,-2.860991239547729,1.618343353271484,-2.591995716094971,46.47074890136719,102.3625335693359,-26.94326782226562
110217,-2.60223388671875,3.857040405273438,0.8938446044921875,-2.037808179855347,0.5443218946456909,-0.613429069519043,45.17097473144531,102.7943267822266,-26.07072448730469
110218,-1.321060180664062,1.976852416992188,1.256515502929688,-0.6591209173202515,-0.4471868276596069,-0.0933395326137542,44.12942504882812,102.9893188476562,-23.70921325683594
110219,-1.321060180664062,1.976852416992188,1.256515502929688,-0.6591209173202515,-0.4471868276596069,-0.0933395326137542,44.12942504882812,102.9893188476562,-23.70921325683594
110220,-0.7696380615234375,1.929244995117188,0.655517578125,-0.0208006203174591,-0.7931112051010132,0.0113815516233444,43.94180297851562,103.1042785644531,-22.67433166503906
110221,-0.44024658203125,2.219131469726562,0.1903076171875,0.556939423084259,-0.9362958073616028,-0.0618902668356895,43.8875732421875,103.0327453613281,-21.93522644042969
110222,-0.3007354736328125,2.554061889648438,-0.4099884033203125,0.8948583602905273,-0.314303070306778,0.1363293528556824,43.71675109863281,102.5297393798828,-21.80601501464844
110223,-0.3007354736328125,2.554061889648438,-0.4099884033203125,0.8948583602905273,-0.314303070306778,0.1363293528556824,43.71675109863281,102.5297393798828,-21.80601501464844
110224,-0.3546142578125,2.232879638671875,-0.5608673095703125,0.7452424764633179,0.3480905890464783,0.2672806978225708,43.90512084960938,102.2533416748047,-22.16963195800781
110225,-0.3802490234375,1.732986450195312,-0.662506103515625,0.5184495449066162,0.5920966267585754,0.4231350123882294,44.28349304199219,101.9013977050781,-22.40653991699219
110226,-0.392730712890625,1.390838623046875,-0.58917236328125,0.2712062001228333,0.4037434756755829,0.4881560802459717,44.53488159179688,101.6934051513672,-22.83172607421875
110227,-0.378448486328125,1.161331176757812,-0.426788330078125,0.0529505647718906,0.2403590679168701,0.5144726634025574,45.00660705566406,101.5402526855469,-23.32212829589844
110228,-0.3494110107421875,1.008560180664062,-0.292449951171875,-0.0640530213713645,0.2618302702903748,0.5310273766517639,45.4952392578125,101.3074951171875,-23.51681518554688
110229,-0.3155364990234375,0.8744964599609375,-0.20660400390625,-0.0191169697791338,0.3466812670230865,0.497244656085968,45.90052795410156,101.1485900878906,-23.69892883300781
110230,-0.2715301513671875,0.724517822265625,-0.1575164794921875,0.1215338855981827,0.4543893337249756,0.4562903046607971,46.44129943847656,101.0877380371094,-23.8814697265625
110231,-0.226715087890625,0.587677001953125,-0.15216064453125,0.2794928848743439,0.4811431765556335,0.4427638351917267,46.85604858398438,101.0272216796875,-24.16816711425781
110232,-0.181427001953125,0.4909210205078125,-0.1246185302734375,0.3915475308895111,0.4168989658355713,0.4393065273761749,47.25663757324219,100.7910766601562,-24.13504028320312
110233,-0.1429901123046875,0.38232421875,-0.098358154296875,0.3925259709358215,0.3421450853347778,0.4598850309848785,47.82304382324219,100.6947631835938,-24.37406921386719
110234,-0.044189453125,0.1648406982421875,-0.1586151123046875,0.4665259122848511,-0.1021149158477783,0.4967271983623505,48.27505493164062,100.3203582763672,-25.12432861328125
110235,-0.044189453125,0.1648406982421875,-0.1586151123046875,0.4665259122848511,-0.1021149158477783,0.4967271983623505,48.27505493164062,100.3203582763672,-25.12432861328125
110236,0.0023345947265625,0.056365966796875,-0.15447998046875,0.6184981465339661,-0.3773640692234039,0.5243330001831055,48.43177795410156,100.2695007324219,-25.44020080566406
110237,0.0429840087890625,-0.0561370849609375,-0.1526336669921875,0.7856748700141907,-0.5695872902870178,0.5843092799186707,48.54330444335938,100.26416015625,-25.61373901367188
110238,0.1263580322265625,-0.1743011474609375,-0.3270111083984375,1.1443190574646,-0.9894405007362366,0.839677631855011,48.91012573242188,100.2292938232422,-26.34909057617188
110239,0.1263580322265625,-0.1743011474609375,-0.3270111083984375,1.1443190574646,-0.9894405007362366,0.839677631855011,48.91012573242188,100.2292938232422,-26.34909057617188
110240,0.1892852783203125,-0.1890411376953125,-0.4414520263671875,1.355797171592712,-1.4902024269104,0.9933524131774902,49.19296264648438,100.1814727783203,-26.61076354980469
110241,0.2628631591796875,-0.1949920654296875,-0.313079833984375,1.431261897087097,-1.413021087646484,1.057775855064392,49.39906311035156,100.0293426513672,-26.81227111816406
110242,0.3928375244140625,-0.16229248046875,-0.387237548828125,1.352439522743225,-0.0826509371399879,0.9583566188812256,49.53953552246094,99.82365417480467,-27.83575439453125
110243,0.3928375244140625,-0.16229248046875,-0.387237548828125,1.352439522743225,-0.0826509371399879,0.9583566188812256,49.53953552246094,99.82365417480467,-27.83575439453125
110244,0.394073486328125,-0.082733154296875,-0.34088134765625,1.44099760055542,-0.1992760896682739,0.9286117553710938,49.98370361328125,99.71961975097656,-28.33099365234375
110245,0.3760223388671875,0.0139312744140625,-0.2087249755859375,1.473742961883545,-0.4559600651264191,0.8721926808357239,50.33714294433594,99.49127197265624,-28.73356628417969
110246,0.3012847900390625,0.188751220703125,0.0718231201171875,1.313101172447205,-0.7276895642280579,0.6987711191177368,51.13362121582031,98.9433135986328,-29.82989501953125
110247,0.3012847900390625,0.188751220703125,0.0718231201171875,1.313101172447205,-0.7276895642280579,0.6987711191177368,51.13362121582031,98.9433135986328,-29.82989501953125
110248,0.250885009765625,0.2715606689453125,0.183074951171875,1.177193403244019,-0.6123478412628174,0.5813363790512085,51.39228820800781,98.72149658203124,-30.3326416015625
110249,0.1967620849609375,0.323974609375,0.34442138671875,1.027085900306702,-0.234261229634285,0.4294339120388031,51.61380004882812,98.44969177246094,-30.96388244628906
110250,0.1117095947265625,0.52008056640625,0.5212554931640625,0.5186780691146851,1.256134748458862,0.0490181408822536,51.91024780273438,98.18992614746094,-32.17973327636719
110251,0.0188751220703125,1.043609619140625,0.600555419921875,-0.0368317849934101,2.06115198135376,-0.4464153051376343,52.05584716796875,98.1267547607422,-32.72669982910156
110252,0.0188751220703125,1.043609619140625,0.600555419921875,-0.0368317849934101,2.06115198135376,-0.4464153051376343,52.05584716796875,98.1267547607422,-32.72669982910156
110253,-0.13592529296875,1.924041748046875,0.69580078125,-0.8940346240997314,2.857960224151611,-1.244210958480835,52.2816162109375,98.04620361328124,-33.08918762207031
110254,-0.800689697265625,2.665603637695312,0.6127471923828125,-1.711585879325867,2.371503114700317,-2.454866170883179,52.58805847167969,98.25132751464844,-33.22833251953125
110255,-0.800689697265625,2.665603637695312,0.6127471923828125,-1.711585879325867,2.371503114700317,-2.454866170883179,52.58805847167969,98.25132751464844,-33.22833251953125
110256,-1.16046142578125,2.34185791015625,0.64642333984375,-0.7554996609687805,0.8271605372428894,-2.31037712097168,52.55239868164062,98.49929809570312,-32.72747802734375
110257,-1.311538696289062,1.988037109375,0.7454833984375,0.6516028046607971,-0.6994150876998901,-1.444960355758667,52.40310668945312,98.68502807617188,-31.98240661621094
110258,-0.901275634765625,2.074966430664062,0.993927001953125,1.724803686141968,-1.474609375,0.3291483223438263,51.08680725097656,99.12831115722656,-32.28605651855469
110259,-0.901275634765625,2.074966430664062,0.993927001953125,1.724803686141968,-1.474609375,0.3291483223438263,51.08680725097656,99.12831115722656,-32.28605651855469
110260,-0.6248626708984375,2.143936157226562,0.9271392822265624,0.7839030623435974,-1.478421926498413,0.352660059928894,50.56777954101562,99.12742614746094,-33.08970642089844
110261,-0.554107666015625,1.955307006835938,0.87115478515625,-0.4153431355953217,-1.63774847984314,-0.0793105363845825,50.16221618652344,99.0341339111328,-33.94677734375
110262,-0.6630859375,1.264007568359375,0.8992462158203125,-1.333173155784607,-1.758310794830322,-0.3627110719680786,49.84297180175781,98.59889221191406,-34.31320190429688
110263,-0.6630859375,1.264007568359375,0.8992462158203125,-1.333173155784607,-1.758310794830322,-0.3627110719680786,49.84297180175781,98.59889221191406,-34.31320190429688
110264,-0.6555938720703125,1.084625244140625,0.7974853515625,-1.195153951644897,-1.467122435569763,-0.2205022871494293,49.62661743164062,98.552978515625,-33.80940246582031
110265,-0.62530517578125,0.965057373046875,0.605316162109375,-1.079475879669189,-1.14127504825592,-0.1940248608589172,49.26728820800781,98.66831970214844,-33.11227416992188
110266,-0.5567626953125,0.708038330078125,0.0600433349609375,-1.108009219169617,-1.046802639961243,-0.5490567088127136,48.63499450683594,99.28916931152344,-31.87074279785156
110267,-0.5567626953125,0.708038330078125,0.0600433349609375,-1.108009219169617,-1.046802639961243,-0.5490567088127136,48.63499450683594,99.28916931152344,-31.87074279785156
110268,-0.5259857177734375,0.436370849609375,-1.039779663085938,-1.052108407020569,-2.620306730270386,-0.7208415269851685,48.22868347167969,99.69715881347656,-31.21430969238281
110269,-0.4981536865234375,0.161895751953125,-1.050064086914062,-0.8952721953392029,-5.12429141998291,-0.6842291951179504,47.73822021484375,100.0253448486328,-30.49290466308594
110270,-0.659027099609375,-0.126190185546875,0.1379852294921875,-1.592007279396057,-3.420338153839111,-0.4313394129276276,46.94346618652344,100.3981475830078,-29.89494323730469
110271,-0.5523529052734375,-0.1201934814453125,-0.65313720703125,-2.064700365066528,-0.8516701459884644,-0.0762015581130981,45.86337280273438,100.8962554931641,-29.45448303222656
110272,-0.209320068359375,0.2000732421875,-0.5720672607421875,-0.567477822303772,-0.8324056267738342,-0.1155489683151245,45.06221008300781,101.1014404296875,-28.48556518554688
110273,-0.0903167724609375,0.3104248046875,0.1088409423828125,0.4562540948390961,0.6121323704719543,-0.0933741554617881,44.7667236328125,101.1820220947266,-27.41839599609375
110274,-0.0287933349609375,0.40008544921875,-0.05731201171875,0.8309789299964905,1.485262513160706,0.0399639271199703,44.75204467773438,100.9969024658203,-26.67196655273438
110275,-0.052947998046875,0.4416656494140625,-0.1135711669921875,0.7965410947799683,1.635935664176941,0.1012754887342453,44.83743286132812,100.6559906005859,-26.6612548828125
110276,-0.0677642822265625,0.407501220703125,-0.0657196044921875,0.6176688075065613,1.563476920127869,0.0795832425355911,44.92251586914062,100.5897979736328,-26.93923950195312
110277,-0.0449981689453125,0.321746826171875,-0.018310546875,0.4996958374977112,1.480067491531372,0.0394105240702629,45.14077758789062,100.5079803466797,-27.34519958496094
110278,-0.0044708251953125,0.230377197265625,0.0020751953125,0.3312961757183075,0.932928740978241,0.027197265997529,45.42333984375,100.63037109375,-28.294921875
110279,-0.0044708251953125,0.230377197265625,0.0020751953125,0.3312961757183075,0.932928740978241,0.027197265997529,45.42333984375,100.63037109375,-28.294921875
110280,0.0260162353515625,0.22198486328125,-0.007965087890625,0.2032849490642548,0.5338423252105713,0.0940146446228027,45.63088989257812,100.5770416259766,-28.465576171875
110281,0.0471649169921875,0.2434844970703125,-0.059906005859375,0.0508930087089538,0.0838490948081016,0.1996641159057617,45.77957153320312,100.4017486572266,-28.489501953125
110282,0.1400299072265625,0.18475341796875,-0.185272216796875,0.1387208700180054,-1.191434860229492,0.6491814851760864,46.01972961425781,100.3283233642578,-28.60321044921875
110283,0.1400299072265625,0.18475341796875,-0.185272216796875,0.1387208700180054,-1.191434860229492,0.6491814851760864,46.01972961425781,100.3283233642578,-28.60321044921875
110284,0.1400299072265625,0.18475341796875,-0.185272216796875,0.1387208700180054,-1.191434860229492,0.6491814851760864,46.01972961425781,100.3283233642578,-28.60321044921875
110285,0.151092529296875,0.11566162109375,-0.138885498046875,0.4074465930461884,-1.064013242721558,0.8592273592948914,46.00996398925781,100.3234558105469,-28.51458740234375
110286,0.0982513427734375,0.06036376953125,-0.1638336181640625,0.7491852641105652,0.5306699872016907,0.9551382064819336,45.97679138183594,100.5203399658203,-28.46092224121094
110287,0.0982513427734375,0.06036376953125,-0.1638336181640625,0.7491852641105652,0.5306699872016907,0.9551382064819336,45.97679138183594,100.5203399658203,-28.46092224121094
110288,0.094482421875,0.089324951171875,-0.37115478515625,0.7275263071060181,0.7764555215835571,0.8146204948425293,46.18424987792969,100.6942901611328,-28.76982116699219
110289,0.078826904296875,0.170806884765625,-0.38232421875,0.7605212926864624,0.1900413036346436,0.6237794160842896,46.65264892578125,100.7344970703125,-29.14871215820312
110290,0.0330963134765625,0.3946075439453125,-0.05181884765625,0.3755816221237183,-0.8131418824195862,0.1085507124662399,47.58004760742188,100.5852355957031,-29.57572937011719
110291,0.0330963134765625,0.3946075439453125,-0.05181884765625,0.3755816221237183,-0.8131418824195862,0.1085507124662399,47.58004760742188,100.5852355957031,-29.57572937011719
110292,0.030914306640625,0.587554931640625,0.1410675048828125,-0.0484040193259716,-0.9277270436286926,-0.1459721177816391,47.81669616699219,100.5189666748047,-29.85200500488281
110293,0.0253448486328125,0.845367431640625,0.3572998046875,-0.6084465384483337,-0.6939406991004944,-0.3363298177719116,47.81019592285156,100.4691925048828,-29.90666198730469
110294,-0.1028594970703125,1.704788208007812,0.7751617431640625,-1.791550040245056,0.7699880599975586,-0.8897573351860046,47.24790954589844,100.8387908935547,-29.77035522460938
110295,-0.1028594970703125,1.704788208007812,0.7751617431640625,-1.791550040245056,0.7699880599975586,-0.8897573351860046,47.24790954589844,100.8387908935547,-29.77035522460938
110296,-0.223968505859375,2.293807983398438,0.8205413818359375,-2.09966254234314,1.311203598976135,-1.28727650642395,46.95579528808594,101.1012115478516,-29.30374145507812
110297,-0.5485076904296875,3.143844604492188,0.92791748046875,-2.028283357620239,1.050427198410034,-1.853992581367493,46.52882385253906,101.4597320556641,-28.57521057128906
110298,-0.994720458984375,4.29815673828125,1.270721435546875,-1.719108819961548,0.4061733484268188,-2.474977493286133,46.00028991699219,101.7076110839844,-27.76927185058594
110299,-1.445663452148438,5.119964599609375,1.491241455078125,-1.184378027915955,-0.3862374424934387,-2.735878944396973,45.19973754882812,102.1035766601562,-27.06645202636719
110300,-2.058624267578125,4.49151611328125,2.040863037109375,-0.7371078729629517,-0.9675620794296264,-1.928672432899475,43.99531555175781,102.4643249511719,-26.65751647949219
110301,-2.259689331054688,3.1893310546875,1.89801025390625,-0.0121860923245549,0.9183154702186584,-1.66193151473999,42.74276733398438,102.6248779296875,-26.56083679199219
110302,-1.453460693359375,1.786666870117188,0.3331298828125,0.4633548855781555,0.202281191945076,-1.050334692001343,41.63810729980469,102.6949157714844,-26.26200866699219
110303,-0.9027557373046876,1.457015991210938,-0.3859405517578125,0.8832277655601501,-2.061391353607178,-0.320800393819809,40.8963623046875,102.6921234130859,-25.93058776855469
110304,-0.4964599609375,1.975753784179688,-0.388427734375,1.307060241699219,-2.572149991989136,0.1615012735128403,40.47657775878906,102.4946136474609,-25.69100952148438
110305,-0.2171630859375,2.41741943359375,-0.5781707763671875,1.433382511138916,-1.9135422706604,0.6293821930885315,40.09124755859375,102.2263641357422,-25.54257202148438
110306,-0.0955047607421875,2.495681762695312,-0.65252685546875,1.213382840156555,-1.104841947555542,0.9191911220550536,39.95130920410156,101.8739013671875,-25.51661682128906
110307,-0.007537841796875,2.095703125,-0.7141571044921875,1.034307837486267,-0.1587494313716888,1.112437844276428,40.00234985351562,101.4214019775391,-25.77743530273438
110308,-0.0023345947265625,1.547149658203125,-0.7846221923828125,0.8451565504074097,0.12337626516819,1.092186570167542,40.38401794433594,101.0134735107422,-26.19779968261719
110309,-0.0279541015625,1.1402587890625,-0.6647491455078125,0.5480101108551025,0.1023452803492546,0.9108436703681946,40.9627685546875,100.6922149658203,-26.64991760253906
110310,-0.1152496337890625,0.7455902099609375,-0.484954833984375,-0.050280213356018,0.2430504709482193,0.4738296270370483,42.21505737304688,100.4338684082031,-27.51457214355469
110311,-0.1152496337890625,0.7455902099609375,-0.484954833984375,-0.050280213356018,0.2430504709482193,0.4738296270370483,42.21505737304688,100.4338684082031,-27.51457214355469
110312,-0.1693115234375,0.64898681640625,-0.4483489990234375,-0.1150927692651749,0.0222307369112968,0.3501143455505371,42.89108276367188,100.15185546875,-27.67303466796875
110313,-0.2140045166015625,0.59844970703125,-0.301727294921875,-0.0842264667153358,-0.2903953492641449,0.2500513792037964,43.479736328125,100.0049438476562,-27.62530517578125
110314,-0.1575164794921875,0.409271240234375,-0.0184478759765625,-0.0303411278873682,-0.5021438002586365,0.2372303903102875,44.17092895507812,99.70326232910156,-27.93464660644531
110315,-0.1575164794921875,0.409271240234375,-0.0184478759765625,-0.0303411278873682,-0.5021438002586365,0.2372303903102875,44.17092895507812,99.70326232910156,-27.93464660644531
110316,-0.06585693359375,0.2770233154296875,-0.058135986328125,0.05691734328866,-0.4968574345111847,0.3105789124965668,44.28732299804688,99.735595703125,-28.08590698242188
110317,0.0231781005859375,0.153472900390625,-0.16790771484375,0.2696408033370972,-0.6232601404190063,0.4164984226226807,44.38897705078125,99.53713989257812,-28.11819458007812
110318,0.218475341796875,-0.1403045654296875,-0.5469207763671875,0.9197354316711426,-1.623276352882385,0.7790536880493164,44.64173889160156,99.6341552734375,-28.16424560546875
110319,0.218475341796875,-0.1403045654296875,-0.5469207763671875,0.9197354316711426,-1.623276352882385,0.7790536880493164,44.64173889160156,99.6341552734375,-28.16424560546875
110320,0.2738494873046875,-0.1992340087890625,-0.252288818359375,1.070605635643005,-1.409622311592102,0.9088074564933776,44.68888854980469,99.60525512695312,-28.29039001464844
110321,0.2757415771484375,-0.1971588134765625,-0.0611114501953125,1.087570786476135,-0.4745638370513916,0.9332265257835388,44.7037353515625,99.51174926757812,-28.57853698730469
110322,0.344512939453125,-0.1914215087890625,-0.2162628173828125,1.197796940803528,-0.0139246042817831,1.060233473777771,44.97117614746094,99.371337890625,-29.0089111328125
110323,0.344512939453125,-0.1914215087890625,-0.2162628173828125,1.197796940803528,-0.0139246042817831,1.060233473777771,44.97117614746094,99.371337890625,-29.0089111328125
110324,0.3773651123046875,-0.1769866943359375,-0.24053955078125,1.277166604995728,-0.3052493929862976,1.13683819770813,45.33615112304688,99.13719177246094,-29.23971557617188
110325,0.411346435546875,-0.1336212158203125,-0.2220306396484375,1.374828934669495,-0.6559866666793823,1.180128693580627,45.68531799316406,98.91812133789062,-29.538818359375
110326,0.4395904541015625,-0.046417236328125,-0.172088623046875,1.469322919845581,-0.887787938117981,1.160479664802551,46.22280883789062,98.64462280273438,-29.82429504394531
110327,0.441558837890625,0.080322265625,-0.10565185546875,1.538939595222473,-0.9119305610656738,1.038647770881653,46.57292175292969,98.35540771484376,-30.41845703125
110328,0.4022216796875,0.2187957763671875,-0.0189361572265625,1.537619233131409,-0.7442427277565002,0.8387263417243958,46.99995422363281,98.2726593017578,-30.96463012695312
110329,0.321807861328125,0.33843994140625,0.071502685546875,1.45208752155304,-0.4777937233448029,0.6369389295578003,47.2886962890625,98.19029235839844,-31.52571105957031
110330,0.2110137939453125,0.414581298828125,0.1543121337890625,1.295163631439209,-0.2665805518627167,0.4454286098480225,47.60130310058594,97.8366241455078,-32.15676879882812
110331,0.2110137939453125,0.414581298828125,0.1543121337890625,1.295163631439209,-0.2665805518627167,0.4454286098480225,47.60130310058594,97.8366241455078,-32.15676879882812
110332,0.0473480224609375,0.51025390625,0.586944580078125,0.7488718628883362,0.4737862050533295,0.0244193226099014,48.05393981933594,97.45021057128906,-33.58100891113281
110333,-0.030059814453125,0.8103790283203125,0.8895416259765625,0.3290458023548126,1.300846338272095,-0.3245639801025391,48.25680541992188,97.15461730957033,-34.12326049804688
110334,-0.5089111328125,2.23101806640625,1.155044555664062,-0.5906949639320374,2.788373947143555,-1.460767030715942,48.77194213867188,96.95689392089844,-35.39155578613281
110335,-0.5089111328125,2.23101806640625,1.155044555664062,-0.5906949639320374,2.788373947143555,-1.460767030715942,48.77194213867188,96.95689392089844,-35.39155578613281
110336,-0.8423614501953125,2.435562133789062,0.9654388427734376,-0.6230023503303528,1.982282161712646,-1.86833393573761,49.16557312011719,96.83563232421876,-35.5029296875
110337,-1.109710693359375,2.33697509765625,0.78857421875,-0.225050687789917,0.2357193231582642,-1.927130222320557,49.1527099609375,96.85842895507812,-35.28564453125
110338,-1.194808959960938,2.15228271484375,0.8522186279296875,0.3712260127067566,-1.466431260108948,-1.614422678947449,48.84719848632812,97.00469970703124,-35.42169189453125
110339,-1.094741821289062,2.098068237304688,1.081527709960938,0.7204402089118958,-2.175628185272217,-1.069476723670959,48.22737121582031,97.14065551757812,-35.57997131347656
110340,-0.9981536865234376,2.187240600585938,1.253433227539062,0.5932907462120056,-1.851364374160767,-0.5139487981796265,47.28176879882812,97.2532958984375,-35.88996887207031
110341,-0.968994140625,2.196243286132812,1.243179321289062,0.1265121400356293,-0.9483441710472108,-0.1898916363716125,46.44779968261719,97.41160583496094,-36.296630859375
110342,-0.7858123779296875,1.691741943359375,0.70770263671875,-0.8186871409416199,-0.3376770913600922,-0.2451615482568741,45.906005859375,97.21669006347656,-36.42578125
110343,-0.7858123779296875,1.691741943359375,0.70770263671875,-0.8186871409416199,-0.3376770913600922,-0.2451615482568741,45.906005859375,97.21669006347656,-36.42578125
110344,-0.762481689453125,1.4215087890625,0.60772705078125,-0.8888651728630066,-0.6267169117927551,-0.3273245990276337,45.91036987304688,97.19651794433594,-35.93211364746094
110345,-0.6928253173828125,1.154067993164062,0.5330352783203125,-0.8305578827857971,-0.740085780620575,-0.3622815310955048,45.76449584960938,97.22254943847656,-35.45120239257812
110346,-0.4780120849609375,0.697296142578125,0.312530517578125,-0.7298901677131653,-0.6340131759643555,-0.4484957754611969,44.98202514648438,97.77764892578124,-34.84207153320312
110347,-0.4780120849609375,0.697296142578125,0.312530517578125,-0.7298901677131653,-0.6340131759643555,-0.4484957754611969,44.98202514648438,97.77764892578124,-34.84207153320312
110348,-0.39129638671875,0.5403594970703125,0.204132080078125,-0.7353253960609436,-0.5029563307762146,-0.523308515548706,44.68582153320312,98.05006408691406,-34.42396545410156
110349,-0.3038787841796875,0.409393310546875,0.048248291015625,-0.7888248562812805,-0.4412133395671844,-0.6095355153083801,44.31565856933594,98.26026916503906,-34.00617980957031
110350,-0.0885772705078125,0.101898193359375,-0.559173583984375,-0.96729576587677,-1.980345726013184,-0.5617520213127136,43.50044250488281,98.6243896484375,-33.07817077636719
110351,-0.0885772705078125,0.101898193359375,-0.559173583984375,-0.96729576587677,-1.980345726013184,-0.5617520213127136,43.50044250488281,98.6243896484375,-33.07817077636719
110352,-0.04888916015625,0.079254150390625,-0.3215789794921875,-1.074336528778076,-2.430255651473999,-0.5108669996261597,42.91880798339844,98.7984619140625,-32.49311828613281
110353,-0.011932373046875,0.07318115234375,-0.201171875,-1.228008031845093,-2.184070348739624,-0.4881379902362823,42.14598083496094,98.94107055664062,-31.92642211914062
110354,0.078887939453125,0.0668792724609375,-0.3570404052734375,-1.246676325798035,-1.752025485038757,-0.3743003606796265,41.41426086425781,99.05168151855467,-31.21046447753906
110355,0.1688079833984375,0.1404266357421875,-0.4988250732421875,-0.8443695902824402,-1.681367874145508,-0.1244947910308838,40.76998901367188,99.21615600585938,-30.53567504882812
110356,0.197540283203125,0.261749267578125,-0.280487060546875,-0.1889113336801529,-1.297755479812622,0.2449492961168289,40.15669250488281,99.24307250976562,-29.70127868652344
110357,0.18072509765625,0.47113037109375,-0.0981597900390625,0.416772723197937,-0.3152626156806946,0.5586430430412292,39.67062377929688,99.4923095703125,-29.20199584960938
110358,0.1829833984375,0.6807098388671875,-0.1520538330078125,0.8259008526802063,0.5685790181159973,0.6230803728103638,39.44172668457031,99.64566040039062,-28.86557006835938
110359,0.2008514404296875,0.7241973876953125,-0.278656005859375,1.058473348617554,0.8493039011955261,0.4691943824291229,39.4425048828125,99.70355224609376,-28.87586975097656
110360,0.2584075927734375,0.6794586181640625,-0.3275146484375,1.147125482559204,0.6591097116470337,0.3251882195472717,39.58848571777344,99.69465637207033,-29.11723327636719
110361,0.31591796875,0.64288330078125,-0.3173370361328125,1.11501145362854,0.2783032655715942,0.2870655953884125,39.9051513671875,99.5365753173828,-29.40269470214844
110362,0.3157501220703125,0.5864410400390625,-0.2763214111328125,0.9479111433029176,-0.3241778016090393,0.2978556454181671,40.34675598144531,99.20767211914062,-30.45442199707031
110363,0.3157501220703125,0.5864410400390625,-0.2763214111328125,0.9479111433029176,-0.3241778016090393,0.2978556454181671,40.34675598144531,99.20767211914062,-30.45442199707031
110364,0.2236785888671875,0.3652191162109375,-0.2601470947265625,0.959371030330658,-0.4462973177433014,0.336784154176712,40.53005981445312,98.97178649902344,-30.866943359375
110365,0.10076904296875,0.13006591796875,-0.1964111328125,1.000035881996155,-0.424352616071701,0.4057789146900177,40.64483642578125,98.77015686035156,-31.26559448242188
110366,0.0410003662109375,-0.0066070556640625,-0.148345947265625,0.9635841250419616,-0.2952055335044861,0.4604128897190094,40.70060729980469,98.74339294433594,-31.59547424316406
110367,-0.0049591064453125,-0.0682830810546875,-0.1621551513671875,0.86305832862854,-0.2130576819181442,0.4505211114883423,40.92237854003906,98.67886352539062,-32.03092956542969
110368,-0.03363037109375,-0.094482421875,-0.2107391357421875,0.7320598363876343,-0.2796550691127777,0.3844416737556458,41.17623901367188,98.67918395996094,-32.33132934570312
110369,-0.0485687255859375,-0.0937042236328125,-0.2448577880859375,0.5642058253288269,-0.4971905946731567,0.2970013022422791,41.43519592285156,98.58572387695312,-32.575439453125
110370,-0.067474365234375,-0.0452728271484375,-0.261871337890625,0.3697245121002197,-0.824808657169342,0.1699493527412415,41.6239013671875,98.39903259277344,-32.62240600585938
110371,-0.0732269287109375,0.070892333984375,-0.280731201171875,0.1980369240045547,-1.257504463195801,-0.0415807329118251,41.67703247070312,98.3552703857422,-32.851806640625
110372,-0.0088348388671875,0.22259521484375,-0.267608642578125,0.0891213566064834,-1.7277592420578,-0.2154204398393631,41.6251220703125,98.4792938232422,-32.99565124511719
110373,0.0537261962890625,0.4277801513671875,-0.1762847900390625,0.0378616265952587,-2.108097553253174,-0.303505539894104,41.35995483398438,98.60670471191406,-32.96994018554688
110374,0.0608673095703125,0.9226837158203124,0.0583038330078125,-0.0484876409173011,-2.084280729293823,-0.6006408333778381,40.81846618652344,98.6680908203125,-32.76020812988281
110375,0.05706787109375,1.560638427734375,0.3954010009765625,-0.2801315188407898,-1.286066293716431,-0.9258838891983032,40.08840942382812,98.73382568359376,-32.58537292480469
110376,0.020965576171875,2.347854614257812,0.6211090087890625,-0.802757203578949,-0.0255293287336826,-1.195135116577148,39.22256469726562,98.85743713378906,-32.40252685546875
110377,-0.070587158203125,3.898956298828125,0.5082244873046875,-1.356982350349426,0.521156907081604,-2.057067155838013,38.37762451171875,99.0520477294922,-32.00126647949219
110378,-0.8750152587890625,4.72113037109375,0.909332275390625,-2.733433961868286,-0.5495337247848511,-4.940173149108887,36.21536254882812,99.42683410644533,-31.34703063964844
110379,-0.8750152587890625,4.72113037109375,0.909332275390625,-2.733433961868286,-0.5495337247848511,-4.940173149108887,36.21536254882812,99.42683410644533,-31.34703063964844
110380,-2.565139770507812,3.173721313476562,1.880844116210938,-2.519387006759644,0.4253928363323212,-2.798758506774902,34.52809143066406,99.70823669433594,-30.60809326171875
110381,-2.657760620117188,2.045089721679688,1.989532470703125,-1.45573627948761,2.669380903244019,-0.6284815073013306,32.87223815917969,99.76248168945312,-29.59854125976562
110382,-2.342453002929688,1.5152587890625,1.102462768554688,-0.4202955663204193,3.111589193344116,0.2285322397947311,32.17788696289062,99.67453002929688,-28.73751831054688
110383,-1.902313232421875,1.830154418945312,0.184326171875,0.1724242269992828,0.7550535798072815,0.2941586673259735,32.5037841796875,99.66999816894533,-28.28236389160156
110384,-1.363555908203125,2.123214721679688,0.09796142578125,0.3661084771156311,-1.931891083717346,0.1889640539884567,32.97657775878906,99.58412170410156,-28.23483276367188
110385,-0.7704925537109375,2.197372436523438,0.2751312255859375,0.3473718166351318,-2.556633710861206,0.5185374617576599,33.04832458496094,99.52029418945312,-28.19595336914062
110386,-0.20111083984375,2.346420288085938,-0.4984283447265625,1.059175610542297,-0.3337135314941406,0.9597028493881226,32.52297973632812,99.213623046875,-28.05947875976562
110387,-0.20111083984375,2.346420288085938,-0.4984283447265625,1.059175610542297,-0.3337135314941406,0.9597028493881226,32.52297973632812,99.213623046875,-28.05947875976562
110388,-0.0828857421875,1.95257568359375,-0.55419921875,1.288135051727295,0.6456325054168701,1.111435890197754,32.76789855957031,98.94873046875,-28.26200866699219
110389,0.002105712890625,1.550552368164062,-0.5464324951171875,1.192171216011047,1.059857368469238,1.121053099632263,33.28489685058594,98.57546997070312,-28.60888671875
110390,0.010009765625,1.230194091796875,-0.5288543701171875,0.815992534160614,0.9684404134750366,0.9982017874717712,34.05070495605469,98.27090454101562,-29.29573059082031
110391,-0.0154876708984375,0.9675750732421876,-0.490203857421875,0.4222532510757446,0.5822591781616211,0.8647728562355042,34.70536804199219,98.09921264648438,-30.10931396484375
110392,-0.056915283203125,0.7753143310546875,-0.388427734375,0.1487753689289093,0.1338318288326263,0.779154360294342,35.33726501464844,97.95724487304688,-30.72895812988281
110393,-0.1051025390625,0.6449432373046875,-0.269866943359375,0.0008183894096873,-0.2146150916814804,0.7152249217033386,35.98797607421875,97.9357452392578,-31.10360717773438
110394,-0.1353759765625,0.5614471435546875,-0.1591949462890625,-0.0340754128992557,-0.4034212231636047,0.6194102764129639,36.55642700195312,97.80429077148438,-31.31806945800781
110395,-0.1031494140625,0.4813079833984375,-0.048614501953125,-0.0798732638359069,-0.4159649908542633,0.4710511267185211,36.96192932128906,97.7280731201172,-31.46673583984375
110396,-0.021514892578125,0.339508056640625,-0.0126800537109375,-0.1407722979784012,-0.3724656999111176,0.4435678422451019,37.35948181152344,97.61149597167967,-31.43540954589844
110397,0.0278472900390625,0.220367431640625,-0.03369140625,-0.1287190914154053,-0.3469462394714355,0.5124678015708923,37.46072387695312,97.67068481445312,-31.36965942382812
110398,0.092803955078125,0.0405426025390625,-0.1403045654296875,0.3331707715988159,-0.5079875588417053,0.7500364184379578,37.83200073242188,97.70504760742188,-31.36262512207031
110399,0.092803955078125,0.0405426025390625,-0.1403045654296875,0.3331707715988159,-0.5079875588417053,0.7500364184379578,37.83200073242188,97.70504760742188,-31.36262512207031
110400,0.1139373779296875,-0.0191192626953125,-0.112701416015625,0.6596921682357788,-0.4715499579906464,0.8765267133712769,38.09382629394531,97.72029113769533,-31.21580505371094
110401,0.1439971923828125,-0.085205078125,-0.1461639404296875,0.947045624256134,-0.3438186347484589,1.034827470779419,38.37405395507812,97.7799072265625,-31.19235229492188
110402,0.187042236328125,-0.135711669921875,-0.30841064453125,1.214270114898682,-0.3786112368106842,1.240041613578796,38.61807250976562,97.7279815673828,-31.3333740234375
110403,0.282501220703125,-0.1779632568359375,-0.5226287841796875,1.378506541252136,-0.6370811462402344,1.452604651451111,39.062744140625,97.6471710205078,-31.66476440429688
110404,0.370758056640625,-0.1648406982421875,-0.493865966796875,1.269492626190186,-0.6042802929878235,1.572637677192688,39.52384948730469,97.53736877441406,-31.89849853515625
110405,0.3909759521484375,-0.1045989990234375,-0.3687896728515625,1.08312463760376,-0.4125840961933136,1.613156318664551,40.04518127441406,97.45582580566406,-32.21455383300781
110406,0.362457275390625,0.0737457275390625,-0.254730224609375,1.094529867172241,-0.6696324348449707,1.534265518188477,41.26625061035156,97.13131713867188,-32.80696105957031
110407,0.362457275390625,0.0737457275390625,-0.254730224609375,1.094529867172241,-0.6696324348449707,1.534265518188477,41.26625061035156,97.13131713867188,-32.80696105957031
110408,0.35748291015625,0.1370849609375,-0.1936187744140625,1.231290698051453,-0.8455131649971008,1.351514577865601,41.95732116699219,96.9464874267578,-32.76559448242188
110409,0.346038818359375,0.17962646484375,-0.113128662109375,1.347984552383423,-0.9030789732933044,1.130187511444092,42.47492980957031,96.64776611328124,-32.80793762207031
110410,0.276336669921875,0.3624420166015625,0.10943603515625,1.302850365638733,-0.5338268876075745,0.6690832376480103,43.343017578125,96.49958801269533,-33.7615966796875
110411,0.276336669921875,0.3624420166015625,0.10943603515625,1.302850365638733,-0.5338268876075745,0.6690832376480103,43.343017578125,96.49958801269533,-33.7615966796875
110412,0.2131500244140625,0.5025482177734375,0.2088165283203125,1.116879105567932,-0.1805247664451599,0.3789726197719574,43.60745239257812,96.28337097167967,-34.28694152832031
110413,0.137054443359375,0.6521148681640625,0.3575897216796875,0.8002042770385742,0.3319931328296661,0.0294122174382209,43.86991882324219,96.16806030273438,-34.83151245117188
110414,0.042755126953125,0.84796142578125,0.527862548828125,0.3298607170581818,1.050199151039124,-0.4351916909217834,44.01724243164062,95.88519287109376,-35.39114379882812
110415,-0.0445709228515625,1.15679931640625,0.7446441650390625,-0.3175167143344879,1.938661098480225,-1.120735883712769,44.23135375976562,95.7686767578125,-35.94146728515625
110416,-0.1153411865234375,1.580841064453125,0.9145355224609376,-1.013196468353271,2.818754911422729,-2.032558679580688,44.27314758300781,95.63641357421876,-36.25643920898438
110417,-0.2577362060546875,1.949661254882812,0.90948486328125,-1.481359958648682,3.145050764083862,-2.778522491455078,44.33834838867188,95.69589233398438,-36.43891906738281
110418,-0.55865478515625,2.067108154296875,0.7543487548828125,-1.291948199272156,2.408673286437988,-3.002388715744019,44.29417419433594,95.61320495605467,-35.93505859375
110419,-0.8800506591796875,2.025787353515625,0.6240081787109375,-0.3613432943820953,0.7756184935569763,-2.634872913360596,44.13117980957031,95.69351196289062,-35.73348999023438
110420,-1.056442260742188,1.993667602539062,0.7094268798828125,0.8792530298233032,-0.8391125202178955,-1.765823602676392,43.67185974121094,95.9396514892578,-35.64109802246094
110421,-1.075592041015625,2.090988159179688,0.931671142578125,1.754165291786194,-1.626494407653809,-0.8045377731323242,43.08648681640625,96.02406311035156,-35.80854797363281
110422,-0.9034271240234376,2.123245239257812,1.16400146484375,0.9006922841072083,-1.243458151817322,0.0965025722980499,41.57057189941406,95.62425231933594,-36.95494079589844
110423,-0.9034271240234376,2.123245239257812,1.16400146484375,0.9006922841072083,-1.243458151817322,0.0965025722980499,41.57057189941406,95.62425231933594,-36.95494079589844
110424,-0.8843536376953125,1.934661865234375,1.090408325195312,-0.3041364550590515,-1.094972014427185,-0.2080112546682358,41.07791137695312,95.37214660644533,-37.78099060058594
110425,-0.8530731201171875,1.596237182617188,0.9102325439453124,-1.104959607124329,-1.283422827720642,-0.4237076044082642,40.86289978027344,95.17984008789062,-38.019775390625
110426,-0.781585693359375,1.347000122070312,0.733062744140625,-1.225145220756531,-1.558675765991211,-0.4139798581600189,40.69703674316406,94.98133850097656,-37.95973205566406
110427,-0.666229248046875,1.196990966796875,0.5982666015625,-1.019153356552124,-1.653505086898804,-0.3411307036876678,40.43704223632812,94.9572296142578,-37.51985168457031
110428,-0.52020263671875,1.085556030273438,0.4464111328125,-0.8562864661216736,-1.590078353881836,-0.3022426962852478,40.04818725585938,95.08091735839844,-36.84121704101562
110429,-0.3939361572265625,0.9601898193359376,0.3097686767578125,-0.872248113155365,-1.393655300140381,-0.2952561378479004,39.56864929199219,95.3840789794922,-36.18045043945312
110430,-0.3124542236328125,0.819305419921875,0.1816864013671875,-1.010193467140198,-1.106206059455872,-0.3352919816970825,39.13191223144531,95.65505981445312,-35.55717468261719
110431,-0.23968505859375,0.6401519775390625,-0.13922119140625,-1.174626111984253,-0.8987787961959839,-0.4252815246582031,38.48403930664062,95.8735809326172,-34.92718505859375
110432,-0.119049072265625,0.3308258056640625,-1.125946044921875,-1.235937595367432,-2.468350887298584,-0.4184270799160004,38.07527160644531,96.20822143554688,-34.47187805175781
110433,-0.0980987548828125,0.173309326171875,-0.90887451171875,-1.120612621307373,-4.22252368927002,-0.313887894153595,37.61991882324219,96.36221313476562,-33.59291076660156
110434,-0.2842559814453125,0.0963592529296875,0.0015716552734375,-1.039019465446472,-1.618789434432983,-0.0947571322321891,36.08723449707031,97.03230285644533,-32.00726318359375
110435,-0.2842559814453125,0.0963592529296875,0.0015716552734375,-1.039019465446472,-1.618789434432983,-0.0947571322321891,36.08723449707031,97.03230285644533,-32.00726318359375
110436,-0.128265380859375,0.2942047119140625,-0.503692626953125,-0.3843269050121307,-0.1019356846809387,-0.0466196984052658,35.18421936035156,97.32513427734376,-31.12164306640625
110437,-0.00469970703125,0.5194091796875,-0.45233154296875,0.6506054401397705,0.4174430370330811,0.002306830137968,34.60063171386719,97.53778076171876,-30.20350646972656
110438,-0.022369384765625,0.553436279296875,-0.111724853515625,1.254776358604431,0.9820185303688048,0.0525502935051918,34.42137145996094,97.55079650878906,-29.67616271972656
110439,-0.0535430908203125,0.581695556640625,0.00726318359375,1.349645853042603,1.548793792724609,0.0439629293978214,34.31256103515625,97.5080108642578,-29.80438232421875
110440,-0.080718994140625,0.5920867919921875,0.0020599365234375,1.144167184829712,1.783239603042603,-0.0503036491572856,34.30703735351562,97.39216613769533,-30.45462036132812
110441,-0.0980377197265625,0.5425262451171875,-0.0236358642578125,0.9038350582122804,1.611282467842102,-0.1868090331554413,34.33392333984375,97.2220458984375,-31.04981994628906
110442,-0.09759521484375,0.467742919921875,-0.03680419921875,0.6913246512413025,1.135743618011475,-0.2587498128414154,34.61601257324219,96.97218322753906,-31.85147094726562
110443,-0.0962677001953125,0.416656494140625,-0.0385284423828125,0.5307711958885193,0.5272496938705444,-0.2268398106098175,34.77243041992188,96.80564880371094,-32.68121337890625
110444,-0.08648681640625,0.383148193359375,-0.05511474609375,0.4138837158679962,-0.0640916377305984,-0.1009998545050621,34.9267578125,96.62571716308594,-33.20674133300781
110445,-0.031982421875,0.326812744140625,-0.100067138671875,0.3313499689102173,-0.5040351748466492,0.0400552749633789,34.97073364257812,96.48269653320312,-33.40582275390625
110446,0.0226898193359375,0.199462890625,-0.188385009765625,0.3578044772148132,-0.8326234817504883,0.2060016393661499,35.02879333496094,96.46623229980467,-33.76463317871094
110447,0.0701446533203125,0.0602264404296875,-0.2313232421875,0.5197933912277222,-1.04467236995697,0.4018041491508484,35.06576538085938,96.1890106201172,-33.81059265136719
110448,0.0996551513671875,-0.0373992919921875,-0.19525146484375,0.7226058840751648,-0.9865221977233888,0.6198765635490417,34.8782958984375,96.16094970703124,-33.94894409179688
110449,0.1111297607421875,-0.0866241455078125,-0.1582183837890625,0.8746926188468933,-0.7293013334274292,0.8099671602249146,34.89097595214844,96.04827880859376,-33.84938049316406
110450,0.1117095947265625,-0.08740234375,-0.14251708984375,0.9246849417686462,-0.5534866452217102,0.9449782371520996,34.83843994140625,96.17440795898438,-33.85305786132812
110451,0.101226806640625,-0.0496978759765625,-0.0972137451171875,0.8450745344161987,-0.5397197008132935,0.9886468648910522,34.99552917480469,96.20816040039062,-34.06275939941406
110452,0.090484619140625,-0.005859375,-0.0226898193359375,0.6030105352401733,-0.5641616582870483,0.9454469680786132,35.15098571777344,96.20193481445312,-34.1175537109375
110453,0.09344482421875,0.02825927734375,0.0262298583984375,0.2696541249752045,-0.6010051369667053,0.8654634356498718,35.5406494140625,96.15203857421876,-34.38607788085938
110454,0.1456451416015625,0.1763153076171875,0.0480499267578125,-0.3546358346939087,-0.8538981080055237,0.7570695877075195,36.04791259765625,96.28533935546876,-34.48152160644531
110455,0.1456451416015625,0.1763153076171875,0.0480499267578125,-0.3546358346939087,-0.8538981080055237,0.7570695877075195,36.04791259765625,96.28533935546876,-34.48152160644531
110456,0.16387939453125,0.36895751953125,0.10015869140625,-0.5500229001045227,-0.9592618346214294,0.6644472479820251,36.22422790527344,96.36483764648438,-34.29057312011719
110457,0.16082763671875,0.682403564453125,0.253875732421875,-0.7604275345802307,-0.8711162805557251,0.3944732844829559,36.39930725097656,96.38885498046876,-33.71456909179688
110458,0.1642303466796875,1.10931396484375,0.43658447265625,-1.116462111473083,-0.5566515326499939,-0.0730736777186393,36.51533508300781,96.56434631347656,-33.25508117675781
110459,0.162078857421875,1.582687377929688,0.6309051513671875,-1.579443097114563,-0.1387331187725067,-0.5244962573051453,36.48828125,96.88401794433594,-32.9478759765625
110460,0.0167388916015625,2.207901000976562,0.7942962646484375,-1.97772228717804,0.2282094657421112,-0.98179030418396,36.281982421875,97.28108215332033,-32.34831237792969
110461,-0.29852294921875,3.619110107421875,0.7851715087890625,-2.022217750549316,0.1754495799541473,-2.219529628753662,36.0313720703125,97.54205322265624,-31.66131591796875
110462,-0.5915679931640625,5.00469970703125,0.994781494140625,-1.983673334121704,-0.6872356534004211,-4.404995918273926,35.54049682617188,97.88592529296876,-30.70384216308594
110463,-0.87347412109375,4.755477905273438,1.546676635742188,-2.045017719268799,-1.205666780471802,-5.659586906433105,34.586669921875,98.21142578125,-29.74861145019531
110464,-1.973464965820312,3.409820556640625,1.945114135742188,-1.596291065216064,-0.6242433786392212,-5.064384460449219,32.87847900390625,98.3250732421875,-28.96546936035156
110465,-2.858840942382812,1.928955078125,1.694992065429688,-0.8305717706680298,1.715166330337524,-1.829634547233582,30.62554931640625,98.09326171875,-28.10270690917969
110466,-1.5367431640625,2.390457153320312,-0.7657470703125,1.219497084617615,-0.4869273006916046,0.5651576519012451,27.26156616210938,97.01277160644533,-26.98594665527344
110467,-1.5367431640625,2.390457153320312,-0.7657470703125,1.219497084617615,-0.4869273006916046,0.5651576519012451,27.26156616210938,97.01277160644533,-26.98594665527344
110468,-0.8237762451171875,2.647506713867188,-0.3303985595703125,1.286596775054932,-1.595556020736694,0.9187000393867492,27.10307312011719,96.70840454101562,-26.91893005371094
110469,-0.5419769287109375,2.697219848632812,-0.261077880859375,1.039224863052368,-0.6859626173973083,1.164144396781921,27.15155029296875,96.46438598632812,-27.212646484375
110470,-0.2898406982421875,1.933258056640625,-0.820526123046875,1.052029848098755,1.182183623313904,1.362798094749451,27.3868408203125,96.3955535888672,-28.13482666015625
110471,-0.2898406982421875,1.933258056640625,-0.820526123046875,1.052029848098755,1.182183623313904,1.362798094749451,27.3868408203125,96.3955535888672,-28.13482666015625
110472,-0.2186431884765625,1.4937744140625,-0.9268646240234376,0.8922015428543091,1.380779027938843,1.404928803443909,27.88166809082031,96.33322143554688,-28.79393005371094
110473,-0.134521484375,1.247161865234375,-0.911529541015625,0.4884130954742432,1.117087721824646,1.403956770896912,28.64999389648438,96.2035675048828,-29.31027221679688
110474,-0.0824432373046875,1.10711669921875,-0.7732696533203125,0.0350892767310142,0.633671224117279,1.29307758808136,29.40504455566406,96.2196044921875,-30.16331481933594
110475,-0.0732421875,1.012619018554688,-0.5360870361328125,-0.2478691935539246,0.193933516740799,1.111624479293823,30.36236572265625,96.18008422851562,-30.92039489746094
110476,-0.106781005859375,0.911651611328125,-0.2594146728515625,-0.2581713497638702,-0.0028077706228941,0.9437087178230286,31.28948974609375,96.2027587890625,-31.45027160644531
110477,-0.154510498046875,0.7930755615234375,-0.0243682861328125,-0.0563157349824905,0.0811531767249107,0.825547993183136,32.15252685546875,96.0861358642578,-31.49298095703125
110478,-0.052490234375,0.4891815185546875,0.1301422119140625,0.2967664301395416,0.3234603404998779,0.662815511226654,33.40931701660156,96.19357299804688,-31.51542663574219
110479,-0.052490234375,0.4891815185546875,0.1301422119140625,0.2967664301395416,0.3234603404998779,0.662815511226654,33.40931701660156,96.19357299804688,-31.51542663574219
110480,-0.007598876953125,0.30377197265625,0.1300811767578125,0.423123836517334,0.2568243443965912,0.6109190583229065,33.92076110839844,96.2832489013672,-31.56735229492188
110481,0.024688720703125,0.1307830810546875,0.08892822265625,0.5711825489997864,0.1285467892885208,0.5840415954589844,34.42143249511719,96.19606018066406,-31.76643371582031
110482,0.1369781494140625,-0.16510009765625,-0.2770843505859375,0.9533733129501344,-0.6816096901893616,0.6716185808181763,35.16151428222656,96.0916748046875,-32.134765625
110483,0.1369781494140625,-0.16510009765625,-0.2770843505859375,0.9533733129501344,-0.6816096901893616,0.6716185808181763,35.16151428222656,96.0916748046875,-32.134765625
110484,0.1744232177734375,-0.197540283203125,-0.36651611328125,1.19537341594696,-1.510254621505737,0.8004751205444336,35.373291015625,95.9923095703125,-32.32890319824219
110485,0.1961669921875,-0.176300048828125,-0.2227783203125,1.352405667304993,-1.927696347236633,0.8954546451568604,35.48373413085938,95.93614196777344,-32.52462768554688
110486,0.2613372802734375,-0.1963043212890625,-0.1608734130859375,1.357397794723511,-1.762006759643555,0.9133249521255492,35.5037841796875,95.8337860107422,-32.59164428710938
110487,0.3545989990234375,-0.2340545654296875,-0.219573974609375,1.219588994979858,-0.8795241117477417,0.8364672064781189,35.48054504394531,95.81243896484376,-32.69679260253906
110488,0.414886474609375,-0.2362213134765625,-0.4008636474609375,1.186217427253723,-0.2501853406429291,0.7540509104728699,35.32984924316406,95.76652526855467,-32.85993957519531
110489,0.43365478515625,-0.185821533203125,-0.413299560546875,1.319146752357483,-0.2809506952762604,0.7131652235984802,35.40927124023438,95.77037048339844,-32.88185119628906
110490,0.4461669921875,-0.1114654541015625,-0.2782135009765625,1.463724493980408,-0.4985008835792542,0.6613765954971313,35.8602294921875,95.13906860351562,-33.25181579589844
110491,0.4748687744140625,-0.0256195068359375,-0.161041259765625,1.530240893363953,-0.6939870119094849,0.6010823845863342,35.8602294921875,95.13906860351562,-33.25181579589844
110492,0.5142364501953125,0.0677947998046875,-0.0780487060546875,1.526859998703003,-0.8000402450561523,0.5690479874610901,36.17936706542969,94.9201202392578,-33.63798522949219
110493,0.533905029296875,0.1751708984375,-0.005462646484375,1.466830015182495,-0.791785478591919,0.5544751882553101,36.38870239257812,94.46563720703124,-33.97486877441406
110494,0.53076171875,0.29144287109375,0.072113037109375,1.36411452293396,-0.7248818278312683,0.5476433634757996,36.48735046386719,94.12936401367188,-34.32566833496094
110495,0.5068359375,0.424591064453125,0.1930389404296875,1.207077741622925,-0.5883442163467407,0.528783917427063,36.62022399902344,93.6341552734375,-35.57191467285156
110496,0.4393768310546875,0.575927734375,0.385345458984375,0.952487289905548,-0.2864192426204681,0.451365053653717,36.63737487792969,93.32754516601562,-35.94407653808594
110497,0.304595947265625,0.697723388671875,0.615264892578125,0.5511704683303833,0.2591162621974945,0.2543654441833496,36.75553894042969,93.07598876953124,-36.33302307128906
110498,0.1538543701171875,0.8152313232421875,0.8398590087890625,-0.0666549280285835,0.9891262650489808,-0.0375404506921768,36.85940551757812,92.92752075195312,-36.76309204101562
110499,0.00390625,1.304336547851562,1.015579223632812,-0.8604583144187927,1.766027331352234,-0.6439600586891174,37.15901184082031,92.90872192382812,-37.03799438476562
110500,-0.186920166015625,2.0391845703125,1.094757080078125,-1.673948526382446,2.499308824539185,-1.765613794326782,37.3721923828125,92.90887451171876,-37.27696228027344
110501,-0.436279296875,2.66925048828125,0.993194580078125,-2.168922662734985,2.701589584350586,-2.924373149871826,37.5860595703125,93.05006408691406,-37.26664733886719
110502,-0.8227386474609375,2.823959350585938,0.704010009765625,-1.934371829032898,1.587634682655334,-3.538095474243164,37.47735595703125,93.0937957763672,-37.02462768554688
110503,-0.8227386474609375,2.823959350585938,0.704010009765625,-1.934371829032898,1.587634682655334,-3.538095474243164,37.47735595703125,93.0937957763672,-37.02462768554688
110504,-1.365188598632812,2.22723388671875,0.79632568359375,0.3612482249736786,-2.603315114974976,-2.814477205276489,36.26188659667969,93.26422119140624,-36.37025451660156
110505,-1.343475341796875,2.063751220703125,1.15618896484375,1.290849924087524,-3.180854558944702,-1.930737972259521,34.88206481933594,93.02630615234376,-36.27783203125
110506,-1.084762573242188,1.612945556640625,1.16070556640625,0.92052960395813,-1.624138951301575,-0.7546764612197876,32.02252197265625,92.51504516601562,-36.9984130859375
110507,-1.084762573242188,1.612945556640625,1.16070556640625,0.92052960395813,-1.624138951301575,-0.7546764612197876,32.02252197265625,92.51504516601562,-36.9984130859375
110508,-0.98480224609375,1.3248291015625,0.9217987060546876,0.159107893705368,-0.9582242369651794,-0.444487452507019,31.07081604003906,92.14556884765624,-37.14402770996094
110509,-0.924713134765625,1.140853881835938,0.70947265625,-0.5399655103683472,-0.6483896970748901,-0.202874556183815,30.61640930175781,91.94920349121094,-37.26828002929688
110510,-0.8733062744140625,1.02789306640625,0.505615234375,-0.9918304085731506,-0.5983433127403259,-0.0997758656740188,30.37263488769531,91.70492553710938,-37.16598510742188
110511,-0.794097900390625,0.9118804931640624,0.3132171630859375,-1.204176783561707,-0.7419785261154175,-0.1146237850189209,30.18798828125,91.85987854003906,-36.803466796875
110512,-0.7003936767578125,0.789642333984375,0.1470947265625,-1.250346422195435,-0.9452874064445496,-0.19252710044384,30.0560302734375,92.13150024414062,-36.11013793945312
110513,-0.575592041015625,0.640106201171875,-0.2621917724609375,-1.171965003013611,-1.390306115150452,-0.2731841206550598,29.78965759277344,92.44831848144533,-35.38934326171875
110514,-0.4064178466796875,0.477386474609375,-0.7151947021484375,-0.9380431175231934,-2.821950197219849,-0.2687249481678009,29.30010986328125,92.77047729492188,-34.65388488769531
110515,-0.2971343994140625,0.421722412109375,-0.3383636474609375,-0.6951215267181396,-3.556829452514648,-0.2771349251270294,28.71702575683594,93.11599731445312,-33.78474426269531
110516,-0.2220611572265625,0.380279541015625,-0.0026092529296875,-0.5786042213439941,-3.140555620193481,-0.326512336730957,27.95773315429688,93.26889038085938,-32.82127380371094
110517,-0.1230621337890625,0.3082733154296875,-0.0418243408203125,-0.5517321228981018,-2.158407688140869,-0.3075229227542877,27.01736450195312,93.375732421875,-31.83523559570312
110518,0.0573883056640625,0.3312530517578125,-0.3051605224609375,0.2055555582046509,-0.9747757911682128,-0.0115195028483867,25.69755554199219,93.36386108398438,-30.18067932128906
110519,0.0573883056640625,0.3312530517578125,-0.3051605224609375,0.2055555582046509,-0.9747757911682128,-0.0115195028483867,25.69755554199219,93.36386108398438,-30.18067932128906
110520,0.0951690673828125,0.4203643798828125,-0.0895233154296875,0.7116371393203735,-0.3549477159976959,0.1866966485977173,25.34376525878906,93.39620971679688,-29.64796447753906
110521,0.075714111328125,0.50128173828125,0.029541015625,1.001769661903381,0.5094576478004456,0.3051495254039764,25.12492370605469,93.50959777832033,-29.40919494628906
110522,0.047332763671875,0.459930419921875,-0.110137939453125,1.078479051589966,1.490135550498962,0.2538088262081146,25.0928955078125,93.44000244140624,-30.01046752929688
110523,0.047332763671875,0.459930419921875,-0.110137939453125,1.078479051589966,1.490135550498962,0.2538088262081146,25.0928955078125,93.44000244140624,-30.01046752929688
110524,0.0500335693359375,0.357391357421875,-0.18658447265625,1.024221897125244,1.3022620677948,0.1887099891901016,25.27908325195312,93.34275817871094,-30.57289123535156
110525,0.056915283203125,0.27911376953125,-0.2149505615234375,0.8988009095191956,0.834073007106781,0.1784182041883469,25.56254577636719,93.1873779296875,-31.421875
110526,0.044342041015625,0.26568603515625,-0.229644775390625,0.7037240862846375,0.2704986035823822,0.1902951151132584,25.83265686035156,93.00892639160156,-31.92529296875
110527,-0.0007476806640625,0.2697906494140625,-0.2432861328125,0.5161954760551453,-0.2007677257061005,0.1902309209108353,25.97935485839844,92.88502502441406,-32.50234985351562
110528,-0.0203094482421875,0.202423095703125,-0.26995849609375,0.4179945886135101,-0.3882949948310852,0.2248062193393707,26.20526123046875,92.82667541503906,-32.85499572753906
110529,0.0145416259765625,0.1185150146484375,-0.3174591064453125,0.4327535629272461,-0.4079323709011078,0.2905439436435699,26.30140686035156,92.628662109375,-32.97013854980469
110530,0.0566864013671875,0.07171630859375,-0.3268890380859375,0.5300500392913818,-0.3957502543926239,0.3823974430561066,26.27020263671875,92.68620300292967,-32.8472900390625
110531,0.0870208740234375,0.0457763671875,-0.2990264892578125,0.6604570150375366,-0.3953726291656494,0.4894839525222778,26.37557983398438,92.69749450683594,-32.86543273925781
110532,0.100555419921875,0.0478515625,-0.246246337890625,0.7563947439193726,-0.4108706116676331,0.5558331608772278,26.45321655273438,92.64634704589844,-32.86018371582031
110533,0.1078338623046875,0.0713043212890625,-0.19696044921875,0.766669750213623,-0.4288517534732819,0.5656452775001526,26.71282958984375,92.63247680664062,-33.2005615234375
110534,0.1241455078125,0.213592529296875,-0.1420135498046875,0.5300936698913574,-0.6378206610679626,0.3839580416679382,27.08438110351562,92.57315063476562,-33.41288757324219
110535,0.1241455078125,0.213592529296875,-0.1420135498046875,0.5300936698913574,-0.6378206610679626,0.3839580416679382,27.08438110351562,92.57315063476562,-33.41288757324219
110536,0.140167236328125,0.3334808349609375,-0.1687774658203125,0.3680129051208496,-0.9463364481925964,0.2466326802968979,27.21757507324219,92.54393005371094,-33.21893310546875
110537,0.138336181640625,0.5145263671875,-0.212890625,0.2857446670532227,-1.388522624969482,0.0905267000198364,27.23306274414062,92.45777893066406,-33.08384704589844
110538,0.1000518798828125,0.7555084228515625,-0.1775665283203125,0.3257631957530975,-1.751158356666565,-0.1181689873337746,27.15315246582031,92.50839233398438,-33.10009765625
110539,-0.0182342529296875,1.0675048828125,0.034912109375,0.3452138602733612,-1.645782351493835,-0.4609348475933075,26.83197021484375,92.71702575683594,-33.0814208984375
110540,-0.1834259033203125,1.397064208984375,0.33563232421875,0.1249275505542755,-0.8537058234214783,-0.9748940467834472,26.37332153320312,92.84259033203124,-32.75382995605469
110541,-0.315338134765625,1.78485107421875,0.5056304931640625,-0.3795963227748871,0.3588465750217438,-1.605664491653442,25.78402709960938,92.9556121826172,-32.61137390136719
110542,-0.73602294921875,3.227310180664062,0.1964874267578125,-1.299145936965942,1.002618074417114,-3.22277307510376,24.29541015625,92.86277770996094,-32.3392333984375
110543,-0.73602294921875,3.227310180664062,0.1964874267578125,-1.299145936965942,1.002618074417114,-3.22277307510376,24.29541015625,92.86277770996094,-32.3392333984375
110544,-1.42779541015625,3.991256713867188,0.4238433837890625,-1.835383176803589,0.6544606685638428,-4.246119022369385,23.40939331054688,92.5156707763672,-32.2840576171875
110545,-2.837356567382812,3.647781372070312,0.8376617431640625,-2.177546739578247,0.4423329532146454,-2.720138072967529,22.26718139648438,92.15017700195312,-32.0355224609375
110546,-2.537612915039062,2.584686279296875,0.9930419921875,-0.639126718044281,0.4320352971553802,0.0202962160110473,20.35525512695312,91.4705810546875,-31.10513305664062
110547,-2.537612915039062,2.584686279296875,0.9930419921875,-0.639126718044281,0.4320352971553802,0.0202962160110473,20.35525512695312,91.4705810546875,-31.10513305664062
110548,-1.6265869140625,2.206497192382812,0.6326751708984375,-0.0881216004490852,-0.5592992305755615,0.3075245320796967,20.26435852050781,91.37081909179688,-30.46635437011719
110549,-0.8636932373046875,2.1708984375,0.260223388671875,0.4215933084487915,-0.9910354614257812,0.7131425738334656,20.4112548828125,91.3039093017578,-30.10557556152344
110550,-0.4901580810546875,2.337615966796875,-0.0758056640625,0.9935550689697266,-0.7275974154472351,0.8742188215255737,20.49839782714844,91.16192626953124,-29.74934387207031
110551,-0.3330230712890625,2.339019775390625,-0.3081512451171875,1.277403831481934,-0.1493505984544754,0.8809425234794617,20.61672973632812,91.18646240234376,-29.65748596191406
110552,-0.2696533203125,2.080123901367188,-0.480987548828125,1.199219822883606,0.3289869427680969,0.9282743334770204,20.9105224609375,91.04055786132812,-29.72245788574219
110553,-0.224212646484375,1.739837646484375,-0.60418701171875,0.9220577478408812,0.4633996188640594,0.9566023945808412,21.3126220703125,90.8321533203125,-30.07023620605469
110554,-0.16595458984375,1.462753295898438,-0.66607666015625,0.5719934701919556,0.3256635963916779,0.937114953994751,21.88743591308594,90.64605712890624,-30.70381164550781
110555,-0.1265869140625,1.257247924804688,-0.6503753662109375,0.2325402945280075,0.045870553702116,0.9071102142333984,22.45509338378906,90.686767578125,-31.364501953125
110556,-0.11761474609375,1.09771728515625,-0.5234527587890625,0.0017289242241531,-0.2072501182556152,0.875542402267456,22.98466491699219,90.63211059570312,-31.80470275878906
110557,-0.142913818359375,0.8311767578125,-0.1605072021484375,-0.0092941662296652,-0.2316089868545532,0.8050373792648315,24.13946533203125,90.67953491210938,-31.90116882324219
110558,-0.142913818359375,0.8311767578125,-0.1605072021484375,-0.0092941662296652,-0.2316089868545532,0.8050373792648315,24.13946533203125,90.67953491210938,-31.90116882324219
