time_idx,accelerometerAccelerationX(G),accelerometerAccelerationY(G),accelerometerAccelerationZ(G),gyroRotationX(rad/s),gyroRotationY(rad/s),gyroRotationZ(rad/s),magnetometerX(µT),magnetometerY(µT),magnetometerZ(µT)
250422,0.1190032958984375,0.4955596923828125,0.1577606201171875,-0.1157223358750343,0.4594972729682922,0.3465603590011597,48.27313232421875,99.66964721679688,-3.089340209960938
250423,0.1190032958984375,0.4955596923828125,0.1577606201171875,-0.1157223358750343,0.4594972729682922,0.3465603590011597,48.27313232421875,99.66964721679688,-3.089340209960938
250424,0.1916351318359375,0.72625732421875,0.057525634765625,-0.1229142025113106,0.2314095199108124,0.290088027715683,48.28488159179688,99.53143310546876,-3.033416748046875
250425,0.20953369140625,0.8453521728515625,0.001068115234375,-0.0932220891118049,0.0340533070266246,0.2250387072563171,48.30499267578125,99.61001586914062,-2.95147705078125
250426,0.212554931640625,0.972320556640625,-0.0489654541015625,-0.0673430860042572,-0.0411516986787319,0.1518680900335312,48.30271911621094,99.5377960205078,-2.86004638671875
250427,0.212554931640625,0.972320556640625,-0.0489654541015625,-0.0673430860042572,-0.0411516986787319,0.1518680900335312,48.30271911621094,99.5377960205078,-2.86004638671875
250428,0.1828765869140625,1.187606811523438,-0.14776611328125,-0.1766932755708694,0.5990517139434814,-0.1181095987558365,48.21852111816406,99.60940551757812,-2.87030029296875
250429,0.0937347412109375,1.153976440429688,-0.2098541259765625,-0.2254341840744019,0.7956750392913818,-0.2714453637599945,48.14950561523438,99.61994934082033,-2.830596923828125
250430,-0.03143310546875,1.0146484375,-0.093658447265625,-0.2357462197542191,0.7521994709968567,-0.3693391680717468,47.90753173828125,99.734130859375,-2.727890014648438
250431,-0.091217041015625,0.905914306640625,0.0283355712890625,-0.2357462197542191,0.7521994709968567,-0.3693391680717468,47.69419860839844,99.81361389160156,-2.723464965820312
250432,-0.1326141357421875,0.849456787109375,0.0525360107421875,-0.2810348570346832,0.7266115546226501,-0.4112591743469238,47.51296997070312,99.61599731445312,-2.627670288085938
250433,-0.16937255859375,0.8021240234375,0.0435791015625,-0.3191992938518524,0.6805111765861511,-0.4446895718574524,47.21540832519531,99.46942138671876,-2.488388061523438
250434,-0.1923370361328125,0.7734222412109375,0.0174102783203125,-0.3445893526077271,0.6436846852302551,-0.4495442509651184,46.92439270019531,99.51374816894533,-2.348220825195312
250435,-0.1923370361328125,0.7734222412109375,0.0174102783203125,-0.3445893526077271,0.6436846852302551,-0.4495442509651184,46.92439270019531,99.51374816894533,-2.348220825195312
250436,-0.1840972900390625,0.7838897705078125,-0.011566162109375,-0.3799084424972534,0.4269289672374725,-0.4056119620800018,46.33393859863281,99.4534912109375,-2.009658813476562
250437,-0.15875244140625,0.783172607421875,-0.0062255859375,-0.407877504825592,0.3065556585788727,-0.3814783692359924,46.00975036621094,99.35653686523438,-1.887496948242188
250438,-0.0917510986328125,0.740081787109375,-0.061187744140625,-0.4740866124629974,0.2194857448339462,-0.3733828961849213,45.56977844238281,99.24610900878906,-1.662155151367188
250439,-0.0917510986328125,0.740081787109375,-0.061187744140625,-0.4740866124629974,0.2194857448339462,-0.3733828961849213,45.56977844238281,99.24610900878906,-1.662155151367188
250440,-0.0625762939453125,0.713287353515625,-0.1014404296875,-0.5001065135002136,0.1992590427398682,-0.396117776632309,45.28350830078125,99.23519897460938,-1.408950805664062
250441,-0.0373077392578125,0.7091064453125,-0.1291961669921875,-0.5310124754905701,0.1975282579660416,-0.4100652933120728,45.015380859375,99.17063903808594,-1.189254760742188
250442,-0.0217132568359375,0.7572784423828125,-0.1553802490234375,-0.5938146114349365,0.199237734079361,-0.4290688037872314,44.75004577636719,99.13967895507812,-0.8748626708984375
250443,-0.0217132568359375,0.7572784423828125,-0.1553802490234375,-0.5938146114349365,0.199237734079361,-0.4290688037872314,44.75004577636719,99.13967895507812,-0.8748626708984375
250444,-0.03143310546875,1.004959106445312,-0.2213134765625,-0.7347842454910278,0.2264328747987747,-0.4530585706233978,44.09512329101562,99.00347900390624,-0.2878570556640625
250445,-0.0211334228515625,1.1412353515625,-0.218536376953125,-0.7610382437705994,0.2402304410934448,-0.4104005694389343,43.78555297851562,99.0306396484375,0.0328521728515625
250446,-0.01092529296875,1.259292602539062,-0.1777801513671875,-0.7176033854484558,0.2855036556720734,-0.2584376633167267,43.47926330566406,99.04513549804688,0.417877197265625
250447,-0.0063323974609375,1.33184814453125,-0.1120147705078125,-0.7414458990097046,0.2850194871425629,-0.1198054999113083,43.07182312011719,99.03474426269533,0.8735198974609375
250448,-0.007110595703125,1.408737182617188,-0.05389404296875,-0.7414458990097046,0.2850194871425629,-0.1198054999113083,42.71040344238281,98.9582977294922,1.10858154296875
250449,0.013427734375,1.4180908203125,-0.0032806396484375,-0.8260532021522522,0.1802616566419601,-0.0349132418632507,42.41670227050781,98.9285125732422,1.383132934570312
250450,0.04327392578125,1.332839965820312,0.0348663330078125,-0.6344464421272278,0.0044900896027684,0.1167700290679932,42.17239379882812,98.88308715820312,1.7650146484375
250451,0.035003662109375,1.256103515625,0.0242156982421875,-0.6344464421272278,0.0044900896027684,0.1167700290679932,41.96490478515625,98.68885803222656,2.073532104492188
250452,0.0446624755859375,1.19134521484375,-0.0748443603515625,-0.3163542449474335,-0.0161869600415229,0.1522345393896103,41.98002624511719,98.5487060546875,2.468292236328125
250453,0.0604248046875,1.173736572265625,-0.19305419921875,-0.0341001786291599,-0.0546536594629287,0.1814060062170029,41.95458984375,98.56999206542967,2.705535888671875
250454,0.1009674072265625,1.208816528320312,-0.3074951171875,0.1350840479135513,-0.1001210063695908,0.1964395493268967,41.9361572265625,98.5803680419922,2.811798095703125
250455,0.1767730712890625,1.268585205078125,-0.35369873046875,0.3227506279945374,-0.1060886159539223,0.1699541509151459,42.02900695800781,98.69381713867188,2.968856811523438
250456,0.25665283203125,1.314865112304688,-0.3330078125,0.3227506279945374,-0.1060886159539223,0.1699541509151459,42.08892822265625,98.69960021972656,2.791900634765625
250457,0.3167877197265625,1.35357666015625,-0.274566650390625,0.392373114824295,-0.1161985099315643,0.1352912485599518,42.18374633789062,98.75871276855467,2.636367797851562
250458,0.35308837890625,1.379852294921875,-0.1762847900390625,0.4295465648174286,-0.2535635530948639,0.0764292627573013,42.19129943847656,98.85870361328124,2.381362915039062
250459,0.355224609375,1.40032958984375,-0.092529296875,0.4153740406036377,-0.3235077559947968,0.0716230571269989,42.27423095703125,98.89825439453124,2.26153564453125
250460,0.3075103759765625,1.412918090820312,-0.0285491943359375,0.4153740406036377,-0.3235077559947968,0.0716230571269989,42.41574096679688,98.84559631347656,2.12225341796875
250461,0.2261505126953125,1.421890258789062,0.0215911865234375,0.3925523459911346,-0.330993115901947,0.0680016875267028,42.54934692382812,98.8611297607422,2.049148559570312
250462,0.02972412109375,1.405487060546875,0.1172027587890625,0.3981234133243561,-0.2729878723621368,0.0421280115842819,42.76943969726562,99.09371948242188,1.487289428710938
250463,-0.06732177734375,1.410964965820312,0.1507568359375,0.4106208086013794,-0.1951210200786591,-0.0473115891218185,42.89791870117188,99.10411071777344,1.359588623046875
250464,-0.06732177734375,1.410964965820312,0.1507568359375,0.4106208086013794,-0.1951210200786591,-0.0473115891218185,42.89791870117188,99.10411071777344,1.359588623046875
250465,-0.1510162353515625,1.402420043945312,0.1687164306640625,0.4106208086013794,-0.1951210200786591,-0.0473115891218185,43.09271240234375,99.26113891601562,1.190093994140625
250466,-0.2169952392578125,1.364227294921875,0.17205810546875,0.4320848286151886,-0.1630653589963913,-0.1025114580988884,43.27017211914062,99.15403747558594,1.125579833984375
250467,-0.2471160888671875,1.300491333007812,0.1581268310546875,0.5328732132911682,-0.0175323877483606,-0.1966968178749084,43.34159851074219,99.10491943359376,1.02191162109375
250468,-0.2608642578125,1.205352783203125,0.12445068359375,0.5328732132911682,-0.0175323877483606,-0.1966968178749084,43.49568176269531,99.05995178222656,0.836822509765625
250469,-0.2740325927734375,1.100875854492188,0.0659332275390625,0.5965288877487183,0.071235567331314,-0.2348189055919647,43.47152709960938,99.14353942871094,0.6448974609375
250470,-0.258453369140625,0.8708648681640625,-0.0176849365234375,0.6129739284515381,0.0445901043713092,-0.2843047082424164,43.2962646484375,99.31013488769533,-0.2425079345703125
250471,-0.258453369140625,0.8708648681640625,-0.0176849365234375,0.6129739284515381,0.0445901043713092,-0.2843047082424164,43.2962646484375,99.31013488769533,-0.2425079345703125
250472,-0.241973876953125,0.79925537109375,-0.0097198486328125,0.5388048887252808,0.0229473933577537,-0.2834306359291077,43.31268310546875,99.40481567382812,-0.5406494140625
250473,-0.226348876953125,0.7464447021484375,-0.0112762451171875,0.4263646304607391,0.0432425439357757,-0.2653544247150421,43.23861694335938,99.564697265625,-0.771148681640625
250474,-0.1957855224609375,0.7421722412109375,-0.018951416015625,0.3064036071300507,0.0385069139301776,-0.2445889711380005,43.12376403808594,99.60377502441406,-0.863372802734375
250475,-0.1525115966796875,0.7693328857421875,-0.0247039794921875,0.2011323124170303,0.0015502260066568,-0.2267913371324539,43.070068359375,99.62156677246094,-1.036376953125
250476,-0.1158294677734375,0.7900543212890625,-0.0315399169921875,0.1328312903642654,-0.0580166988074779,-0.1944666802883148,43.11009216308594,99.51071166992188,-1.342788696289062
250477,-0.0897064208984375,0.7850799560546875,-0.0234222412109375,0.1164099648594856,-0.0818424001336097,-0.1415480822324753,43.03233337402344,99.51838684082033,-1.37371826171875
250478,-0.0753326416015625,0.760833740234375,-0.0467529296875,0.1800227612257004,-0.1232625469565392,-0.0736225545406341,43.00462341308594,99.51893615722656,-1.383834838867188
250479,-0.0753326416015625,0.760833740234375,-0.0467529296875,0.1800227612257004,-0.1232625469565392,-0.0736225545406341,43.00462341308594,99.51893615722656,-1.383834838867188
250480,-0.0772552490234375,0.6814117431640625,-0.1372222900390625,0.2265141010284424,-0.1658425033092499,-0.0490287952125072,43.05230712890625,99.46954345703124,-1.361404418945312
250481,-0.0589141845703125,0.64129638671875,-0.1406707763671875,0.2555827796459198,-0.1011117026209831,-0.0400795079767704,43.04360961914062,99.43679809570312,-1.479583740234375
250482,-0.0289764404296875,0.604034423828125,-0.176513671875,0.2663826942443848,-0.0161078628152608,-0.0274518635123968,43.0006103515625,99.4373779296875,-1.514602661132812
250483,-0.0289764404296875,0.604034423828125,-0.176513671875,0.2663826942443848,-0.0161078628152608,-0.0274518635123968,43.0006103515625,99.4373779296875,-1.514602661132812
250484,0.04486083984375,0.55242919921875,-0.1789398193359375,0.222243458032608,0.0404888354241848,-0.0022205437999218,43.06037902832031,99.22328186035156,-1.715057373046875
250485,0.075347900390625,0.563323974609375,-0.1305694580078125,0.1723544597625732,0.0410286597907543,0.0147741520777344,43.09844970703125,99.23893737792967,-1.73297119140625
250486,0.09124755859375,0.6032562255859375,-0.07177734375,0.1006661579012871,0.0392680428922176,0.0246504843235015,43.17364501953125,99.31765747070312,-1.882095336914062
250487,0.09124755859375,0.6032562255859375,-0.07177734375,0.1006661579012871,0.0392680428922176,0.0246504843235015,43.17364501953125,99.31765747070312,-1.882095336914062
250488,0.073638916015625,0.6611785888671875,0.01708984375,-0.079051673412323,0.0776202231645584,0.046796265989542,43.27763366699219,99.11903381347656,-1.79827880859375
250489,0.062347412109375,0.6734161376953125,0.0484466552734375,-0.1626754701137543,0.1451856940984726,0.0749458819627761,43.19435119628906,99.2660675048828,-1.877090454101562
250490,0.048309326171875,0.68865966796875,0.076324462890625,-0.2393113821744919,0.196654736995697,0.0981968715786933,43.11305236816406,99.3393096923828,-1.984939575195312
250491,0.0293426513671875,0.698394775390625,0.11199951171875,-0.3276630938053131,0.2465820908546448,0.1074857115745544,43.08494567871094,99.38018798828124,-2.04058837890625
250492,0.0293426513671875,0.698394775390625,0.11199951171875,-0.3276630938053131,0.2465820908546448,0.1074857115745544,43.08494567871094,99.38018798828124,-2.04058837890625
250493,0.0001068115234375,0.7042694091796875,0.1631927490234375,-0.4264056384563446,0.3128737509250641,0.1040981709957123,43.06578063964844,99.41836547851562,-1.957077026367188
250494,-0.0443267822265625,0.7239532470703125,0.24212646484375,-0.6332919597625732,0.4211315214633942,0.0884726047515869,43.13999938964844,99.27723693847656,-1.7337646484375
250495,-0.04486083984375,0.7714385986328125,0.291107177734375,-0.8647654056549072,0.3821945190429688,0.0434273667633533,43.18406677246094,99.25425720214844,-1.364334106445312
250496,-0.0513153076171875,0.8666534423828125,0.349151611328125,-0.8647654056549072,0.3821945190429688,0.0434273667633533,43.12103271484375,99.1851806640625,-1.092926025390625
250497,-0.06768798828125,0.972564697265625,0.4045562744140625,-0.9839461445808412,0.3418113887310028,-0.0091615403071045,43.08802795410156,99.08753967285156,-0.7812652587890625
250498,-0.079559326171875,1.0604248046875,0.4308929443359375,-1.083278894424438,0.2935136258602142,-0.0556635297834873,43.04620361328125,98.9894561767578,-0.55889892578125
250499,-0.079559326171875,1.0604248046875,0.4308929443359375,-1.083278894424438,0.2935136258602142,-0.0556635297834873,43.04620361328125,98.9894561767578,-0.55889892578125
250500,-0.0750274658203125,1.169143676757812,0.4341888427734375,-1.172723293304443,0.1247507184743881,-0.1151201948523521,42.88189697265625,98.7630615234375,0.2967987060546875
250501,-0.066925048828125,1.214920043945312,0.3927001953125,-1.223625540733337,0.0142468465492129,-0.1555592268705368,42.77638244628906,98.60685729980467,0.6913909912109375
250502,-0.0424346923828125,1.280807495117188,0.2899627685546875,-1.283378958702087,-0.3433456420898438,-0.3509452342987061,42.66082763671875,98.33824157714844,1.2100830078125
250503,-0.0424346923828125,1.280807495117188,0.2899627685546875,-1.283378958702087,-0.3433456420898438,-0.3509452342987061,42.66082763671875,98.33824157714844,1.2100830078125
250504,-0.0225677490234375,1.355331420898438,0.0317230224609375,-1.230286121368408,-0.4440783858299255,-0.4041738510131836,42.29437255859375,98.0188446044922,2.233230590820312
250505,0.01129150390625,1.31866455078125,-0.0883331298828125,-1.112604260444641,-0.3492607772350311,-0.3898295164108276,42.18194580078125,97.94866943359376,2.797119140625
250506,0.0405120849609375,1.312850952148438,-0.1925811767578125,-0.8750329613685608,0.1798057109117508,-0.2552562654018402,41.8714599609375,97.65975952148438,3.514511108398438
250507,0.0322418212890625,1.341094970703125,-0.257171630859375,-0.8750329613685608,0.1798057109117508,-0.2552562654018402,41.72006225585938,97.4073486328125,4.025222778320312
250508,-0.0062408447265625,1.353286743164062,-0.25030517578125,-0.802541196346283,0.2168375104665756,-0.1879627108573914,41.48350524902344,97.20477294921876,4.433563232421875
250509,-0.0530242919921875,1.336532592773438,-0.178619384765625,-0.7372572422027588,0.1691799759864807,-0.1173463314771652,41.32992553710938,97.06573486328124,4.933807373046875
250510,-0.0944061279296875,1.27783203125,-0.102874755859375,-0.3802700936794281,0.2571702897548676,0.0250547528266906,41.03022766113281,96.79351806640624,5.442718505859375
250511,-0.0944061279296875,1.27783203125,-0.102874755859375,-0.3802700936794281,0.2571702897548676,0.0250547528266906,41.03022766113281,96.79351806640624,5.442718505859375
250512,-0.096923828125,1.210662841796875,-0.0663604736328125,-0.1096218377351761,0.5105836391448975,0.109311044216156,40.91130065917969,96.6603546142578,5.684326171875
250513,-0.1234130859375,1.148956298828125,-0.0251007080078125,-0.1096218377351761,0.5105836391448975,0.109311044216156,40.74560546875,96.54859924316406,5.987503051757812
250514,-0.16925048828125,1.105819702148438,-0.00128173828125,-0.0349665060639381,0.7267513275146484,0.2253633439540863,40.76455688476562,96.50407409667967,6.041763305664062
250515,-0.16925048828125,1.105819702148438,-0.00128173828125,-0.0349665060639381,0.7267513275146484,0.2253633439540863,40.76455688476562,96.50407409667967,6.041763305664062
250516,-0.190093994140625,1.064971923828125,-4.57763671875e-05,0.0234517958015203,0.8307076096534729,0.3005318641662598,40.62522888183594,96.43893432617188,6.032196044921875
250517,-0.13775634765625,1.040283203125,-0.0093536376953125,0.0901314914226532,0.939351499080658,0.4072386026382446,40.62168884277344,96.39956665039062,6.0504150390625
250518,-0.0828399658203125,1.034469604492188,-0.024444580078125,0.1645205020904541,1.031532883644104,0.510023295879364,40.66603088378906,96.47164916992188,5.973037719726562
250519,-0.043487548828125,1.054153442382812,-0.055816650390625,0.2337863892316818,1.041921019554138,0.56508868932724,40.58543395996094,96.48126220703124,5.844482421875
250520,-0.0216522216796875,1.07061767578125,-0.04498291015625,0.3142942786216736,0.9955891966819764,0.5701436400413513,40.67890930175781,96.52127075195312,5.53961181640625
250521,-0.0192718505859375,1.098922729492188,-0.0036468505859375,0.3882151246070862,0.9912269711494446,0.5328700542449951,40.79396057128906,96.53347778320312,5.329391479492188
250522,-0.03369140625,1.149078369140625,0.054779052734375,0.529596209526062,0.9076175689697266,0.2913484871387482,40.88639831542969,96.64950561523438,4.848342895507812
250523,-0.03369140625,1.149078369140625,0.054779052734375,0.529596209526062,0.9076175689697266,0.2913484871387482,40.88639831542969,96.64950561523438,4.848342895507812
250524,-0.025604248046875,1.16986083984375,0.1002044677734375,0.529596209526062,0.9076175689697266,0.2913484871387482,40.98231506347656,96.8898468017578,4.451766967773438
250525,-0.0179595947265625,1.176971435546875,0.1296539306640625,0.5343179702758789,0.8932077288627625,0.1961942762136459,40.87118530273438,96.90895080566406,4.279434204101562
250526,-0.0146484375,1.162445068359375,0.145263671875,0.5300729274749756,0.8584833145141602,0.1112679317593575,40.852783203125,97.00717163085938,4.011795043945312
250527,-0.0146484375,1.162445068359375,0.145263671875,0.5300729274749756,0.8584833145141602,0.1112679317593575,40.852783203125,97.00717163085938,4.011795043945312
250528,0.027618408203125,1.092498779296875,0.113800048828125,0.525335431098938,0.7484571933746338,0.0177680775523185,40.75871276855469,97.10092163085938,3.26068115234375
250529,0.076904296875,1.02716064453125,0.0774383544921875,0.5124686360359192,0.64338219165802,0.0349827520549297,40.62049865722656,97.3048858642578,2.949447631835938
250530,0.1443023681640625,0.9207763671875,0.086822509765625,0.2691198885440826,0.2494002431631088,0.2266853451728821,40.34368896484375,97.66293334960938,2.396148681640625
250531,0.1443023681640625,0.9207763671875,0.086822509765625,0.2691198885440826,0.2494002431631088,0.2266853451728821,40.34368896484375,97.66293334960938,2.396148681640625
250532,0.1247406005859375,0.92059326171875,0.1459808349609375,0.2691198885440826,0.2494002431631088,0.2266853451728821,40.29844665527344,97.74411010742188,2.15423583984375
250533,0.089019775390625,0.9223480224609376,0.165130615234375,0.2447452992200851,0.2023381888866425,0.2584637701511383,40.24794006347656,97.93939208984376,1.895416259765625
250534,0.0673828125,0.8940582275390625,0.14874267578125,0.2841225266456604,-0.0361390970647335,0.2762872576713562,40.352294921875,97.91363525390624,1.685791015625
250535,0.0673828125,0.8940582275390625,0.14874267578125,0.2841225266456604,-0.0361390970647335,0.2762872576713562,40.352294921875,97.91363525390624,1.685791015625
250536,0.0597686767578125,0.7627410888671875,0.109039306640625,0.3355098366737366,-0.1258351653814316,0.2777397334575653,40.67085266113281,97.97111511230467,1.298385620117188
250537,0.0685577392578125,0.7014617919921875,0.0848236083984375,0.3929992020130157,-0.1204907298088074,0.2769237458705902,40.86433410644531,97.93963623046876,1.307632446289062
250538,0.0698394775390625,0.6493377685546875,0.0377349853515625,0.4361842274665833,-0.0633896216750145,0.2707348167896271,41.09829711914062,97.97943115234376,1.332000732421875
250539,0.0646820068359375,0.6160430908203125,-0.0108795166015625,0.449130654335022,0.0388161055743694,0.2362687289714813,41.2550048828125,97.89732360839844,1.37738037109375
250540,0.06304931640625,0.5973052978515625,-0.0373382568359375,0.449130654335022,0.0388161055743694,0.2362687289714813,41.381591796875,97.95741271972656,1.163421630859375
250541,0.067474365234375,0.5978240966796875,-0.016021728515625,0.4006238579750061,0.1049328073859215,0.2045065313577652,41.50779724121094,98.0714874267578,0.9468536376953124
250542,0.06298828125,0.6287384033203125,0.0447845458984375,0.1827604919672012,0.3757731020450592,0.10214713960886,41.69140625,98.18260192871094,0.6457672119140625
250543,0.0313720703125,0.70458984375,0.1031646728515625,0.1827604919672012,0.3757731020450592,0.10214713960886,41.7213134765625,98.18951416015624,0.51934814453125
250544,0.02130126953125,0.7642059326171875,0.1141204833984375,0.0627792254090309,0.4297154247760773,0.0826400220394134,41.77615356445312,98.30281066894533,0.305206298828125
250545,0.0363922119140625,0.8146514892578125,0.145751953125,-0.0446966327726841,0.4208894371986389,0.0646050944924354,41.837158203125,98.39932250976562,0.1224365234375
250546,0.0363616943359375,0.8820343017578125,0.192169189453125,-0.1188840419054031,0.4574556946754456,0.0301123615354299,41.80618286132812,98.3348388671875,0.1404876708984375
250547,0.0363616943359375,0.8820343017578125,0.192169189453125,-0.1188840419054031,0.4574556946754456,0.0301123615354299,41.80618286132812,98.3348388671875,0.1404876708984375
250548,-0.0334014892578125,1.01373291015625,0.2455291748046875,-0.1848753094673157,0.6101341843605042,-0.1179532706737518,41.78140258789062,98.14396667480467,0.13629150390625
250549,-0.0881805419921875,1.036239624023438,0.2591705322265625,-0.1851426959037781,0.6054664850234985,-0.1911936551332474,41.61964416503906,98.185546875,0.1806182861328125
250550,-0.1405792236328125,1.03558349609375,0.2841644287109375,-0.172468438744545,0.5820146799087524,-0.2495797425508499,41.31269836425781,98.14071655273438,0.2518310546875
250551,-0.1405792236328125,1.03558349609375,0.2841644287109375,-0.172468438744545,0.5820146799087524,-0.2495797425508499,41.31269836425781,98.14071655273438,0.2518310546875
250552,-0.2266387939453125,1.0194091796875,0.296875,-0.1536801010370255,0.4399603307247162,-0.3058435320854187,40.95286560058594,98.2197265625,0.2804718017578125
250553,-0.2529754638671875,1.016220092773438,0.2852935791015625,-0.1360033750534058,0.3178972899913788,-0.30892214179039,40.74737548828125,98.181640625,0.3178863525390625
250554,-0.2506256103515625,1.022598266601562,0.266937255859375,-0.1117188110947609,0.19200299680233,-0.3019548058509827,40.45027160644531,98.18893432617188,0.3060150146484375
250555,-0.2129058837890625,1.0179443359375,0.220947265625,-0.0809276029467582,0.1151100769639015,-0.2926592826843262,40.28628540039062,98.25358581542967,0.329315185546875
250556,-0.151275634765625,0.9970703125,0.1314544677734375,-0.0269336123019456,0.0689574927091598,-0.2805986404418945,40.11778259277344,98.19308471679688,0.4490966796875
250557,-0.10284423828125,0.9713592529296876,0.0067596435546875,0.0808993801474571,0.068814218044281,-0.2702791690826416,39.854248046875,98.31442260742188,0.4634552001953125
250558,-0.082672119140625,0.9003753662109375,-0.105499267578125,0.2545217573642731,0.198877677321434,-0.293831080198288,39.79029846191406,98.36466979980467,0.4301910400390625
250559,-0.082672119140625,0.9003753662109375,-0.105499267578125,0.2545217573642731,0.198877677321434,-0.293831080198288,39.79029846191406,98.36466979980467,0.4301910400390625
250560,-0.1279296875,0.823333740234375,-0.21923828125,0.2284752577543259,0.2252134084701538,-0.3248989880084991,39.33831787109375,98.48893737792967,0.2305755615234375
250561,-0.1502838134765625,0.8176116943359375,-0.205474853515625,0.1190699338912964,0.2110062390565872,-0.3845908045768738,39.1275634765625,98.4145965576172,0.1679229736328125
250562,-0.1662139892578125,0.8351898193359375,-0.18536376953125,-0.0534147545695304,0.221590980887413,-0.4336419701576233,38.95404052734375,98.44377136230467,0.065673828125
250563,-0.1662139892578125,0.8351898193359375,-0.18536376953125,-0.0534147545695304,0.221590980887413,-0.4336419701576233,38.95404052734375,98.44377136230467,0.065673828125
250564,-0.22186279296875,1.047943115234375,-0.1558990478515625,-0.386207103729248,0.2683502435684204,-0.4239962697029114,38.34152221679688,98.55078125,0.1493988037109375
250565,-0.2124176025390625,1.146697998046875,-0.130828857421875,-0.4640432894229889,0.2358748465776443,-0.3468359708786011,38.1094970703125,98.60252380371094,0.28985595703125
250566,-0.2065277099609375,1.248260498046875,-0.0773468017578125,-0.4889683425426483,0.244027853012085,-0.171324610710144,37.7987060546875,98.54049682617188,0.49053955078125
250567,-0.1787872314453125,1.27996826171875,-0.0238800048828125,-0.4889683425426483,0.244027853012085,-0.171324610710144,37.5311279296875,98.5432586669922,0.6424560546875
250568,-0.1417999267578125,1.290618896484375,0.054168701171875,-0.5135567784309387,0.2225233465433121,-0.1040190756320953,37.29061889648438,98.4013214111328,0.7779388427734375
250569,-0.108917236328125,1.331344604492188,0.1049041748046875,-0.2977467477321625,0.3015811443328857,-0.0072278189472854,37.16387939453125,98.28704833984376,1.188644409179688
250570,-0.01251220703125,1.3302001953125,0.062164306640625,-0.0689795985817909,0.2632782459259033,-0.0259072314947843,36.98577880859375,98.1089324951172,1.645828247070312
250571,-0.01251220703125,1.3302001953125,0.062164306640625,-0.0689795985817909,0.2632782459259033,-0.0259072314947843,36.98577880859375,98.1089324951172,1.645828247070312
250572,0.044525146484375,1.2498779296875,0.05731201171875,0.3347191214561462,0.2460454553365707,-0.0666490644216537,36.94210815429688,98.13743591308594,1.584030151367188
250573,0.0701904296875,1.140762329101562,0.039947509765625,0.3347191214561462,0.2460454553365707,-0.0666490644216537,36.85493469238281,98.2124481201172,1.383071899414062
250574,0.07598876953125,1.038864135742188,-0.021942138671875,0.5012553930282593,0.2321775704622269,-0.0543196983635425,36.67977905273438,98.32345581054688,1.178436279296875
250575,0.0866546630859375,0.9615325927734376,-0.1170501708984375,0.6151326894760132,0.1443989872932434,-0.0073505910113453,36.63050842285156,98.38514709472656,1.057449340820312
250576,0.101776123046875,0.9312591552734376,-0.1976165771484375,0.6954954266548157,-0.0101258708164095,0.0455280691385269,36.54507446289062,98.5860595703125,0.8217315673828125
250577,0.1178741455078125,0.923248291015625,-0.25762939453125,0.7742035388946533,-0.1463036835193634,0.0927613601088523,36.59661865234375,98.75172424316406,0.4698486328125
250578,0.1307220458984375,0.9203643798828124,-0.3147735595703125,0.81195467710495,-0.270593672990799,0.1223956868052483,36.58084106445312,98.80235290527344,0.1549530029296875
250579,0.133575439453125,0.9195098876953124,-0.35797119140625,0.7859100103378296,-0.4058761298656464,0.122757613658905,36.63140869140625,98.8976593017578,-0.0915069580078125
250580,0.134185791015625,0.9426727294921876,-0.388580322265625,0.7903732061386108,-0.4331682026386261,0.0833984836935997,36.69424438476562,98.90388488769533,-0.3026275634765625
250581,0.132354736328125,0.9874420166015624,-0.4324951171875,0.8705780506134033,-0.3598396778106689,0.0723897814750671,36.76118469238281,99.0371551513672,-0.595672607421875
250582,0.1129150390625,1.033096313476562,-0.44921875,0.9607755541801452,-0.2520359754562378,0.0747464075684547,36.76513671875,99.17919921875,-0.9268798828125
250583,0.1129150390625,1.033096313476562,-0.44921875,0.9607755541801452,-0.2520359754562378,0.0747464075684547,36.76513671875,99.17919921875,-0.9268798828125
250584,0.088958740234375,1.077392578125,-0.359375,0.8718512654304504,0.1358534395694733,0.0488378480076789,36.88822937011719,99.41813659667967,-1.678512573242188
250585,0.117767333984375,1.127914428710938,-0.2852020263671875,0.6419813632965088,0.3014250993728638,0.0317763052880764,36.89540100097656,99.53543090820312,-2.079147338867188
250586,0.1688995361328125,1.3017578125,-0.083526611328125,-0.011093663983047,0.2059307992458344,-0.0887863263487815,36.94970703125,99.5375518798828,-2.836074829101562
250587,0.1688995361328125,1.3017578125,-0.083526611328125,-0.011093663983047,0.2059307992458344,-0.0887863263487815,36.94970703125,99.5375518798828,-2.836074829101562
250588,0.1385345458984375,1.384765625,0.062744140625,-0.1347468942403793,0.0785856246948242,-0.1764013916254044,37.03855895996094,99.56002807617188,-3.059234619140625
250589,0.0727996826171875,1.482315063476562,0.162628173828125,-0.0666906163096427,-0.0301259439438581,-0.2653728127479553,37.04428100585938,99.43247985839844,-3.11859130859375
250590,0.0123291015625,1.583297729492188,0.2236785888671875,0.0892140343785285,-0.0835321769118309,-0.3720036447048187,37.06895446777344,99.4685516357422,-3.067428588867188
250591,0.0123291015625,1.583297729492188,0.2236785888671875,0.0892140343785285,-0.0835321769118309,-0.3720036447048187,37.06895446777344,99.4685516357422,-3.067428588867188
250592,-0.082305908203125,1.572921752929688,0.1727447509765625,0.9253882765769958,0.130270391702652,-0.5181177258491516,36.88763427734375,99.28109741210938,-3.085601806640625
250593,-0.1135406494140625,1.33404541015625,0.0403594970703125,0.9253882765769958,0.130270391702652,-0.5181177258491516,36.74815368652344,99.26673889160156,-3.403457641601562
250594,-0.1268310546875,1.05743408203125,-0.074676513671875,1.157776832580566,0.2207203954458237,-0.5366083383560181,36.53016662597656,99.42691040039062,-3.682647705078125
250595,-0.1669464111328125,0.881500244140625,-0.1449127197265625,1.204035639762878,0.2298332005739212,-0.5580350160598755,36.33905029296875,99.5247039794922,-4.063735961914062
250596,-0.220489501953125,0.767303466796875,-0.0954132080078125,0.9929153919219972,0.2110802829265594,-0.586309552192688,36.12896728515625,99.6195831298828,-4.684188842773438
250597,-0.2686767578125,0.6812896728515625,-0.07708740234375,0.2994279861450195,0.0033790187444537,-0.6278178691864014,35.90335083007812,99.64378356933594,-5.178817749023438
250598,-0.3021697998046875,0.6267852783203125,-0.142913818359375,0.114143081009388,-0.2770414650440216,-0.5779802799224854,35.81278991699219,99.53587341308594,-5.511123657226562
250599,-0.3021697998046875,0.6267852783203125,-0.142913818359375,0.114143081009388,-0.2770414650440216,-0.5779802799224854,35.81278991699219,99.53587341308594,-5.511123657226562
250600,-0.3360595703125,0.639739990234375,-0.2068634033203125,0.061142448335886,-0.5466814637184143,-0.4556207954883575,35.50724792480469,99.39259338378906,-5.75537109375
250601,-0.346405029296875,0.6983642578125,-0.1813812255859375,0.0412297286093235,-0.6497948169708252,-0.3436346054077148,35.43695068359375,99.26934814453124,-5.747970581054688
250602,-0.3741302490234375,0.7350006103515625,-0.1757965087890625,0.0036008600145578,-0.6005127429962158,-0.2235047221183777,35.36868286132812,99.02256774902344,-5.620208740234375
250603,-0.3891143798828125,0.75,-0.1758575439453125,0.0085676554590463,-0.4991818368434906,-0.0940849557518959,35.43231201171875,98.87648010253906,-5.566513061523438
250604,-0.35516357421875,0.7600250244140625,-0.1571197509765625,0.0733250826597213,-0.4153505861759186,0.0149429971352219,35.51106262207031,98.7477569580078,-5.539505004882812
250605,-0.306884765625,0.7358551025390625,-0.1120452880859375,0.1492307633161545,-0.2918864488601685,0.0660160332918167,35.585693359375,98.57901000976562,-5.418014526367188
250606,-0.269866943359375,0.6743011474609375,-0.0603179931640625,0.2171879708766937,-0.0583426691591739,0.0605032928287982,35.76264953613281,98.3818359375,-5.493362426757812
250607,-0.269866943359375,0.6743011474609375,-0.0603179931640625,0.2171879708766937,-0.0583426691591739,0.0605032928287982,35.76264953613281,98.3818359375,-5.493362426757812
250608,-0.214447021484375,0.5125885009765625,-0.0065460205078125,0.2021536380052567,0.6066076159477234,0.042509377002716,36.01918029785156,98.17506408691406,-5.562942504882812
250609,-0.1914520263671875,0.503692626953125,0.007080078125,0.1380047351121902,0.838174045085907,0.0832213833928108,36.07257080078125,98.07063293457033,-5.6878662109375
250610,-0.1423187255859375,0.5812835693359375,0.069732666015625,0.018852250650525,0.9197335839271544,0.1821037530899048,36.01481628417969,98.11854553222656,-5.820236206054688
250611,-0.0951995849609375,0.7559051513671875,0.1851348876953125,-0.2078903466463089,0.9741086959838868,0.2298031002283096,36.02108764648438,98.1442413330078,-5.993026733398438
250612,-0.050384521484375,0.8823699951171875,0.27435302734375,-0.45521280169487,1.029486417770386,0.1947575062513351,35.92575073242188,98.15147399902344,-6.079132080078125
250613,-0.037933349609375,0.9416046142578124,0.327789306640625,-0.6149654388427734,1.059010028839111,0.1522116363048553,35.90293884277344,98.1620635986328,-6.038177490234375
250614,-0.04522705078125,0.97259521484375,0.3557281494140625,-0.6662432551383972,1.013854503631592,0.1309700012207031,35.94560241699219,98.19287109375,-6.097854614257812
250615,-0.04522705078125,0.97259521484375,0.3557281494140625,-0.6662432551383972,1.013854503631592,0.1309700012207031,35.94560241699219,98.19287109375,-6.097854614257812
250616,-0.0838623046875,1.008270263671875,0.4076690673828125,-0.6131331920623779,0.5800119638442993,0.1014749556779861,35.90544128417969,98.14071655273438,-5.858062744140625
250617,-0.093292236328125,0.9983062744140624,0.445037841796875,-0.5707156658172607,0.3642642498016357,0.1041045635938644,35.84010314941406,98.1968231201172,-5.674636840820312
250618,-0.0767822265625,0.9935455322265624,0.444305419921875,-0.5558397769927979,0.1569912135601044,0.108250305056572,35.86611938476562,98.11245727539062,-5.433059692382812
250619,-0.0439605712890625,0.989654541015625,0.3828277587890625,-0.5558397769927979,0.1569912135601044,0.108250305056572,35.83248901367188,98.23724365234376,-5.313491821289062
250620,-0.020477294921875,0.98419189453125,0.310333251953125,-0.5731239914894104,0.017649034038186,0.0834842398762702,35.83877563476562,98.1242218017578,-5.157501220703125
250621,-0.0195465087890625,0.98651123046875,0.2450408935546875,-0.6089591979980469,-0.1141777038574219,0.064870610833168,35.75717163085938,98.11459350585938,-4.990036010742188
250622,-0.0371246337890625,1.013595581054688,0.1598968505859375,-0.6380289196968079,-0.2995409071445465,0.0234259646385908,35.69692993164062,98.20372009277344,-4.796600341796875
250623,-0.0371246337890625,1.013595581054688,0.1598968505859375,-0.6380289196968079,-0.2995409071445465,0.0234259646385908,35.69692993164062,98.20372009277344,-4.796600341796875
250624,-0.0924224853515625,1.03973388671875,-0.0356292724609375,-0.6060744524002075,-0.3463521003723145,-0.0256734061986208,35.56861877441406,98.30123901367188,-4.057479858398438
250625,-0.1128692626953125,1.044525146484375,-0.1114959716796875,-0.5576590299606323,-0.3404619693756104,-0.0779131725430488,35.47303771972656,98.37710571289062,-3.70294189453125
250626,-0.120330810546875,1.073455810546875,-0.1704864501953125,-0.4960995018482208,-0.3222504854202271,-0.141440749168396,35.29566955566406,98.38705444335938,-3.342422485351562
250627,-0.112518310546875,1.138259887695312,-0.22003173828125,-0.4407694041728973,-0.2852208316326141,-0.2017363160848618,35.12849426269531,98.43121337890624,-3.142333984375
250628,-0.106842041015625,1.233200073242188,-0.272552490234375,-0.3864640891551971,-0.2172164767980576,-0.2490212768316269,35.07423400878906,98.44467163085938,-2.843399047851562
250629,-0.0887451171875,1.322586059570312,-0.3335723876953125,-0.3304556906223297,-0.1591438502073288,-0.2460902035236359,34.81187438964844,98.3221435546875,-2.485336303710938
250630,-0.0598602294921875,1.414077758789062,-0.3851470947265625,-0.2684706151485443,-0.1633271425962448,-0.2076208293437958,34.64527893066406,98.30809020996094,-2.30572509765625
250631,-0.0215301513671875,1.448715209960938,-0.4128265380859375,-0.2208982855081558,-0.1508425027132034,-0.1231240630149841,34.52523803710938,98.28352355957033,-2.02325439453125
250632,0.015716552734375,1.426788330078125,-0.436920166015625,-0.1774304360151291,-0.1660915017127991,0.0111605087295174,34.27360534667969,98.24346923828124,-1.76318359375
250633,0.02685546875,1.375762939453125,-0.419036865234375,-0.120406836271286,-0.117607057094574,0.1617023497819901,34.146240234375,98.29969787597656,-1.55096435546875
250634,0.0201263427734375,1.283889770507812,-0.395477294921875,-0.0415706112980842,-0.0538379326462745,0.313257247209549,34.12973022460938,98.25936889648438,-1.543609619140625
250635,0.0201263427734375,1.283889770507812,-0.395477294921875,-0.0415706112980842,-0.0538379326462745,0.313257247209549,34.12973022460938,98.25936889648438,-1.543609619140625
250636,0.0091552734375,1.07977294921875,-0.3383026123046875,0.1500270515680313,0.0264300089329481,0.4877022802829742,34.32234191894531,98.23983764648438,-1.440399169921875
250637,0.0052642822265625,0.994659423828125,-0.3625030517578125,0.1995455920696259,0.0887929871678352,0.5559380650520325,34.44029235839844,98.28376770019533,-1.467239379882812
250638,0.0314178466796875,0.942779541015625,-0.422271728515625,0.231457456946373,0.1600048542022705,0.6139504909515381,34.67622375488281,98.51913452148438,-1.520034790039062
250639,0.0314178466796875,0.942779541015625,-0.422271728515625,0.231457456946373,0.1600048542022705,0.6139504909515381,34.67622375488281,98.51913452148438,-1.520034790039062
250640,0.095550537109375,0.941802978515625,-0.460174560546875,0.2295391857624054,0.2962045073509216,0.6537889838218689,35.23306274414062,98.62490844726562,-1.7462158203125
250641,0.1187591552734375,0.962249755859375,-0.419403076171875,0.1981698125600815,0.3515745401382446,0.6262668371200562,35.53192138671875,98.70899963378906,-1.9688720703125
250642,0.127288818359375,0.9868011474609376,-0.364044189453125,0.1884652525186539,0.3949875235557556,0.5814412832260132,35.80624389648438,98.72257995605467,-2.183517456054688
250643,0.127288818359375,0.9868011474609376,-0.364044189453125,0.1884652525186539,0.3949875235557556,0.5814412832260132,35.80624389648438,98.72257995605467,-2.183517456054688
250644,0.09716796875,1.070297241210938,-0.29071044921875,0.2239816933870316,0.4808856546878815,0.4269478619098663,36.45262145996094,98.73367309570312,-2.46405029296875
250645,0.0625762939453125,1.099090576171875,-0.25616455078125,0.2696117758750916,0.5410534143447876,0.3254401385784149,36.75001525878906,98.911865234375,-2.611328125
250646,-0.0299224853515625,1.102096557617188,-0.1028900146484375,0.2834916412830353,0.7190257906913757,0.127821072936058,36.99563598632812,99.10496520996094,-3.048095703125
250647,-0.0299224853515625,1.102096557617188,-0.1028900146484375,0.2834916412830353,0.7190257906913757,0.127821072936058,36.99563598632812,99.10496520996094,-3.048095703125
250648,-0.0849151611328125,1.0889892578125,-0.03656005859375,0.2269412726163864,0.7991225123405457,0.0499965883791446,36.93778991699219,99.09602355957033,-3.180511474609375
250649,-0.12506103515625,1.0667724609375,0.018157958984375,0.1161521747708321,0.8255969882011414,-0.0323427580296993,36.96331787109375,99.08724975585938,-3.409912109375
250650,-0.1469573974609375,1.051345825195312,0.0850372314453125,0.1161521747708321,0.8255969882011414,-0.0323427580296993,37.02786254882812,99.18881225585938,-3.800003051757812
250651,-0.1469573974609375,1.051345825195312,0.0850372314453125,0.1161521747708321,0.8255969882011414,-0.0323427580296993,37.02786254882812,99.18881225585938,-3.800003051757812
250652,-0.1390838623046875,1.045684814453125,0.18804931640625,-0.0045036715455353,0.872399091720581,0.0356666520237922,36.98190307617188,99.27482604980467,-4.316177368164062
250653,-0.10748291015625,1.029190063476562,0.1869354248046875,-0.0876640751957893,0.8631592392921448,0.1377128511667252,36.95066833496094,99.32205200195312,-4.453933715820312
250654,-0.053680419921875,1.008346557617188,0.1926116943359375,-0.164476290345192,0.8155909180641174,0.2719505429267883,36.90229797363281,99.31950378417967,-4.735580444335938
250655,0.002899169921875,0.9846954345703124,0.2083587646484375,-0.1582245230674744,0.6588274240493774,0.3990704119205475,36.99908447265625,99.19996643066406,-4.833267211914062
250656,0.04046630859375,0.9410400390625,0.2505645751953125,-0.0844839885830879,0.4993975758552551,0.4769628345966339,37.141357421875,99.04719543457033,-4.961883544921875
250657,0.0617218017578125,0.9015655517578124,0.262115478515625,0.0333030968904495,0.3455451428890228,0.5459685325622559,37.27227783203125,98.87628173828124,-4.828353881835938
250658,0.0731353759765625,0.85198974609375,0.26666259765625,0.1653064042329788,0.1980728656053543,0.5815744400024414,37.47996520996094,98.878662109375,-4.813232421875
250659,0.0887603759765625,0.7680511474609375,0.265228271484375,0.1033556833863258,0.2229851484298706,0.5276238918304443,37.68594360351562,98.962890625,-4.949264526367188
250660,0.092010498046875,0.6864471435546875,0.26531982421875,0.1033556833863258,0.2229851484298706,0.5276238918304443,37.96479797363281,98.91650390625,-4.943939208984375
250661,0.084991455078125,0.628509521484375,0.26434326171875,-0.1449033915996552,0.4007498025894165,0.3604609668254852,38.26309204101562,98.8551025390625,-4.938064575195312
250662,0.080810546875,0.595367431640625,0.24359130859375,-0.1449033915996552,0.4007498025894165,0.3604609668254852,38.45576477050781,98.8665008544922,-4.888626098632812
250663,0.0733795166015625,0.610260009765625,0.225067138671875,-0.2461320161819458,0.4194097816944122,0.2563324570655823,38.58560180664062,98.93441772460938,-4.718704223632812
250664,0.036834716796875,0.6918792724609375,0.2282562255859375,-0.4140525758266449,0.419944554567337,0.0848099589347839,38.77938842773438,98.86825561523438,-4.4879150390625
250665,-0.0086212158203125,0.7339935302734375,0.221466064453125,-0.4978340268135071,0.3581328392028809,0.0400792434811592,38.88758850097656,98.88449096679688,-4.4530029296875
250666,-0.012939453125,0.732177734375,0.151123046875,-0.5406978726387024,0.2348601818084717,0.0051367050036787,39.085693359375,98.8879852294922,-4.303314208984375
250667,-0.0035400390625,0.731292724609375,0.1132965087890625,-0.5406978726387024,0.2348601818084717,0.0051367050036787,39.05274963378906,98.77009582519533,-4.089385986328125
250668,0.00604248046875,0.76763916015625,0.137725830078125,-0.5385750532150269,0.18354132771492,-0.0241993460804224,39.051025390625,98.71157836914062,-3.934585571289062
250669,0.00537109375,0.82415771484375,0.17938232421875,-0.4904812872409821,0.2542370855808258,-0.0606708042323589,39.08413696289062,98.52629089355467,-3.682830810546875
250670,-0.0121307373046875,0.87451171875,0.1892242431640625,-0.3482764959335327,0.4566391706466675,-0.2126904278993607,39.05009460449219,98.532958984375,-3.493881225585938
250671,-0.0453643798828125,0.9340057373046876,0.163543701171875,-0.2315645217895508,0.401904284954071,-0.324168473482132,38.9222412109375,98.50442504882812,-3.481903076171875
250672,-0.082763671875,1.002365112304688,0.12689208984375,-0.0985473468899726,0.258975625038147,-0.4274133741855621,38.80680847167969,98.52420043945312,-3.520050048828125
250673,-0.1236724853515625,1.036819458007812,0.1305999755859375,-0.0985473468899726,0.258975625038147,-0.4274133741855621,38.6395263671875,98.46348571777344,-3.406570434570312
250674,-0.158447265625,1.050643920898438,0.1587982177734375,0.0143057024106383,0.1373868882656097,-0.4911380410194397,38.43733215332031,98.50216674804688,-3.332077026367188
250675,-0.18096923828125,1.066131591796875,0.1711883544921875,0.0700957328081131,0.0837428346276283,-0.5163272619247437,38.22152709960938,98.45458984375,-3.427383422851562
250676,-0.184661865234375,1.0679931640625,0.1608428955078125,0.0792596712708473,0.0864768326282501,-0.509498655796051,37.89808654785156,98.45913696289062,-3.476760864257812
250677,-0.1649627685546875,1.041458129882812,0.1390380859375,0.0871847048401832,0.0822392106056213,-0.4893289506435394,37.67556762695312,98.55558776855467,-3.535690307617188
250678,-0.119110107421875,0.9777984619140624,0.0821075439453125,0.1425129324197769,0.0005739112384617,-0.4489234685897827,37.39173889160156,98.52413940429688,-3.510421752929688
250679,-0.119110107421875,0.9777984619140624,0.0821075439453125,0.1425129324197769,0.0005739112384617,-0.4489234685897827,37.39173889160156,98.52413940429688,-3.510421752929688
250680,-0.0917510986328125,0.7673187255859375,-0.0012359619140625,0.3142615258693695,-0.1494627296924591,-0.387750118970871,36.80960083007812,98.57077026367188,-3.758102416992188
250681,-0.1191253662109375,0.6923980712890625,-0.0210418701171875,0.363387793302536,-0.1162552386522293,-0.3918290138244629,36.58404541015625,98.53683471679688,-3.8505859375
250682,-0.15887451171875,0.63720703125,-0.0435028076171875,0.3359929323196411,-0.0906992778182029,-0.4064148962497711,36.42483520507812,98.67327880859376,-3.943771362304688
250683,-0.15887451171875,0.63720703125,-0.0435028076171875,0.3359929323196411,-0.0906992778182029,-0.4064148962497711,36.42483520507812,98.67327880859376,-3.943771362304688
250684,-0.217926025390625,0.6780853271484375,-0.0982208251953125,0.0222656242549419,-0.0635323673486709,-0.4222186207771301,35.90745544433594,98.7060089111328,-4.312881469726562
250685,-0.200592041015625,0.787261962890625,-0.13446044921875,-0.3780602216720581,-0.220773383975029,-0.4975677132606506,35.73829650878906,98.64299011230467,-4.329544067382812
250686,-0.1669158935546875,0.9242095947265624,-0.1628570556640625,-0.4727861881256104,-0.3164066970348358,-0.5072419047355652,35.59687805175781,98.63142395019533,-4.341354370117188
250687,-0.119598388671875,1.067733764648438,-0.19287109375,-0.4727861881256104,-0.3164066970348358,-0.5072419047355652,35.23973083496094,98.60902404785156,-4.27044677734375
250688,-0.1068572998046875,1.294097900390625,-0.19427490234375,-0.4783822894096375,-0.3617989420890808,-0.476476788520813,35.0206298828125,98.66220092773438,-4.224853515625
250689,-0.0430145263671875,1.452239990234375,-0.16619873046875,-0.5027198791503906,-0.4860918819904327,-0.4243552684783936,34.66346740722656,98.7475128173828,-3.909622192382812
250690,0.0292205810546875,1.52923583984375,-0.10198974609375,-0.5080432295799255,-0.5266686081886292,-0.2536402642726898,34.32530212402344,98.69708251953124,-3.630661010742188
250691,0.0292205810546875,1.52923583984375,-0.10198974609375,-0.5080432295799255,-0.5266686081886292,-0.2536402642726898,34.32530212402344,98.69708251953124,-3.630661010742188
250692,0.050445556640625,1.454986572265625,-0.09271240234375,-0.4036212265491486,-0.3240350484848022,-0.0501001849770546,33.91233825683594,98.57119750976562,-2.909378051757812
250693,0.02685546875,1.364242553710938,-0.14691162109375,-0.2667073309421539,-0.2641142010688782,-0.0405383706092834,33.79833984375,98.67784118652344,-2.555923461914062
250694,0.0494232177734375,1.108993530273438,-0.2387847900390625,0.0683795884251594,-0.364325225353241,0.0141648212447762,33.7030029296875,98.62472534179688,-1.939926147460938
250695,0.0494232177734375,1.108993530273438,-0.2387847900390625,0.0683795884251594,-0.364325225353241,0.0141648212447762,33.7030029296875,98.62472534179688,-1.939926147460938
250696,0.08599853515625,1.07940673828125,-0.3455352783203125,0.2336519062519073,-0.3906100988388062,0.0541103743016719,33.74485778808594,98.746826171875,-1.635986328125
250697,0.1234130859375,1.134063720703125,-0.4694061279296875,0.356960266828537,-0.459173709154129,0.0613935850560665,33.78488159179688,98.80657958984376,-1.5845947265625
250698,0.1695404052734375,1.175277709960938,-0.575164794921875,0.4707371592521667,-0.5046929717063904,0.0568491667509079,33.92236328125,98.80126953125,-1.599609375
250699,0.1695404052734375,1.175277709960938,-0.575164794921875,0.4707371592521667,-0.5046929717063904,0.0568491667509079,33.92236328125,98.80126953125,-1.599609375
250700,0.174530029296875,1.199920654296875,-0.5433807373046875,0.468662291765213,-0.4864902794361115,0.0758103430271148,33.92915344238281,98.84317016601562,-1.581878662109375
250701,0.162841796875,1.22100830078125,-0.5001373291015625,0.4754032790660858,-0.456520140171051,0.1037040278315544,34.03413391113281,98.86000061035156,-1.733535766601562
250702,0.14495849609375,1.244918823242188,-0.4785919189453125,0.5748670101165771,-0.3225700557231903,0.2174204736948013,34.11495971679688,98.85061645507812,-1.846221923828125
250703,0.14495849609375,1.244918823242188,-0.4785919189453125,0.5748670101165771,-0.3225700557231903,0.2174204736948013,34.11495971679688,98.85061645507812,-1.846221923828125
250704,0.1458740234375,1.253448486328125,-0.4644012451171875,0.5773054361343384,-0.1768280416727066,0.2849028408527374,34.37590026855469,98.72428894042967,-2.236007690429688
250705,0.1663970947265625,1.25885009765625,-0.3635711669921875,0.5039656758308411,-0.0651446506381034,0.3044475018978119,34.55461120605469,98.7087860107422,-2.446151733398438
250706,0.1691436767578125,1.236282348632812,-0.1731414794921875,0.3890124559402466,-0.0965582281351089,0.2781173586845398,34.71377563476562,98.70462036132812,-2.711669921875
250707,0.1691436767578125,1.236282348632812,-0.1731414794921875,0.3890124559402466,-0.0965582281351089,0.2781173586845398,34.71377563476562,98.70462036132812,-2.711669921875
250708,0.1269073486328125,1.220108032226562,0.09954833984375,0.2360370308160782,-0.291586846113205,0.1330861449241638,35.31695556640625,98.90390014648438,-3.311355590820312
250709,0.1073760986328125,1.25421142578125,0.132049560546875,0.210292786359787,-0.3015579879283905,0.0164522100239992,35.51741027832031,98.93040466308594,-3.445724487304688
250710,0.0535430908203125,1.29351806640625,0.117706298828125,0.4661684930324554,-0.1910764873027802,-0.4232745766639709,35.84651184082031,98.95841979980467,-3.731048583984375
250711,0.0535430908203125,1.29351806640625,0.117706298828125,0.4661684930324554,-0.1910764873027802,-0.4232745766639709,35.84651184082031,98.95841979980467,-3.731048583984375
250712,-0.010345458984375,1.256591796875,0.1356658935546875,0.4661684930324554,-0.1910764873027802,-0.4232745766639709,35.90061950683594,98.85636901855467,-3.813919067382812
250713,-0.0907745361328125,1.180862426757812,0.1237945556640625,0.616348922252655,-0.1604157686233521,-0.524060845375061,36.00025939941406,98.7802276611328,-4.043670654296875
250714,-0.1436767578125,1.104446411132812,0.117645263671875,0.7876567840576172,-0.1834127008914948,-0.6004794239997864,35.88175964355469,98.86727905273438,-4.19769287109375
250715,-0.1436767578125,1.104446411132812,0.117645263671875,0.7876567840576172,-0.1834127008914948,-0.6004794239997864,35.88175964355469,98.86727905273438,-4.19769287109375
250716,-0.2174835205078125,0.96099853515625,0.1126251220703125,0.9251073002815248,-0.332497775554657,-0.6574287414550781,35.62480163574219,98.7703857421875,-4.789520263671875
250717,-0.2427978515625,0.9069366455078124,0.0820159912109375,0.84438556432724,-0.4279681146144867,-0.6303023099899292,35.34918212890625,98.73553466796876,-5.12255859375
250718,-0.25543212890625,0.81884765625,0.0221099853515625,0.5972498059272766,-0.6441262364387512,-0.4970305562019348,35.10145568847656,98.80931091308594,-5.8995361328125
250719,-0.25543212890625,0.81884765625,0.0221099853515625,0.5972498059272766,-0.6441262364387512,-0.4970305562019348,35.10145568847656,98.80931091308594,-5.8995361328125
250720,-0.2393646240234375,0.7938079833984375,0.00225830078125,0.5534629225730896,-0.7268182039260864,-0.4040782451629639,34.98251342773438,98.7949676513672,-6.026351928710938
250721,-0.2247467041015625,0.76715087890625,-0.0154266357421875,0.587279200553894,-0.8155629634857178,-0.3123608231544495,34.88491821289062,98.73431396484376,-6.18939208984375
250722,-0.2207183837890625,0.7395172119140625,0.019500732421875,0.6714385747909546,-0.8271360397338867,-0.2243422865867615,34.77711486816406,98.66758728027344,-6.207595825195312
250723,-0.2207183837890625,0.7395172119140625,0.019500732421875,0.6714385747909546,-0.8271360397338867,-0.2243422865867615,34.77711486816406,98.66758728027344,-6.207595825195312
250724,-0.2531585693359375,0.66851806640625,0.15631103515625,0.8155808448791504,-0.4136429727077484,-0.0871349051594734,34.77888488769531,98.6231689453125,-6.527786254882812
250725,-0.282470703125,0.599456787109375,0.166168212890625,0.8379271626472473,-0.1199514344334602,-0.0385210253298282,34.85736083984375,98.6383819580078,-6.839019775390625
250726,-0.299285888671875,0.5369873046875,0.1728515625,0.8191151022911072,0.1252202391624451,0.0042818305082619,34.86741638183594,98.49964904785156,-7.061660766601562
250727,-0.299285888671875,0.5369873046875,0.1728515625,0.8191151022911072,0.1252202391624451,0.0042818305082619,34.86741638183594,98.49964904785156,-7.061660766601562
250728,-0.2883758544921875,0.5026397705078125,0.2675933837890625,0.566949725151062,0.5908132195472717,0.0591277666389942,34.97468566894531,98.54393005371094,-7.802215576171875
250729,-0.2522430419921875,0.531463623046875,0.308929443359375,0.2754057347774506,0.755843997001648,0.1171053200960159,34.98414611816406,98.56809997558594,-8.225234985351562
250730,-0.201568603515625,0.784027099609375,0.44293212890625,-0.5141496062278748,0.8122420310974121,0.2430888116359711,35.06089782714844,98.59147644042967,-8.77001953125
250731,-0.201568603515625,0.784027099609375,0.44293212890625,-0.5141496062278748,0.8122420310974121,0.2430888116359711,35.06089782714844,98.59147644042967,-8.77001953125
250732,-0.1971588134765625,0.8741302490234375,0.5027313232421875,-0.7992337942123413,0.8168615698814392,0.2386575788259506,35.10671997070312,98.57839965820312,-8.7796630859375
250733,-0.199188232421875,0.892974853515625,0.4969329833984375,-0.9089658856391908,0.7384287714958191,0.2256086319684982,35.25028991699219,98.46940612792967,-8.730300903320312
250734,-0.1674652099609375,0.87445068359375,0.4227447509765625,-0.7561217546463013,0.2861473262310028,0.2414411157369614,35.35691833496094,98.30821228027344,-8.181243896484375
250735,-0.1674652099609375,0.87445068359375,0.4227447509765625,-0.7561217546463013,0.2861473262310028,0.2414411157369614,35.35691833496094,98.30821228027344,-8.181243896484375
250736,-0.1135101318359375,0.8666839599609375,0.3795318603515625,-0.6576899886131287,0.0788948163390159,0.2427543252706528,35.37237548828125,98.23077392578124,-7.886688232421875
250737,-0.04254150390625,0.87310791015625,0.31744384765625,-0.6013364195823669,-0.0478934906423091,0.2395681142807007,35.43136596679688,98.33619689941406,-7.656326293945312
250738,0.029754638671875,0.9017181396484376,0.255462646484375,-0.5995590686798096,-0.0433988720178604,0.2098219394683838,35.4298095703125,98.31922912597656,-7.41259765625
250739,0.029754638671875,0.9017181396484376,0.255462646484375,-0.5995590686798096,-0.0433988720178604,0.2098219394683838,35.4298095703125,98.31922912597656,-7.41259765625
250740,0.091400146484375,0.911865234375,0.1594390869140625,-0.6058387756347656,0.1123246774077415,0.1117744669318199,35.48788452148438,98.30281066894533,-6.853042602539062
250741,0.07550048828125,0.914398193359375,0.1342010498046875,-0.5778961181640625,0.1767382919788361,0.0466204993426799,35.36972045898438,98.37310791015624,-6.627334594726562
250742,0.033935546875,0.917327880859375,0.122467041015625,-0.5472678542137146,0.1920589208602905,0.0002913498319685,35.3739013671875,98.34303283691406,-6.2618408203125
250743,0.033935546875,0.917327880859375,0.122467041015625,-0.5472678542137146,0.1920589208602905,0.0002913498319685,35.3739013671875,98.34303283691406,-6.2618408203125
250744,-0.0228271484375,0.9614410400390624,0.0467681884765625,-0.5324987769126892,0.0427948683500289,-0.0424611754715442,35.06085205078125,98.41403198242188,-5.762847900390625
250745,-0.043304443359375,1.015869140625,-0.0542755126953125,-0.4782675206661224,-0.1286570429801941,-0.0793832391500473,34.94879150390625,98.38636779785156,-5.455184936523438
250746,-0.051788330078125,1.071609497070312,-0.164031982421875,-0.3867293298244476,-0.2811592221260071,-0.1153660044074059,34.85525512695312,98.32640075683594,-5.239349365234375
250747,-0.051788330078125,1.071609497070312,-0.164031982421875,-0.3867293298244476,-0.2811592221260071,-0.1153660044074059,34.85525512695312,98.32640075683594,-5.239349365234375
250748,0.0105133056640625,1.293655395507812,-0.439971923828125,-0.0238360911607742,-0.170301154255867,-0.2178859859704971,34.50502014160156,98.4352569580078,-4.538497924804688
250749,0.0105133056640625,1.293655395507812,-0.439971923828125,-0.0238360911607742,-0.170301154255867,-0.2178859859704971,34.50502014160156,98.4352569580078,-4.538497924804688
250750,0.1634521484375,1.531509399414062,-0.759918212890625,-0.0353590548038482,0.201870009303093,-0.2647187411785126,33.97015380859375,98.63150024414062,-4.359481811523438
250751,0.201263427734375,1.549942016601562,-0.8198699951171875,-0.0353590548038482,0.201870009303093,-0.2647187411785126,33.57405090332031,98.608642578125,-4.385116577148438
250752,0.20849609375,1.520980834960938,-0.734710693359375,-0.3074784576892853,-0.0953648686408996,-0.1317814588546753,33.35345458984375,98.55105590820312,-4.40374755859375
250753,0.17803955078125,1.452346801757812,-0.5677032470703125,-0.3901776075363159,-0.2531574368476868,0.0324048101902008,33.21971130371094,98.50309753417967,-4.28533935546875
250754,0.148529052734375,1.327880859375,-0.4512786865234375,-0.211676299571991,-0.2045851051807404,0.2275774925947189,33.09855651855469,98.41766357421876,-4.095062255859375
250755,0.1112060546875,1.254425048828125,-0.4763641357421875,0.1258628517389297,-0.0592734441161155,0.4185394644737244,33.13496398925781,98.40899658203124,-3.842361450195312
250756,0.07073974609375,1.2222900390625,-0.62091064453125,0.4206180572509766,0.0803571566939353,0.5386278033256531,33.39324951171875,98.44873046875,-3.85601806640625
250757,0.0462646484375,1.165847778320312,-0.787994384765625,0.5714176893234253,0.2083276361227036,0.6417195796966553,33.58964538574219,98.49984741210938,-3.916168212890625
250758,0.0428924560546875,1.13739013671875,-0.83660888671875,0.589003324508667,0.2486529648303986,0.6989482045173645,33.86207580566406,98.63052368164062,-4.148941040039062
250759,0.04541015625,1.113983154296875,-0.715545654296875,0.5341954827308655,0.3069641888141632,0.6933057904243469,34.16596984863281,98.791259765625,-4.422378540039062
250760,0.062713623046875,1.0787353515625,-0.5913848876953125,0.4837333858013153,0.3496205806732178,0.6515964269638062,34.6312255859375,98.84458923339844,-4.749771118164062
250761,0.080108642578125,1.047714233398438,-0.530975341796875,0.4839637577533722,0.3649284243583679,0.5794479250907898,34.96699523925781,98.95230102539062,-5.020599365234375
250762,0.079376220703125,1.034423828125,-0.4817352294921875,0.5036916136741638,0.3824475109577179,0.4942595362663269,35.28982543945312,99.09373474121094,-5.450973510742188
250763,0.056640625,1.039932250976562,-0.4166259765625,0.401341050863266,0.5344844460487366,0.3145858943462372,35.46894836425781,99.24868774414062,-5.721237182617188
250764,0.031707763671875,1.048171997070312,-0.3310699462890625,0.2455578297376633,0.5550515055656433,0.2197318226099014,35.75205993652344,99.32701110839844,-5.9583740234375
250765,0.02142333984375,1.044097900390625,-0.24090576171875,0.2455578297376633,0.5550515055656433,0.2197318226099014,35.99165344238281,99.45188903808594,-6.25982666015625
250766,0.0045928955078125,1.018478393554688,-0.1560821533203125,-0.0723250657320022,0.4086034893989563,0.0633984133601188,36.12982177734375,99.60211181640624,-6.499862670898438
250767,-0.0053863525390625,0.9775543212890624,-0.0829925537109375,-0.0723250657320022,0.4086034893989563,0.0633984133601188,36.36557006835938,99.60720825195312,-6.623321533203125
250768,-0.0200347900390625,0.953704833984375,-0.0016326904296875,-0.1531429439783096,0.3023308217525482,0.0934218242764473,36.5181884765625,99.59890747070312,-6.687271118164062
250769,-0.0339508056640625,0.9640045166015624,0.0965423583984375,-0.1980611532926559,0.2303669005632401,0.1522087156772614,36.56460571289062,99.66065979003906,-6.861068725585938
250770,-0.0331268310546875,1.010635375976562,0.26483154296875,-0.3523202240467072,0.1964936107397079,0.3461688756942749,36.63664245605469,99.67306518554688,-7.092529296875
250771,-0.0331268310546875,1.010635375976562,0.26483154296875,-0.3523202240467072,0.1964936107397079,0.3461688756942749,36.63664245605469,99.67306518554688,-7.092529296875
250772,-0.0165863037109375,1.042144775390625,0.2822113037109375,-0.4195256233215332,0.2165578752756119,0.4502225518226624,36.86505126953125,99.61257934570312,-7.032196044921875
250773,-0.009033203125,1.0426025390625,0.2541961669921875,-0.4534138143062592,0.1938831806182861,0.5663099884986877,37.06253051757812,99.45578002929688,-6.93817138671875
250774,-0.0042572021484375,1.019241333007812,0.2512664794921875,-0.4430956840515137,0.1671794056892395,0.6453065872192383,37.24951171875,99.31295776367188,-6.6983642578125
250775,-0.0042572021484375,1.019241333007812,0.2512664794921875,-0.4430956840515137,0.1671794056892395,0.6453065872192383,37.24951171875,99.31295776367188,-6.6983642578125
250776,0.027313232421875,0.94317626953125,0.26361083984375,-0.313249260187149,0.1452890187501907,0.6868763566017151,37.88569641113281,99.17431640625,-6.242828369140625
250777,0.054595947265625,0.8939056396484375,0.296295166015625,-0.2097207456827164,0.1127361357212067,0.6281228065490723,38.26907348632812,99.1626434326172,-6.128936767578125
250778,0.0916595458984375,0.8447265625,0.3753509521484375,0.1014576479792595,0.2168742567300797,0.4579023122787476,38.59213256835938,99.12074279785156,-6.0234375
250779,0.0916595458984375,0.8447265625,0.3753509521484375,0.1014576479792595,0.2168742567300797,0.4579023122787476,38.59213256835938,99.12074279785156,-6.0234375
250780,0.1649322509765625,0.7376708984375,0.3822479248046875,0.12806636095047,0.3155254721641541,0.421849250793457,39.15730285644531,99.1327667236328,-5.823455810546875
250781,0.1901702880859375,0.694732666015625,0.3579864501953125,0.0686283260583877,0.379706859588623,0.3895483016967773,39.42680358886719,99.09364318847656,-5.853958129882812
250782,0.225860595703125,0.6457061767578125,0.337127685546875,-0.1253573894500732,0.4025594294071198,0.3023247122764587,39.62519836425781,99.17131042480467,-5.949783325195312
250783,0.2203369140625,0.640869140625,0.35626220703125,-0.1776938289403915,0.4930286109447479,0.2235771715641022,39.83915710449219,99.14471435546876,-6.064224243164062
250784,0.1125030517578125,0.7132568359375,0.3851165771484375,-0.1776938289403915,0.4930286109447479,0.2235771715641022,39.98037719726562,99.1300048828125,-6.102096557617188
250785,-0.02899169921875,0.8038330078125,0.3608551025390625,-0.2244267165660858,0.5572576522827148,0.1558487117290497,40.09751892089844,99.08018493652344,-5.992721557617188
250786,-0.12298583984375,0.87939453125,0.2791748046875,-0.2632907629013062,0.4789689779281616,0.0248664673417806,40.19338989257812,98.96478271484376,-6.088409423828125
250787,-0.12298583984375,0.87939453125,0.2791748046875,-0.2632907629013062,0.4789689779281616,0.0248664673417806,40.19338989257812,98.96478271484376,-6.088409423828125
250788,-0.220550537109375,0.911834716796875,0.2586669921875,-0.1800651103258133,0.1023878902196884,-0.292260080575943,40.31761169433594,98.9183349609375,-5.896560668945312
250789,-0.235748291015625,0.9035491943359376,0.2584686279296875,-0.0883429124951362,-0.0256595574319362,-0.3916492462158203,40.14064025878906,98.84408569335938,-5.841461181640625
250790,-0.2374420166015625,0.89764404296875,0.216766357421875,-0.0059497682377696,-0.2697465121746063,-0.4578237533569336,40.07566833496094,98.8795166015625,-5.914932250976562
250791,-0.2164306640625,0.8881378173828125,0.17059326171875,-0.0059497682377696,-0.2697465121746063,-0.4578237533569336,39.89097595214844,98.77626037597656,-6.020919799804688
250792,-0.2032318115234375,0.9071502685546876,0.1090240478515625,-0.0239934828132391,-0.1897081434726715,-0.3859034776687622,39.54278564453125,98.80950927734376,-5.865036010742188
250793,-0.161956787109375,0.947479248046875,0.0308074951171875,-0.0143376598134636,0.0348037853837013,-0.2968977093696594,39.29791259765625,98.92608642578124,-5.892730712890625
250794,-0.0756988525390625,0.9753875732421876,0.0110931396484375,0.0394675135612487,0.3028789162635803,-0.2708807587623596,39.03265380859375,98.94703674316406,-5.895919799804688
250795,-0.0756988525390625,0.9753875732421876,0.0110931396484375,0.0394675135612487,0.3028789162635803,-0.2708807587623596,39.03265380859375,98.94703674316406,-5.895919799804688
250796,-0.021392822265625,0.878936767578125,0.0584259033203125,0.1143734455108643,0.6141659617424011,-0.3052126467227936,38.57235717773438,98.97988891601562,-5.86395263671875
250797,-0.0271759033203125,0.8065032958984375,0.1035003662109375,0.0782103836536407,0.4999578893184662,-0.3076630234718323,38.31280517578125,98.9791259765625,-5.93414306640625
250798,-0.0251312255859375,0.7288665771484375,0.143951416015625,0.0118702417239546,0.3906508386135101,-0.3093485236167908,38.11116027832031,99.02542114257812,-6.148788452148438
250799,-0.0251312255859375,0.7288665771484375,0.143951416015625,0.0118702417239546,0.3906508386135101,-0.3093485236167908,38.11116027832031,99.02542114257812,-6.148788452148438
250800,-0.0299835205078125,0.6332855224609375,0.0833282470703125,-0.1359032392501831,0.1503037512302399,-0.3245908617973328,37.68316650390625,99.04142761230467,-6.171493530273438
250801,-0.037841796875,0.6161346435546875,0.0236358642578125,-0.198353573679924,0.0152564505115151,-0.3580609261989594,37.54718017578125,98.90901184082033,-6.163970947265625
250802,-0.02783203125,0.6063690185546875,-0.0541839599609375,-0.3248473405838013,-0.2140992432832718,-0.4062100946903229,37.28903198242188,99.0620574951172,-6.225006103515625
250803,-0.02783203125,0.6063690185546875,-0.0541839599609375,-0.3248473405838013,-0.2140992432832718,-0.4062100946903229,37.28903198242188,99.0620574951172,-6.225006103515625
250804,0.052337646484375,0.7217254638671875,-0.2483978271484375,-0.3792157471179962,-0.2538501024246216,-0.412217915058136,36.82467651367188,98.9538116455078,-6.049575805664062
250805,0.1075439453125,0.842681884765625,-0.3443603515625,-0.429742842912674,-0.1987812668085098,-0.4059163331985474,36.52256774902344,98.96565246582033,-5.794464111328125
250806,0.162139892578125,0.99737548828125,-0.416748046875,-0.584062933921814,-0.0947781726717948,-0.4388849437236786,36.22404479980469,99.04637145996094,-5.665603637695312
250807,0.217529296875,1.17340087890625,-0.4621429443359375,-0.584062933921814,-0.0947781726717948,-0.4388849437236786,35.89044189453125,99.13517761230467,-5.410781860351562
250808,0.25640869140625,1.331024169921875,-0.44451904296875,-0.7108469605445862,-0.2161818295717239,-0.4824947416782379,35.52264404296875,99.10946655273438,-5.051910400390625
250809,0.2588958740234375,1.445999145507812,-0.38348388671875,-0.7936981916427612,-0.3477944433689117,-0.4765037000179291,35.13796997070312,99.06187438964844,-4.664794921875
250810,0.200714111328125,1.521469116210938,-0.3087158203125,-0.6167321801185608,-0.4494627714157104,-0.2555739879608154,34.60212707519531,98.92658996582033,-3.881698608398438
250811,0.200714111328125,1.521469116210938,-0.3087158203125,-0.6167321801185608,-0.4494627714157104,-0.2555739879608154,34.60212707519531,98.92658996582033,-3.881698608398438
250812,0.1641845703125,1.420578002929688,-0.2997894287109375,-0.3334469497203827,-0.3783843219280243,-0.1024091988801956,34.40599060058594,98.89125061035156,-3.4656982421875
250813,0.13909912109375,1.30242919921875,-0.3272705078125,0.0339606292545795,-0.3388214707374573,0.003458913648501,34.17599487304688,98.77400207519533,-2.949295043945312
250814,0.111785888671875,1.210617065429688,-0.402130126953125,0.3818597495555878,-0.2843560874462128,0.0845178142189979,34.11747741699219,98.74090576171876,-2.73516845703125
250815,0.111785888671875,1.210617065429688,-0.402130126953125,0.3818597495555878,-0.2843560874462128,0.0845178142189979,34.11747741699219,98.74090576171876,-2.73516845703125
250816,0.0679931640625,1.243942260742188,-0.5877227783203125,0.6901454329490662,-0.1955138444900513,0.1820483654737473,34.33729553222656,98.69572448730467,-2.767654418945312
250817,0.100189208984375,1.240142822265625,-0.54736328125,0.6515900492668152,-0.1002269983291626,0.1962155848741531,34.39976501464844,98.79457092285156,-2.94940185546875
250818,0.1824188232421875,1.194061279296875,-0.4226837158203125,0.5027307868003845,0.1082963794469833,0.243112787604332,34.64474487304688,99.06282043457033,-3.59722900390625
250819,0.1824188232421875,1.194061279296875,-0.4226837158203125,0.5027307868003845,0.1082963794469833,0.243112787604332,34.64474487304688,99.06282043457033,-3.59722900390625
250820,0.2009124755859375,1.180130004882812,-0.3729248046875,0.4519823789596558,0.0766849219799041,0.2470414787530899,34.72207641601562,99.1895751953125,-3.806961059570312
250821,0.193389892578125,1.186019897460938,-0.3041534423828125,0.3852193355560303,-0.0053918357007205,0.21518874168396,34.97283935546875,99.1733856201172,-4.131561279296875
250822,0.1757659912109375,1.195510864257812,-0.2310943603515625,0.3151283860206604,-0.0874305143952369,0.1495032012462616,35.10488891601562,99.20393371582033,-4.51715087890625
250823,0.1757659912109375,1.195510864257812,-0.2310943603515625,0.3151283860206604,-0.0874305143952369,0.1495032012462616,35.10488891601562,99.20393371582033,-4.51715087890625
250824,0.17047119140625,1.2752685546875,-0.0785980224609375,0.090143471956253,-0.2007743865251541,-0.0115788914263248,35.53666687011719,99.19126892089844,-4.75567626953125
250825,0.17047119140625,1.2752685546875,-0.0785980224609375,0.090143471956253,-0.2007743865251541,-0.0115788914263248,35.53666687011719,99.19126892089844,-4.75567626953125
250826,0.1726226806640625,1.394683837890625,0.226531982421875,-0.2527686059474945,-0.1997011303901672,-0.2005559951066971,35.80406188964844,99.16252136230467,-5.111679077148438
250827,0.15008544921875,1.444534301757812,0.27203369140625,-0.2527686059474945,-0.1997011303901672,-0.2005559951066971,35.86402893066406,99.02857971191406,-5.012542724609375
250828,0.1188812255859375,1.462417602539062,0.2791290283203125,-0.1268162727355957,-0.3937001526355743,-0.2880666851997375,35.94004821777344,99.01414489746094,-5.005844116210938
250829,0.0953521728515625,1.435165405273438,0.259185791015625,0.1098101213574409,-0.5434079170227051,-0.3472940325737,36.09622192382812,98.91424560546876,-4.976821899414062
250830,0.0678863525390625,1.394378662109375,0.17779541015625,0.431419312953949,-0.6572527289390564,-0.3919517993927002,36.19952392578125,98.87103271484376,-4.778244018554688
250831,0.0678863525390625,1.394378662109375,0.17779541015625,0.431419312953949,-0.6572527289390564,-0.3919517993927002,36.19952392578125,98.87103271484376,-4.778244018554688
250832,-0.0002899169921875,1.205413818359375,-0.0343017578125,0.9877227544784546,-0.877926230430603,-0.3842629790306091,36.19512939453125,98.80845642089844,-4.74090576171875
250833,-0.0564117431640625,1.124420166015625,-0.0568695068359375,1.084203481674194,-1.017192721366882,-0.3442732095718384,36.15605163574219,98.815673828125,-4.822540283203125
250834,-0.0987091064453125,1.041213989257812,-0.00152587890625,1.029741287231445,-1.102013945579529,-0.261622279882431,36.23677062988281,98.83534240722656,-5.037277221679688
250835,-0.0987091064453125,1.041213989257812,-0.00152587890625,1.029741287231445,-1.102013945579529,-0.261622279882431,36.23677062988281,98.83534240722656,-5.037277221679688
250836,-0.1520843505859375,0.871246337890625,0.0523529052734375,0.7700319886207581,-1.326175332069397,-0.1322437971830368,36.44508361816406,98.75260925292967,-5.702835083007812
250837,-0.17156982421875,0.8534088134765625,0.0892333984375,0.7267169952392578,-1.512071251869202,-0.0684490948915481,36.63475036621094,98.50798034667967,-5.853530883789062
250838,-0.1988525390625,0.8123626708984375,0.1263580322265625,0.726704478263855,-1.559666156768799,-0.0246867034584283,36.7513427734375,98.483642578125,-5.9498291015625
250839,-0.247100830078125,0.740966796875,0.1802215576171875,0.726704478263855,-1.559666156768799,-0.0246867034584283,37.07046508789062,98.26318359375,-6.054351806640625
250840,-0.3157196044921875,0.6914215087890625,0.2474365234375,0.7884458899497986,-1.302457809448242,0.0177630186080932,37.37997436523438,98.20315551757812,-6.241729736328125
250841,-0.3846893310546875,0.65557861328125,0.2533111572265625,0.8832957148551941,-0.954587697982788,0.0395830944180488,37.5994873046875,98.13916015625,-6.373245239257812
250842,-0.428680419921875,0.624359130859375,0.25848388671875,0.948845148086548,-0.6443794965744019,0.0554917529225349,37.81871032714844,98.15309143066406,-6.498123168945312
250843,-0.429656982421875,0.58880615234375,0.2931671142578125,0.9329431653022766,-0.3548678159713745,0.0924258008599281,37.89700317382812,98.28936767578124,-6.701095581054688
250844,-0.36761474609375,0.5714111328125,0.33184814453125,0.8113751411437988,-0.0765224695205688,0.1608709096908569,37.93431091308594,98.39254760742188,-6.9232177734375
250845,-0.2638092041015625,0.6123809814453125,0.3556060791015625,0.561417818069458,0.1490190476179123,0.245260626077652,38.07511901855469,98.3976593017578,-7.353179931640625
250846,-0.1710968017578125,0.650634765625,0.33795166015625,0.2238506674766541,0.3030091524124146,0.2854050993919373,38.11932373046875,98.36508178710938,-7.74249267578125
250847,-0.1710968017578125,0.650634765625,0.33795166015625,0.2238506674766541,0.3030091524124146,0.2854050993919373,38.11932373046875,98.36508178710938,-7.74249267578125
250848,-0.0292510986328125,0.650543212890625,0.22271728515625,-0.3965681195259094,0.2471099197864532,0.2736613750457764,38.15887451171875,98.55726623535156,-8.4337158203125
250849,-0.0292510986328125,0.650543212890625,0.22271728515625,-0.3965681195259094,0.2471099197864532,0.2736613750457764,38.15887451171875,98.55726623535156,-8.4337158203125
250850,0.08172607421875,0.6636199951171875,0.124725341796875,-0.5355864763259888,0.0857694968581199,0.2195547223091125,38.40231323242188,98.57373046875,-8.453826904296875
250851,0.1240997314453125,0.68609619140625,0.1354217529296875,-0.5355864763259888,0.0857694968581199,0.2195547223091125,38.53538513183594,98.5294952392578,-8.266372680664062
250852,0.146484375,0.7354278564453125,0.1576080322265625,-0.5371811389923096,0.3762673735618591,0.1314642876386642,38.50044250488281,98.71720886230467,-8.119781494140625
250853,0.135498046875,0.7771453857421875,0.175079345703125,-0.5371811389923096,0.3762673735618591,0.1314642876386642,38.5318603515625,98.7506866455078,-7.759445190429688
250854,0.099273681640625,0.789459228515625,0.186981201171875,-0.6171303391456604,0.4673831760883331,0.0386896058917045,38.57301330566406,98.7677764892578,-7.593673706054688
250855,0.0520477294921875,0.803192138671875,0.184783935546875,-0.7098701000213623,0.4778062403202057,-0.0610737390816211,38.65478515625,98.66192626953124,-7.39056396484375
250856,-0.0012664794921875,0.8410491943359375,0.167083740234375,-0.783413290977478,0.4292008876800537,-0.1730343699455261,38.57252502441406,98.64456176757812,-7.156814575195312
250857,-0.0428619384765625,0.904876708984375,0.1438446044921875,-0.8323715329170227,0.3557429313659668,-0.2910331785678864,38.47091674804688,98.53541564941406,-6.848800659179688
250858,-0.0641021728515625,1.000030517578125,0.1298675537109375,-0.8560904264450073,0.2877697348594666,-0.3938703238964081,38.23764038085938,98.57925415039062,-6.533050537109375
250859,-0.0847625732421875,1.080856323242188,0.116363525390625,-0.8721948266029358,0.2979267537593842,-0.4969634413719177,38.08851623535156,98.48721313476562,-6.157989501953125
250860,-0.1023406982421875,1.116622924804688,0.0556182861328125,-0.8533868193626404,0.3197971880435944,-0.5281373262405396,37.78376770019531,98.44378662109376,-5.861007690429688
250861,-0.1366119384765625,1.103118896484375,-0.0229949951171875,-0.8191486597061157,0.4069453775882721,-0.4954012334346771,37.39314270019531,98.40852355957033,-5.665664672851562
250862,-0.165863037109375,1.076370239257812,-0.1627197265625,-0.6887642741203308,0.3252225518226624,-0.4529895782470703,37.00584411621094,98.37684631347656,-5.280258178710938
250863,-0.15802001953125,1.032470703125,-0.2731170654296875,-0.6887642741203308,0.3252225518226624,-0.4529895782470703,36.63006591796875,98.26641845703124,-4.933853149414062
250864,-0.11822509765625,1.041641235351562,-0.395233154296875,-0.620077908039093,0.2775844633579254,-0.4158467352390289,36.21632385253906,98.29508972167967,-4.546676635742188
250865,-0.053466796875,1.093032836914062,-0.502166748046875,-0.5200088024139404,0.2869646549224854,-0.3682658970355988,35.85067749023438,98.25265502929688,-4.21942138671875
250866,0.0073394775390625,1.15106201171875,-0.55340576171875,-0.3872768878936768,0.4008539319038391,-0.3048427402973175,35.57011413574219,98.08602905273438,-3.854339599609375
250867,0.0449371337890625,1.208572387695312,-0.581390380859375,-0.2569060921669006,0.5368035435676575,-0.2011203318834305,35.18698120117188,98.0968017578125,-3.571685791015625
250868,0.0528411865234375,1.262100219726562,-0.5844573974609375,-0.1655910909175873,0.595194399356842,-0.0702733621001243,34.80186462402344,98.12998962402344,-3.23345947265625
250869,0.0422210693359375,1.309173583984375,-0.58294677734375,-0.0906540006399154,0.5560153126716614,0.0597339048981666,34.50077819824219,98.16270446777344,-2.988357543945312
250870,0.01702880859375,1.328460693359375,-0.601226806640625,0.0138367200270295,0.5268955230712891,0.1832473129034042,34.37864685058594,98.0751953125,-2.927001953125
250871,0.011138916015625,1.311386108398438,-0.63653564453125,0.1505769938230515,0.5283461213111877,0.3265011608600616,34.1597900390625,98.20494079589844,-3.2254638671875
250872,0.0430145263671875,1.286636352539062,-0.6456451416015625,0.2726914584636688,0.5707790851593018,0.4648449122905731,34.01031494140625,98.3129425048828,-3.423233032226562
250873,0.095977783203125,1.257003784179688,-0.607330322265625,0.3741661310195923,0.649140477180481,0.5910316109657288,34.06550598144531,98.4182586669922,-3.51220703125
250874,0.11529541015625,1.238006591796875,-0.5178680419921875,0.4658092558383942,0.7774153351783752,0.6980898976325989,34.14723205566406,98.55303955078124,-3.559844970703125
250875,0.1023712158203125,1.23394775390625,-0.469818115234375,0.5466758608818054,0.8440009951591492,0.7712525129318237,34.53282165527344,98.7777862548828,-4.187576293945312
250876,0.0764617919921875,1.2314453125,-0.427764892578125,0.5729732513427734,0.8062576055526733,0.7928462028503418,34.84527587890625,98.93380737304688,-4.568008422851562
250877,0.0522308349609375,1.23101806640625,-0.359954833984375,0.5305948853492737,0.710029661655426,0.7745079398155212,35.21684265136719,99.11990356445312,-5.009689331054688
250878,0.02484130859375,1.24462890625,-0.2529754638671875,0.4656651616096497,0.6119036078453064,0.7044218182563782,35.52163696289062,99.40304565429688,-5.5799560546875
250879,0.011322021484375,1.252288818359375,-0.1257171630859375,0.3515574932098389,0.5614028573036194,0.6044560670852661,35.90475463867188,99.51164245605467,-5.930709838867188
250880,0.0146484375,1.238021850585938,-0.0301971435546875,0.1790480464696884,0.5110584497451782,0.4948558211326599,36.13102722167969,99.6389617919922,-6.338150024414062
250881,0.0146484375,1.238021850585938,-0.0301971435546875,0.1790480464696884,0.5110584497451782,0.4948558211326599,36.13102722167969,99.6389617919922,-6.338150024414062
250882,0.10125732421875,1.09222412109375,0.1130523681640625,-0.1693155318498611,0.0023499734234064,0.4822984635829926,36.88029479980469,99.65756225585938,-6.668365478515625
250883,0.10125732421875,1.09222412109375,0.1130523681640625,-0.1693155318498611,0.0023499734234064,0.4822984635829926,36.88029479980469,99.65756225585938,-6.668365478515625
250884,0.136993408203125,1.033843994140625,0.1209564208984375,-0.1849306970834732,-0.2141503691673279,0.5675702095031738,37.19218444824219,99.57382202148438,-6.675369262695312
250885,0.1588287353515625,0.9875030517578124,0.149505615234375,-0.1787971705198288,-0.390660434961319,0.663406491279602,37.48326110839844,99.57583618164062,-6.63262939453125
250886,0.1613311767578125,0.97088623046875,0.17657470703125,-0.1238441839814186,-0.4981307089328766,0.7561635971069336,37.79505920410156,99.54801940917967,-6.416854858398438
250887,0.145050048828125,1.000076293945312,0.1794586181640625,-0.0134212663397193,-0.591468095779419,0.817854642868042,38.24488830566406,99.6182861328125,-6.2750244140625
250888,0.1421356201171875,1.0389404296875,0.175262451171875,0.1477399319410324,-0.7108690738677979,0.8011481165885925,38.69880676269531,99.60328674316406,-6.116851806640625
250889,0.159454345703125,1.018692016601562,0.168365478515625,0.3276974558830261,-0.834075927734375,0.6912250518798828,39.18428039550781,99.51181030273438,-5.920089721679688
250890,0.23809814453125,0.862457275390625,0.2080230712890625,0.4839507043361664,-0.8458591103553772,0.3601672351360321,40.16647338867188,99.501953125,-6.035202026367188
250891,0.23809814453125,0.862457275390625,0.2080230712890625,0.4839507043361664,-0.8458591103553772,0.3601672351360321,40.16647338867188,99.501953125,-6.035202026367188
250892,0.279754638671875,0.7819976806640625,0.2332305908203125,0.2863265573978424,-0.425294041633606,0.1637284755706787,40.44622802734375,99.55014038085938,-6.046905517578125
250893,0.2930145263671875,0.7140655517578125,0.250152587890625,0.2863265573978424,-0.425294041633606,0.1637284755706787,40.75216674804688,99.62359619140624,-6.249053955078125
250894,0.2655181884765625,0.6673736572265625,0.247894287109375,0.1318147480487823,-0.2041808366775513,0.1277273297309875,41.00773620605469,99.51741027832033,-6.277725219726562
250895,0.1468505859375,0.6833343505859375,0.2447967529296875,-0.0218752045184373,-0.0524685345590114,0.1250844150781631,41.11006164550781,99.45277404785156,-6.275772094726562
250896,0.005340576171875,0.728302001953125,0.2295989990234375,-0.138528048992157,0.0330266579985618,0.1415403485298157,41.25338745117188,99.39764404296876,-6.296279907226562
250897,-0.077972412109375,0.7572784423828125,0.214599609375,-0.2157344222068787,0.107725664973259,0.1512403786182404,41.34858703613281,99.23234558105467,-6.21734619140625
250898,-0.1976776123046875,0.875030517578125,0.2249755859375,-0.264907568693161,0.3574334979057312,0.1543498933315277,41.67588806152344,99.14382934570312,-6.164627075195312
250899,-0.1976776123046875,0.875030517578125,0.2249755859375,-0.264907568693161,0.3574334979057312,0.1543498933315277,41.67588806152344,99.14382934570312,-6.164627075195312
250900,-0.2181549072265625,0.9008026123046876,0.2137603759765625,-0.2286600768566132,0.4854953289031982,0.1120082959532738,41.69595336914062,99.15809631347656,-5.951950073242188
250901,-0.195281982421875,0.897308349609375,0.183319091796875,-0.1742860525846481,0.5498546361923218,0.0443757213652133,41.70240783691406,99.15666198730467,-5.925277709960938
250902,-0.1446075439453125,0.8988494873046875,0.1453704833984375,-0.130198746919632,0.4990705251693726,-0.167384997010231,41.72315979003906,99.15185546875,-6.045303344726562
250903,-0.1446075439453125,0.8988494873046875,0.1453704833984375,-0.130198746919632,0.4990705251693726,-0.167384997010231,41.72315979003906,99.15185546875,-6.045303344726562
250904,-0.039642333984375,0.8741302490234375,0.13677978515625,-0.1513511687517166,0.490220844745636,-0.2477730512619019,41.58843994140625,99.15164184570312,-6.072784423828125
250905,-0.014801025390625,0.879913330078125,0.1811676025390625,-0.1786222010850906,0.5443251132965088,-0.2974295616149902,41.45726013183594,99.102783203125,-5.953887939453125
250906,-0.00390625,0.9105377197265624,0.1808319091796875,-0.2090645283460617,0.5801730751991272,-0.3547538220882416,41.23027038574219,99.11891174316406,-6.07916259765625
250907,-0.0099029541015625,0.91131591796875,0.1548004150390625,-0.2262872010469437,0.5444396138191223,-0.4290264546871185,40.99473571777344,99.0593719482422,-6.025375366210938
250908,-0.034454345703125,0.8676605224609375,0.128021240234375,-0.2064319998025894,0.4897412061691284,-0.4916365742683411,40.76988220214844,99.04833984375,-5.945449829101562
250909,-0.0673980712890625,0.7972412109375,0.101043701171875,-0.1495913565158844,0.443898618221283,-0.5380480289459229,40.42446899414062,99.09095764160156,-5.986312866210938
250910,-0.1030426025390625,0.7263946533203125,0.0942840576171875,-0.0970344021916389,0.4208236634731293,-0.5764428377151489,40.10334777832031,99.14984130859376,-6.0235595703125
250911,-0.1030426025390625,0.7263946533203125,0.0942840576171875,-0.0970344021916389,0.4208236634731293,-0.5764428377151489,40.10334777832031,99.14984130859376,-6.0235595703125
250912,-0.162872314453125,0.62713623046875,0.147857666015625,-0.1845591962337494,0.4775931835174561,-0.6414862871170044,39.41007995605469,99.16026306152344,-5.7608642578125
250913,-0.187042236328125,0.604949951171875,0.173095703125,-0.3400217592716217,0.4849850535392761,-0.6387889981269836,39.16937255859375,99.09855651855467,-5.817794799804688
250914,-0.1952056884765625,0.614898681640625,0.1740264892578125,-0.5509989857673645,0.443107396364212,-0.6109169125556946,38.68099975585938,98.95936584472656,-5.740127563476562
250915,-0.18603515625,0.65252685546875,0.1420745849609375,-0.7751364707946777,0.3456814885139465,-0.573826253414154,38.33674621582031,98.99275207519533,-5.666290283203125
250916,-0.1474456787109375,0.7024993896484375,0.058013916015625,-0.967073917388916,0.1598186939954758,-0.5261218547821045,37.93588256835938,98.91543579101562,-5.461380004882812
250917,-0.103302001953125,0.784576416015625,-0.04779052734375,-1.081586122512817,-0.1029434278607368,-0.4707297086715698,37.51545715332031,98.92225646972656,-5.262008666992188
250918,-0.0466461181640625,0.870361328125,-0.1077880859375,-1.110068440437317,-0.2840873897075653,-0.4124346971511841,37.19940185546875,98.83106994628906,-4.932113647460938
250919,0.00927734375,0.9652862548828124,-0.10443115234375,-1.10195529460907,-0.1406292915344238,-0.3426068723201752,36.8634033203125,98.83157348632812,-4.35894775390625
250920,0.0702667236328125,1.074935913085938,-0.1535797119140625,-1.108254551887512,0.058652926236391,-0.3350272476673126,36.49044799804688,98.66207885742188,-3.678436279296875
250921,0.1279144287109375,1.209793090820312,-0.181884765625,-1.156322717666626,-0.03339684009552,-0.3091996610164642,36.30854797363281,98.57315063476562,-3.120559692382812
250922,0.1608734130859375,1.355926513671875,-0.1306915283203125,-1.22195839881897,-0.1556662917137146,-0.3065308928489685,35.97439575195312,98.44827270507812,-2.661453247070312
250923,0.1579132080078125,1.43878173828125,-0.111236572265625,-1.222804546356201,-0.2813078463077545,-0.3281097114086151,35.70716857910156,98.37741088867188,-2.078125
250924,0.1303863525390625,1.432327270507812,-0.1034088134765625,-1.113781094551086,-0.3793180286884308,-0.3032661378383636,35.45506286621094,98.16171264648438,-1.444229125976562
250925,0.111083984375,1.338607788085938,-0.1082916259765625,-0.9007647037506104,-0.3765547275543213,-0.2482425570487976,35.22238159179688,98.0028839111328,-0.9188079833984376
250926,0.06524658203125,1.18450927734375,-0.188751220703125,-0.5913227200508118,-0.2540093660354614,-0.1841213703155518,35.07333374023438,97.84049987792967,-0.4539947509765625
250927,0.06524658203125,1.18450927734375,-0.188751220703125,-0.5913227200508118,-0.2540093660354614,-0.1841213703155518,35.07333374023438,97.84049987792967,-0.4539947509765625
250928,-0.02874755859375,1.06915283203125,-0.446136474609375,0.054971907287836,-0.0682349801063537,0.0144409909844398,34.82963562011719,97.67037963867188,0.3690643310546875
250929,-0.0496368408203125,1.143966674804688,-0.532745361328125,0.2490164786577225,-0.0581458620727062,0.0738337412476539,34.84423828125,97.53318786621094,0.4396820068359375
250930,-0.015380859375,1.20635986328125,-0.547943115234375,0.3051671087741852,-0.0374981053173542,0.1088849380612373,34.85568237304688,97.50045776367188,0.449188232421875
250931,-0.015380859375,1.20635986328125,-0.547943115234375,0.3051671087741852,-0.0374981053173542,0.1088849380612373,34.85568237304688,97.50045776367188,0.449188232421875
250932,0.168212890625,1.282821655273438,-0.4300079345703125,0.1809119880199432,0.0637856349349021,0.1319670826196671,34.96038818359375,97.4254913330078,0.192718505859375
250933,0.2667388916015625,1.28424072265625,-0.2953338623046875,0.1132264211773872,0.1847794353961945,0.1692598611116409,35.05024719238281,97.33802795410156,0.1511688232421875
250934,0.357696533203125,1.280685424804688,-0.194580078125,0.0286881029605865,0.2813038527965546,0.2562735974788666,35.19548034667969,97.21083068847656,-0.0193328857421875
250935,0.421966552734375,1.3087158203125,-0.1646270751953125,-0.0400267764925956,0.2294153422117233,0.3502600193023682,35.34400939941406,97.18766784667967,-0.0929412841796875
250936,0.4514923095703125,1.35400390625,-0.141265869140625,-0.051945224404335,0.0512674488127231,0.3995718955993652,35.50149536132812,97.05354309082033,-0.1191558837890625
250937,0.445953369140625,1.418670654296875,-0.0905609130859375,0.0073223612271249,-0.1569432765245438,0.3701583445072174,35.675048828125,97.10995483398438,-0.1519775390625
250938,0.4181365966796875,1.468856811523438,0.0137176513671875,0.0978203043341636,-0.3177089989185333,0.2877167463302612,35.90188598632812,97.12844848632812,-0.077911376953125
250939,0.4181365966796875,1.468856811523438,0.0137176513671875,0.0978203043341636,-0.3177089989185333,0.2877167463302612,35.90188598632812,97.12844848632812,-0.077911376953125
250940,0.30303955078125,1.537445068359375,0.166900634765625,0.2311978042125702,-0.4843395054340363,0.0941539257764816,36.41145324707031,97.24267578125,-0.135284423828125
250941,0.2289276123046875,1.535079956054688,0.21929931640625,0.2864530682563782,-0.5548882484436035,-0.0238933488726615,36.73931884765625,97.25904846191406,-0.1271820068359375
250942,0.0575408935546875,1.443527221679688,0.1929779052734375,0.6079126000404358,-0.6679399609565735,-0.2743322253227234,37.07063293457031,97.3049774169922,-0.1676788330078125
250943,0.0575408935546875,1.443527221679688,0.1929779052734375,0.6079126000404358,-0.6679399609565735,-0.2743322253227234,37.07063293457031,97.3049774169922,-0.1676788330078125
250944,-0.0198516845703125,1.34954833984375,0.1138153076171875,0.7992112040519714,-0.7929748296737671,-0.3413847684860229,37.04965209960938,97.3533935546875,-0.2113037109375
250945,-0.07574462890625,1.238601684570312,0.0633697509765625,0.93701434135437,-0.8648689985275269,-0.3610021471977234,37.17362976074219,97.38703918457033,-0.3254547119140625
250946,-0.132049560546875,1.128173828125,0.0291900634765625,1.046183705329895,-0.8737877011299133,-0.3056555092334747,37.2005615234375,97.53009033203124,-0.664581298828125
250947,-0.1654052734375,1.042861938476562,-0.0014190673828125,1.154417157173157,-0.8544874787330627,-0.1940983682870865,37.29566955566406,97.63372802734376,-1.03082275390625
250948,-0.1744537353515625,0.960662841796875,-0.028350830078125,1.105819821357727,-0.986054301261902,0.04657868668437,37.37422180175781,97.82504272460938,-1.4130859375
250949,-0.1617584228515625,0.9084625244140624,-0.0486297607421875,1.105819821357727,-0.986054301261902,0.04657868668437,37.45989990234375,97.89602661132812,-1.719497680664062
250950,-0.1412200927734375,0.877471923828125,-0.0357208251953125,0.8570502400398254,-1.342799663543701,0.1453851610422134,37.54606628417969,97.99919128417967,-2.134567260742188
250951,-0.1412200927734375,0.877471923828125,-0.0357208251953125,0.8570502400398254,-1.342799663543701,0.1453851610422134,37.54606628417969,97.99919128417967,-2.134567260742188
250952,-0.1208953857421875,0.7943878173828125,0.090301513671875,0.7669469714164734,-1.400978803634644,0.1437779366970062,38.14686584472656,98.13719177246094,-2.61480712890625
250953,-0.1519622802734375,0.729461669921875,0.1215667724609375,0.6927750110626221,-1.387618541717529,0.1373077929019928,38.56808471679688,98.19036865234376,-2.841033935546875
250954,-0.1914215087890625,0.6686248779296875,0.134429931640625,0.6356954574584961,-1.332096934318542,0.1229272559285164,38.94786071777344,98.16978454589844,-3.074462890625
250955,-0.1914215087890625,0.6686248779296875,0.134429931640625,0.6356954574584961,-1.332096934318542,0.1229272559285164,38.94786071777344,98.16978454589844,-3.074462890625
250956,-0.2537994384765625,0.5819091796875,0.1699981689453125,0.6751108169555664,-1.083226680755615,0.0845452472567558,39.48092651367188,98.21707153320312,-3.380584716796875
250957,-0.2537994384765625,0.5819091796875,0.1699981689453125,0.6751108169555664,-1.083226680755615,0.0845452472567558,39.48092651367188,98.21707153320312,-3.380584716796875
250958,-0.2651214599609375,0.539459228515625,0.191162109375,0.7863422632217407,-0.3656075298786163,0.2515560686588287,39.90255737304688,98.34767150878906,-3.675262451171875
250959,-0.1786041259765625,0.5598907470703125,0.26531982421875,0.7863422632217407,-0.3656075298786163,0.2515560686588287,40.05647277832031,98.46034240722656,-4.0728759765625
250960,-0.0606689453125,0.6093292236328125,0.4122161865234375,0.6513431668281555,-0.131784662604332,0.3645526766777039,40.19621276855469,98.45278930664062,-4.380645751953125
250961,0.03106689453125,0.656158447265625,0.547821044921875,0.4367914497852325,0.1432900428771973,0.4357930123806,40.44602966308594,98.5670928955078,-4.766693115234375
250962,0.0993804931640625,0.697296142578125,0.635345458984375,-0.1447854191064835,0.591388463973999,0.469860702753067,40.49957275390625,98.68038940429688,-5.03076171875
250963,0.1388702392578125,0.7042083740234375,0.6490478515625,-0.1447854191064835,0.591388463973999,0.469860702753067,40.74964904785156,98.87387084960938,-5.362274169921875
250964,0.1432342529296875,0.66485595703125,0.594390869140625,-0.6169084906578064,0.3766418099403381,0.4242237210273743,40.915771484375,98.7953643798828,-5.352081298828125
250965,0.130279541015625,0.603363037109375,0.542694091796875,-0.6864063143730164,0.1254830956459045,0.3699037432670593,41.06861877441406,98.86174011230467,-5.349258422851562
250966,0.0953216552734375,0.592010498046875,0.5386505126953125,-0.6864063143730164,0.1254830956459045,0.3699037432670593,41.27922058105469,98.71295166015624,-5.215667724609375
250967,0.03564453125,0.6320037841796875,0.5797271728515625,-0.6922282576560974,-0.0011811119038611,0.2601482272148132,41.50997924804688,98.6497802734375,-4.873672485351562
250968,-0.012847900390625,0.6768951416015625,0.6055145263671875,-0.7398785948753357,0.0517817065119743,0.1298109889030457,41.68333435058594,98.58859252929688,-4.43115234375
250969,-0.03338623046875,0.7276153564453125,0.55419921875,-0.862692654132843,0.1798446029424667,-0.000258326617768,41.77662658691406,98.54751586914062,-3.982620239257812
250970,-0.0509490966796875,0.8065948486328125,0.4177703857421875,-1.000754714012146,0.1946674883365631,-0.1332816183567047,41.77992248535156,98.42820739746094,-3.96856689453125
250971,-0.0689544677734375,0.89337158203125,0.2750244140625,-1.076134085655212,0.0139837265014648,-0.2524807155132294,41.68260192871094,98.40950012207033,-3.679367065429688
250972,-0.0695343017578125,0.9610748291015624,0.25152587890625,-1.108307242393494,-0.0613435171544551,-0.3038038313388824,41.49851989746094,98.34779357910156,-3.436416625976562
250973,-0.0847015380859375,1.004425048828125,0.237335205078125,-1.14611828327179,0.2587045133113861,-0.3068118691444397,41.27456665039062,98.24130249023438,-2.980911254882812
250974,-0.092987060546875,1.028915405273438,0.1180877685546875,-1.168749332427979,0.6623518466949463,-0.2725673317909241,41.02435302734375,98.25726318359376,-2.2789306640625
250975,-0.092987060546875,1.028915405273438,0.1180877685546875,-1.168749332427979,0.6623518466949463,-0.2725673317909241,41.02435302734375,98.25726318359376,-2.2789306640625
250976,-0.068389892578125,1.081512451171875,0.0491485595703125,-1.154753565788269,0.9923199415206908,-0.2295431792736053,40.26998901367188,97.96240234375,-1.198318481445312
250977,-0.068389892578125,1.081512451171875,0.0491485595703125,-1.154753565788269,0.9923199415206908,-0.2295431792736053,40.26998901367188,97.96240234375,-1.198318481445312
250978,0.111572265625,1.285858154296875,-0.051605224609375,-0.8320082426071167,1.005319595336914,-0.257480800151825,39.2530517578125,97.47369384765624,-0.121978759765625
250979,0.111572265625,1.285858154296875,-0.051605224609375,-0.8320082426071167,1.005319595336914,-0.257480800151825,39.2530517578125,97.47369384765624,-0.121978759765625
250980,0.1370391845703125,1.364532470703125,-0.16021728515625,-0.8320082426071167,1.005319595336914,-0.257480800151825,38.85478210449219,97.28529357910156,0.315216064453125
250981,0.174072265625,1.332275390625,-0.3187408447265625,-0.7049051523208618,0.8909424543380737,-0.2679558098316193,38.51182556152344,97.0646514892578,0.525970458984375
250982,0.2483367919921875,1.272705078125,-0.4072723388671875,-0.3640685081481934,0.7218530178070068,-0.0952375680208206,38.04415893554688,96.95838928222656,0.8834075927734375
250983,0.3099365234375,1.274246215820312,-0.4218902587890625,-0.3640685081481934,0.7218530178070068,-0.0952375680208206,37.64627075195312,96.97549438476562,1.152740478515625
250984,0.3577117919921875,1.299118041992188,-0.4247283935546875,-0.135094165802002,0.7930382490158081,0.0204248484224081,37.33938598632812,96.86642456054688,1.370681762695312
250985,0.3809356689453125,1.332550048828125,-0.4328765869140625,0.1011402010917664,0.8592004776000977,0.1128509193658829,37.06745910644531,96.84275817871094,1.619232177734375
250986,0.3826446533203125,1.330917358398438,-0.4356842041015625,0.4179293215274811,0.8939675092697144,0.2359355688095093,36.76339721679688,96.84529113769533,1.611343383789062
250987,0.3826446533203125,1.330917358398438,-0.4356842041015625,0.4179293215274811,0.8939675092697144,0.2359355688095093,36.76339721679688,96.84529113769533,1.611343383789062
250988,0.2664794921875,1.339401245117188,-0.3732757568359375,0.4855602979660034,0.9184422492980956,0.2509896159172058,36.43478393554688,97.10122680664062,1.311752319335938
250989,0.17742919921875,1.3604736328125,-0.2928466796875,0.4841285943984985,0.9938621520996094,0.2561635971069336,36.36201477050781,97.24842834472656,0.9503631591796876
250990,0.1121368408203125,1.399810791015625,-0.2134857177734375,0.414575070142746,1.0453200340271,0.2635208666324615,36.31999206542969,97.451904296875,0.465789794921875
250991,0.07647705078125,1.449661254882812,-0.1004486083984375,0.2972505986690521,1.08221173286438,0.2798644006252289,36.16133117675781,97.60945129394533,0.1657867431640625
250992,0.0515899658203125,1.506423950195312,-0.0264434814453125,0.1619814485311508,1.018767237663269,0.2500399351119995,36.13198852539062,97.75961303710938,-0.119476318359375
250993,0.0602264404296875,1.5401611328125,0.0559234619140625,-0.0082467449828982,0.7646486759185791,0.226658970117569,36.12947082519531,97.9456024169922,-0.416595458984375
250994,0.0821075439453125,1.55572509765625,0.1553192138671875,-0.114101268351078,0.4536148905754089,0.2319978177547455,36.09454345703125,98.192626953125,-0.8091583251953125
250995,0.0821075439453125,1.55572509765625,0.1553192138671875,-0.114101268351078,0.4536148905754089,0.2319978177547455,36.09454345703125,98.192626953125,-0.8091583251953125
250996,0.1522064208984375,1.407913208007812,0.285552978515625,0.0112430667504668,-0.0405370406806469,0.23871910572052,36.37107849121094,98.08258056640624,-1.186325073242188
250997,0.1522064208984375,1.407913208007812,0.285552978515625,0.0112430667504668,-0.0405370406806469,0.23871910572052,36.37107849121094,98.08258056640624,-1.186325073242188
250998,0.1965789794921875,1.12335205078125,0.2553253173828125,0.332672506570816,-0.499782919883728,0.4283708035945892,37.03465270996094,97.95797729492188,-1.159271240234375
250999,0.1965789794921875,1.12335205078125,0.2553253173828125,0.332672506570816,-0.499782919883728,0.4283708035945892,37.03465270996094,97.95797729492188,-1.159271240234375
251000,0.1963958740234375,1.025985717773438,0.2200469970703125,0.3528715074062347,-0.6821878552436829,0.4320624768733978,37.2666015625,97.99693298339844,-1.14276123046875
251001,0.2111968994140625,0.92626953125,0.2030181884765625,0.3586119413375854,-0.855204164981842,0.3878236413002014,37.68022155761719,97.99334716796876,-1.113998413085938
251002,0.241607666015625,0.8363800048828125,0.1746978759765625,0.3585677444934845,-0.9810550212860109,0.3088369369506836,38.1744384765625,97.95877075195312,-1.245697021484375
251003,0.2688140869140625,0.762969970703125,0.1238861083984375,0.3653276562690735,-1.047759771347046,0.2187773436307907,38.5162353515625,97.97952270507812,-1.301498413085938
251004,0.278961181640625,0.7049713134765625,0.0673675537109375,0.41064453125,-1.058127403259277,0.1327154338359833,38.97010803222656,97.94479370117188,-1.268997192382812
251005,0.27093505859375,0.6593780517578125,0.012603759765625,0.5084424614906311,-0.990162193775177,0.0596361644566059,39.30270385742188,97.88710021972656,-1.2132568359375
251006,0.2441558837890625,0.6188812255859375,-0.03466796875,0.706969141960144,-0.5559913516044617,-0.0749267041683197,39.52104187011719,97.97738647460938,-1.185989379882812
251007,0.19329833984375,0.5650482177734375,-0.07745361328125,0.706969141960144,-0.5559913516044617,-0.0749267041683197,39.71690368652344,98.11361694335938,-1.336578369140625
251008,0.112823486328125,0.5301971435546875,-0.102752685546875,0.6966767907142639,-0.2625170946121216,-0.0739730298519134,39.80928039550781,98.17399597167967,-1.427719116210938
251009,0.033538818359375,0.57080078125,-0.10003662109375,0.5752111077308655,0.0197931453585624,-0.0422047115862369,39.96676635742188,98.27310180664062,-1.624359130859375
251010,-0.0287322998046875,0.662994384765625,-0.0712127685546875,0.2082043290138245,0.4431902170181274,-0.0746422782540321,39.9742431640625,98.35499572753906,-1.894088745117188
251011,-0.096099853515625,0.7658538818359375,-0.022064208984375,0.2082043290138245,0.4431902170181274,-0.0746422782540321,39.9205322265625,98.51158142089844,-2.357421875
251012,-0.17218017578125,0.8658294677734375,0.060821533203125,0.0241295713931322,0.6500014662742615,-0.140601322054863,39.970703125,98.57107543945312,-2.586135864257812
251013,-0.2418365478515625,0.948486328125,0.141448974609375,-0.1258447468280792,0.8487483859062195,-0.2363518178462982,39.90664672851562,98.70051574707033,-2.676040649414062
251014,-0.282623291015625,0.99114990234375,0.2345733642578125,-0.2288323789834976,0.9898591637611388,-0.3510155379772186,39.88328552246094,98.7615966796875,-2.81842041015625
251015,-0.282623291015625,0.99114990234375,0.2345733642578125,-0.2288323789834976,0.9898591637611388,-0.3510155379772186,39.88328552246094,98.7615966796875,-2.81842041015625
251016,-0.34661865234375,0.916046142578125,0.373382568359375,-0.244271531701088,1.094548225402832,-0.5216884613037109,39.76576232910156,98.56838989257812,-2.96893310546875
251017,-0.34661865234375,0.916046142578125,0.373382568359375,-0.244271531701088,1.094548225402832,-0.5216884613037109,39.76576232910156,98.56838989257812,-2.96893310546875
251018,-0.3834075927734375,0.751190185546875,0.411376953125,-0.2445061504840851,1.231391668319702,-0.3989367485046387,39.38864135742188,98.29574584960938,-2.869720458984375
251019,-0.3783111572265625,0.701995849609375,0.40618896484375,-0.2445061504840851,1.231391668319702,-0.3989367485046387,39.08660888671875,98.229248046875,-2.826675415039062
251020,-0.3706207275390625,0.6810760498046875,0.38885498046875,-0.3547961711883545,1.262290120124817,-0.3762127757072449,38.90055847167969,98.11834716796876,-2.85687255859375
251021,-0.3622894287109375,0.66839599609375,0.3665008544921875,-0.4785913527011871,1.220806837081909,-0.3900132775306702,38.57890319824219,97.974853515625,-2.928741455078125
251022,-0.3570098876953125,0.6482696533203125,0.343597412109375,-0.5223968625068665,0.9193626046180724,-0.4686353802680969,38.05108642578125,97.89537048339844,-3.101715087890625
251023,-0.3570098876953125,0.6482696533203125,0.343597412109375,-0.5223968625068665,0.9193626046180724,-0.4686353802680969,38.05108642578125,97.89537048339844,-3.101715087890625
251024,-0.321990966796875,0.6424560546875,0.3223876953125,-0.480616420507431,0.7090203166007996,-0.5097327828407288,37.76824951171875,97.72183227539062,-3.0699462890625
251025,-0.260162353515625,0.6445465087890625,0.290283203125,-0.4877299964427948,0.4941902756690979,-0.5759897828102112,37.4168701171875,97.58634948730467,-2.822067260742188
251026,-0.1831817626953125,0.6239471435546875,0.2411041259765625,-0.5557961463928223,0.2832340896129608,-0.6472823619842529,37.13998413085938,97.36715698242188,-2.661422729492188
251027,-0.103302001953125,0.5885467529296875,0.1775054931640625,-0.6697125434875488,0.0712307691574096,-0.7034772038459778,36.71832275390625,97.27145385742188,-2.593032836914062
251028,-0.014617919921875,0.5667724609375,0.1113128662109375,-0.8068669438362122,-0.1837013810873032,-0.7216183543205261,36.3516845703125,97.33766174316406,-2.369125366210938
251029,0.073822021484375,0.5899505615234375,0.070404052734375,-0.9419928193092346,-0.4956893622875214,-0.7239789962768555,35.83255004882812,97.17303466796876,-2.190322875976562
251030,0.141998291015625,0.681884765625,0.097076416015625,-1.048902988433838,-0.7209272980690002,-0.6986033320426941,35.43885803222656,97.00846862792967,-1.930419921875
251031,0.135528564453125,0.882415771484375,0.139739990234375,-1.131506562232971,-0.6220614314079285,-0.6578543186187744,35.041259765625,96.86802673339844,-1.59088134765625
251032,0.1162109375,1.04913330078125,0.0814666748046875,-1.207186937332153,-0.3517391383647919,-0.6738072037696838,34.63294982910156,96.69772338867188,-1.139617919921875
251033,0.096954345703125,1.133804321289062,-0.009002685546875,-1.27750289440155,-0.1799023896455765,-0.6934245824813843,34.28231811523438,96.64620971679688,-0.583984375
251034,0.0342559814453125,1.22088623046875,-0.0364532470703125,-1.098756909370422,0.0438241809606552,-0.5841566324234009,33.86909484863281,96.51185607910156,-0.0911102294921875
251035,0.009735107421875,1.281997680664062,-0.036163330078125,-1.098756909370422,0.0438241809606552,-0.5841566324234009,33.44671630859375,96.42030334472656,0.50634765625
251036,-0.0089874267578125,1.341842651367188,-0.02734375,-0.9456493258476256,0.0486072152853012,-0.4467132985591888,33.04617309570312,96.18719482421876,1.01544189453125
251037,0.0058135986328125,1.368179321289062,-0.019744873046875,-0.7740469574928284,-0.062416773289442,-0.230839341878891,32.67623901367188,95.88778686523438,1.438034057617188
251038,-0.0329132080078125,1.355224609375,0.0401611328125,-0.4991855621337891,-0.0738457292318344,-0.0761767923831939,32.28648376464844,95.51292419433594,2.010482788085938
251039,-0.0873565673828125,1.24755859375,0.0687713623046875,-0.0811329334974288,-0.007767641916871,-0.0438771769404411,32.14421081542969,95.34930419921876,2.274215698242188
251040,-0.1429901123046875,1.108078002929688,0.08416748046875,0.3421671986579895,0.0499880649149417,-0.0463914684951305,32.21607971191406,95.2514190673828,2.28924560546875
251041,-0.2122039794921875,1.011199951171875,0.086700439453125,0.66073077917099,0.1513008326292038,-0.0033441314008086,32.23982238769531,95.27896118164062,2.205596923828125
251042,-0.22802734375,0.987548828125,0.014068603515625,0.7677424550056458,0.1835751533508301,0.1264567375183105,32.16580200195312,95.34571838378906,1.95068359375
251043,-0.22802734375,0.987548828125,0.014068603515625,0.7677424550056458,0.1835751533508301,0.1264567375183105,32.16580200195312,95.34571838378906,1.95068359375
251044,0.01336669921875,1.145553588867188,-0.225799560546875,0.6760378479957581,0.0659028515219688,0.2876842319965363,32.11819458007812,95.84039306640624,1.32598876953125
251045,0.0928802490234375,1.188751220703125,-0.36175537109375,0.6690481305122375,-0.1284604966640472,0.2790795862674713,32.18392944335938,96.03306579589844,1.079345703125
251046,0.1511688232421875,1.265182495117188,-0.3442230224609375,0.6992360949516296,-0.3174373507499695,0.2214612811803818,32.23756408691406,96.2936553955078,0.7311553955078125
251047,0.196502685546875,1.33087158203125,-0.2092742919921875,0.7276245951652527,-0.2832743227481842,0.1753920614719391,32.26968383789062,96.46832275390624,0.5246734619140625
251048,0.207794189453125,1.362701416015625,-0.066162109375,0.6486861109733582,-0.252994179725647,0.1179665848612785,32.26324462890625,96.58802795410156,0.3183135986328125
251049,0.207794189453125,1.362701416015625,-0.066162109375,0.6486861109733582,-0.252994179725647,0.1179665848612785,32.26324462890625,96.58802795410156,0.3183135986328125
251050,0.1901092529296875,1.353622436523438,0.0793914794921875,0.4814750254154205,-0.3805476129055023,0.0313067883253097,32.43316650390625,96.6776885986328,0.1194915771484375
251051,0.105712890625,1.360443115234375,0.31268310546875,0.2616686224937439,-0.5609679818153381,-0.1087094321846962,32.76602172851562,96.79855346679688,-0.088470458984375
251052,0.0618743896484375,1.400238037109375,0.358734130859375,0.2672777771949768,-0.526911199092865,-0.2028346061706543,32.85569763183594,96.75071716308594,-0.1638946533203125
251053,0.0618743896484375,1.400238037109375,0.358734130859375,0.2672777771949768,-0.526911199092865,-0.2028346061706543,32.85569763183594,96.75071716308594,-0.1638946533203125
251054,0.033172607421875,1.479263305664062,0.3149871826171875,0.4860862791538239,-0.5497603416442871,-0.2970298230648041,33.14077758789062,96.7648468017578,-0.11920166015625
251055,-0.0102691650390625,1.550003051757812,0.340545654296875,0.5723724365234375,-0.6716236472129822,-0.3074054718017578,33.23944091796875,96.7825927734375,-0.1806793212890625
251056,-0.086883544921875,1.569854736328125,0.3394012451171875,0.6669607162475586,-0.7146696448326111,-0.3508065044879913,33.3482666015625,96.72836303710938,-0.250457763671875
251057,-0.1941986083984375,1.462509155273438,0.275299072265625,0.7914988994598389,-0.7239662408828735,-0.4235150516033173,33.40193176269531,96.63555908203124,-0.3105010986328125
251058,-0.2895050048828125,1.260391235351562,0.21624755859375,0.9965319633483888,-0.5988666415214539,-0.4674739837646484,33.47506713867188,96.70758056640624,-0.43048095703125
251059,-0.321136474609375,1.080673217773438,0.154144287109375,1.243548989295959,-0.2616672813892365,-0.4179596900939941,33.42852783203125,96.72344970703124,-0.702178955078125
251060,-0.2887420654296875,0.939483642578125,0.0393218994140625,1.35970139503479,0.1965636610984802,-0.2654258012771606,33.27406311035156,96.89982604980467,-0.9083404541015624
251061,-0.2520904541015625,0.87744140625,-0.3259735107421875,1.327863812446594,0.1593249440193176,-0.142692968249321,33.19129943847656,96.97344970703124,-1.29351806640625
251062,-0.2109527587890625,0.839996337890625,-0.5085906982421875,1.312972187995911,-0.3271709382534027,-0.0607701390981674,33.13131713867188,97.324951171875,-1.924591064453125
251063,-0.137786865234375,0.7782745361328125,-0.3080902099609375,1.332018613815308,-0.5023046731948853,0.0487278588116169,33.24024963378906,97.37663269042967,-2.460220336914062
251064,-0.1183319091796875,0.724884033203125,-0.16412353515625,1.261555433273315,-0.6143390536308289,0.2168630659580231,33.30377197265625,97.45721435546876,-2.9444580078125
251065,-0.11724853515625,0.7049713134765625,-0.0991363525390625,1.261555433273315,-0.6143390536308289,0.2168630659580231,33.34880065917969,97.56857299804688,-3.417327880859375
251066,-0.1269683837890625,0.679351806640625,-0.0660552978515625,1.137743711471558,-0.6362142562866211,0.2477402985095978,33.61695861816406,97.6892547607422,-3.8817138671875
251067,-0.1542510986328125,0.6570281982421875,-0.086761474609375,1.000066995620728,-0.5930598974227905,0.2518796324729919,33.74105834960938,97.81477355957033,-4.07012939453125
251068,-0.1610870361328125,0.659820556640625,-0.116119384765625,0.8699694871902466,-0.5636188983917236,0.2415918558835983,34.02389526367188,97.86106872558594,-4.320755004882812
251069,-0.1463623046875,0.7105255126953125,-0.117523193359375,0.7757796049118042,-0.5871577858924866,0.2229611724615097,34.20368957519531,97.86984252929688,-4.623245239257812
251070,-0.14007568359375,0.754547119140625,-0.0750732421875,0.7246458530426025,-0.5885396599769592,0.1794230192899704,34.48825073242188,97.97962951660156,-5.261978149414062
251071,-0.124664306640625,0.7550506591796875,-0.042999267578125,0.6769542098045349,-0.5234565734863281,0.1024747118353844,34.7227783203125,98.04014587402344,-5.4295654296875
251072,-0.0944366455078125,0.7483673095703125,-0.0159912109375,0.6769542098045349,-0.5234565734863281,0.1024747118353844,34.855712890625,98.05152893066406,-5.78155517578125
251073,-0.0944366455078125,0.7483673095703125,-0.0159912109375,0.6769542098045349,-0.5234565734863281,0.1024747118353844,34.855712890625,98.05152893066406,-5.78155517578125
251074,0.0092010498046875,0.709228515625,0.103729248046875,0.3687024116516113,-0.2234485298395157,0.1920977979898453,35.18121337890625,98.11154174804688,-6.253570556640625
251075,0.0597076416015625,0.7174835205078125,0.16973876953125,0.3687024116516113,-0.2234485298395157,0.1920977979898453,35.27799987792969,98.1402587890625,-6.36090087890625
251076,0.0886688232421875,0.7512359619140625,0.2451934814453125,0.1380726546049118,-0.1819825917482376,0.2661320865154266,35.44917297363281,98.24935913085938,-6.577621459960938
251077,0.11358642578125,0.7930755615234375,0.310943603515625,-0.0948564708232879,-0.1484986543655396,0.3296221196651459,35.58525085449219,98.09530639648438,-6.673843383789062
251078,0.1114959716796875,0.8480682373046875,0.3536224365234375,-0.2821584641933441,-0.1014227643609047,0.3508877158164978,35.80845642089844,98.14620971679688,-6.868499755859375
251079,0.0626220703125,0.8839263916015625,0.37005615234375,-0.3661870360374451,-0.0432657152414321,0.3343889117240906,36.02891540527344,98.12705993652344,-6.72857666015625
251080,-0.0039825439453125,0.8631134033203125,0.3460540771484375,-0.3185651898384094,0.0298345945775508,0.320019543170929,36.02926635742188,98.1074676513672,-6.413528442382812
251081,-0.041351318359375,0.811370849609375,0.2921295166015625,-0.2031163722276688,0.0476109273731708,0.3103069961071014,36.23738098144531,98.06993103027344,-6.186737060546875
251082,-0.0462646484375,0.7696685791015625,0.25689697265625,-0.1243065074086189,-0.024843830615282,0.3042248785495758,36.43385314941406,98.09422302246094,-6.172225952148438
251083,-0.0379638671875,0.7435150146484375,0.263031005859375,-0.1478174179792404,-0.1445979326963425,0.2914097309112549,36.5272216796875,98.17039489746094,-6.08563232421875
251084,-0.02496337890625,0.7337493896484375,0.2917633056640625,-0.2577713429927826,-0.2423865348100662,0.25609490275383,36.64320373535156,98.2704620361328,-5.9600830078125
251085,-0.02496337890625,0.7337493896484375,0.2917633056640625,-0.2577713429927826,-0.2423865348100662,0.25609490275383,36.64320373535156,98.2704620361328,-5.9600830078125
251086,-0.0280914306640625,0.7419891357421875,0.3223114013671875,-0.4808126986026764,-0.2769506275653839,0.1114136129617691,36.76414489746094,98.35488891601562,-5.85162353515625
251087,-0.054595947265625,0.7582244873046875,0.3157501220703125,-0.5520599484443665,-0.2003038078546524,0.0215740017592907,36.89839172363281,98.25572204589844,-5.649871826171875
251088,-0.1024169921875,0.782989501953125,0.27947998046875,-0.6150234937667847,-0.128324419260025,-0.0816770195960998,36.96452331542969,98.2069091796875,-5.23138427734375
251089,-0.1655426025390625,0.8144073486328125,0.2205352783203125,-0.7644039392471313,-0.1621122062206268,-0.289225161075592,36.95611572265625,98.15582275390624,-4.941787719726562
251090,-0.224365234375,0.850128173828125,0.1617889404296875,-0.7644039392471313,-0.1621122062206268,-0.289225161075592,36.94952392578125,98.08113098144533,-4.67852783203125
251091,-0.2639007568359375,0.893890380859375,0.106781005859375,-0.8175656795501709,-0.2239159196615219,-0.3706907033920288,36.75495910644531,98.10435485839844,-4.200759887695312
251092,-0.282318115234375,0.9435882568359376,0.084442138671875,-0.8564281463623047,-0.23638616502285,-0.4021783471107483,36.67803955078125,97.98844909667967,-3.850570678710938
251093,-0.256195068359375,1.007186889648438,0.0340118408203125,-0.8325219750404358,-0.0897988602519035,-0.3484037816524506,36.37594604492188,97.88619995117188,-3.275985717773438
251094,-0.193267822265625,1.088592529296875,-0.0646514892578125,-0.6787915825843811,0.1095613837242126,-0.2272201031446457,35.96342468261719,97.81681823730467,-2.852630615234375
251095,-0.1288909912109375,1.152969360351562,-0.11236572265625,-0.4808214902877808,0.3688193261623383,-0.1023767068982124,35.74807739257812,97.7804718017578,-2.43548583984375
251096,-0.0780029296875,1.207412719726562,-0.1611480712890625,-0.364172101020813,0.6417040824890137,0.0057801245711743,35.57064819335938,97.71434020996094,-2.064910888671875
251097,-0.0596771240234375,1.241134643554688,-0.2469024658203125,-0.3195993006229401,0.8124105930328369,0.1042544990777969,35.19740295410156,97.779296875,-1.882568359375
251098,-0.0484619140625,1.252120971679688,-0.3209228515625,-0.2868546843528748,0.7940305471420288,0.2184894680976868,35.05584716796875,97.83163452148438,-1.712554931640625
251099,-0.0251312255859375,1.28399658203125,-0.3211822509765625,-0.2153629064559937,0.7399137616157532,0.3225852251052856,34.76359558105469,97.88888549804688,-1.550216674804688
251100,0.0351715087890625,1.314849853515625,-0.310089111328125,-0.0675183236598968,0.7848785519599915,0.4181783497333527,34.68235778808594,97.79415893554688,-1.398345947265625
251101,0.0673675537109375,1.3729248046875,-0.327911376953125,0.152289941906929,0.951830267906189,0.4505871534347534,34.56990051269531,97.8072509765625,-1.316909790039062
251102,0.082977294921875,1.428237915039062,-0.3860321044921875,0.3697162568569183,1.080085396766663,0.4259598255157471,34.645751953125,97.96467590332033,-1.5096435546875
251103,0.082977294921875,1.428237915039062,-0.3860321044921875,0.3697162568569183,1.080085396766663,0.4259598255157471,34.645751953125,97.96467590332033,-1.5096435546875
251104,0.0986328125,1.45538330078125,-0.490447998046875,0.5385257601737976,1.142468452453613,0.2477296441793442,34.57872009277344,98.14901733398438,-1.973236083984375
251105,0.1016845703125,1.402236938476562,-0.503143310546875,0.5182817578315735,1.115576863288879,0.2081926167011261,34.59861755371094,98.10208129882812,-2.347091674804688
251106,0.0960845947265625,1.333709716796875,-0.4748077392578125,0.5005301833152771,1.124665975570679,0.2316009998321533,34.61465454101562,98.22145080566406,-2.725433349609375
251107,0.0960845947265625,1.333709716796875,-0.4748077392578125,0.5005301833152771,1.124665975570679,0.2316009998321533,34.61465454101562,98.22145080566406,-2.725433349609375
251108,0.1065673828125,1.224151611328125,-0.3464508056640625,0.457159548997879,1.203656911849976,0.4006970822811127,34.54989624023438,98.47683715820312,-3.54888916015625
251109,0.1065673828125,1.224151611328125,-0.3464508056640625,0.457159548997879,1.203656911849976,0.4006970822811127,34.54989624023438,98.47683715820312,-3.54888916015625
251110,0.137908935546875,1.202835083007812,-0.2577667236328125,0.3396505117416382,1.091062784194946,0.5857939720153809,34.74803161621094,98.56297302246094,-4.484405517578125
251111,0.1598968505859375,1.183975219726562,-0.19647216796875,0.1957734972238541,0.9669528007507324,0.652735710144043,34.87480163574219,98.74221801757812,-4.94561767578125
