time_idx,accelerometerAccelerationX(G),accelerometerAccelerationY(G),accelerometerAccelerationZ(G),gyroRotationX(rad/s),gyroRotationY(rad/s),gyroRotationZ(rad/s),magnetometerX(µT),magnetometerY(µT),magnetometerZ(µT)
257693,0.0829315185546875,0.54888916015625,0.4250640869140625,0.0507502630352973,1.19585657119751,1.093578577041626,33.72303771972656,97.25843811035156,-14.5146484375
257694,0.0829315185546875,0.54888916015625,0.4250640869140625,0.0507502630352973,1.19585657119751,1.093578577041626,33.72303771972656,97.25843811035156,-14.5146484375
257695,0.072479248046875,0.4423828125,0.3920440673828125,-0.0752478837966918,1.35957944393158,1.025881052017212,34.95916748046875,97.32284545898438,-15.07745361328125
257696,0.072479248046875,0.4423828125,0.3920440673828125,-0.0752478837966918,1.35957944393158,1.025881052017212,34.95916748046875,97.32284545898438,-15.07745361328125
257697,0.03656005859375,0.3252410888671875,0.4550018310546875,-0.1514624953269958,1.791327595710754,0.9313992857933044,35.98846435546875,97.59376525878906,-15.59941101074219
257698,0.035888671875,0.3298492431640625,0.5108795166015625,-0.2051680684089661,2.098551273345947,0.8543775081634521,36.52488708496094,97.76214599609376,-15.791748046875
257699,0.007232666015625,0.3529815673828125,0.56988525390625,-0.3321691453456879,2.458247423171997,0.7457599639892578,37.07514953613281,97.94119262695312,-15.9619140625
257700,-0.166229248046875,0.455322265625,0.648712158203125,-0.8191084265708923,2.999017953872681,0.4481889605522156,38.10699462890625,98.13687133789062,-16.23146057128906
257701,-0.166229248046875,0.455322265625,0.648712158203125,-0.8191084265708923,2.999017953872681,0.4481889605522156,38.10699462890625,98.13687133789062,-16.23146057128906
257702,-0.264129638671875,0.540863037109375,0.672698974609375,-1.164393663406372,3.222248554229736,0.2883220613002777,38.52998352050781,98.29298400878906,-16.35617065429688
257703,-0.330657958984375,0.6690673828125,0.6727142333984375,-1.54131805896759,3.317568302154541,0.1091456636786461,38.94291687011719,98.40852355957033,-16.38951110839844
257704,-0.330657958984375,0.6690673828125,0.6727142333984375,-1.54131805896759,3.317568302154541,0.1091456636786461,38.94291687011719,98.40852355957033,-16.38951110839844
257705,-0.38409423828125,0.7824859619140625,0.65185546875,-1.890838503837585,3.232910633087158,-0.1084039732813835,39.29954528808594,98.56150817871094,-16.162109375
257706,-0.4209747314453125,0.8705596923828125,0.6143341064453125,-2.145968198776245,2.977822065353394,-0.334473043680191,39.60905456542969,98.61593627929688,-15.90426635742188
257707,-0.4188995361328125,0.9288787841796876,0.4822845458984375,-2.1960608959198,2.133736371994019,-0.8329163789749146,39.67013549804688,99.09432983398438,-14.85139465332031
257708,-0.3622283935546875,0.8559112548828125,0.303497314453125,-1.947458386421204,0.8492106795310974,-1.260694622993469,39.61773681640625,99.0507354736328,-14.02203369140625
257709,-0.3622283935546875,0.8559112548828125,0.303497314453125,-1.947458386421204,0.8492106795310974,-1.260694622993469,39.61773681640625,99.0507354736328,-14.02203369140625
257710,-0.139434814453125,0.67877197265625,-0.016876220703125,-1.863906264305115,0.0682437717914581,-1.438675045967102,38.90597534179688,98.98345947265624,-12.4656982421875
257711,-0.084320068359375,0.5545654296875,-0.043975830078125,-1.86078417301178,-0.6152373552322388,-1.503837823867798,38.27961730957031,98.94566345214844,-11.82595825195312
257712,-0.084320068359375,0.5545654296875,-0.043975830078125,-1.86078417301178,-0.6152373552322388,-1.503837823867798,38.27961730957031,98.94566345214844,-11.82595825195312
257713,-0.044158935546875,0.477386474609375,-0.0897216796875,-1.910749077796936,-1.182846665382385,-1.513349533081055,37.62614440917969,98.80026245117188,-11.09103393554688
257714,0.10784912109375,0.41656494140625,-0.4714508056640625,-1.945567846298218,-2.715324401855469,-1.47508180141449,36.26072692871094,98.05670166015624,-9.346328735351562
257715,0.2403717041015625,0.368408203125,-0.5978546142578125,-1.716802000999451,-3.642920970916748,-1.300827980041504,35.6737060546875,97.74699401855467,-8.275955200195312
257716,0.2403717041015625,0.368408203125,-0.5978546142578125,-1.716802000999451,-3.642920970916748,-1.300827980041504,35.6737060546875,97.74699401855467,-8.275955200195312
257717,0.3526458740234375,0.309173583984375,-0.5919036865234375,-1.104993462562561,-4.368820190429688,-0.970417022705078,34.95208740234375,97.35934448242188,-7.002243041992188
257718,0.32952880859375,0.0464324951171875,0.0419921875,0.3255591988563538,-0.4168078899383545,-0.4129936993122101,33.95164489746094,96.81163024902344,-4.601593017578125
257719,0.19732666015625,-0.0197601318359375,-0.280792236328125,0.4678183197975159,0.8223665356636047,-0.2595868408679962,33.57321166992188,96.68167114257812,-3.803359985351562
257720,0.118621826171875,-0.03338623046875,-0.3038330078125,0.2826351523399353,0.8218193054199219,-0.2155203074216843,33.37947082519531,96.65907287597656,-3.750946044921875
257721,0.118621826171875,-0.03338623046875,-0.3038330078125,0.2826351523399353,0.8218193054199219,-0.2155203074216843,33.37947082519531,96.65907287597656,-3.750946044921875
257722,0.0854339599609375,-0.062255859375,-0.201629638671875,-0.1170046478509903,0.678205668926239,-0.2312651723623276,33.325927734375,96.54232788085938,-3.914718627929688
257723,0.02667236328125,0.027587890625,-0.2145538330078125,-0.9321034550666808,0.4164302349090576,-0.4108690321445465,33.01268005371094,96.49685668945312,-4.126327514648438
257724,0.02667236328125,0.027587890625,-0.2145538330078125,-0.9321034550666808,0.4164302349090576,-0.4108690321445465,33.01268005371094,96.49685668945312,-4.126327514648438
257725,-0.0571441650390625,0.206298828125,-0.271331787109375,-1.080897927284241,-0.1789098232984543,-0.7163346409797668,32.70710754394531,96.18426513671876,-3.550628662109375
257726,-0.0787811279296875,0.283935546875,-0.329925537109375,-0.913115620613098,-0.5285266637802124,-0.8722622394561768,32.51936340332031,95.9498291015625,-3.165618896484375
257727,-0.085693359375,0.3945465087890625,-0.419403076171875,-0.6196385025978088,-0.8967574238777161,-0.9807823300361632,32.00691223144531,95.53826904296876,-2.283905029296875
257728,-0.085693359375,0.3945465087890625,-0.419403076171875,-0.6196385025978088,-0.8967574238777161,-0.9807823300361632,32.00691223144531,95.53826904296876,-2.283905029296875
257729,-0.089141845703125,0.532257080078125,-0.470550537109375,-0.2190599143505096,-1.110568523406982,-0.970812201499939,31.64646911621094,95.25938415527344,-1.80963134765625
257730,-0.1060333251953125,0.8803863525390625,-0.52362060546875,0.987470805644989,-0.3853748440742493,-0.4434970021247864,30.99365234375,95.10243225097656,-1.23004150390625
257731,-0.1106414794921875,1.027938842773438,-0.505859375,1.485903263092041,0.0486706010997295,-0.2315405458211899,30.63273620605469,95.18606567382812,-1.197647094726562
257732,-0.093475341796875,1.135452270507812,-0.5373382568359375,1.707371234893799,0.0993750542402267,-0.196846216917038,30.35995483398438,95.27691650390624,-1.496414184570312
257733,-0.093475341796875,1.135452270507812,-0.5373382568359375,1.707371234893799,0.0993750542402267,-0.196846216917038,30.35995483398438,95.27691650390624,-1.496414184570312
257734,-0.1627197265625,1.677032470703125,-0.662872314453125,1.783087849617004,-0.5146268606185913,-0.3663524389266968,29.84837341308594,95.6514129638672,-2.815582275390625
257735,-0.288909912109375,2.20440673828125,-0.389190673828125,1.56893265247345,-0.0971768796443939,-0.6860837936401367,29.4888916015625,96.19911193847656,-3.646743774414062
257736,-0.351531982421875,2.803695678710938,0.0923004150390625,0.9419225454330444,1.093208193778992,-1.310760498046875,28.98648071289062,96.71247863769533,-4.466629028320312
257737,-0.351531982421875,2.803695678710938,0.0923004150390625,0.9419225454330444,1.093208193778992,-1.310760498046875,28.98648071289062,96.71247863769533,-4.466629028320312
257738,-0.5634002685546875,4.557174682617188,0.0143585205078125,-0.4756602644920349,0.5106179714202881,-2.520704507827759,27.66290283203125,96.93840026855467,-5.74163818359375
257739,-1.328750610351562,5.263656616210938,0.1440582275390625,-0.5904220342636108,-0.8471826910972595,-2.019876956939697,26.98623657226562,96.68034362792967,-6.125869750976562
257740,-1.782211303710938,5.16033935546875,0.52374267578125,0.0262473169714212,-0.7601559162139893,-0.6600037217140198,26.24752807617188,96.39997863769533,-6.223602294921875
257741,-1.782211303710938,5.16033935546875,0.52374267578125,0.0262473169714212,-0.7601559162139893,-0.6600037217140198,26.24752807617188,96.39997863769533,-6.223602294921875
257742,-0.640106201171875,2.482955932617188,0.38665771484375,1.467696785926819,-0.900424063205719,0.4487128257751465,26.03843688964844,95.88827514648438,-6.296844482421875
257743,-0.3519744873046875,2.138824462890625,0.25054931640625,1.994041562080383,-0.5226104855537415,0.7090280055999756,26.3419189453125,95.5968780517578,-6.413558959960938
257744,-0.3519744873046875,2.138824462890625,0.25054931640625,1.994041562080383,-0.5226104855537415,0.7090280055999756,26.3419189453125,95.5968780517578,-6.413558959960938
257745,0.067474365234375,2.106979370117188,-0.283111572265625,2.213458299636841,-1.496820569038391,1.107022285461426,27.13633728027344,95.67022705078124,-7.631622314453125
257746,0.0509490966796875,2.033889770507812,0.2115936279296875,2.097161769866943,-2.000512361526489,0.8226438164710999,27.69622802734375,95.71809387207033,-8.287811279296875
257747,0.1156768798828125,1.756683349609375,0.403411865234375,2.107019901275635,-2.143743753433228,0.5619049072265625,28.31634521484375,95.81710815429688,-8.927825927734375
257748,0.1156768798828125,1.756683349609375,0.403411865234375,2.107019901275635,-2.143743753433228,0.5619049072265625,28.31634521484375,95.81710815429688,-8.927825927734375
257749,0.2547607421875,1.063522338867188,0.4681549072265625,2.025102853775024,-2.315490484237671,0.5173217058181763,29.32795715332031,95.7464599609375,-9.780349731445312
257750,0.334564208984375,0.724761962890625,0.432830810546875,1.809871196746826,-2.285183429718018,0.6067247986793518,29.6995849609375,95.69146728515624,-10.15579223632812
257751,0.4195404052734375,0.427825927734375,0.2830810546875,1.594844937324524,-2.144858598709106,0.7347232699394226,30.01455688476562,95.75910949707033,-10.47415161132812
257752,0.4195404052734375,0.427825927734375,0.2830810546875,1.594844937324524,-2.144858598709106,0.7347232699394226,30.01455688476562,95.75910949707033,-10.47415161132812
257753,0.4666900634765625,0.183929443359375,-0.02008056640625,1.073533773422241,-0.9754480123519896,0.9373091459274292,30.17034912109375,95.94427490234376,-10.71902465820312
257754,0.1996612548828125,0.0491790771484375,-0.497344970703125,0.8647353053092957,0.0565602146089077,1.041311740875244,30.55059814453125,96.634033203125,-10.95991516113281
257755,0.0373687744140625,0.4154510498046875,-0.265380859375,0.9656611680984496,0.3276108801364899,1.096773028373718,30.93736267089844,96.87457275390624,-11.08039855957031
257756,0.0767822265625,0.651611328125,0.189453125,0.9656611680984496,0.3276108801364899,1.096773028373718,31.45263671875,97.05108642578124,-11.17169189453125
257757,0.0767822265625,0.651611328125,0.189453125,0.9656611680984496,0.3276108801364899,1.096773028373718,31.45263671875,97.05108642578124,-11.17169189453125
257758,0.066375732421875,0.725006103515625,0.5559844970703125,0.6423690915107727,1.239126205444336,1.040042400360107,32.560302734375,97.19587707519533,-12.15660095214844
257759,0.0182952880859375,0.6461639404296875,0.4806365966796875,0.2576525807380676,1.414903163909912,1.041323900222778,33.12704467773438,97.19439697265624,-12.68893432617188
257760,-0.0103759765625,0.573822021484375,0.366180419921875,-0.0723530277609825,1.350878834724426,0.9686058163642884,33.68576049804688,97.3649444580078,-13.387939453125
257761,-0.0103759765625,0.573822021484375,0.366180419921875,-0.0723530277609825,1.350878834724426,0.9686058163642884,33.68576049804688,97.3649444580078,-13.387939453125
257762,-0.0133514404296875,0.5002899169921875,0.2410125732421875,-0.2604222595691681,1.067840814590454,0.8904185891151428,34.24844360351562,97.49147033691406,-13.67465209960938
257763,0.0062408447265625,0.401519775390625,0.1934356689453125,-0.2443122714757919,0.4557331800460815,0.7102218866348267,35.22186279296875,97.66128540039062,-13.79739379882812
257764,0.0062408447265625,0.401519775390625,0.1934356689453125,-0.2443122714757919,0.4557331800460815,0.7102218866348267,35.22186279296875,97.66128540039062,-13.79739379882812
257765,-0.000152587890625,0.380096435546875,0.2613677978515625,-0.2320428192615509,0.4707246422767639,0.6468639969825745,35.62394714355469,97.73193359375,-13.67239379882812
257766,-0.0628662109375,0.41168212890625,0.5382080078125,-0.5547042489051819,1.274059176445007,0.4990004897117615,36.27713012695312,97.84976196289062,-13.62290954589844
257767,-0.1318511962890625,0.5193634033203125,0.6940765380859375,-0.8826267123222351,2.141242980957031,0.3781723380088806,36.49488830566406,98.04006958007812,-13.5367431640625
257768,-0.1318511962890625,0.5193634033203125,0.6940765380859375,-0.8826267123222351,2.141242980957031,0.3781723380088806,36.49488830566406,98.04006958007812,-13.5367431640625
257769,-0.1950225830078125,0.633514404296875,0.723419189453125,-1.248534440994263,3.031123399734497,0.1909196227788925,36.74917602539062,98.27946472167967,-13.42111206054688
257770,-0.305908203125,0.8097991943359375,0.52227783203125,-1.703977584838867,3.683562517166138,-0.1765153855085373,37.11293029785156,98.3076629638672,-13.05647277832031
257771,-0.3487396240234375,0.8187103271484375,0.40411376953125,-1.682042956352234,3.271506309509277,-0.2570890486240387,37.21348571777344,98.2869873046875,-12.64448547363281
257772,-0.3660125732421875,0.80267333984375,0.3011474609375,-1.477935075759888,1.676029562950134,-0.3289810717105865,37.2657470703125,98.16905212402344,-12.11222839355469
257773,-0.3660125732421875,0.80267333984375,0.3011474609375,-1.477935075759888,1.676029562950134,-0.3289810717105865,37.2657470703125,98.16905212402344,-12.11222839355469
257774,-0.244293212890625,0.7852325439453125,0.2249603271484375,-1.46906840801239,0.9292359948158264,-0.5049672722816467,36.97535705566406,98.35906982421876,-11.38450622558594
257775,-0.1630096435546875,0.69183349609375,0.2113800048828125,-1.501255035400391,0.3761917352676392,-0.7007408142089844,36.69808959960938,98.38406372070312,-11.02189636230469
257776,-0.1630096435546875,0.69183349609375,0.2113800048828125,-1.501255035400391,0.3761917352676392,-0.7007408142089844,36.69808959960938,98.38406372070312,-11.02189636230469
257777,-0.1076507568359375,0.5663299560546875,0.207275390625,-1.557702898979187,-0.1017034575343132,-0.8364102244377136,36.41914367675781,98.28201293945312,-10.46807861328125
257778,-0.117584228515625,0.4223480224609375,0.1840057373046875,-1.608976483345032,-0.5227934122085571,-1.026913523674011,35.85491943359375,97.71685791015624,-9.219131469726562
257779,-0.059844970703125,0.3913421630859375,0.0802764892578125,-1.596959948539734,-0.7247156500816345,-1.044415354728699,35.46395874023438,97.42581176757812,-8.470916748046875
257780,-0.059844970703125,0.3913421630859375,0.0802764892578125,-1.596959948539734,-0.7247156500816345,-1.044415354728699,35.46395874023438,97.42581176757812,-8.470916748046875
257781,0.004913330078125,0.3994140625,-0.081268310546875,-1.531336307525635,-1.064420461654663,-1.028961539268494,35.03636169433594,96.99006652832033,-7.844955444335938
257782,0.14178466796875,0.3476715087890625,-0.4722900390625,-0.8124822378158569,-2.208813905715942,-0.8905072808265686,34.05764770507812,96.34429931640624,-6.4168701171875
257783,0.1565093994140625,0.2361907958984375,-0.3083343505859375,-0.2346750944852829,-2.401261329650879,-0.6695716977119446,33.65284729003906,96.04216003417967,-5.543548583984375
257784,0.1565093994140625,0.2361907958984375,-0.3083343505859375,-0.2346750944852829,-2.401261329650879,-0.6695716977119446,33.65284729003906,96.04216003417967,-5.543548583984375
257785,0.0992889404296875,0.124176025390625,-0.071685791015625,0.1465327143669128,-1.628758430480957,-0.4591377675533295,33.33348083496094,96.003173828125,-4.831466674804688
257786,0.1551666259765625,-0.0772552490234375,-0.3450775146484375,0.3171577155590057,0.652504026889801,-0.2057265341281891,32.86289978027344,96.05966186523438,-4.191818237304688
257787,0.1960296630859375,-0.0682373046875,-0.521636962890625,0.2326665371656418,0.5735093355178833,-0.0925645530223846,32.6015625,96.09049987792967,-4.097305297851562
257788,0.1960296630859375,-0.0682373046875,-0.521636962890625,0.2326665371656418,0.5735093355178833,-0.0925645530223846,32.6015625,96.09049987792967,-4.097305297851562
257789,0.2130584716796875,-0.0292510986328125,-0.515472412109375,-0.0228704288601875,0.0607166104018688,-0.02880235388875,32.44071960449219,96.17124938964844,-4.221466064453125
257790,0.2113189697265625,0.0676727294921875,-0.315765380859375,-0.6871264576911926,-0.9843658208847046,-0.0069878683425486,32.44633483886719,96.13992309570312,-4.336929321289062
257791,0.205810546875,0.1573944091796875,-0.225433349609375,-0.8681921362876892,-1.151236295700073,-0.0697894692420959,32.46418762207031,96.00108337402344,-3.862319946289062
257792,0.205810546875,0.1573944091796875,-0.225433349609375,-0.8681921362876892,-1.151236295700073,-0.0697894692420959,32.46418762207031,96.00108337402344,-3.862319946289062
257793,0.1857757568359375,0.4064483642578125,-0.2748565673828125,-0.3407860696315765,-1.154139995574951,-0.7583193778991699,32.62416076660156,95.74617004394533,-2.6920166015625
257794,0.1484222412109375,0.5536041259765625,-0.3780670166015625,-0.3407860696315765,-1.154139995574951,-0.7583193778991699,32.6910400390625,95.76849365234376,-2.081451416015625
257795,0.072021484375,0.683349609375,-0.4911346435546875,0.1896407753229141,-1.261388897895813,-1.099529504776001,32.59188842773438,95.62150573730467,-1.32501220703125
257796,-0.012725830078125,0.7954864501953125,-0.6054534912109375,0.8163195848464966,-1.286847949028015,-1.396949172019958,32.23629760742188,95.65684509277344,-0.8383636474609375
257797,-0.0974578857421875,0.91937255859375,-0.79656982421875,1.538308143615723,-1.126831889152527,-1.55985689163208,31.89193725585938,95.54484558105467,-0.7024688720703125
257798,-0.2014007568359375,1.109786987304688,-1.104583740234375,2.334580898284912,-0.799477756023407,-1.519211649894714,31.37203979492188,95.57115173339844,-0.6814727783203125
257799,-0.3139190673828125,1.422271728515625,-1.373855590820312,2.734787940979004,-0.3196011781692505,-1.245795369148254,30.76972961425781,95.49267578125,-1.153610229492188
257800,-0.3975067138671875,1.865631103515625,-1.2232666015625,0.3657939732074738,0.9039889574050904,-1.08348548412323,30.04635620117188,95.81381225585938,-2.015106201171875
257801,-0.3975067138671875,1.865631103515625,-1.2232666015625,0.3657939732074738,0.9039889574050904,-1.08348548412323,30.04635620117188,95.81381225585938,-2.015106201171875
257802,-0.310302734375,2.700653076171875,-0.2783203125,-0.6128929853439331,0.4613870680332184,-1.812844395637512,28.75128173828125,96.31991577148438,-3.994430541992188
257803,-0.3488922119140625,3.485504150390625,-0.5587615966796875,-0.2647693455219269,-0.863813042640686,-2.482907295227051,28.22236633300781,96.3855438232422,-4.142959594726562
257804,-0.3488922119140625,3.485504150390625,-0.5587615966796875,-0.2647693455219269,-0.863813042640686,-2.482907295227051,28.22236633300781,96.3855438232422,-4.142959594726562
257805,-0.9154510498046876,4.371627807617188,-0.2864532470703125,-0.0775496512651443,-2.135071754455566,-2.444187641143799,27.65840148925781,96.10350036621094,-3.90423583984375
257806,-1.772476196289062,4.349853515625,-0.0250244140625,-0.3725927472114563,-0.1591257452964783,0.8704792261123657,26.22816467285156,95.98501586914062,-3.465972900390625
257807,-0.5869140625,3.400665283203125,0.2318878173828125,0.5642396807670593,0.756820023059845,1.088623762130737,26.14875793457031,95.96737670898438,-3.44195556640625
257808,-0.5869140625,3.400665283203125,0.2318878173828125,0.5642396807670593,0.756820023059845,1.088623762130737,26.14875793457031,95.96737670898438,-3.44195556640625
257809,-0.61517333984375,2.557220458984375,0.2396087646484375,1.534607172012329,1.547988414764404,1.226933240890503,26.95082092285156,96.05538940429688,-3.799118041992188
257810,-0.4290924072265625,2.343536376953125,-0.1376953125,1.814650535583496,1.142377614974976,1.375127792358398,27.381103515625,96.27775573730467,-4.543594360351562
257811,-0.219146728515625,2.280105590820312,-0.2207489013671875,1.834215760231018,0.0294604208320379,1.508455753326416,27.91841125488281,96.47764587402344,-5.706619262695312
257812,-0.219146728515625,2.280105590820312,-0.2207489013671875,1.834215760231018,0.0294604208320379,1.508455753326416,27.91841125488281,96.47764587402344,-5.706619262695312
257813,-0.189239501953125,2.318862915039062,0.1528778076171875,1.681543111801147,-0.6006035208702087,1.539055466651917,28.52436828613281,96.64913940429688,-6.950057983398438
257814,-0.0348663330078125,1.7164306640625,0.2860260009765625,1.513930320739746,-0.9620085954666138,1.128350138664246,30.18862915039062,96.46771240234376,-8.722183227539062
257815,0.050628662109375,1.26654052734375,0.3175201416015625,1.497101545333862,-1.053742527961731,1.115807175636292,30.92008972167969,96.5012664794922,-9.228134155273438
257816,0.050628662109375,1.26654052734375,0.3175201416015625,1.497101545333862,-1.053742527961731,1.115807175636292,30.92008972167969,96.5012664794922,-9.228134155273438
257817,0.2338714599609375,0.5799713134765625,0.1459808349609375,1.334910273551941,-1.416771650314331,1.294665336608887,31.99015808105469,96.40802001953124,-10.18040466308594
257818,0.3376617431640625,0.4001312255859375,0.0659942626953125,1.334910273551941,-1.416771650314331,1.294665336608887,32.45549011230469,96.58908081054688,-10.5821533203125
257819,0.460479736328125,0.317840576171875,0.1005859375,1.362672686576843,-1.600121974945068,1.374141335487366,32.90257263183594,96.71621704101562,-10.84980773925781
257820,0.460479736328125,0.317840576171875,0.1005859375,1.362672686576843,-1.600121974945068,1.374141335487366,32.90257263183594,96.71621704101562,-10.84980773925781
257821,0.5367431640625,0.4974822998046875,0.570098876953125,0.8352229595184326,0.7059113383293152,1.582890033721924,33.96376037597656,97.24560546875,-11.45051574707031
257822,0.482940673828125,0.726959228515625,0.72467041015625,0.8352229595184326,0.7059113383293152,1.582890033721924,34.61103820800781,97.48585510253906,-11.63230895996094
257823,0.36370849609375,0.9654541015625,0.6515655517578125,0.2399052679538727,1.577453136444092,1.288599252700806,35.24354553222656,97.71278381347656,-11.89427185058594
257824,0.36370849609375,0.9654541015625,0.6515655517578125,0.2399052679538727,1.577453136444092,1.288599252700806,35.24354553222656,97.71278381347656,-11.89427185058594
257825,0.1771697998046875,1.00482177734375,0.2844085693359375,-0.3413032591342926,1.552394151687622,0.7059808373451233,36.03425598144531,97.9234619140625,-12.23309326171875
257826,-0.110626220703125,0.5414581298828125,-0.0709991455078125,-0.2588507235050201,-0.217759758234024,0.3304807245731354,37.27789306640625,97.9561004638672,-12.33657836914062
257827,-0.04620361328125,0.5341949462890625,0.1148223876953125,0.1293121874332428,-0.7438989281654358,0.330814927816391,37.48100280761719,97.98136901855467,-12.2891845703125
257828,-0.04620361328125,0.5341949462890625,0.1148223876953125,0.1293121874332428,-0.7438989281654358,0.330814927816391,37.48100280761719,97.98136901855467,-12.2891845703125
257829,0.1189117431640625,0.413726806640625,0.3765716552734375,0.2403601408004761,0.0614404566586017,0.0069756177254021,37.84962463378906,98.07598876953124,-12.11161804199219
257830,0.109405517578125,0.326873779296875,0.407745361328125,0.2403601408004761,0.0614404566586017,0.0069756177254021,38.02067565917969,98.14659118652344,-12.09123229980469
257831,0.10888671875,0.24151611328125,0.407562255859375,0.0518442876636982,0.4594615995883942,-0.0546826869249343,38.12969970703125,98.3303680419922,-12.13922119140625
257832,0.10888671875,0.24151611328125,0.407562255859375,0.0518442876636982,0.4594615995883942,-0.0546826869249343,38.12969970703125,98.3303680419922,-12.13922119140625
257833,0.103240966796875,0.186737060546875,0.3664703369140625,-0.1697608083486557,0.7078178524971008,-0.1180094629526138,38.21232604980469,98.49185180664062,-12.21382141113281
257834,0.05743408203125,0.2830963134765625,0.3099517822265625,-0.6750343441963196,0.120526947081089,-0.2963565587997437,38.23641967773438,98.35403442382812,-12.18473815917969
257835,-0.020751953125,0.41302490234375,0.4270172119140625,-0.8659795522689819,-0.304961770772934,-0.3229964375495911,38.29838562011719,98.30076599121094,-11.81466674804688
257836,-0.052337646484375,0.5013580322265625,0.5314178466796875,-1.167345285415649,-0.9268879294395448,-0.5173070430755615,38.27433776855469,98.23048400878906,-11.46549987792969
257837,-0.0662078857421875,0.5247802734375,0.608795166015625,-1.167345285415649,-0.9268879294395448,-0.5173070430755615,38.24424743652344,98.0824737548828,-10.96791076660156
257838,-0.1121368408203125,0.4895172119140625,0.676361083984375,-1.291043996810913,-1.06338632106781,-0.6345652341842651,38.12887573242188,97.95071411132812,-10.57260131835938
257839,-0.145751953125,0.4268035888671875,0.6912689208984375,-1.465668559074402,-0.8914140462875366,-0.8209266066551208,38.01780700683594,97.83924865722656,-9.8837890625
257840,-0.16229248046875,0.358734130859375,0.653778076171875,-1.465668559074402,-0.8914140462875366,-0.8209266066551208,37.79916381835938,97.61917114257812,-9.127517700195312
257841,-0.17242431640625,0.2954864501953125,0.5977020263671875,-1.530749320983887,-0.6882436275482178,-0.9118844866752625,37.61445617675781,97.3476104736328,-8.48199462890625
257842,-0.175262451171875,0.2495880126953125,0.52032470703125,-1.594972491264343,-0.428172379732132,-1.026709318161011,37.45573425292969,97.11181640625,-7.525741577148438
257843,-0.16290283203125,0.2134857177734375,0.4121551513671875,-1.645801067352295,-0.1906490474939346,-1.167835235595703,37.1959228515625,96.82553100585938,-6.691009521484375
257844,-0.1389312744140625,0.17230224609375,0.297698974609375,-1.685035824775696,-0.0053223273716866,-1.302924871444702,36.85723876953125,96.5494384765625,-5.988357543945312
257845,-0.1389312744140625,0.17230224609375,0.297698974609375,-1.685035824775696,-0.0053223273716866,-1.302924871444702,36.85723876953125,96.5494384765625,-5.988357543945312
257846,-0.085540771484375,0.10186767578125,0.10498046875,-1.804466366767883,0.0927072986960411,-1.481922388076782,35.86029052734375,96.05357360839844,-4.440460205078125
257847,-0.0738525390625,0.099945068359375,0.029327392578125,-1.867232799530029,0.0708483383059501,-1.559257626533508,35.20054626464844,95.81974792480467,-3.755813598632812
257848,-0.0667266845703125,0.1306610107421875,-0.0800018310546875,-1.922653913497925,-0.0470079891383647,-1.633663177490234,34.5992431640625,95.46549987792967,-3.026168823242188
257849,-0.0275115966796875,0.15924072265625,-0.893829345703125,-0.8263460993766785,-4.77381420135498,-1.486316561698914,33.88389587402344,95.15232849121094,-2.363449096679688
257850,0.1936798095703125,0.1543731689453125,-2.00091552734375,-0.8263460993766785,-4.77381420135498,-1.486316561698914,33.1866455078125,94.60092163085938,-1.578338623046875
257851,0.142120361328125,0.1568603515625,-0.637908935546875,-0.1737504899501801,-6.604098320007324,-1.075446248054504,32.55157470703125,94.20852661132812,-0.7638702392578125
257852,-0.036834716796875,0.1662750244140625,0.057403564453125,-0.8820722103118896,-3.756704807281494,-0.3276170194149017,32.25907897949219,94.0132293701172,0.044464111328125
257853,0.2696075439453125,0.4917144775390625,-0.5357513427734375,-0.8894603848457336,-0.8581690192222595,0.069844864308834,32.30471801757812,93.90322875976562,1.026168823242188
257854,0.3485260009765625,0.5573883056640625,-0.77349853515625,-0.0747418850660324,-0.0139722749590873,0.3330250978469849,32.55369567871094,93.78611755371094,1.99041748046875
257855,0.272247314453125,0.495025634765625,-0.3304443359375,-0.1681991219520569,-0.0433277674019336,0.3614293038845062,32.93133544921875,93.45524597167967,2.867919921875
257856,0.2518310546875,0.48712158203125,-0.1037445068359375,-0.384683221578598,-0.1881914734840393,0.4390705823898315,33.20220947265625,93.3130340576172,3.424468994140625
257857,0.2518310546875,0.48712158203125,-0.1037445068359375,-0.384683221578598,-0.1881914734840393,0.4390705823898315,33.20220947265625,93.3130340576172,3.424468994140625
257858,0.3088226318359375,0.612274169921875,-0.02410888671875,-0.5217787623405457,-0.3535071909427643,0.5031099915504456,33.76548767089844,93.05642700195312,3.784835815429688
257859,0.3188934326171875,0.741119384765625,-0.088623046875,-0.48084756731987,-0.4657991230487823,0.4615023732185364,33.94769287109375,93.18644714355467,4.010910034179688
257860,0.32550048828125,0.8674468994140625,-0.2200469970703125,-0.2142592966556549,-0.6587821841239929,0.2831299602985382,34.03411865234375,93.26979064941406,4.421356201171875
257861,0.32550048828125,0.8674468994140625,-0.2200469970703125,-0.2142592966556549,-0.6587821841239929,0.2831299602985382,34.03411865234375,93.26979064941406,4.421356201171875
257862,0.3792877197265625,1.011886596679688,-0.1606903076171875,0.8332540988922119,0.0160820316523313,-0.1479284763336182,34.38333129882812,93.36085510253906,4.9117431640625
257863,0.357421875,1.088485717773438,-0.0624542236328125,0.8332540988922119,0.0160820316523313,-0.1479284763336182,34.51847839355469,93.34352111816406,5.039169311523438
257864,0.3318634033203125,1.210250854492188,-0.1350555419921875,0.8532067537307739,0.7315500974655151,-0.0883413106203079,34.585205078125,93.46868896484376,5.245849609375
257865,0.3318634033203125,1.210250854492188,-0.1350555419921875,0.8532067537307739,0.7315500974655151,-0.0883413106203079,34.585205078125,93.46868896484376,5.245849609375
257866,0.3863372802734375,1.60888671875,-0.357635498046875,0.5218357443809509,0.6934642195701599,0.1565320789813995,34.41569519042969,93.86944580078124,4.67596435546875
257867,0.348175048828125,2.078765869140625,-0.5879669189453125,0.449909895658493,0.1107893660664558,0.2851364016532898,34.18380737304688,94.05020141601562,4.472137451171875
257868,0.0958099365234375,2.8524169921875,-0.563995361328125,0.6273432970046997,0.1665980368852615,0.1916274875402451,34.072265625,94.20382690429688,4.323654174804688
257869,0.0958099365234375,2.8524169921875,-0.563995361328125,0.6273432970046997,0.1665980368852615,0.1916274875402451,34.072265625,94.20382690429688,4.323654174804688
257870,-1.024459838867188,5.0189208984375,-1.118301391601562,1.123594880104065,3.943656206130981,-1.901106357574463,33.86326599121094,94.78512573242188,3.768508911132812
257871,-1.237625122070312,5.337738037109375,-1.551239013671875,1.144453525543213,2.826920509338379,-3.252751588821411,33.40339660644531,95.0789031982422,3.109207153320312
257872,-2.383941650390625,4.457931518554688,-0.7287139892578125,1.123396396636963,2.221585750579834,-2.563039064407349,32.58181762695312,95.0800323486328,1.928497314453125
257873,-2.383941650390625,4.457931518554688,-0.7287139892578125,1.123396396636963,2.221585750579834,-2.563039064407349,32.58181762695312,95.0800323486328,1.928497314453125
257874,-0.7154998779296875,2.494293212890625,-0.4795379638671875,2.326756954193115,1.782899022102356,0.622545063495636,30.32197570800781,94.23866271972656,-0.9011383056640624
257875,-0.07757568359375,1.895401000976562,-0.3083648681640625,2.881717920303345,1.402098417282104,0.96585875749588,29.68138122558594,93.9311065673828,-2.18585205078125
257876,-0.0182647705078125,1.371124267578125,-0.0963287353515625,3.861999034881592,1.660214304924011,1.148780345916748,29.43974304199219,93.97463989257812,-3.395004272460938
257877,-0.0182647705078125,1.371124267578125,-0.0963287353515625,3.861999034881592,1.660214304924011,1.148780345916748,29.43974304199219,93.97463989257812,-3.395004272460938
257878,0.1158905029296875,0.8300323486328125,0.1426239013671875,3.880892038345337,1.925006866455078,1.227924227714539,29.61572265625,94.9425811767578,-6.807769775390625
257879,0.1600341796875,0.5743865966796875,-0.0374755859375,3.567428350448608,1.762412309646606,1.371376633644104,29.73933410644531,95.33290100097656,-8.654922485351562
257880,0.210693359375,0.18377685546875,-0.2103118896484375,1.924509882926941,-0.4109699726104736,1.463245630264282,30.4295654296875,96.07594299316406,-12.6566162109375
257881,0.210693359375,0.18377685546875,-0.2103118896484375,1.924509882926941,-0.4109699726104736,1.463245630264282,30.4295654296875,96.07594299316406,-12.6566162109375
257882,0.27655029296875,0.0537567138671875,-0.191558837890625,1.924509882926941,-0.4109699726104736,1.463245630264282,30.86032104492188,96.36123657226562,-14.39007568359375
257883,0.3333282470703125,0.0435638427734375,-0.0765533447265625,0.8556603193283081,-0.8433613181114197,1.418845176696777,31.40528869628906,96.51516723632812,-15.5858154296875
257884,0.334136962890625,0.280181884765625,0.2809906005859375,0.8556603193283081,-0.8433613181114197,1.418845176696777,31.92265319824219,96.8629913330078,-16.36505126953125
257885,0.3249359130859375,0.7422027587890625,0.7332305908203125,0.293601781129837,0.2857894003391266,1.079105615615845,32.35939025878906,97.30694580078124,-16.83763122558594
257886,0.3590087890625,1.283737182617188,0.88580322265625,-0.3380454182624817,1.824153184890747,0.5178367495536804,32.86224365234375,97.6231689453125,-16.92893981933594
257887,0.329620361328125,1.7919921875,0.6670074462890625,-0.8940415382385254,2.734818696975708,-0.1411083936691284,33.37380981445312,97.7734832763672,-17.05181884765625
257888,0.0458526611328125,2.014205932617188,0.3974761962890625,-1.070500493049622,2.53673267364502,-0.7216112017631531,33.83380126953125,97.75144958496094,-16.99778747558594
257889,0.0458526611328125,2.014205932617188,0.3974761962890625,-1.070500493049622,2.53673267364502,-0.7216112017631531,33.83380126953125,97.75144958496094,-16.99778747558594
257890,-0.3869171142578125,1.494613647460938,0.2347259521484375,-0.0267338752746582,0.4962473213672638,-1.55380642414093,34.24673461914062,97.6035614013672,-17.0567626953125
257891,-0.402679443359375,1.089157104492188,0.2734375,0.5913469195365906,-0.3487558662891388,-1.712927341461182,34.12045288085938,97.44757080078124,-17.14256286621094
257892,-0.3743133544921875,0.7818756103515625,0.302581787109375,0.9242748022079468,-0.775864839553833,-1.780508279800415,33.0716552734375,96.94439697265624,-16.96638488769531
257893,-0.3743133544921875,0.7818756103515625,0.302581787109375,0.9242748022079468,-0.775864839553833,-1.780508279800415,33.0716552734375,96.94439697265624,-16.96638488769531
257894,-0.367645263671875,0.5850067138671875,0.356719970703125,0.9355980157852172,-0.8499923348426819,-1.855228781700134,32.39260864257812,96.7202606201172,-17.35737609863281
257895,-0.469879150390625,0.34356689453125,0.4806671142578125,0.283481776714325,-0.3201713562011719,-2.060624599456787,30.84355163574219,96.36888122558594,-17.80996704101562
257896,-0.73638916015625,0.0320892333984375,0.41754150390625,-0.8494535684585571,1.229580402374268,-1.06071412563324,29.4166259765625,95.87849426269533,-18.05442810058594
257897,-0.73638916015625,0.0320892333984375,0.41754150390625,-0.8494535684585571,1.229580402374268,-1.06071412563324,29.4166259765625,95.87849426269533,-18.05442810058594
257898,-0.6927337646484375,0.1124267578125,0.235931396484375,-0.7282826900482178,0.6922080516815186,-0.7390120029449463,28.89427185058594,95.57154846191406,-18.04484558105469
257899,-0.6375579833984375,0.2555694580078125,0.214111328125,-0.5491377115249634,-0.1240452453494072,-0.7349799871444702,28.5908203125,95.29428100585938,-17.82106018066406
257900,-0.5443572998046875,0.3869476318359375,0.2602996826171875,-0.5779001116752625,-0.8360704183578491,-0.8935829401016235,28.39759826660156,95.176513671875,-17.55503845214844
257901,-0.5443572998046875,0.3869476318359375,0.2602996826171875,-0.5779001116752625,-0.8360704183578491,-0.8935829401016235,28.39759826660156,95.176513671875,-17.55503845214844
257902,-0.3150482177734375,0.4668731689453125,0.3129119873046875,-1.192474603652954,-1.673666715621948,-1.046201467514038,27.6268310546875,95.02191162109376,-17.08387756347656
257903,-0.1605072021484375,0.4605560302734375,0.2361602783203125,-1.49152147769928,-2.127346038818359,-1.04811954498291,27.20774841308594,94.79774475097656,-16.36817932128906
257904,-0.0716094970703125,0.442657470703125,0.2136688232421875,-1.741068720817566,-2.639160394668579,-0.9992452263832092,26.88743591308594,94.5229949951172,-15.45439147949219
257905,-0.0716094970703125,0.442657470703125,0.2136688232421875,-1.741068720817566,-2.639160394668579,-0.9992452263832092,26.88743591308594,94.5229949951172,-15.45439147949219
257906,-0.0052947998046875,0.4094085693359375,0.2126007080078125,-2.184350728988647,-3.536739349365234,-0.885474681854248,26.44180297851562,93.75968933105467,-12.90017700195312
257907,0.018035888671875,0.379974365234375,0.2388763427734375,-2.396480798721313,-3.851941347122192,-0.8283131122589111,26.28329467773438,93.3027801513672,-11.26150512695312
257908,0.048675537109375,0.30096435546875,0.2669525146484375,-2.841501951217651,-4.05722713470459,-0.712067723274231,26.21463012695312,91.99734497070312,-7.493011474609375
257909,0.048675537109375,0.30096435546875,0.2669525146484375,-2.841501951217651,-4.05722713470459,-0.712067723274231,26.21463012695312,91.99734497070312,-7.493011474609375
257910,0.064910888671875,0.2746429443359375,0.3477020263671875,-3.004194259643555,-3.667402982711792,-0.618882417678833,26.47450256347656,91.19862365722656,-5.346572875976562
257911,0.083648681640625,0.2156982421875,0.417327880859375,-3.020571708679199,-2.597065925598145,-0.4244423508644104,26.75346374511719,90.5173797607422,-3.141387939453125
257912,0.1316680908203125,0.154815673828125,0.3778228759765625,-2.70249080657959,0.4900029897689819,0.3962730467319489,26.91020202636719,90.06304931640625,-1.195053100585938
257913,0.1316680908203125,0.154815673828125,0.3778228759765625,-2.70249080657959,0.4900029897689819,0.3962730467319489,26.91020202636719,90.06304931640625,-1.195053100585938
257914,0.170806884765625,0.1794586181640625,-0.83319091796875,-2.11106014251709,1.74122953414917,0.7021021842956543,26.66786193847656,89.95664978027344,1.816009521484375
257915,0.3221893310546875,0.452850341796875,-2.762802124023438,-0.1211330816149712,-0.7614552974700928,0.5327605605125427,26.61679077148438,89.84822082519531,2.71319580078125
257916,0.2687225341796875,0.3954620361328125,-1.172286987304688,-0.0161664523184299,0.2535579800605774,0.0596992820501327,26.49064636230469,90.0906219482422,3.163848876953125
257917,0.2687225341796875,0.3954620361328125,-1.172286987304688,-0.0161664523184299,0.2535579800605774,0.0596992820501327,26.49064636230469,90.0906219482422,3.163848876953125
257918,0.0565338134765625,0.1977691650390625,-0.2378997802734375,0.2924222648143768,0.5062986016273499,0.5014684200286865,26.60240173339844,90.13494873046876,3.28826904296875
257919,0.0259246826171875,0.3177642822265625,-0.162261962890625,0.2924222648143768,0.5062986016273499,0.5014684200286865,26.65667724609375,90.24026489257812,3.159561157226562
257920,-0.0032196044921875,0.810699462890625,-0.612030029296875,0.3448085188865662,-0.0584790222346782,0.3926585912704468,26.70497131347656,90.46087646484376,2.629196166992188
257921,-0.0032196044921875,0.810699462890625,-0.612030029296875,0.3448085188865662,-0.0584790222346782,0.3926585912704468,26.70497131347656,90.46087646484376,2.629196166992188
257922,0.041259765625,0.98516845703125,-0.6631927490234375,0.4489578306674957,-0.5528938174247742,0.3651942312717438,26.67904663085938,90.66250610351562,2.490386962890625
257923,0.0845184326171875,1.050186157226562,-0.55462646484375,0.5581969618797302,-0.5260440707206726,0.4512582719326019,26.76499938964844,90.88232421875,2.239639282226562
257924,0.1099700927734375,1.079315185546875,-0.522613525390625,0.6849671602249146,-0.2338708192110062,0.5699401497840881,26.83041381835938,91.03623962402344,2.278045654296875
257925,0.1099700927734375,1.079315185546875,-0.522613525390625,0.6849671602249146,-0.2338708192110062,0.5699401497840881,26.83041381835938,91.03623962402344,2.278045654296875
257926,0.175018310546875,1.240081787109375,-0.4244232177734375,0.6614024639129639,0.1732399612665176,0.7268450856208801,27.07484436035156,91.62673950195312,2.031936645507812
257927,0.1998443603515625,1.40789794921875,-0.3439483642578125,0.5130699872970581,0.2011038213968277,0.7711449265480042,27.24504089355469,91.90876770019533,1.826324462890625
257928,0.22137451171875,1.644668579101562,-0.1641082763671875,0.3461853861808777,0.2703462541103363,0.7847182750701904,27.48283386230469,92.05990600585938,1.500808715820312
257929,0.22137451171875,1.644668579101562,-0.1641082763671875,0.3461853861808777,0.2703462541103363,0.7847182750701904,27.48283386230469,92.05990600585938,1.500808715820312
257930,0.199798583984375,2.252700805664062,0.6429595947265625,0.2203464806079865,0.3903331160545349,1.020965695381165,27.9466552734375,92.44059753417967,1.059783935546875
257931,0.1828765869140625,2.897384643554688,1.003814697265625,0.3631108403205872,0.9277931451797484,1.367526292800903,28.28067016601562,92.79689025878906,0.967803955078125
257932,0.1729278564453125,3.931289672851562,1.008392333984375,0.700485110282898,1.048112630844116,1.804533958435059,28.55252075195312,92.99928283691406,0.7344970703125
257933,0.1729278564453125,3.931289672851562,1.008392333984375,0.700485110282898,1.048112630844116,1.804533958435059,28.55252075195312,92.99928283691406,0.7344970703125
257934,-0.0146026611328125,5.58746337890625,0.7237548828125,1.637081384658813,0.4864354133605957,1.62563157081604,29.56422424316406,94.15397644042967,-0.741058349609375
257935,-0.1332855224609375,4.76568603515625,-0.1714324951171875,1.541069030761719,-0.2063755393028259,0.5031003952026367,30.01730346679688,94.84515380859376,-1.6915283203125
257936,-0.280303955078125,3.281936645507812,-0.2680206298828125,1.119299650192261,-1.193133950233459,-0.1989932656288147,30.44099426269531,95.53244018554688,-2.53448486328125
257937,-0.280303955078125,3.281936645507812,-0.2680206298828125,1.119299650192261,-1.193133950233459,-0.1989932656288147,30.44099426269531,95.53244018554688,-2.53448486328125
257938,-0.539581298828125,2.108154296875,0.720855712890625,0.6810754537582397,0.933207869529724,-1.249559998512268,30.71896362304688,95.9903564453125,-3.225418090820312
257939,-0.57781982421875,1.784103393554688,0.4927825927734375,0.6829450130462646,1.634666085243225,-1.446581721305847,30.71214294433594,95.75616455078124,-3.435943603515625
257940,-0.641143798828125,1.391204833984375,0.2161712646484375,1.027269601821899,0.4663456082344055,-1.095510005950928,30.47830200195312,95.46061706542967,-3.938690185546875
257941,-0.7058868408203125,0.9768218994140624,0.054779052734375,1.027269601821899,0.4663456082344055,-1.095510005950928,30.16775512695312,94.94581604003906,-4.58868408203125
257942,-0.750396728515625,0.67352294921875,0.157012939453125,1.829385042190552,-0.8453238010406494,-0.329126238822937,29.88575744628906,94.55264282226562,-5.182754516601562
257943,-0.7852020263671875,0.4556427001953125,0.3288421630859375,1.829385042190552,-0.8453238010406494,-0.329126238822937,29.78558349609375,94.1348876953125,-5.768295288085938
257944,-0.71856689453125,0.2971954345703125,0.3589324951171875,2.031622171401978,-0.5114054679870605,0.5020913481712341,29.64874267578125,94.15609741210938,-6.483779907226562
257945,-0.4546356201171875,0.3136444091796875,0.2078094482421875,2.031622171401978,-0.5114054679870605,0.5020913481712341,29.63031005859375,94.15908813476562,-7.160018920898438
257946,-0.1972198486328125,0.46514892578125,0.0494384765625,1.72257387638092,-0.2612342536449432,0.538925290107727,29.7586669921875,94.26609802246094,-7.897842407226562
257947,-0.07659912109375,0.58673095703125,0.0718231201171875,1.351284742355347,0.0696539133787155,0.3871890008449554,29.86994934082031,94.34661865234376,-8.537872314453125
257948,-0.006195068359375,0.6382293701171875,0.097259521484375,1.085796356201172,0.3778477013111115,0.1499130576848984,29.99089050292969,94.60733032226562,-9.349411010742188
257949,-0.006195068359375,0.6382293701171875,0.097259521484375,1.085796356201172,0.3778477013111115,0.1499130576848984,29.99089050292969,94.60733032226562,-9.349411010742188
257950,-0.003204345703125,0.567840576171875,-0.0401763916015625,0.9866103529930116,0.3374123871326447,-0.3312932550907135,30.03939819335938,94.83999633789062,-10.337646484375
257951,-0.0654754638671875,0.4936981201171875,-0.0745849609375,1.078962683677673,0.089693397283554,-0.6054880619049072,29.85255432128906,94.9127960205078,-10.75672912597656
257952,-0.1544189453125,0.24774169921875,-0.1364593505859375,1.232272267341614,-0.431457132101059,-0.7936939001083374,29.16007995605469,94.77796936035156,-11.60523986816406
257953,-0.1544189453125,0.24774169921875,-0.1364593505859375,1.232272267341614,-0.431457132101059,-0.7936939001083374,29.16007995605469,94.77796936035156,-11.60523986816406
257954,-0.1192626953125,0.1949920654296875,-0.127899169921875,1.124747157096863,-0.5268699526786804,-0.4207456409931183,28.82730102539062,94.69563293457033,-12.07534790039062
257955,-0.073974609375,0.2144927978515625,-0.1275482177734375,1.124747157096863,-0.5268699526786804,-0.4207456409931183,28.45050048828125,94.61395263671876,-12.48997497558594
257956,-0.04498291015625,0.2629241943359375,-0.1028289794921875,0.5983033776283264,-0.5947976112365723,-0.1911718249320984,28.09481811523438,94.65859985351562,-12.80046081542969
257957,-0.04498291015625,0.2629241943359375,-0.1028289794921875,0.5983033776283264,-0.5947976112365723,-0.1911718249320984,28.09481811523438,94.65859985351562,-12.80046081542969
257958,-0.025360107421875,0.3873443603515625,-0.046356201171875,0.2445128113031387,-0.7421987652778625,-0.173772320151329,27.6922607421875,94.541015625,-13.32957458496094
257959,-0.021636962890625,0.4709014892578125,-0.00738525390625,-0.085352711379528,-0.953249990940094,-0.1856172680854797,27.63546752929688,94.50123596191406,-13.43006896972656
257960,-0.0215606689453125,0.5725250244140625,0.084869384765625,-0.5420467257499695,-1.087936401367188,-0.2035360783338547,27.57591247558594,94.69564819335938,-13.52725219726562
257961,-0.0371551513671875,0.6833648681640625,0.1696319580078125,-0.6478991508483887,-1.113528370857239,-0.2592683136463165,27.55154418945312,94.70509338378906,-13.31448364257812
257962,-0.074859619140625,0.81549072265625,0.2247772216796875,-0.6478991508483887,-1.113528370857239,-0.2592683136463165,27.60140991210938,94.70953369140624,-12.836669921875
257963,-0.1314849853515625,0.9409332275390624,0.2718963623046875,-0.6804102063179016,-1.245841383934021,-0.3735762536525726,27.72779846191406,94.58291625976562,-12.15248107910156
257964,-0.2214508056640625,0.984771728515625,0.3254852294921875,-0.634503960609436,-1.528277039527893,-0.4986795783042908,27.86012268066406,94.41619873046876,-11.46307373046875
257965,-0.312591552734375,0.900054931640625,0.3913116455078125,-0.5771282911300659,-1.813734412193298,-0.5870099663734436,27.92774963378906,94.14901733398438,-10.8421630859375
257966,-0.339111328125,0.7769012451171875,0.438385009765625,-0.6337601542472839,-1.973625540733337,-0.661923885345459,27.856201171875,94.07722473144533,-10.33004760742188
257967,-0.3278350830078125,0.6448822021484375,0.4481201171875,-0.8427123427391052,-1.96624755859375,-0.7555974125862122,27.86367797851562,93.92855834960938,-9.706146240234377
257968,-0.325469970703125,0.4994354248046875,0.4267425537109375,-1.108254551887512,-1.804914236068726,-0.8342080116271973,27.93341064453125,93.77622985839844,-9.002487182617188
257969,-0.325469970703125,0.4994354248046875,0.4267425537109375,-1.108254551887512,-1.804914236068726,-0.8342080116271973,27.93341064453125,93.77622985839844,-9.002487182617188
257970,-0.2978363037109375,0.2384490966796875,0.290191650390625,-1.48511528968811,-1.180583834648132,-0.7170814275741577,27.64852905273438,93.3052215576172,-7.480331420898438
257971,-0.2471160888671875,0.1597900390625,0.1748199462890625,-1.580969333648682,-0.9482051730155944,-0.618664562702179,27.56393432617188,92.9941864013672,-6.679092407226562
257972,-0.192626953125,0.0995025634765625,0.03302001953125,-1.618285298347473,-0.840264618396759,-0.5721727013587952,27.55928039550781,92.69035339355467,-5.747314453125
257973,-0.192626953125,0.0995025634765625,0.03302001953125,-1.618285298347473,-0.840264618396759,-0.5721727013587952,27.55928039550781,92.69035339355467,-5.747314453125
257974,-0.052764892578125,-0.1024017333984375,-0.43475341796875,-1.518561840057373,-1.465824604034424,-0.3394651412963867,27.45008850097656,92.1609344482422,-3.763595581054688
257975,0.0094757080078125,-0.1359100341796875,-0.423187255859375,-1.291840076446533,-1.785810589790344,-0.1694931536912918,27.41960144042969,91.95768737792967,-2.775527954101562
257976,0.0462188720703125,-0.1318206787109375,-0.3131866455078125,-0.9796717762947084,-1.712384104728699,0.0094989631325006,27.5643310546875,91.59768676757812,-1.800704956054688
257977,0.0462188720703125,-0.1318206787109375,-0.3131866455078125,-0.9796717762947084,-1.712384104728699,0.0094989631325006,27.5643310546875,91.59768676757812,-1.800704956054688
257978,0.09002685546875,-0.0736541748046875,-0.1986541748046875,-0.3498474955558777,-1.06850528717041,0.393314003944397,27.97250366210938,91.25765991210938,-0.0361785888671875
257979,0.0800323486328125,-0.020782470703125,-0.1628265380859375,-0.145995020866394,-0.7670694589614868,0.5322023630142212,28.30349731445312,91.17852783203124,0.7070465087890625
257980,0.0577545166015625,0.033966064453125,-0.14349365234375,-0.0537559054791927,-0.5523369312286377,0.5842810273170471,28.46670532226562,91.20823669433594,1.1993408203125
257981,0.0577545166015625,0.033966064453125,-0.14349365234375,-0.0537559054791927,-0.5523369312286377,0.5842810273170471,28.46670532226562,91.20823669433594,1.1993408203125
257982,-0.0012664794921875,0.2102203369140625,-0.1036376953125,-0.2188987880945206,-0.3495340347290039,0.4220239520072937,28.98992919921875,91.66340637207033,1.618515014648438
257983,-0.036956787109375,0.3502044677734375,-0.097137451171875,-0.2188987880945206,-0.3495340347290039,0.4220239520072937,29.15974426269531,91.79844665527344,1.76104736328125
257984,-0.0670318603515625,0.4848785400390625,-0.1177215576171875,-0.2898920178413391,-0.4893430769443512,0.0618212893605232,29.48106384277344,91.76692199707033,1.963668823242188
257985,-0.0670318603515625,0.4848785400390625,-0.1177215576171875,-0.2898920178413391,-0.4893430769443512,0.0618212893605232,29.48106384277344,91.76692199707033,1.963668823242188
257986,-0.0615386962890625,0.652801513671875,-0.2621002197265625,-0.2105268836021423,-0.6718031764030457,0.0009430253412574,29.65794372558594,92.0801239013672,2.307159423828125
257987,-0.0434112548828125,0.7851715087890625,-0.347137451171875,-0.0078304922208189,-0.8075127601623535,0.0742127150297164,29.69227600097656,91.97129821777344,2.597824096679688
257988,-0.0484466552734375,0.996795654296875,-0.4339141845703125,0.3669130206108093,-0.6939387917518616,0.222806453704834,29.74824523925781,91.9474639892578,2.75128173828125
257989,-0.0484466552734375,0.996795654296875,-0.4339141845703125,0.3669130206108093,-0.6939387917518616,0.222806453704834,29.74824523925781,91.9474639892578,2.75128173828125
257990,0.04254150390625,1.48284912109375,-0.5738677978515625,1.495526313781738,0.4037685096263885,0.4846071600914001,29.74729919433594,92.036376953125,3.1441650390625
257991,0.05267333984375,1.691864013671875,-0.3541259765625,1.379577875137329,0.912825882434845,0.5132582783699036,29.79533386230469,92.2643585205078,3.001602172851562
257992,-0.003265380859375,1.988510131835938,-0.13067626953125,0.6177377700805664,1.052129745483398,0.2483618706464767,29.71502685546875,92.50607299804688,2.56976318359375
257993,-0.003265380859375,1.988510131835938,-0.13067626953125,0.6177377700805664,1.052129745483398,0.2483618706464767,29.71502685546875,92.50607299804688,2.56976318359375
257994,0.0745849609375,3.027877807617188,0.283721923828125,-0.985598623752594,-0.4017165303230286,-0.086800143122673,29.30570983886719,92.9984130859375,1.39141845703125
257995,0.20062255859375,4.3802490234375,0.0907135009765625,-0.5995476245880127,-1.766368746757507,0.1662608832120895,29.15005493164062,92.99444580078124,1.359695434570312
257996,0.468841552734375,5.654205322265625,0.35882568359375,0.775933027267456,-2.548811435699463,0.916777491569519,29.08949279785156,92.75311279296876,1.83392333984375
257997,0.468841552734375,5.654205322265625,0.35882568359375,0.775933027267456,-2.548811435699463,0.916777491569519,29.08949279785156,92.75311279296876,1.83392333984375
257998,0.41717529296875,4.05255126953125,0.5800323486328125,1.890629649162292,0.8485835194587708,1.976236462593079,29.44198608398438,93.27378845214844,1.889450073242188
257999,0.1053009033203125,2.7957763671875,-0.108245849609375,2.196616888046265,0.9096325039863586,1.540010690689087,30.05302429199219,93.94187927246094,1.44140625
258000,-0.176666259765625,2.29705810546875,-0.06207275390625,2.216583490371704,0.4825650453567505,0.6614317297935486,30.79019165039062,94.65423583984376,0.7419891357421875
258001,-0.176666259765625,2.29705810546875,-0.06207275390625,2.216583490371704,0.4825650453567505,0.6614317297935486,30.79019165039062,94.65423583984376,0.7419891357421875
258002,-0.477264404296875,2.059524536132812,0.03857421875,1.566661715507507,0.0287914350628852,-0.8370914459228516,32.09249877929688,95.70281982421876,-1.292343139648438
258003,-0.717681884765625,1.894241333007812,0.063507080078125,1.086215734481812,0.018636267632246,-1.057414770126343,32.25369262695312,95.8917236328125,-2.120803833007812
258004,-0.8998870849609375,1.571151733398438,0.11578369140625,0.5190703272819519,0.573976993560791,-0.472695916891098,32.11863708496094,95.88526916503906,-3.023529052734375
258005,-0.8998870849609375,1.571151733398438,0.11578369140625,0.5190703272819519,0.573976993560791,-0.472695916891098,32.11863708496094,95.88526916503906,-3.023529052734375
258006,-0.702484130859375,1.033828735351562,0.0360260009765625,0.4653634428977966,0.4730149507522583,-0.2929983139038086,31.90228271484375,95.50003051757812,-4.190994262695312
258007,-0.6400146484375,0.7907867431640625,-0.01995849609375,0.5320705771446228,0.138959214091301,-0.1569651216268539,31.947509765625,95.26568603515624,-4.50274658203125
258008,-0.603851318359375,0.6068267822265625,0.0145263671875,0.7770832180976868,-0.2413369864225388,-0.029829267412424,32.06640625,94.97268676757812,-4.747222900390625
258009,-0.546905517578125,0.486175537109375,0.1275787353515625,1.135580897331238,-0.3461568653583527,0.0857138410210609,32.22648620605469,94.80461120605467,-4.912857055664062
258010,-0.447479248046875,0.4022369384765625,0.162689208984375,1.492293000221252,-0.039852075278759,0.1985421180725098,32.34486389160156,94.77235412597656,-5.026153564453125
258011,-0.3299407958984375,0.39990234375,-0.01043701171875,1.71220862865448,0.2064405232667923,0.3020219206809998,32.49400329589844,94.72488403320312,-5.3988037109375
258012,-0.2226409912109375,0.4888916015625,-0.1124420166015625,1.767278432846069,0.2141671478748322,0.3154588937759399,32.48919677734375,94.82154846191406,-6.008758544921875
258013,-0.2226409912109375,0.4888916015625,-0.1124420166015625,1.767278432846069,0.2141671478748322,0.3154588937759399,32.48919677734375,94.82154846191406,-6.008758544921875
258014,-0.063262939453125,0.66754150390625,-0.0542144775390625,1.524722576141357,-0.0274254996329546,0.1356824636459351,32.57455444335938,95.2896728515625,-7.630264282226562
258015,-0.0006561279296875,0.643585205078125,-0.0635986328125,1.347936391830444,-0.3277618885040283,0.0679076761007309,32.59776306152344,95.5623016357422,-8.4114990234375
258016,0.0470428466796875,0.581878662109375,-0.063018798828125,1.134584665298462,-0.6688228249549866,0.0600915662944316,32.50868225097656,95.67462158203124,-8.980361938476562
258017,0.0470428466796875,0.581878662109375,-0.063018798828125,1.134584665298462,-0.6688228249549866,0.0600915662944316,32.50868225097656,95.67462158203124,-8.980361938476562
258018,0.127471923828125,0.3616790771484375,0.05535888671875,0.6915917992591858,-1.016487836837769,0.2475293725728989,32.2457275390625,95.9761962890625,-10.08425903320312
258019,0.1327667236328125,0.2782135009765625,0.1145782470703125,0.5388426780700684,-0.9565211534500122,0.3338988721370697,32.23739624023438,96.03274536132812,-10.41001892089844
258020,0.1212158203125,0.2403106689453125,0.199249267578125,0.496607631444931,-0.7711758017539978,0.3265962302684784,32.3070068359375,96.21018981933594,-10.48680114746094
258021,0.0938262939453125,0.23486328125,0.23358154296875,0.5243359208106995,-0.5252371430397034,0.2077808976173401,32.34161376953125,96.32647705078124,-10.37544250488281
258022,0.0860443115234375,0.232391357421875,0.1775970458984375,0.4399893581867218,-0.4555424749851227,0.0978828892111778,32.52067565917969,96.44960021972656,-10.39317321777344
258023,0.0922088623046875,0.312530517578125,0.1597747802734375,0.1923936754465103,-0.5888643264770508,0.0995835810899734,32.75309753417969,96.46206665039062,-10.45185852050781
258024,0.075531005859375,0.470855712890625,0.24151611328125,-0.088100828230381,-0.7037445902824402,0.186439648270607,32.98100280761719,96.54026794433594,-10.61959838867188
258025,0.075531005859375,0.470855712890625,0.24151611328125,-0.088100828230381,-0.7037445902824402,0.186439648270607,32.98100280761719,96.54026794433594,-10.61959838867188
258026,-0.0282135009765625,1.008026123046875,0.4574127197265625,-0.7602344751358032,-0.9232260584831238,0.1515610218048096,33.306884765625,96.73599243164062,-10.45649719238281
258027,-0.162017822265625,1.214752197265625,0.5936126708984375,-0.9738724827766418,-1.085941791534424,0.0186482518911361,33.46208190917969,96.8816375732422,-10.23114013671875
258028,-0.354827880859375,1.265960693359375,0.7064971923828125,-1.092743396759033,-1.254734754562378,-0.2179368585348129,33.77717590332031,96.8113250732422,-9.618316650390623
258029,-0.354827880859375,1.265960693359375,0.7064971923828125,-1.092743396759033,-1.254734754562378,-0.2179368585348129,33.77717590332031,96.8113250732422,-9.618316650390623
258030,-0.574462890625,0.971710205078125,0.7325286865234375,-1.265461921691895,-1.449415564537048,-0.8592202067375183,34.33241271972656,96.668701171875,-8.189117431640625
258031,-0.569580078125,0.7907562255859375,0.647674560546875,-1.325132966041565,-1.454685688018799,-1.094675540924072,34.46530151367188,96.4960479736328,-7.499923706054688
258032,-0.519927978515625,0.6414337158203125,0.5240631103515625,-1.353501319885254,-1.364575743675232,-1.198988676071167,34.399169921875,96.46409606933594,-6.77923583984375
258033,-0.519927978515625,0.6414337158203125,0.5240631103515625,-1.353501319885254,-1.364575743675232,-1.198988676071167,34.399169921875,96.46409606933594,-6.77923583984375
258034,-0.5701751708984375,0.3416900634765625,0.3288116455078125,-1.443058848381042,-0.5843414664268494,-0.8689519166946411,34.11456298828125,96.205810546875,-5.365020751953125
258035,-0.4438323974609375,0.2657623291015625,-0.1152496337890625,-1.579968214035034,-0.1721739023923874,-0.5762036442756653,33.89408874511719,95.99221801757812,-4.609756469726562
258036,-0.2485504150390625,0.2201385498046875,-0.58660888671875,-1.170402050018311,-1.658799648284912,-0.2625860869884491,33.6109619140625,95.8295440673828,-3.998825073242188
258037,-0.2485504150390625,0.2201385498046875,-0.58660888671875,-1.170402050018311,-1.658799648284912,-0.2625860869884491,33.6109619140625,95.8295440673828,-3.998825073242188
258038,-0.069549560546875,0.0436859130859375,-0.2048797607421875,-0.8427035212516785,-1.768521428108215,-0.0466985292732715,33.4576416015625,95.32925415039062,-2.409744262695312
258039,-0.0062408447265625,-0.0050811767578125,-0.152008056640625,-0.6206502318382263,-1.668249368667603,0.165069118142128,33.50761413574219,95.05046081542967,-1.5234375
258040,0.035858154296875,-0.047607421875,-0.15460205078125,-0.3644967377185822,-1.372254729270935,0.5559585690498352,33.68826293945312,94.78216552734376,-0.7393646240234375
258041,0.035858154296875,-0.047607421875,-0.15460205078125,-0.3644967377185822,-1.372254729270935,0.5559585690498352,33.68826293945312,94.78216552734376,-0.7393646240234375
258042,0.0811920166015625,-0.1120147705078125,-0.2265777587890625,-0.1772874295711517,-0.8492754101753235,0.9556465744972228,34.16923522949219,94.55914306640624,0.584075927734375
258043,0.1146240234375,-0.0987701416015625,-0.2948150634765625,-0.1772874295711517,-0.8492754101753235,0.9556465744972228,34.37652587890625,94.64752197265624,1.149261474609375
258044,0.15350341796875,-0.037353515625,-0.4161834716796875,-0.1123758107423782,-0.559561550617218,1.048260092735291,34.68905639648438,94.8870086669922,1.616226196289062
258045,0.15350341796875,-0.037353515625,-0.4161834716796875,-0.1123758107423782,-0.559561550617218,1.048260092735291,34.68905639648438,94.8870086669922,1.616226196289062
258046,0.209625244140625,0.1155853271484375,-0.5194854736328125,-0.2955578863620758,-0.5685350894927979,0.9213905930519104,35.32682800292969,95.1084442138672,2.156875610351562
258047,0.2098388671875,0.211395263671875,-0.4010162353515625,-0.509804368019104,-0.6784189939498901,0.8076052069664001,35.63484191894531,95.19198608398438,2.3717041015625
258048,0.2024383544921875,0.353607177734375,-0.328643798828125,-0.6691232323646545,-0.8263834118843079,0.6936362981796265,35.99772644042969,95.31227111816406,2.652999877929688
258049,0.2024383544921875,0.353607177734375,-0.328643798828125,-0.6691232323646545,-0.8263834118843079,0.6936362981796265,35.99772644042969,95.31227111816406,2.652999877929688
258050,0.2694549560546875,0.7799072265625,-0.3458251953125,-0.541929304599762,-1.057100772857666,0.4277076721191406,36.55343627929688,95.51995849609376,3.292327880859375
258051,0.273956298828125,1.034820556640625,-0.500213623046875,-0.1709456443786621,-1.127894282341003,0.3121834695339203,36.9232177734375,95.34089660644533,3.790252685546875
258052,0.1943206787109375,1.27716064453125,-0.717132568359375,0.4087962806224823,-1.158553600311279,0.1316038370132446,37.16746520996094,95.2352294921875,4.312179565429688
258053,0.1943206787109375,1.27716064453125,-0.717132568359375,0.4087962806224823,-1.158553600311279,0.1316038370132446,37.16746520996094,95.2352294921875,4.312179565429688
258054,0.11328125,1.817840576171875,-1.034744262695312,1.121421933174133,0.107024185359478,-0.1417920142412186,37.50807189941406,95.3580322265625,4.960113525390625
258055,0.1261138916015625,2.106216430664062,-0.7624053955078125,1.121421933174133,0.107024185359478,-0.1417920142412186,37.52645874023438,95.45220947265624,4.97491455078125
258056,0.1867523193359375,2.301315307617188,-0.3827056884765625,0.4210103452205658,-0.1032962948083878,-0.4342302680015564,37.27627563476562,95.7650146484375,4.241363525390625
258057,0.2689666748046875,2.407638549804688,-0.1704559326171875,0.0127536123618483,-0.4736868739128113,-0.6287225484848022,37.11674499511719,95.87315368652344,3.909988403320312
258058,0.307342529296875,2.528091430664062,-0.1080322265625,0.1660161316394806,-0.7232050895690918,-0.2991121411323547,36.94638061523438,95.7121124267578,3.828475952148438
258059,0.222198486328125,2.55694580078125,-0.0926055908203125,0.6248814463615417,-0.2974002659320831,0.4353341460227966,36.84617614746094,95.69688415527344,3.772171020507812
258060,0.15869140625,2.465850830078125,-0.1552581787109375,0.8273778557777405,0.2878189980983734,1.305583238601685,36.89849853515625,95.82205200195312,3.390304565429688
258061,0.15869140625,2.465850830078125,-0.1552581787109375,0.8273778557777405,0.2878189980983734,1.305583238601685,36.89849853515625,95.82205200195312,3.390304565429688
258062,0.2969970703125,2.673583984375,-0.1102294921875,0.6813921332359314,0.3319166898727417,1.760300755500793,37.13325500488281,96.0579071044922,2.861602783203125
258063,0.33795166015625,3.053756713867188,0.0199432373046875,0.5863295197486877,0.1857573539018631,1.749503493309021,37.6551513671875,96.62010192871094,2.318862915039062
258064,0.2418365478515625,3.420257568359375,0.1002044677734375,0.8870313167572021,0.0256853904575109,1.486132025718689,38.24482727050781,97.09065246582033,2.026199340820312
258065,0.0726165771484375,3.641342163085938,0.2537994384765625,1.496940970420837,0.1529370844364166,1.04570460319519,38.87982177734375,97.53341674804688,1.559844970703125
258066,-0.2385406494140625,3.236434936523438,0.322784423828125,2.194078207015991,1.091620445251465,-0.1478938609361649,39.80233764648438,98.49240112304688,0.130889892578125
258067,-0.258209228515625,2.732498168945312,0.2197265625,1.978386759757996,1.062912344932556,-0.6306562423706055,39.95268249511719,98.79331970214844,-0.890777587890625
258068,-0.2497100830078125,2.117874145507812,0.162078857421875,1.636432290077209,0.7773980498313904,-0.8195114135742188,39.871826171875,99.06005859375,-1.865463256835938
258069,-0.2497100830078125,2.117874145507812,0.162078857421875,1.636432290077209,0.7773980498313904,-0.8195114135742188,39.871826171875,99.06005859375,-1.865463256835938
258070,-0.350982666015625,1.2940673828125,0.2375946044921875,1.138692021369934,0.2989302575588226,-0.6301491856575012,39.65843200683594,99.11148071289062,-3.8094482421875
258071,-0.4404449462890625,1.042999267578125,0.3058624267578125,0.9847525358200072,0.3770857751369476,-0.6171774864196777,39.56864929199219,99.05752563476562,-4.597396850585938
258072,-0.729736328125,0.5785675048828125,0.223785400390625,0.8897216320037842,-0.0181118920445442,-0.6241613030433655,39.52020263671875,98.83306884765624,-5.764663696289062
258073,-0.729736328125,0.5785675048828125,0.223785400390625,0.8897216320037842,-0.0181118920445442,-0.6241613030433655,39.52020263671875,98.83306884765624,-5.764663696289062
258074,-0.9654388427734376,0.34893798828125,0.261383056640625,0.9885552525520324,-0.2286646068096161,-0.2057177424430847,39.51950073242188,98.81124877929688,-6.253936767578125
258075,-1.061859130859375,0.223907470703125,0.333953857421875,1.117472290992737,-0.1683032512664795,0.4417513012886047,39.58949279785156,98.65371704101562,-6.847213745117188
258076,-0.832550048828125,0.411590576171875,0.290618896484375,1.150071501731873,0.203196793794632,0.5999712944030762,39.66972351074219,98.6246337890625,-7.249923706054688
258077,-0.832550048828125,0.411590576171875,0.290618896484375,1.150071501731873,0.203196793794632,0.5999712944030762,39.66972351074219,98.6246337890625,-7.249923706054688
258078,-0.392425537109375,0.928802490234375,0.086517333984375,0.7793567776679993,0.465446263551712,0.2299921810626984,40.00553894042969,99.09901428222656,-8.225616455078125
258079,-0.21356201171875,0.9705047607421876,-0.0355224609375,0.8329973816871643,0.3050485849380493,0.1262282431125641,40.04364013671875,99.24307250976562,-8.745269775390625
258080,-0.065460205078125,0.885894775390625,-0.1089019775390625,0.932778000831604,-0.1340014785528183,0.1348249316215515,40.03361511230469,99.3006591796875,-9.169723510742188
258081,-0.065460205078125,0.885894775390625,-0.1089019775390625,0.932778000831604,-0.1340014785528183,0.1348249316215515,40.03361511230469,99.3006591796875,-9.169723510742188
258082,0.069915771484375,0.5417327880859375,-0.0889129638671875,1.062607407569885,-0.6803274154663086,0.3282641768455505,39.8345947265625,99.45671081542967,-9.962997436523438
258083,0.0775146484375,0.401824951171875,-0.071624755859375,1.058490395545959,-0.8609206080436707,0.490670919418335,39.84126281738281,99.4510498046875,-10.30445861816406
258084,0.0799713134765625,0.305694580078125,-0.036346435546875,0.6528728604316711,-1.269812822341919,0.7102067470550537,39.89491271972656,99.66178894042967,-10.83657836914062
258085,0.0799713134765625,0.305694580078125,-0.036346435546875,0.6528728604316711,-1.269812822341919,0.7102067470550537,39.89491271972656,99.66178894042967,-10.83657836914062
258086,0.0656890869140625,0.256591796875,0.083953857421875,0.2976543307304382,-1.36978805065155,0.7088043093681335,40.37666320800781,99.84393310546876,-11.27642822265625
258087,0.0503387451171875,0.3327178955078125,0.185272216796875,-0.0597128644585609,-1.259859442710876,0.5642503499984741,40.61552429199219,100.0268249511719,-11.31782531738281
258088,0.041412353515625,0.6093597412109375,0.3255462646484375,-0.5843542814254761,-0.5907322764396667,0.0867708474397659,41.24159240722656,100.1856994628906,-10.94784545898438
258089,0.041412353515625,0.6093597412109375,0.3255462646484375,-0.5843542814254761,-0.5907322764396667,0.0867708474397659,41.24159240722656,100.1856994628906,-10.94784545898438
258090,-0.0100555419921875,0.73150634765625,0.3450927734375,-0.7420927882194519,-0.2993363738059998,-0.0653619617223739,41.46458435058594,100.2046356201172,-10.52259826660156
258091,-0.0784454345703125,0.8145751953125,0.3298797607421875,-0.8401013612747192,-0.2674508690834045,-0.1234180778264999,41.69613647460938,100.1923522949219,-10.12820434570312
258092,-0.188323974609375,0.867401123046875,0.32659912109375,-0.8886739611625671,-1.293152689933777,-0.3433019816875458,41.82281494140625,100.0689697265625,-9.544326782226562
258093,-0.188323974609375,0.867401123046875,0.32659912109375,-0.8886739611625671,-1.293152689933777,-0.3433019816875458,41.82281494140625,100.0689697265625,-9.544326782226562
258094,-0.3572235107421875,0.810028076171875,0.4591827392578125,-0.99680095911026,-1.932007551193237,-0.5202826261520386,41.97724914550781,99.82867431640624,-8.838485717773438
258095,-0.351837158203125,0.744964599609375,0.567169189453125,-1.237934231758118,-2.229480981826782,-0.6526491641998291,42.05007934570312,99.70709228515624,-8.31536865234375
258096,-0.3126983642578125,0.65484619140625,0.59716796875,-1.588275671005249,-1.644226908683777,-0.6062310934066772,41.99737548828125,99.64889526367188,-7.756027221679688
258097,-0.3126983642578125,0.65484619140625,0.59716796875,-1.588275671005249,-1.644226908683777,-0.6062310934066772,41.99737548828125,99.64889526367188,-7.756027221679688
258098,-0.2164154052734375,0.5280914306640625,0.296966552734375,-1.60035228729248,-1.184500217437744,-0.5300680994987488,41.67521667480469,99.442138671875,-6.260223388671875
258099,-0.1911163330078125,0.463897705078125,0.0269775390625,-1.522699356079102,-0.8232448697090149,-0.5595514178276062,41.55567932128906,99.37678527832033,-5.339920043945312
258100,-0.180816650390625,0.294219970703125,-0.4820556640625,-1.276947140693665,-1.041273593902588,-0.6222651600837708,41.44046020507812,99.30696105957033,-4.538787841796875
258101,-0.180816650390625,0.294219970703125,-0.4820556640625,-1.276947140693665,-1.041273593902588,-0.6222651600837708,41.44046020507812,99.30696105957033,-4.538787841796875
258102,-0.1183624267578125,-0.15765380859375,-0.5878143310546875,-0.5591514110565186,-2.325669527053833,-0.2446968257427216,41.12242126464844,99.0791473388672,-2.954483032226562
258103,-0.069549560546875,-0.1774139404296875,-0.2659149169921875,-0.5483837723731995,-1.488139271736145,0.0205084700137376,41.19679260253906,98.91795349121094,-2.374969482421875
258104,-0.005889892578125,-0.1509552001953125,-0.2728271484375,-0.573222279548645,-0.9492326378822328,0.2175853252410889,41.31857299804688,98.7960968017578,-1.780120849609375
258105,-0.005889892578125,-0.1509552001953125,-0.2728271484375,-0.573222279548645,-0.9492326378822328,0.2175853252410889,41.31857299804688,98.7960968017578,-1.780120849609375
258106,0.0182342529296875,-0.1131591796875,-0.2164306640625,-0.6151840686798096,-0.7648606300354004,0.3776479661464691,41.91984558105469,98.46070861816406,-0.8895721435546875
258107,0.0241851806640625,-0.108856201171875,-0.198150634765625,-0.6866838335990906,-0.6514478325843811,0.3825511038303375,42.33050537109375,98.28350830078124,-0.624267578125
258108,0.0362701416015625,-0.1020050048828125,-0.2275390625,-0.7695038914680481,-0.4887952506542206,0.3710470497608185,42.57672119140625,98.1627197265625,-0.2306365966796875
258109,0.0362701416015625,-0.1020050048828125,-0.2275390625,-0.7695038914680481,-0.4887952506542206,0.3710470497608185,42.57672119140625,98.1627197265625,-0.2306365966796875
258110,0.0820159912109375,0.0348052978515625,-0.445526123046875,-0.7418317794799805,-0.564351499080658,0.2904382348060608,43.00961303710938,98.10317993164062,0.7841339111328125
258111,0.0929412841796875,0.1103057861328125,-0.48150634765625,-0.6274242401123047,-0.93628191947937,0.3006559610366821,43.09188842773438,98.04656982421876,1.284866333007812
258112,0.0867156982421875,0.173004150390625,-0.389404296875,-0.4764179289340973,-1.215299487113953,0.3662757277488708,43.29141235351562,97.96255493164062,1.669876098632812
258113,0.0867156982421875,0.173004150390625,-0.389404296875,-0.4764179289340973,-1.215299487113953,0.3662757277488708,43.29141235351562,97.96255493164062,1.669876098632812
258114,0.1446075439453125,0.512237548828125,-0.2896575927734375,-0.1835165619850159,-1.369230389595032,0.4814907312393188,43.79942321777344,98.01690673828124,2.209304809570312
258115,0.2038421630859375,0.738922119140625,-0.302978515625,-0.0290470980107784,-1.385481357574463,0.5564360618591309,44.17874145507812,97.96063232421876,2.4600830078125
258116,0.229278564453125,0.9651947021484376,-0.3842315673828125,0.2203222513198853,-1.245236873626709,0.5773730278015137,44.52827453613281,97.9373016357422,2.704421997070312
258117,0.2062225341796875,1.174331665039062,-0.6079559326171875,0.681502640247345,-0.7533637881278992,0.4934291541576385,44.89108276367188,97.91055297851562,2.918441772460938
258118,0.2186737060546875,1.314254760742188,-0.957305908203125,1.160875082015991,-0.4293487071990967,0.3973545432090759,45.19523620605469,97.85157775878906,2.858474731445312
258119,0.24530029296875,1.46905517578125,-1.0111083984375,1.192039132118225,-0.2471240311861038,0.3620287775993347,45.37664794921875,97.94931030273438,2.6578369140625
258120,0.1987762451171875,1.723480224609375,-0.8624420166015625,-0.25575852394104,-0.44008868932724,-0.1625532209873199,45.52735900878906,98.07760620117188,2.364425659179688
258121,0.1987762451171875,1.723480224609375,-0.8624420166015625,-0.25575852394104,-0.44008868932724,-0.1625532209873199,45.52735900878906,98.07760620117188,2.364425659179688
258122,0.3270263671875,2.007980346679688,-0.0504302978515625,-0.8145256638526917,-0.543791651725769,-0.2037347555160522,45.51451110839844,98.34072875976562,1.759750366210938
258123,0.4008026123046875,2.396728515625,0.2349700927734375,-0.909903883934021,-0.5535992980003357,0.0957904383540153,45.56300354003906,98.3662109375,1.891937255859375
258124,0.46954345703125,3.066818237304688,0.4861297607421875,-0.6031450033187866,-0.3919944167137146,0.5920848846435547,45.53424072265625,98.07150268554688,2.427215576171875
258125,0.46954345703125,3.066818237304688,0.4861297607421875,-0.6031450033187866,-0.3919944167137146,0.5920848846435547,45.53424072265625,98.07150268554688,2.427215576171875
258126,0.5865631103515625,4.566268920898438,0.7355194091796875,0.4780552685260773,0.4267691671848297,2.110844850540161,45.76725769042969,98.23567199707033,2.61834716796875
258127,0.512939453125,4.612472534179688,0.692535400390625,0.9648560881614684,0.7108736038208008,2.346820592880249,46.19290161132812,98.3477783203125,2.417770385742188
258128,0.3719329833984375,3.759521484375,0.3909759521484375,1.259020090103149,0.4840835928916931,1.786611437797546,46.857421875,98.5613250732422,1.924545288085938
258129,0.3719329833984375,3.759521484375,0.3909759521484375,1.259020090103149,0.4840835928916931,1.786611437797546,46.857421875,98.5613250732422,1.924545288085938
258130,-0.04705810546875,2.484542846679688,0.3861541748046875,1.297742366790771,-0.0191316157579422,0.3416159152984619,48.57321166992188,99.21595764160156,0.9505157470703124
258131,-0.162322998046875,2.34478759765625,0.495208740234375,1.258321285247803,0.3683742880821228,-0.2452821880578995,49.13748168945312,99.32795715332033,0.3459014892578125
258132,-0.251800537109375,2.334442138671875,0.43572998046875,1.098193049430847,0.6003665328025818,-0.6399267315864563,49.44473266601562,99.52473449707033,-0.3092041015625
258133,-0.251800537109375,2.334442138671875,0.43572998046875,1.098193049430847,0.6003665328025818,-0.6399267315864563,49.44473266601562,99.52473449707033,-0.3092041015625
258134,-0.372802734375,2.2611083984375,0.32928466796875,0.8855724334716797,0.5525521039962769,-1.013804912567139,49.53355407714844,99.74591064453124,-1.01348876953125
258135,-0.45416259765625,1.6302490234375,0.306915283203125,0.6484946608543396,0.4456802606582642,-1.254955053329468,49.05012512207031,99.8590087890625,-1.767745971679688
258136,-0.5638580322265625,0.7518768310546875,0.12518310546875,0.6351415514945984,0.2266746908426285,-0.9699301719665528,48.57115173339844,99.79222106933594,-2.979766845703125
258137,-0.5638580322265625,0.7518768310546875,0.12518310546875,0.6351415514945984,0.2266746908426285,-0.9699301719665528,48.57115173339844,99.79222106933594,-2.979766845703125
258138,-0.727447509765625,0.329620361328125,-0.006744384765625,0.6035290360450745,-0.0912790447473526,-0.4238862991333008,48.32522583007812,99.670654296875,-3.469039916992188
258139,-0.727447509765625,0.329620361328125,-0.006744384765625,0.6035290360450745,-0.0912790447473526,-0.4238862991333008,48.32522583007812,99.670654296875,-3.469039916992188
258140,-0.7155914306640625,0.1308441162109375,0.003814697265625,0.7764797806739807,-0.3547306656837463,0.5218536257743835,48.109375,99.60456848144533,-3.764373779296875
258141,-0.2638092041015625,0.4442291259765625,0.279937744140625,0.9205003380775452,-0.1916738301515579,0.4475306272506714,48.27294921875,99.66316223144533,-4.1214599609375
258142,-0.1986846923828125,0.5769500732421875,0.2765045166015625,0.9086799025535583,0.1585217267274857,0.2617128193378448,48.45980834960938,99.6945343017578,-4.415664672851562
258143,-0.1986846923828125,0.5769500732421875,0.2765045166015625,0.9086799025535583,0.1585217267274857,0.2617128193378448,48.45980834960938,99.6945343017578,-4.415664672851562
258144,-0.1714019775390625,0.91552734375,0.0167999267578125,0.5592702031135559,-0.1133326813578606,-0.3408121764659882,48.71885681152344,99.9289093017578,-5.1292724609375
258145,-0.1714019775390625,0.91552734375,0.0167999267578125,0.5592702031135559,-0.1133326813578606,-0.3408121764659882,48.71885681152344,99.9289093017578,-5.1292724609375
258146,-0.22491455078125,0.7771759033203125,-0.1460418701171875,0.5348476767539978,-0.3837191760540009,-0.3455954790115356,48.59553527832031,99.81826782226562,-5.70361328125
258147,-0.1574249267578125,0.584320068359375,-0.1722564697265625,0.5536192655563354,-0.5701454877853394,-0.2053598165512085,48.41200256347656,99.7223663330078,-5.99273681640625
258148,-0.0776214599609375,0.4564666748046875,-0.157958984375,0.5802695155143738,-0.7019421458244324,-0.0498881973326206,48.24882507324219,99.8258056640625,-6.468963623046875
258149,-0.0776214599609375,0.4564666748046875,-0.157958984375,0.5802695155143738,-0.7019421458244324,-0.0498881973326206,48.24882507324219,99.8258056640625,-6.468963623046875
258150,-0.0270843505859375,0.377899169921875,-0.0623931884765625,0.6194009184837341,-0.7825698852539062,0.1050310805439949,48.12411499023438,99.82421875,-7.143753051757812
258151,-0.026885986328125,0.3538055419921875,-0.0597991943359375,0.5578635334968567,-0.9504603743553162,0.094158187508583,48.1392822265625,99.76164245605467,-7.246551513671875
258152,-0.0281524658203125,0.32373046875,0.0258026123046875,0.4480696618556976,-1.081341981887817,0.0428406745195388,48.32063293457031,99.8824462890625,-7.502151489257812
258153,-0.0281524658203125,0.32373046875,0.0258026123046875,0.4480696618556976,-1.081341981887817,0.0428406745195388,48.32063293457031,99.8824462890625,-7.502151489257812
258154,0.0271759033203125,0.2475433349609375,0.25140380859375,0.0468822866678237,-0.6269102692604065,-0.0133413719013333,48.52734375,99.95166015625,-7.848419189453125
258155,0.0503997802734375,0.2377471923828125,0.3516082763671875,0.0468822866678237,-0.6269102692604065,-0.0133413719013333,48.61068725585938,100.0269012451172,-7.8583984375
258156,0.0547637939453125,0.274444580078125,0.412139892578125,-0.117996409535408,-0.3537788391113281,0.0093961646780371,48.72322082519531,100.0142974853516,-7.697128295898438
258157,0.04522705078125,0.332489013671875,0.4191741943359375,-0.3429954349994659,-0.2691920399665833,0.0425754226744175,48.89677429199219,100.1013793945312,-7.6468505859375
258158,-0.009490966796875,0.4587249755859375,0.426025390625,-0.5849926471710205,-0.4378601610660553,0.0478617995977401,48.995361328125,100.1448211669922,-7.543045043945312
258159,-0.131805419921875,0.650146484375,0.5234222412109375,-0.8699047565460205,-0.7339138984680176,-0.0628580600023269,49.17547607421875,100.1921691894531,-7.576324462890625
258160,-0.248748779296875,0.7840118408203125,0.659637451171875,-1.530001521110535,-0.938668429851532,-0.2806702852249146,49.41871643066406,100.2675933837891,-7.6162109375
258161,-0.248748779296875,0.7840118408203125,0.659637451171875,-1.530001521110535,-0.938668429851532,-0.2806702852249146,49.41871643066406,100.2675933837891,-7.6162109375
258162,-0.355194091796875,0.8883819580078125,0.766815185546875,-1.776243209838867,-0.200541615486145,-0.3523463308811188,49.52249145507812,100.2682647705078,-6.747161865234375
258163,-0.3444976806640625,0.8538665771484375,0.4597930908203125,-1.776243209838867,-0.200541615486145,-0.3523463308811188,49.63690185546875,100.2966918945312,-6.106414794921875
258164,-0.382110595703125,0.884033203125,-0.2695159912109375,-1.627845168113708,-1.286056518554688,-0.4383227527141571,49.49388122558594,100.1948089599609,-5.361526489257812
258165,-0.382110595703125,0.884033203125,-0.2695159912109375,-1.627845168113708,-1.286056518554688,-0.4383227527141571,49.49388122558594,100.1948089599609,-5.361526489257812
258166,-0.1555328369140625,0.6233978271484375,-0.006103515625,-1.279924750328064,-0.9184203743934632,-0.3014977872371674,49.09687805175781,100.3578338623047,-3.86834716796875
258167,0.0121307373046875,0.4831085205078125,0.045562744140625,-0.843196451663971,-0.5499523282051086,-0.1571073234081268,48.84803771972656,100.3729400634766,-3.200164794921875
258168,0.1068267822265625,0.358917236328125,0.0540618896484375,-0.5548315048217773,-0.6113650798797607,0.0446606799960136,48.74981689453125,100.2341766357422,-2.456588745117188
258169,0.1068267822265625,0.358917236328125,0.0540618896484375,-0.5548315048217773,-0.6113650798797607,0.0446606799960136,48.74981689453125,100.2341766357422,-2.456588745117188
258170,0.0880584716796875,0.1512298583984375,0.08563232421875,-0.4876231849193573,-1.191380023956299,0.3980088829994202,48.82194519042969,99.82560729980467,-1.63934326171875
258171,0.0721435546875,0.077789306640625,0.01251220703125,-0.4206689298152924,-1.342411875724792,0.4364625513553619,48.97262573242188,99.7017822265625,-1.208328247070312
258172,0.0746307373046875,0.0151519775390625,-0.0738525390625,-0.3284804224967957,-1.453908562660217,0.479570060968399,49.18513488769531,99.57705688476562,-0.857421875
258173,0.0746307373046875,0.0151519775390625,-0.0738525390625,-0.3284804224967957,-1.453908562660217,0.479570060968399,49.18513488769531,99.57705688476562,-0.857421875
258174,0.1059112548828125,-0.033660888671875,-0.17596435546875,-0.2565122246742249,-1.382961392402649,0.5238235592842102,49.53871154785156,99.366943359375,-0.056549072265625
258175,0.140472412109375,-0.007720947265625,-0.2386016845703125,-0.3789281249046326,-0.6664568781852722,0.5432597994804382,49.80845642089844,99.31996154785156,0.1924591064453125
258176,0.1864471435546875,0.0510406494140625,-0.359954833984375,-0.5396488308906555,-0.6474959254264832,0.5283432006835938,50.06773376464844,99.2947235107422,0.562347412109375
258177,0.1864471435546875,0.0510406494140625,-0.359954833984375,-0.5396488308906555,-0.6474959254264832,0.5283432006835938,50.06773376464844,99.2947235107422,0.562347412109375
258178,0.17425537109375,0.251556396484375,-0.3397064208984375,-0.691510796546936,-0.7560812830924988,0.4715733826160431,50.65530395507812,99.0482940673828,0.878143310546875
258179,0.1424102783203125,0.3847503662109375,-0.2823638916015625,-0.7757806777954102,-0.764061450958252,0.3631883263587952,50.93685913085938,98.9942626953125,1.032073974609375
258180,0.1238555908203125,0.52630615234375,-0.3390045166015625,-0.6570252776145935,-0.6204925775527954,0.1488454043865204,51.19316101074219,98.8619384765625,1.4503173828125
258181,0.1238555908203125,0.52630615234375,-0.3390045166015625,-0.6570252776145935,-0.6204925775527954,0.1488454043865204,51.19316101074219,98.8619384765625,1.4503173828125
258182,0.0145111083984375,0.8453521728515625,-0.5218048095703125,-0.4342630207538605,-0.3112638890743256,0.129317507147789,51.67799377441406,98.40704345703124,2.415679931640625
258183,-0.0759735107421875,1.083648681640625,-0.6940460205078125,-0.1190933659672737,0.0431775636970996,0.1487335562705994,51.74267578125,98.33554077148438,2.865524291992188
258184,-0.1109161376953125,1.403396606445312,-0.922393798828125,0.2153003215789795,-0.0089106708765029,0.1467377841472626,51.8511962890625,98.2178955078125,3.07012939453125
258185,-0.1109161376953125,1.403396606445312,-0.922393798828125,0.2153003215789795,-0.0089106708765029,0.1467377841472626,51.8511962890625,98.2178955078125,3.07012939453125
258186,0.0941314697265625,2.045089721679688,-0.6837921142578125,0.5758395791053772,-0.5145307183265686,-0.0169440954923629,51.83148193359375,98.10794067382812,3.439529418945312
258187,0.185760498046875,2.121597290039062,-0.22332763671875,0.6293923258781433,-0.27409628033638,-0.1014754921197891,51.91021728515625,98.13002014160156,3.36505126953125
258188,0.2859649658203125,2.138809204101562,-0.1590423583984375,0.6884703040122986,-0.1555184870958328,-0.0610825270414352,51.95086669921875,98.18376159667967,3.294204711914062
258189,0.2859649658203125,2.138809204101562,-0.1590423583984375,0.6884703040122986,-0.1555184870958328,-0.0610825270414352,51.95086669921875,98.18376159667967,3.294204711914062
258190,0.698089599609375,2.203720092773438,-0.505706787109375,0.9233871698379515,-0.2730512320995331,1.123368740081787,51.99760437011719,98.19573974609376,2.617462158203125
258191,0.785552978515625,2.095138549804688,-0.39678955078125,0.9080684185028076,-0.0028178908396512,1.547159671783447,52.16880798339844,98.22311401367188,2.121932983398438
258192,0.7382049560546875,2.243316650390625,-0.1086578369140625,0.8356022238731384,0.0882520973682403,1.858193159103394,52.63677978515625,98.32034301757812,1.661270141601562
258193,0.7382049560546875,2.243316650390625,-0.1086578369140625,0.8356022238731384,0.0882520973682403,1.858193159103394,52.63677978515625,98.32034301757812,1.661270141601562
258194,0.5163421630859375,3.022201538085938,0.05743408203125,0.7850016355514526,-0.0310567189007997,1.658851861953735,53.9884033203125,98.61695861816406,0.84490966796875
258195,0.3474273681640625,3.4613037109375,0.083282470703125,0.8774197101593018,-0.040785513818264,1.144801616668701,54.8106689453125,98.68821716308594,0.382568359375
258196,0.0769805908203125,3.702239990234375,0.2125244140625,1.121550917625427,0.3666349947452545,0.4432131052017212,55.43704223632812,98.82795715332033,0.015350341796875
258197,0.0769805908203125,3.702239990234375,0.2125244140625,1.121550917625427,0.3666349947452545,0.4432131052017212,55.43704223632812,98.82795715332033,0.015350341796875
258198,-0.2779541015625,3.090484619140625,0.2990264892578125,1.641545295715332,1.312646508216858,-0.5138811469078064,56.38359069824219,99.30401611328124,-1.058929443359375
258199,-0.3055267333984375,2.51422119140625,0.197479248046875,1.58254063129425,1.272682547569275,-0.6207274794578552,56.59483337402344,99.52731323242188,-1.454238891601562
258200,-0.3897705078125,2.076492309570312,0.187835693359375,1.33868670463562,1.099271416664124,-0.611779510974884,56.55686950683594,99.83840942382812,-2.157913208007812
258201,-0.3897705078125,2.076492309570312,0.187835693359375,1.33868670463562,1.099271416664124,-0.611779510974884,56.55686950683594,99.83840942382812,-2.157913208007812
258202,-0.53717041015625,1.393905639648438,0.3516845703125,1.049982190132141,1.038522839546204,-0.5169810652732849,56.43354797363281,100.1055450439453,-4.025497436523438
258203,-0.5882568359375,1.014434814453125,0.32537841796875,1.126130700111389,0.8778234124183655,-0.4132570922374725,56.37321472167969,100.1157531738281,-4.544219970703125
258204,-0.6279144287109375,0.68804931640625,0.2960052490234375,1.519952535629272,0.217002347111702,-0.041671548038721,56.39482116699219,100.1072235107422,-5.017745971679688
258205,-0.6279144287109375,0.68804931640625,0.2960052490234375,1.519952535629272,0.217002347111702,-0.041671548038721,56.39482116699219,100.1072235107422,-5.017745971679688
258206,-0.6568756103515625,0.2762908935546875,0.3349151611328125,1.541475176811218,0.1027000099420547,0.2542921900749207,56.47830200195312,100.1488037109375,-6.182159423828125
258207,-0.547698974609375,0.25537109375,0.3640594482421875,1.380755543708801,0.1834545135498047,0.452081173658371,56.56028747558594,100.2846984863281,-6.904678344726562
258208,-0.4160003662109375,0.410919189453125,0.3365631103515625,1.092625260353088,0.311194896697998,0.3912255465984344,56.61891174316406,100.3970489501953,-7.605926513671875
258209,-0.3310699462890625,0.6176910400390625,0.2816162109375,0.7194633483886719,0.3344291150569916,0.1772935539484024,56.65945434570312,100.6849975585938,-8.345245361328125
258210,-0.3057098388671875,0.8065948486328125,0.2309722900390625,0.3498368263244629,0.2873188555240631,-0.0297328624874353,56.79655456542969,100.7128143310547,-8.807861328125
258211,-0.254119873046875,0.910797119140625,0.122467041015625,0.029829267412424,0.0899472013115882,-0.2258163541555405,56.805419921875,100.7713470458984,-9.148056030273438
258212,-0.17572021484375,0.8924407958984375,-0.044342041015625,-0.2106967866420746,-0.3436574935913086,-0.3876489400863647,56.6566162109375,100.9759063720703,-9.49725341796875
258213,-0.080413818359375,0.7451324462890625,-0.191070556640625,-0.3749112784862518,-1.537711024284363,-0.3727805018424988,56.57093811035156,101.1148223876953,-9.745468139648438
258214,0.0052490234375,0.5788116455078125,-0.2003936767578125,-0.3749112784862518,-1.537711024284363,-0.3727805018424988,56.32315063476562,101.0078887939453,-9.68328857421875
258215,0.0519256591796875,0.463897705078125,-0.0865478515625,-0.2634428143501282,-1.855326294898987,-0.2500492632389069,56.0352783203125,100.9448852539062,-9.523956298828123
258216,0.0775299072265625,0.3866424560546875,0.045928955078125,0.057643324136734,-1.30898118019104,0.0298031698912382,55.74003601074219,100.8925170898438,-9.504074096679688
258217,0.0775299072265625,0.3866424560546875,0.045928955078125,0.057643324136734,-1.30898118019104,0.0298031698912382,55.74003601074219,100.8925170898438,-9.504074096679688
258218,0.0618438720703125,0.239990234375,0.0788726806640625,0.1196544989943504,-0.748602032661438,0.1480821371078491,55.50946044921875,100.9167022705078,-9.498703002929688
258219,-0.0175018310546875,0.245697021484375,0.0537261962890625,0.0907743796706199,-0.1975013613700867,0.1939694732427597,55.52604675292969,100.9553527832031,-9.503433227539062
258220,-0.1007080078125,0.3711700439453125,0.0824432373046875,-0.0125890290364623,0.1165407299995422,0.1962209045886993,55.66984558105469,100.8767395019531,-9.37884521484375
258221,-0.1007080078125,0.3711700439453125,0.0824432373046875,-0.0125890290364623,0.1165407299995422,0.1962209045886993,55.66984558105469,100.8767395019531,-9.37884521484375
258222,-0.185791015625,0.6761627197265625,0.3954925537109375,-0.3603294193744659,0.8621267676353455,0.0748105943202972,55.95556640625,101.06103515625,-9.438552856445312
258223,-0.2585601806640625,0.7188568115234375,0.4054412841796875,-0.5262994766235352,1.128914833068848,-0.0388818867504596,56.09121704101562,101.0557098388672,-9.207305908203123
258224,-0.3653564453125,0.7274627685546875,0.3687286376953125,-0.6115413904190063,1.004812240600586,-0.1593481153249741,56.22065734863281,101.1451263427734,-8.95037841796875
258225,-0.3653564453125,0.7274627685546875,0.3687286376953125,-0.6115413904190063,1.004812240600586,-0.1593481153249741,56.22065734863281,101.1451263427734,-8.95037841796875
258226,-0.5383758544921875,0.649658203125,0.382720947265625,-0.7092690467834473,0.0607230030000209,-0.4371746778488159,56.36851501464844,100.9697265625,-8.1888427734375
258227,-0.5601806640625,0.5706329345703125,0.454010009765625,-0.859915554523468,-0.3058414161205292,-0.5702200531959534,56.25794982910156,100.9193267822266,-7.733627319335938
258228,-0.5482177734375,0.482513427734375,0.5043792724609375,-1.085972905158997,-0.4012787044048309,-0.6514217257499695,56.17453002929688,101.0112152099609,-7.282791137695312
258229,-0.5482177734375,0.482513427734375,0.5043792724609375,-1.085972905158997,-0.4012787044048309,-0.6514217257499695,56.17453002929688,101.0112152099609,-7.282791137695312
258230,-0.3326568603515625,0.33221435546875,0.298736572265625,-1.445049524307251,-0.340973824262619,-0.615746259689331,55.61720275878906,100.9316864013672,-6.245529174804688
258231,-0.179046630859375,0.3331451416015625,0.1480560302734375,-1.487156510353088,-0.5539242029190063,-0.6249778270721436,55.27963256835938,100.8876495361328,-5.704727172851562
258232,-0.095062255859375,0.294677734375,0.066009521484375,-1.524558186531067,-0.8031273484230042,-0.6369226574897766,55.06733703613281,100.7551422119141,-5.072402954101562
258233,-0.095062255859375,0.294677734375,0.066009521484375,-1.524558186531067,-0.8031273484230042,-0.6369226574897766,55.06733703613281,100.7551422119141,-5.072402954101562
258234,0.0155487060546875,0.1562042236328125,-0.1365814208984375,-1.69468891620636,-1.281405210494995,-0.5969502329826355,54.61795043945312,100.2801208496094,-3.446609497070312
258235,0.1276397705078125,0.052978515625,-0.4073638916015625,-1.718445420265198,-1.915227770805359,-0.4653165638446808,54.40840148925781,100.1294403076172,-2.708999633789062
258236,0.2428741455078125,-0.0370330810546875,-0.5439453125,-1.489013075828552,-2.764217376708984,-0.1485575139522552,54.2269287109375,99.87867736816406,-2.101730346679688
258237,0.2428741455078125,-0.0370330810546875,-0.5439453125,-1.489013075828552,-2.764217376708984,-0.1485575139522552,54.2269287109375,99.87867736816406,-2.101730346679688
258238,0.360382080078125,-0.0029296875,-0.1629180908203125,-0.7201693654060364,-1.74220609664917,0.602973461151123,54.40200805664062,99.51814270019533,-0.87872314453125
258239,0.360382080078125,-0.0029296875,-0.1629180908203125,-0.7201693654060364,-1.74220609664917,0.602973461151123,54.40200805664062,99.51814270019533,-0.87872314453125
258240,0.33319091796875,0.178619384765625,-0.5734405517578125,-0.4879773855209351,-0.0303603019565343,0.8255152106285095,54.84588623046875,99.4399871826172,-0.134765625
258241,0.2798309326171875,0.23876953125,-0.503997802734375,-0.5254262089729309,-0.0908164530992507,0.6675788760185242,55.09341430664062,99.240234375,0.3472900390625
258242,0.2726898193359375,0.26983642578125,-0.4386444091796875,-0.672305703163147,-0.1366065740585327,0.5033637881278992,55.3671875,99.16873168945312,0.7062530517578125
258243,0.258087158203125,0.352447509765625,-0.44488525390625,-0.7882418632507324,-0.2272824198007584,0.368174821138382,55.60414123535156,99.06901550292967,1.060333251953125
258244,0.2144012451171875,0.4539794921875,-0.407928466796875,-0.7999355792999268,-0.3107283115386963,0.2857885956764221,55.73329162597656,98.94371032714844,1.31036376953125
258245,0.2144012451171875,0.4539794921875,-0.407928466796875,-0.7999355792999268,-0.3107283115386963,0.2857885956764221,55.73329162597656,98.94371032714844,1.31036376953125
258246,0.1304779052734375,0.665191650390625,-0.356475830078125,-0.5352636575698853,-0.3037180602550507,0.2251010239124298,55.90962219238281,98.82801818847656,2.008453369140625
258247,0.1062774658203125,0.82745361328125,-0.4349365234375,-0.369772732257843,-0.4119481444358826,0.2198082655668259,56.0892333984375,98.50357055664062,2.360687255859375
258248,0.085906982421875,1.04095458984375,-0.551239013671875,-0.2124246507883072,-0.5542283058166504,0.2299482524394989,56.16806030273438,98.3886260986328,2.634918212890625
258249,0.085906982421875,1.04095458984375,-0.551239013671875,-0.2124246507883072,-0.5542283058166504,0.2299482524394989,56.16806030273438,98.3886260986328,2.634918212890625
258250,0.1902313232421875,1.60601806640625,-0.8720855712890625,0.2559140622615814,-0.6933292150497437,0.3220147788524628,56.471435546875,98.18846130371094,2.901107788085938
258251,0.3885498046875,1.874984741210938,-0.71856689453125,0.5206761956214905,-0.4644877910614014,0.4443172514438629,56.69532775878906,97.94538879394533,3.08233642578125
258252,0.5662384033203125,1.989730834960938,-0.3677215576171875,0.6760591268539429,-0.2377198785543442,0.5915458798408508,56.87957763671875,97.95744323730467,2.982574462890625
258253,0.5662384033203125,1.989730834960938,-0.3677215576171875,0.6760591268539429,-0.2377198785543442,0.5915458798408508,56.87957763671875,97.95744323730467,2.982574462890625
258254,0.608001708984375,2.07098388671875,0.10284423828125,0.6349104046821594,-0.3428457677364349,1.117265343666077,57.36306762695312,98.02986145019533,2.254165649414062
258255,0.608001708984375,2.07098388671875,0.10284423828125,0.6349104046821594,-0.3428457677364349,1.117265343666077,57.36306762695312,98.02986145019533,2.254165649414062
258256,0.5409698486328125,2.39990234375,0.2413787841796875,0.4927945137023926,-0.3446489870548248,1.38394570350647,57.790771484375,97.94743347167967,1.950454711914062
258257,0.4697418212890625,3.034088134765625,0.45440673828125,0.1991344094276428,0.1779518872499466,1.571019172668457,58.97560119628906,97.85577392578124,1.495025634765625
258258,0.3640594482421875,3.236419677734375,0.561981201171875,0.2851174771785736,0.4277446866035461,1.392831325531006,59.68275451660156,97.8106689453125,1.364822387695312
258259,0.2184906005859375,3.371185302734375,0.6611480712890625,0.5664205551147461,0.6765976548194885,1.070522785186768,60.33030700683594,97.8831024169922,1.126708984375
258260,0.04962158203125,3.386566162109375,0.71661376953125,0.9653173089027404,0.9835892915725708,0.7418680191040039,60.86502075195312,97.7523193359375,0.7866668701171875
258261,-0.148651123046875,3.354782104492188,0.69561767578125,1.328020095825195,1.383710622787476,0.3893253803253174,61.06910705566406,97.81430053710938,0.3643341064453125
258262,-0.3193511962890625,3.247360229492188,0.562164306640625,1.459434866905212,1.633340358734131,-0.0956727266311645,61.15135192871094,97.90040588378906,-0.0107269287109375
258263,-0.4081573486328125,2.877456665039062,0.4180450439453125,1.317889809608459,1.521712899208069,-0.6210337281227112,61.24264526367188,98.1616668701172,-0.5107421875
258264,-0.45458984375,2.382308959960938,0.3841094970703125,1.048664689064026,1.240637898445129,-0.9421382546424866,61.01219177246094,98.5084228515625,-1.048812866210938
258265,-0.45458984375,2.382308959960938,0.3841094970703125,1.048664689064026,1.240637898445129,-0.9421382546424866,61.01219177246094,98.5084228515625,-1.048812866210938
258266,-0.4856109619140625,1.64324951171875,0.373260498046875,0.6710763573646545,1.020940065383911,-0.9863523244857788,60.41813659667969,98.8039093017578,-1.852630615234375
258267,-0.4944610595703125,1.279769897460938,0.2690582275390625,0.6754159927368164,0.7797778248786926,-0.7921854853630066,60.05644226074219,99.15028381347656,-2.248184204101562
258268,-0.4869537353515625,0.9601593017578124,0.1717071533203125,0.7868261337280273,0.3668911755084991,-0.5851737260818481,59.81622314453125,99.06437683105467,-2.505020141601562
258269,-0.4869537353515625,0.9601593017578124,0.1717071533203125,0.7868261337280273,0.3668911755084991,-0.5851737260818481,59.81622314453125,99.06437683105467,-2.505020141601562
258270,-0.422821044921875,0.5423583984375,0.06695556640625,1.039109468460083,-0.5317938327789307,-0.4274011254310608,59.39668273925781,99.3038330078125,-3.3271484375
258271,-0.37835693359375,0.419464111328125,0.057891845703125,1.039093017578125,-0.8180546164512634,-0.4831413626670837,59.23637390136719,99.27711486816406,-3.771453857421875
258272,-0.3120574951171875,0.23956298828125,0.1344146728515625,0.6941249966621399,-0.6215175986289978,-0.4698356688022614,58.94960021972656,99.43489074707033,-4.842529296875
258273,-0.3120574951171875,0.23956298828125,0.1344146728515625,0.6941249966621399,-0.6215175986289978,-0.4698356688022614,58.94960021972656,99.43489074707033,-4.842529296875
258274,-0.2313232421875,0.2827911376953125,0.063079833984375,0.3864734172821045,0.2430363446474075,-0.2939101755619049,58.73445129394531,99.59779357910156,-5.337844848632812
258275,-0.1272430419921875,0.490875244140625,-0.3079681396484375,0.1781859844923019,0.7996958494186401,-0.1148490905761719,58.41766357421875,99.69561767578124,-5.737899780273438
258276,-0.0866546630859375,0.70849609375,-0.4916229248046875,0.2976974546909332,0.6006810665130615,-0.0725463703274726,58.08906555175781,99.85530090332033,-5.996795654296875
258277,-0.0866546630859375,0.70849609375,-0.4916229248046875,0.2976974546909332,0.6006810665130615,-0.0725463703274726,58.08906555175781,99.85530090332033,-5.996795654296875
258278,-0.0690155029296875,0.838348388671875,-0.10260009765625,0.5569178462028503,0.195552185177803,-0.2261604368686676,57.72756958007812,99.97076416015624,-6.145614624023438
258279,-0.0690155029296875,0.838348388671875,-0.10260009765625,0.5569178462028503,0.195552185177803,-0.2261604368686676,57.72756958007812,99.97076416015624,-6.145614624023438
258280,-0.00189208984375,0.5909271240234375,0.0424957275390625,0.3156844675540924,0.2062160223722458,-0.4613167643547058,57.56678771972656,99.9598388671875,-6.288833618164062
258281,-0.0207977294921875,0.4491119384765625,0.026641845703125,0.2603844404220581,0.1647380888462067,-0.5124638080596924,57.39668273925781,100.1400756835938,-6.379562377929688
258282,-0.061065673828125,0.357940673828125,0.016357421875,0.2731468379497528,0.1180965453386307,-0.5408967733383179,57.25886535644531,100.0331573486328,-6.36907958984375
258283,-0.1010284423828125,0.3166046142578125,0.0126953125,0.3039002418518066,0.0894811451435089,-0.5357177257537842,57.13348388671875,100.2076721191406,-6.594100952148438
258284,-0.1427001953125,0.3141326904296875,0.0242767333984375,0.1732673943042755,0.1569278240203857,-0.538931667804718,56.87190246582031,100.1625366210938,-6.523941040039062
258285,-0.1427001953125,0.3141326904296875,0.0242767333984375,0.1732673943042755,0.1569278240203857,-0.538931667804718,56.87190246582031,100.1625366210938,-6.523941040039062
258286,-0.2130126953125,0.2857666015625,0.0434112548828125,0.0045686527155339,0.2044490128755569,-0.5305962562561035,56.43498229980469,100.3501586914062,-6.582962036132812
258287,-0.2123565673828125,0.278289794921875,0.0475921630859375,-0.1814339756965637,0.2069156318902969,-0.5070347189903259,56.26834106445312,100.5300140380859,-6.627471923828125
258288,-0.196868896484375,0.2581024169921875,0.0728759765625,-0.287180095911026,0.1689682453870773,-0.4579760730266571,56.11306762695312,100.5597534179688,-6.631698608398438
258289,-0.196868896484375,0.2581024169921875,0.0728759765625,-0.287180095911026,0.1689682453870773,-0.4579760730266571,56.11306762695312,100.5597534179688,-6.631698608398438
258290,-0.2121124267578125,0.3990325927734375,0.1428985595703125,-0.0976826176047325,-0.1968952268362045,-0.4893960654735565,55.71473693847656,100.7650451660156,-6.445892333984375
258291,-0.27667236328125,0.4826812744140625,0.245697021484375,0.0851306095719337,-0.578693687915802,-0.6766898036003113,55.58772277832031,100.7838439941406,-6.326675415039062
258292,-0.35693359375,0.5692596435546875,0.35577392578125,0.0851306095719337,-0.578693687915802,-0.6766898036003113,55.34530639648438,100.9000701904297,-6.289443969726562
258293,-0.422088623046875,0.637725830078125,0.470062255859375,0.0132793197408318,-0.6316301822662354,-0.8441522717475891,55.16851806640625,100.9887542724609,-6.347396850585938
258294,-0.4639892578125,0.653656005859375,0.541961669921875,-0.4420935213565826,-0.5499041676521301,-1.15536367893219,54.87452697753906,101.1514739990234,-6.321502685546875
258295,-0.4639892578125,0.653656005859375,0.541961669921875,-0.4420935213565826,-0.5499041676521301,-1.15536367893219,54.87452697753906,101.1514739990234,-6.321502685546875
258296,-0.484344482421875,0.60455322265625,0.55694580078125,-0.4420935213565826,-0.5499041676521301,-1.15536367893219,54.56643676757812,101.3485870361328,-6.4058837890625
258297,-0.4408721923828125,0.394073486328125,0.4649810791015625,-1.046615958213806,-0.6861000657081604,-1.175422072410583,53.78096008300781,101.5810394287109,-6.423309326171875
258298,-0.366912841796875,0.336456298828125,0.37939453125,-1.303507924079895,-0.9600085616111756,-1.050056457519531,53.42420959472656,101.4655609130859,-6.164306640625
258299,-0.2713165283203125,0.34375,0.2865447998046875,-1.49721348285675,-1.406395673751831,-0.9394758939743042,53.00190734863281,101.4736022949219,-5.860610961914062
258300,-0.222900390625,0.355926513671875,0.2442169189453125,-1.630356550216675,-1.825476765632629,-0.8310332894325256,52.64810180664062,101.2339630126953,-5.375442504882812
258301,-0.222900390625,0.355926513671875,0.2442169189453125,-1.630356550216675,-1.825476765632629,-0.8310332894325256,52.64810180664062,101.2339630126953,-5.375442504882812
258302,-0.156646728515625,0.3592681884765625,0.2060394287109375,-2.05757999420166,-1.883227229118347,-0.5428020358085632,52.39163208007812,100.5047454833984,-3.957366943359375
258303,-0.0859375,0.3592376708984375,0.215301513671875,-2.05757999420166,-1.883227229118347,-0.5428020358085632,52.30078125,100.0893249511719,-3.074569702148438
258304,-0.0152587890625,0.31463623046875,0.2323455810546875,-2.16960597038269,-1.337390780448914,-0.4261494576931,52.21847534179688,99.8780517578125,-2.136062622070312
258305,-0.0152587890625,0.31463623046875,0.2323455810546875,-2.16960597038269,-1.337390780448914,-0.4261494576931,52.21847534179688,99.8780517578125,-2.136062622070312
258306,0.1341094970703125,0.195068359375,-0.3446197509765625,-1.857432842254639,0.254002183675766,0.1628901213407516,51.88133239746094,99.55709838867188,-0.236480712890625
258307,0.326141357421875,0.132049560546875,-1.503997802734375,-0.6718026399612427,-1.327309370040894,0.5991867184638977,51.5517578125,99.51632690429688,0.8805999755859375
258308,0.2968597412109375,0.182373046875,-1.009857177734375,0.6061796545982361,-1.512938380241394,0.6834515333175659,51.42173767089844,99.53504943847656,1.82672119140625
258309,0.1619720458984375,0.2132568359375,-0.00689697265625,0.6061796545982361,-1.512938380241394,0.6834515333175659,51.71937561035156,99.43829345703124,2.350982666015625
258310,0.1865997314453125,0.241851806640625,-0.0914459228515625,0.2415138185024261,-0.1509045660495758,0.5521185398101807,52.16062927246094,99.39076232910156,2.459930419921875
258311,0.2384185791015625,0.2974395751953125,-0.27325439453125,0.0042554652318358,-0.1678451895713806,0.6428564786911011,52.69575500488281,99.21168518066406,2.333267211914062
258312,0.2608642578125,0.407012939453125,-0.2843170166015625,-0.2840959131717682,-0.6925504803657532,0.8008138537406921,52.98965454101562,99.02735900878906,2.215896606445312
258313,0.2608642578125,0.407012939453125,-0.2843170166015625,-0.2840959131717682,-0.6925504803657532,0.8008138537406921,52.98965454101562,99.02735900878906,2.215896606445312
258314,0.2020111083984375,0.8021087646484375,-0.5138702392578125,-0.5845524072647095,-1.439626336097717,0.6467534303665161,53.83685302734375,98.72914123535156,2.493026733398438
258315,0.14208984375,0.9997406005859376,-0.801300048828125,-0.2745165228843689,-1.550932049751282,0.4566959142684937,54.14073181152344,98.55531311035156,2.997833251953125
258316,0.037567138671875,1.233779907226562,-0.92529296875,1.144720077514648,0.0719974935054779,0.6821242570877075,54.54411315917969,98.28578186035156,3.505630493164062
258317,0.037567138671875,1.233779907226562,-0.92529296875,1.144720077514648,0.0719974935054779,0.6821242570877075,54.54411315917969,98.28578186035156,3.505630493164062
258318,0.1446533203125,1.6983642578125,-0.589324951171875,1.373157501220703,0.8581932783126831,0.9356225728988647,54.98124694824219,98.37403869628906,3.44232177734375
258319,0.1539764404296875,1.8759765625,-0.10662841796875,0.9701520204544068,1.311540007591248,0.9891675114631652,55.24679565429688,98.60707092285156,3.063720703125
258320,0.064300537109375,2.190444946289062,0.0638427734375,0.4420447945594788,1.457617521286011,0.7341908812522888,55.45693969726562,98.69132995605467,2.527587890625
258321,0.064300537109375,2.190444946289062,0.0638427734375,0.4420447945594788,1.457617521286011,0.7341908812522888,55.45693969726562,98.69132995605467,2.527587890625
258322,0.0654296875,3.1572265625,0.0180816650390625,0.0570827275514602,0.415720522403717,0.5175496935844421,55.73727416992188,98.57534790039062,1.670501708984375
258323,0.0723876953125,3.569931030273438,0.2255401611328125,0.2931043207645416,0.3980773389339447,0.7871084213256836,55.74844360351562,98.46022033691406,1.4847412109375
258324,0.1345367431640625,3.629486083984375,0.3236846923828125,0.6767001748085022,0.9526667594909668,1.226107597351074,55.86863708496094,98.48616027832033,1.380889892578125
258325,0.1345367431640625,3.629486083984375,0.3236846923828125,0.6767001748085022,0.9526667594909668,1.226107597351074,55.86863708496094,98.48616027832033,1.380889892578125
258326,0.1310272216796875,3.1134033203125,0.033538818359375,1.450728535652161,1.369835495948792,1.23175060749054,56.31820678710938,98.6247100830078,0.742401123046875
258327,-0.0795440673828125,2.97369384765625,0.1229400634765625,1.696328997612,1.442806363105774,0.992542564868927,56.64109802246094,98.91748046875,0.2873077392578125
258328,-0.302093505859375,2.867111206054688,0.29541015625,1.815778374671936,1.691675543785095,0.6112929582595825,57.07133483886719,99.14567565917967,-0.217071533203125
258329,-0.4606475830078125,2.761245727539062,0.416473388671875,1.817799687385559,1.972608685493469,0.0628340914845466,57.35191345214844,99.38687133789062,-1.058319091796875
258330,-0.5010986328125,2.50579833984375,0.3992156982421875,1.622488021850586,1.875867486000061,-0.4046100676059723,57.46110534667969,99.6535186767578,-1.869766235351562
258331,-0.5511932373046875,2.113906860351562,0.363250732421875,1.327068328857422,1.550836443901062,-0.7049528360366821,57.48783874511719,99.83148193359376,-2.537353515625
258332,-0.5853118896484375,1.721038818359375,0.2910308837890625,1.05728805065155,1.304190754890442,-0.9305159449577332,57.44514465332031,100.0654907226562,-3.268905639648438
258333,-0.5853118896484375,1.721038818359375,0.2910308837890625,1.05728805065155,1.304190754890442,-0.9305159449577332,57.44514465332031,100.0654907226562,-3.268905639648438
258334,-0.625885009765625,1.2301025390625,0.1870880126953125,0.4989229738712311,1.04387903213501,-0.9977216124534608,56.73336791992188,100.6575164794922,-4.410903930664062
258335,-0.720245361328125,0.9708099365234376,0.0532379150390625,0.2812822759151459,0.8248909711837769,-0.7883579730987549,56.27299499511719,100.8309326171875,-4.781707763671875
258336,-0.7973785400390625,0.724273681640625,-0.1063690185546875,0.2344292849302292,-0.3565618395805359,-0.0138425789773464,55.80284118652344,101.1774597167969,-5.08941650390625
258337,-0.7245635986328125,0.549560546875,-0.161163330078125,0.2344292849302292,-0.3565618395805359,-0.0138425789773464,55.54173278808594,101.2970123291016,-5.296737670898438
258338,-0.512420654296875,0.4796295166015625,-0.09423828125,0.3276923894882202,-0.7558757066726685,0.1191666051745415,55.41714477539062,101.14111328125,-5.319534301757812
258339,-0.3355712890625,0.4835662841796875,-0.0081329345703125,0.4036499857902527,-0.6634876728057861,0.1184872314333916,55.44444274902344,101.0365753173828,-5.339752197265625
258340,-0.17620849609375,0.570587158203125,0.019287109375,0.5039079189300537,-0.2900776267051697,0.0186549108475446,55.61495971679688,101.0376129150391,-5.486343383789062
258341,-0.17620849609375,0.570587158203125,0.019287109375,0.5039079189300537,-0.2900776267051697,0.0186549108475446,55.61495971679688,101.0376129150391,-5.486343383789062
258342,-0.022705078125,0.815887451171875,0.086669921875,0.9122051000595092,0.3978429734706879,-0.2088094055652618,55.75495910644531,100.9461364746094,-5.847213745117188
258343,-0.0202484130859375,0.763885498046875,0.04815673828125,0.9122051000595092,0.3978429734706879,-0.2088094055652618,55.79498291015625,100.7843933105469,-6.078109741210938
258344,-0.0452880859375,0.6573028564453125,-0.0214996337890625,0.8355513215065002,0.2842120230197906,-0.2781410813331604,55.81668090820312,100.9390106201172,-6.496551513671875
258345,-0.0452880859375,0.6573028564453125,-0.0214996337890625,0.8355513215065002,0.2842120230197906,-0.2781410813331604,55.81668090820312,100.9390106201172,-6.496551513671875
258346,-0.1158905029296875,0.4564666748046875,-0.200225830078125,0.5386853218078613,-0.4639959037303925,-0.4325628578662872,55.61763000488281,100.9170684814453,-7.188262939453125
258347,-0.1151123046875,0.4024810791015625,-0.1634521484375,0.4784517884254456,-0.771147608757019,-0.4665056467056274,55.53152465820312,101.0862121582031,-7.427963256835938
258348,-0.1200408935546875,0.3770599365234375,-0.05084228515625,0.5268536806106567,-0.7586719989776611,-0.4837634861469269,55.5115966796875,100.9795989990234,-7.4327392578125
258349,-0.1200408935546875,0.3770599365234375,-0.05084228515625,0.5268536806106567,-0.7586719989776611,-0.4837634861469269,55.5115966796875,100.9795989990234,-7.4327392578125
258350,-0.180511474609375,0.377532958984375,0.142608642578125,0.530411422252655,-0.6429299712181091,-0.4983701109886169,55.34561157226562,100.9831390380859,-7.983108520507812
258351,-0.200439453125,0.362152099609375,0.159393310546875,0.4786677956581116,-0.5347734093666077,-0.5291171073913574,55.22358703613281,101.0037384033203,-8.18316650390625
258352,-0.1972503662109375,0.3341064453125,0.1336212158203125,0.2481046169996262,-0.6976534128189087,-0.5989733934402466,55.19184875488281,101.0485992431641,-8.5203857421875
258353,-0.1972503662109375,0.3341064453125,0.1336212158203125,0.2481046169996262,-0.6976534128189087,-0.5989733934402466,55.19184875488281,101.0485992431641,-8.5203857421875
258354,-0.127166748046875,0.28717041015625,0.151947021484375,0.0589719749987125,-0.9834033846855164,-0.5675739645957947,55.00424194335938,101.0332794189453,-8.854949951171875
258355,-0.09942626953125,0.281005859375,0.2020111083984375,0.0589719749987125,-0.9834033846855164,-0.5675739645957947,54.94920349121094,101.1175231933594,-8.826004028320312
258356,-0.08416748046875,0.294830322265625,0.2422637939453125,-0.0728566274046897,-1.216341018676758,-0.5354146957397461,54.7493896484375,101.2292175292969,-8.866287231445312
258357,-0.08416748046875,0.294830322265625,0.2422637939453125,-0.0728566274046897,-1.216341018676758,-0.5354146957397461,54.7493896484375,101.2292175292969,-8.866287231445312
258358,-0.207855224609375,0.41943359375,0.4388580322265625,-0.5017890930175781,-1.254659414291382,-0.6191838979721069,54.4261474609375,101.3420562744141,-9.00518798828125
258359,-0.2881317138671875,0.49609375,0.566802978515625,-0.5017890930175781,-1.254659414291382,-0.6191838979721069,54.25390625,101.2603759765625,-8.899444580078125
258360,-0.4609375,0.496826171875,0.732025146484375,-1.371779322624207,-1.052065014839172,-0.8317997455596924,53.9508056640625,101.4354553222656,-9.011398315429688
258361,-0.4609375,0.496826171875,0.732025146484375,-1.371779322624207,-1.052065014839172,-0.8317997455596924,53.9508056640625,101.4354553222656,-9.011398315429688
258362,-0.523529052734375,0.46624755859375,0.7390289306640625,-1.785255074501038,-0.9071575999259948,-0.9054396152496338,53.71859741210938,101.4451141357422,-8.93646240234375
258363,-0.5465545654296875,0.43304443359375,0.6994171142578125,-2.041483879089355,-0.7740296721458435,-0.9092620611190796,53.41853332519531,101.3530578613281,-8.38818359375
258364,-0.520416259765625,0.4220428466796875,0.60369873046875,-2.021698951721191,-0.5247892141342163,-0.7270126342773438,53.18855285644531,101.1035461425781,-7.67681884765625
258365,-0.520416259765625,0.4220428466796875,0.60369873046875,-2.021698951721191,-0.5247892141342163,-0.7270126342773438,53.18855285644531,101.1035461425781,-7.67681884765625
258366,-0.37420654296875,0.534393310546875,0.360595703125,-2.009811401367188,-0.2421164959669113,-0.606850266456604,52.32608032226562,100.9603424072266,-5.979476928710938
258367,-0.2980194091796875,0.603271484375,0.1661529541015625,-2.079016923904419,0.128885805606842,-0.4760038256645203,51.91676330566406,100.7612152099609,-4.993637084960938
258368,-0.179656982421875,0.6005096435546875,-0.1611785888671875,-2.132133483886719,0.2679054737091064,-0.3895506858825684,51.53662109375,100.6621856689453,-3.96795654296875
258369,-0.179656982421875,0.6005096435546875,-0.1611785888671875,-2.132133483886719,0.2679054737091064,-0.3895506858825684,51.53662109375,100.6621856689453,-3.96795654296875
258370,0.091705322265625,0.2395172119140625,-0.804412841796875,-1.606702327728271,-1.680969953536987,0.0251503605395555,50.77439880371094,100.3567504882812,-2.071029663085938
258371,0.069976806640625,0.226470947265625,-0.3032073974609375,-1.073684811592102,-1.616674900054932,0.3095104396343231,50.49641418457031,100.1361694335938,-1.06988525390625
258372,0.0523223876953125,0.2592315673828125,-0.1142425537109375,-0.5911461114883423,-0.7709798216819763,0.4610104858875275,50.41484069824219,99.7884521484375,-0.185882568359375
258373,0.0523223876953125,0.2592315673828125,-0.1142425537109375,-0.5911461114883423,-0.7709798216819763,0.4610104858875275,50.41484069824219,99.7884521484375,-0.185882568359375
258374,0.1492767333984375,0.308074951171875,-0.342498779296875,0.0617360696196556,-0.296071857213974,0.7915135622024536,50.62486267089844,99.59588623046876,0.9358062744140624
258375,0.1954345703125,0.318267822265625,-0.3686370849609375,0.1819274574518204,-0.6246162056922913,0.9018887877464294,50.87416076660156,99.47267150878906,1.393798828125
258376,0.285369873046875,0.2955169677734375,-0.36083984375,0.1220843642950058,-0.9003654718399048,1.012756705284119,51.16819763183594,99.34243774414062,1.665069580078125
258377,0.285369873046875,0.2955169677734375,-0.36083984375,0.1220843642950058,-0.9003654718399048,1.012756705284119,51.16819763183594,99.34243774414062,1.665069580078125
258378,0.47747802734375,0.3830413818359375,-0.279052734375,-0.2704522609710693,-0.5917562246322632,1.311713099479675,52.01100158691406,99.01438903808594,1.842269897460938
258379,0.503326416015625,0.5529632568359375,-0.3172149658203125,-0.2654146254062653,-0.3767462074756622,1.386816143989563,52.54859924316406,99.02708435058594,1.993942260742188
258380,0.5150146484375,0.7445526123046875,-0.35784912109375,-0.0943635180592536,-0.3685069382190704,1.318730235099792,53.02658081054688,98.89080810546876,2.334579467773438
258381,0.5150146484375,0.7445526123046875,-0.35784912109375,-0.0943635180592536,-0.3685069382190704,1.318730235099792,53.02658081054688,98.89080810546876,2.334579467773438
258382,0.550506591796875,1.17205810546875,-0.5249481201171875,0.3508823812007904,-0.4815772771835327,0.92403244972229,54.88783264160156,98.41220092773438,2.7796630859375
258383,0.511322021484375,1.444320678710938,-0.6917724609375,0.534238874912262,-0.3678810894489288,0.7373435497283936,55.28175354003906,98.30291748046876,2.89801025390625
258384,0.4480438232421875,1.670394897460938,-0.64227294921875,0.7017986178398132,0.0754233822226524,0.7302597761154175,55.57736206054688,98.27262878417967,2.733261108398438
