time_idx,accelerometerAccelerationX(G),accelerometerAccelerationY(G),accelerometerAccelerationZ(G),gyroRotationX(rad/s),gyroRotationY(rad/s),gyroRotationZ(rad/s),magnetometerX(µT),magnetometerY(µT),magnetometerZ(µT)
234019,-0.0270233154296875,0.9365234375,0.289306640625,0.8294851779937744,-2.430872440338135,0.7035639882087708,59.84565734863281,97.1832275390625,-36.97959899902344
234020,-0.0270233154296875,0.9365234375,0.289306640625,0.8294851779937744,-2.430872440338135,0.7035639882087708,59.84565734863281,97.1832275390625,-36.97959899902344
234021,0.057708740234375,0.71441650390625,-0.0121612548828125,0.6239362955093384,-2.353444814682007,0.7635943293571472,59.56338500976562,96.27532958984376,-38.39634704589844
234022,0.12371826171875,0.682159423828125,-0.2064208984375,0.5223937034606934,-2.41649341583252,0.7599372863769531,59.39376831054688,95.85867309570312,-38.96940612792969
234023,0.1837310791015625,0.6810302734375,-0.270782470703125,0.7105558514595032,-2.187071800231934,0.7691118717193604,59.18836975097656,95.53279113769533,-39.45611572265625
234024,0.1837310791015625,0.6810302734375,-0.270782470703125,0.7105558514595032,-2.187071800231934,0.7691118717193604,59.18836975097656,95.53279113769533,-39.45611572265625
234025,0.144073486328125,0.741943359375,-0.2404937744140625,0.814941942691803,-1.422031044960022,0.6375623345375061,58.57151794433594,95.29441833496094,-40.40853881835938
234026,0.1019287109375,0.7468414306640625,-0.3853759765625,0.7967664003372192,-0.5151237845420837,0.3707620799541473,58.22349548339844,95.14942932128906,-40.82179260253906
234027,-0.0164794921875,0.762725830078125,-0.484527587890625,0.6462929844856262,-0.2775069773197174,0.1567842811346054,57.91273498535156,95.00833129882812,-41.12907409667969
234028,-0.1877593994140625,0.7245635986328125,-0.327239990234375,0.6462929844856262,-0.2775069773197174,0.1567842811346054,57.9234619140625,94.77500915527344,-41.58671569824219
234029,-0.195831298828125,0.613983154296875,-0.2657928466796875,0.6123512983322144,-0.2398152500391006,0.2353211790323257,57.8624267578125,94.35496520996094,-41.93472290039062
234030,-0.15386962890625,0.4949188232421875,-0.312652587890625,0.5715205073356628,-0.228631317615509,0.3735933005809784,57.91896057128906,94.30441284179688,-42.14970397949219
234031,-0.0981903076171875,0.458953857421875,-0.3184051513671875,0.5395228862762451,-0.1940408498048782,0.5143331289291382,57.90863037109375,94.17974853515624,-42.44233703613281
234032,-0.0981903076171875,0.458953857421875,-0.3184051513671875,0.5395228862762451,-0.1940408498048782,0.5143331289291382,57.90863037109375,94.17974853515624,-42.44233703613281
234033,0.0906219482421875,0.53485107421875,-0.21539306640625,0.546332836151123,-0.086136482656002,0.6448509097099304,58.09640502929688,93.86672973632812,-42.88969421386719
234034,0.1938323974609375,0.572540283203125,-0.20159912109375,0.5291083455085754,-0.0859918743371963,0.6458067297935486,58.27400207519531,93.61184692382812,-43.017333984375
234035,0.319183349609375,0.6611785888671875,-0.25341796875,0.4254884421825409,-0.1094537898898125,0.6208379864692688,58.40589904785156,93.42262268066406,-43.31613159179688
234036,0.319183349609375,0.6611785888671875,-0.25341796875,0.4254884421825409,-0.1094537898898125,0.6208379864692688,58.40589904785156,93.42262268066406,-43.31613159179688
234037,0.452117919921875,0.8493194580078125,-0.3919677734375,0.1619340479373932,-0.2461282759904861,0.5578736662864685,58.80632019042969,93.02424621582033,-43.49226379394531
234038,0.4415283203125,0.8834381103515625,-0.3162078857421875,0.2119759023189545,-0.2096200734376907,0.5939453840255737,59.01341247558594,92.80517578125,-43.73977661132812
234039,0.42633056640625,0.9109344482421876,-0.2197418212890625,0.4099635481834412,-0.2062439769506454,0.6600745916366577,59.20870971679688,92.62515258789062,-43.94554138183594
234040,0.42633056640625,0.9109344482421876,-0.2197418212890625,0.4099635481834412,-0.2062439769506454,0.6600745916366577,59.20870971679688,92.62515258789062,-43.94554138183594
234041,0.3911895751953125,0.9378814697265624,0.0336761474609375,0.776308536529541,-0.2318244427442551,0.7809954285621643,59.6134033203125,92.34587097167967,-44.29904174804688
234042,0.3911895751953125,0.9378814697265624,0.0336761474609375,0.776308536529541,-0.2318244427442551,0.7809954285621643,59.6134033203125,92.34587097167967,-44.29904174804688
234043,0.3788299560546875,0.8878173828125,0.1942901611328125,0.4437137842178345,0.0589642487466335,0.8017318844795227,59.94705200195312,91.84678649902344,-44.87785339355469
234044,0.377349853515625,0.8560943603515625,0.2288665771484375,0.4437137842178345,0.0589642487466335,0.8017318844795227,60.27780151367188,91.58114624023438,-45.24217224121094
234045,0.358917236328125,0.8344879150390625,0.3330230712890625,0.2651301920413971,0.2571891844272614,0.7531310319900513,60.73562622070312,91.28858947753906,-45.4161376953125
234046,0.3209686279296875,0.829193115234375,0.5103607177734375,0.0444561466574668,0.7224364876747131,0.6718327403068542,61.16177368164062,90.95066833496094,-45.59393310546875
234047,0.265350341796875,0.85125732421875,0.6538543701171875,-0.579353392124176,2.094207048416138,0.4501911401748657,61.49435424804688,90.7577667236328,-45.71170043945312
234048,0.265350341796875,0.85125732421875,0.6538543701171875,-0.579353392124176,2.094207048416138,0.4501911401748657,61.49435424804688,90.7577667236328,-45.71170043945312
234049,0.1390380859375,0.841217041015625,0.599700927734375,-0.8434012532234192,2.46124529838562,0.2556996941566467,62.73515319824219,90.52659606933594,-45.5167236328125
234050,0.0330657958984375,0.8410186767578125,0.5604248046875,-0.97783100605011,2.569265365600586,0.0245663300156593,63.53230285644531,90.40121459960938,-44.88023376464844
234051,-0.1258544921875,0.83917236328125,0.5682373046875,-1.004965901374817,2.645882368087769,-0.1341237127780914,65.37925720214844,90.80624389648438,-43.67134094238281
234052,-0.26983642578125,0.8540802001953125,0.5590362548828125,-1.011864900588989,2.799823760986328,-0.2022580355405807,66.27006530761719,91.0542449951172,-42.750732421875
234053,-0.3832550048828125,0.9088897705078124,0.449310302734375,-1.025585412979126,2.80837607383728,-0.2769519686698914,67.01445007324219,91.56504821777344,-41.89468383789062
234054,-0.487518310546875,1.010910034179688,0.2956695556640625,-1.104295134544373,2.444941759109497,-0.4241534173488617,67.76216125488281,91.87823486328124,-41.05888366699219
234055,-0.5518341064453125,1.0775146484375,0.235992431640625,-1.260324954986572,1.905253648757935,-0.622545063495636,68.23733520507812,92.2806396484375,-40.29130554199219
234056,-0.5518341064453125,1.0775146484375,0.235992431640625,-1.260324954986572,1.905253648757935,-0.622545063495636,68.23733520507812,92.2806396484375,-40.29130554199219
234057,-0.519683837890625,1.081985473632812,0.292572021484375,-1.648668527603149,1.139754891395569,-0.8331699371337891,68.66116333007812,93.45915222167967,-38.48760986328125
234058,-0.408416748046875,0.9994354248046876,0.289093017578125,-1.719539165496826,1.013170599937439,-0.6994014978408813,68.52130126953125,94.07525634765624,-37.61824035644531
234059,-0.2449188232421875,0.9327239990234376,0.249603271484375,-1.664133429527283,1.011254191398621,-0.5703337788581848,68.37939453125,94.53736877441406,-36.69664001464844
234060,-0.2449188232421875,0.9327239990234376,0.249603271484375,-1.664133429527283,1.011254191398621,-0.5703337788581848,68.37939453125,94.53736877441406,-36.69664001464844
234061,-0.03594970703125,0.9575347900390624,0.17779541015625,-1.367512941360474,0.5544043779373169,-0.498918205499649,68.23829650878906,95.38957214355467,-35.05741882324219
234062,0.016265869140625,1.025665283203125,0.1618194580078125,-1.343263506889343,0.2221766114234924,-0.4557419717311859,68.14224243164062,95.49302673339844,-34.43360900878906
234063,0.0593109130859375,1.0843505859375,0.1564788818359375,-1.417735695838928,-0.1560212969779968,-0.4440706670284271,67.98835754394531,95.58831787109376,-33.90493774414062
234064,0.0593109130859375,1.0843505859375,0.1564788818359375,-1.417735695838928,-0.1560212969779968,-0.4440706670284271,67.98835754394531,95.58831787109376,-33.90493774414062
234065,0.15869140625,1.207168579101562,0.277313232421875,-1.6868497133255,-0.908480942249298,-0.5852160453796387,67.59783935546875,95.97723388671876,-32.71983337402344
234066,0.173980712890625,1.289886474609375,0.485504150390625,-1.628164291381836,-0.8083063960075378,-0.7037496566772461,67.07307434082031,96.37623596191406,-32.14849853515625
234067,0.0697784423828125,1.293411254882812,0.589019775390625,-1.374696254730225,-0.0099948430433869,-0.7308355569839478,66.41986083984375,96.76869201660156,-31.55888366699219
234068,0.0697784423828125,1.293411254882812,0.589019775390625,-1.374696254730225,-0.0099948430433869,-0.7308355569839478,66.41986083984375,96.76869201660156,-31.55888366699219
234069,-0.1381683349609375,1.306854248046875,-0.2674102783203125,-0.4240149259567261,0.9960464835166932,-0.814932107925415,65.48835754394531,97.58171081542967,-30.44801330566406
234070,-0.259246826171875,1.3199462890625,-0.6604156494140625,0.3375119864940643,-0.062478557229042,-1.095364332199097,65.10458374023438,97.97044372558594,-29.96168518066406
234071,-0.371795654296875,1.19488525390625,-0.2754974365234375,0.8865817785263062,-0.5863223671913147,-1.295098423957825,64.72688293457031,98.23249816894533,-29.83955383300781
234072,-0.546630859375,1.012802124023438,-0.0255889892578125,0.9609587788581848,0.5501808524131775,-0.6326618790626526,64.09048461914062,98.43052673339844,-30.2213134765625
234073,-0.6437835693359375,0.9008331298828124,-0.3019866943359375,0.7461000084877014,0.4215957224369049,-0.2176795899868011,63.35418701171875,98.65528869628906,-30.84349060058594
234074,-0.3727569580078125,0.9796905517578124,-0.5421295166015625,0.5811187624931335,0.1775766462087631,-0.0652309358119964,62.74588012695312,98.65419006347656,-31.26719665527344
234075,-0.0577392578125,1.051467895507812,-0.4395599365234375,0.5811187624931335,0.1775766462087631,-0.0652309358119964,62.47941589355469,98.70974731445312,-31.54180908203125
234076,0.1200714111328125,0.96990966796875,-0.3307342529296875,0.5644662976264954,0.0175339858978986,0.0941078588366508,62.38551330566406,98.52976989746094,-31.64459228515625
234077,0.212615966796875,0.9505767822265624,-0.2886199951171875,0.6218196153640747,-0.1664236038923264,0.2571630775928497,62.3443603515625,98.33348083496094,-31.79905700683594
234078,0.274139404296875,0.9999237060546876,-0.3361053466796875,0.6963870525360107,-0.4453332722187042,0.3438372611999512,62.36956787109375,98.39674377441406,-32.07386779785156
234079,0.3177337646484375,1.038818359375,-0.4146270751953125,0.761509358882904,-0.7780166864395142,0.3434865176677704,62.4224853515625,98.33689880371094,-32.58808898925781
234080,0.3177337646484375,1.038818359375,-0.4146270751953125,0.761509358882904,-0.7780166864395142,0.3434865176677704,62.4224853515625,98.33689880371094,-32.58808898925781
234081,0.280242919921875,0.9711761474609376,-0.451019287109375,0.8254126906394958,-0.8005816340446472,0.1587414443492889,62.32388305664062,98.02735900878906,-33.35694885253906
234082,0.280242919921875,0.9711761474609376,-0.451019287109375,0.8254126906394958,-0.8005816340446472,0.1587414443492889,62.32388305664062,98.02735900878906,-33.35694885253906
234083,0.1226806640625,0.8790740966796875,-0.4585113525390625,0.81793212890625,-0.6915802955627441,0.0798239931464195,62.28315734863281,97.72714233398438,-33.78005981445312
234084,-0.081207275390625,0.8527374267578125,-0.220703125,0.7688266634941101,-0.6164836883544922,0.1494944095611572,62.14569091796875,97.45260620117188,-34.60548400878906
234085,-0.1171417236328125,0.89990234375,-0.1102752685546875,0.7324206829071045,-0.4937463402748108,0.1554519087076187,62.08775329589844,97.26571655273438,-35.09806823730469
234086,-0.144989013671875,0.9680938720703124,0.0165863037109375,0.6778450608253479,-0.2718719840049744,0.1369658410549164,62.05497741699219,97.0932159423828,-35.3626708984375
234087,-0.1573333740234375,1.06573486328125,0.135406494140625,0.5878691077232361,0.0873570069670677,0.0903573259711265,62.04441833496094,96.90353393554688,-35.88191223144531
234088,-0.1778411865234375,1.151626586914062,0.2021636962890625,0.4852993190288544,0.4615393877029419,0.0130910342559218,62.1173095703125,96.94309997558594,-36.14701843261719
234089,-0.20709228515625,1.201126098632812,0.2739715576171875,0.3730920851230621,0.8347913026809692,-0.0784758999943733,62.20489501953125,96.70208740234376,-36.33029174804688
234090,-0.2471771240234375,1.2117919921875,0.3346710205078125,0.2557111382484436,1.190928936004639,-0.1739526242017746,62.49931335449219,96.5776824951172,-36.58100891113281
234091,-0.2918548583984375,1.179092407226562,0.3565216064453125,0.1709179431200027,1.463077306747437,-0.2657978534698486,62.71145629882812,96.46075439453124,-36.55703735351562
234092,-0.2918548583984375,1.179092407226562,0.3565216064453125,0.1709179431200027,1.463077306747437,-0.2657978534698486,62.71145629882812,96.46075439453124,-36.55703735351562
234093,-0.41064453125,0.947723388671875,0.276824951171875,0.2651757299900055,1.29592752456665,-0.3195369839668274,63.32951354980469,96.46975708007812,-36.39749145507812
234094,-0.43292236328125,0.794189453125,0.24627685546875,0.3644232451915741,0.962587594985962,-0.2541864812374115,63.58213806152344,96.27761840820312,-36.23143005371094
234095,-0.448944091796875,0.68096923828125,0.2454986572265625,0.4262884557247162,0.6405531167984009,-0.1811570078134537,63.82644653320312,96.19390869140624,-36.2764892578125
234096,-0.448944091796875,0.68096923828125,0.2454986572265625,0.4262884557247162,0.6405531167984009,-0.1811570078134537,63.82644653320312,96.19390869140624,-36.2764892578125
234097,-0.4612274169921875,0.5428619384765625,0.278564453125,0.2080594599246979,0.2958359122276306,-0.1999725103378296,64.25736999511719,96.26150512695312,-36.46205139160156
234098,-0.4707489013671875,0.4718170166015625,0.2729339599609375,-0.0529769323766231,0.2680945694446564,-0.2585013210773468,64.22329711914062,96.24859619140624,-36.56906127929688
234099,-0.478363037109375,0.414703369140625,0.230499267578125,-0.3336054086685181,0.224023774266243,-0.3067245185375214,64.18405151367188,96.40060424804688,-36.6749267578125
234100,-0.478363037109375,0.414703369140625,0.230499267578125,-0.3336054086685181,0.224023774266243,-0.3067245185375214,64.18405151367188,96.40060424804688,-36.6749267578125
234101,-0.454376220703125,0.4774322509765625,0.1369781494140625,-0.765861451625824,-0.0552685819566249,-0.321657657623291,64.03500366210938,96.60244750976562,-36.46086120605469
234102,-0.4105072021484375,0.618133544921875,0.0987091064453125,-0.8802309036254883,-0.3263578712940216,-0.3737866282463074,63.98202514648438,96.7996063232422,-36.20144653320312
234103,-0.40087890625,0.753173828125,0.0754852294921875,-0.9460434913635254,-0.6330826282501221,-0.4415355920791626,63.84365844726562,97.02972412109376,-35.78056335449219
234104,-0.40087890625,0.753173828125,0.0754852294921875,-0.9460434913635254,-0.6330826282501221,-0.4415355920791626,63.84365844726562,97.02972412109376,-35.78056335449219
234105,-0.2290496826171875,0.986572265625,-0.048553466796875,-0.963923454284668,-1.369542598724365,-0.4767111539840698,63.24171447753906,97.598388671875,-35.04161071777344
234106,-0.11309814453125,1.068313598632812,-0.086334228515625,-0.947630763053894,-1.548848152160645,-0.3889661133289337,62.75172424316406,97.76995849609376,-34.80264282226562
234107,-0.0197601318359375,1.131240844726562,-0.1062774658203125,-0.879659116268158,-1.350372910499573,-0.1952754855155945,62.4095458984375,97.982666015625,-34.74334716796875
234108,-0.0197601318359375,1.131240844726562,-0.1062774658203125,-0.879659116268158,-1.350372910499573,-0.1952754855155945,62.4095458984375,97.982666015625,-34.74334716796875
234109,0.1303558349609375,1.183319091796875,0.0398101806640625,-0.5159861445426941,-1.202017426490784,0.0777837410569191,61.54435729980469,98.24534606933594,-34.31880187988281
234110,0.1732025146484375,1.223953247070312,0.205413818359375,-0.4629921615123749,-1.115222692489624,0.2506758868694305,61.28202819824219,98.25633239746094,-34.1351318359375
234111,0.1217193603515625,1.329986572265625,0.336273193359375,-0.5733279585838318,-0.4166449010372162,0.024900022894144,61.01277160644531,98.2147216796875,-33.96574401855469
234112,0.1217193603515625,1.329986572265625,0.336273193359375,-0.5733279585838318,-0.4166449010372162,0.024900022894144,61.01277160644531,98.2147216796875,-33.96574401855469
234113,-0.1211700439453125,1.334503173828125,0.174774169921875,-0.5377806425094604,-0.2558275163173676,-0.1556159555912018,60.84906005859375,98.33956909179688,-33.52574157714844
234114,-0.226806640625,1.346481323242188,0.035125732421875,-0.4212106168270111,-0.4117502570152283,-0.2449857890605927,60.77714538574219,98.58268737792967,-33.29962158203125
234115,-0.248382568359375,1.388381958007812,0.0432281494140625,-0.3343801200389862,-0.7595686912536621,-0.2437740415334702,60.63511657714844,98.704345703125,-33.00323486328125
234116,-0.248382568359375,1.388381958007812,0.0432281494140625,-0.3343801200389862,-0.7595686912536621,-0.2437740415334702,60.63511657714844,98.704345703125,-33.00323486328125
234117,-0.1054229736328125,1.48199462890625,0.260467529296875,-0.5005406141281128,-0.8302785754203796,-0.0123943518847227,60.27615356445312,98.8743133544922,-32.91400146484375
234118,0.0024566650390625,1.519241333007812,0.28729248046875,-0.6367455720901489,-0.7941945791244507,0.1050166934728622,60.09359741210938,98.85377502441406,-32.80537414550781
234119,0.0490570068359375,1.5394287109375,0.2970123291015625,-0.5441818237304688,-0.4570876657962799,0.1881965398788452,59.88450622558594,99.04286193847656,-32.79951477050781
234120,0.0490570068359375,1.5394287109375,0.2970123291015625,-0.5441818237304688,-0.4570876657962799,0.1881965398788452,59.88450622558594,99.04286193847656,-32.79951477050781
234121,0.050018310546875,1.483840942382812,0.12713623046875,-0.3004509210586548,-0.2879116833209991,0.1761124432086945,59.62178039550781,99.3421630859375,-32.22616577148438
234122,0.0118255615234375,1.413497924804688,0.0773773193359375,-0.0423594415187835,-0.1950080990791321,0.1780805140733719,59.69194030761719,99.40916442871094,-32.097412109375
234123,-0.0236968994140625,1.331680297851562,0.0937652587890625,0.1473713368177414,-0.1140480116009712,0.198918417096138,59.77497863769531,99.4538116455078,-31.86250305175781
234124,-0.0236968994140625,1.331680297851562,0.0937652587890625,0.1473713368177414,-0.1140480116009712,0.198918417096138,59.77497863769531,99.4538116455078,-31.86250305175781
234125,-0.005157470703125,1.152145385742188,0.0844573974609375,0.2433689832687378,0.010267817415297,0.2619194984436035,59.97674560546875,99.4395751953125,-31.78216552734375
234126,0.0286712646484375,1.0684814453125,0.0601806640625,0.27402064204216,0.0364211238920688,0.279141902923584,60.01698303222656,99.4281005859375,-31.86775207519531
234127,0.0583953857421875,1.008758544921875,0.0517120361328125,0.3211540579795837,0.0567080192267894,0.2876386940479279,60.17192077636719,99.26805114746094,-32.07475280761719
234128,0.0583953857421875,1.008758544921875,0.0517120361328125,0.3211540579795837,0.0567080192267894,0.2876386940479279,60.17192077636719,99.26805114746094,-32.07475280761719
234129,0.0866241455078125,0.908355712890625,0.091278076171875,0.3610564768314362,0.1248724237084389,0.2829203903675079,60.45742797851562,99.09909057617188,-32.33203125
234130,0.0797271728515625,0.8780364990234375,0.1110382080078125,0.3301736414432526,0.1861054301261902,0.2584187686443329,60.66166687011719,99.00558471679688,-32.53591918945312
234131,0.0567626953125,0.8640899658203125,0.128936767578125,0.2141671478748322,0.3279397785663605,0.1714537739753723,60.75820922851562,98.88824462890624,-32.66508483886719
234132,0.0567626953125,0.8640899658203125,0.128936767578125,0.2141671478748322,0.3279397785663605,0.1714537739753723,60.75820922851562,98.88824462890624,-32.66508483886719
234133,-0.0364837646484375,0.8701324462890625,0.167449951171875,0.155019149184227,0.3912497758865356,0.1044062972068787,61.01473999023438,98.742919921875,-32.79354858398438
234134,-0.08599853515625,0.8702239990234375,0.1950531005859375,0.1084045022726059,0.4348364174365997,0.0411793962121009,61.19595336914062,98.7174072265625,-32.88876342773438
234135,-0.1275177001953125,0.864654541015625,0.2215576171875,0.0743732973933219,0.4634073376655579,-0.0261993799358606,61.35621643066406,98.713134765625,-32.92332458496094
234136,-0.1275177001953125,0.864654541015625,0.2215576171875,0.0743732973933219,0.4634073376655579,-0.0261993799358606,61.35621643066406,98.713134765625,-32.92332458496094
234137,-0.1500701904296875,0.8311309814453125,0.23431396484375,0.0365375056862831,0.4327892363071442,-0.0884443745017051,61.52839660644531,98.75474548339844,-33.13136291503906
234138,-0.1224517822265625,0.7977447509765625,0.2385406494140625,0.0462130345404148,0.3488645255565643,-0.107575461268425,61.5479736328125,98.83238220214844,-33.04310607910156
234139,-0.0830841064453125,0.7722320556640625,0.2604522705078125,0.0579269491136074,0.263604462146759,-0.1138786301016808,61.53968811035156,98.80398559570312,-32.95664978027344
234140,-0.0830841064453125,0.7722320556640625,0.2604522705078125,0.0579269491136074,0.263604462146759,-0.1138786301016808,61.53968811035156,98.80398559570312,-32.95664978027344
234141,-0.0217742919921875,0.77191162109375,0.1969451904296875,0.0296569615602493,0.110323041677475,-0.111233577132225,61.66667175292969,98.74917602539062,-32.86677551269531
234142,-0.0110321044921875,0.779815673828125,0.1344146728515625,0.0399585999548435,-0.035495676100254,-0.1048007160425186,61.6549072265625,98.61959838867188,-32.73684692382812
234143,0.0041656494140625,0.7743988037109375,0.1041107177734375,0.1210478618741035,-0.2175080925226212,-0.0819017887115478,61.54032897949219,98.7531280517578,-32.85873413085938
234144,0.0041656494140625,0.7743988037109375,0.1041107177734375,0.1210478618741035,-0.2175080925226212,-0.0819017887115478,61.54032897949219,98.7531280517578,-32.85873413085938
234145,0.00543212890625,0.7724761962890625,0.066375732421875,0.1476930528879166,-0.2112536579370499,-0.0909149944782257,61.37394714355469,98.51573181152344,-32.98487854003906
234146,-0.01385498046875,0.7769775390625,0.0466156005859375,0.1471609473228455,-0.1625564247369766,-0.1172991991043091,61.27459716796875,98.61753845214844,-32.96139526367188
234147,-0.0474090576171875,0.7793731689453125,0.0240020751953125,0.1220915541052818,-0.0964519679546356,-0.1341008096933365,61.22158813476562,98.73316955566406,-33.19808959960938
234148,-0.0474090576171875,0.7793731689453125,0.0240020751953125,0.1220915541052818,-0.0964519679546356,-0.1341008096933365,61.22158813476562,98.73316955566406,-33.19808959960938
234149,-0.10833740234375,0.8240966796875,0.0016632080078125,0.0413365215063095,-0.028727252036333,-0.1627087593078613,61.01496887207031,98.69918823242188,-33.1842041015625
234150,-0.1208648681640625,0.8526763916015625,0.019317626953125,0.0278097931295633,-0.0264467876404523,-0.1950642913579941,60.97373962402344,98.57472229003906,-33.14552307128906
234151,-0.1251678466796875,0.8769989013671875,0.0516510009765625,0.046848464757204,0.0539021119475364,-0.2445721924304962,60.95060729980469,98.59637451171876,-33.25790405273438
234152,-0.1251678466796875,0.8769989013671875,0.0516510009765625,0.046848464757204,0.0539021119475364,-0.2445721924304962,60.95060729980469,98.59637451171876,-33.25790405273438
234153,-0.13330078125,0.915496826171875,0.1116943359375,0.0581999234855175,0.0993910357356071,-0.2651648223400116,60.68724060058594,98.74131774902344,-33.2103271484375
234154,-0.1425628662109375,0.9266357421875,0.1387176513671875,0.0584816858172416,0.1293952763080597,-0.2820130586624146,60.701904296875,98.6279754638672,-33.26405334472656
234155,-0.1582794189453125,0.9301910400390624,0.1504974365234375,0.0504397377371788,0.1331745684146881,-0.2862999439239502,60.49822998046875,98.830078125,-33.27067565917969
234156,-0.1582794189453125,0.9301910400390624,0.1504974365234375,0.0504397377371788,0.1331745684146881,-0.2862999439239502,60.49822998046875,98.830078125,-33.27067565917969
234157,-0.1924591064453125,0.950714111328125,0.1196746826171875,0.005977464839816,0.0555767081677913,-0.2704948782920837,60.26626586914062,98.97506713867188,-33.42266845703125
234158,-0.1934661865234375,0.96600341796875,0.09417724609375,-0.0162269063293933,-0.0027390611357986,-0.2526668608188629,60.09622192382812,98.9291534423828,-33.29275512695312
234159,-0.1847991943359375,0.9898529052734376,0.0715789794921875,-0.0211817175149917,-0.0689548328518867,-0.2350596487522125,60.05818176269531,99.04158020019533,-33.21595764160156
234160,-0.1847991943359375,0.9898529052734376,0.0715789794921875,-0.0211817175149917,-0.0689548328518867,-0.2350596487522125,60.05818176269531,99.04158020019533,-33.21595764160156
234161,-0.153350830078125,1.009719848632812,0.0695953369140625,0.0201651901006698,-0.1552814692258835,-0.1978614181280136,59.83268737792969,99.05953979492188,-33.16351318359375
234162,-0.13128662109375,1.015731811523438,0.0915985107421875,0.0322953537106514,-0.1202803403139114,-0.18445985019207,59.7562255859375,99.14572143554688,-33.18229675292969
234163,-0.1124420166015625,1.0101318359375,0.110015869140625,0.0267160329967737,-0.0809105634689331,-0.1685682386159897,59.591552734375,99.2606201171875,-33.2088623046875
234164,-0.1124420166015625,1.0101318359375,0.110015869140625,0.0267160329967737,-0.0809105634689331,-0.1685682386159897,59.591552734375,99.2606201171875,-33.2088623046875
234165,-0.107330322265625,1.012649536132812,0.1237945556640625,-0.0099604884162545,-0.0143738789483904,-0.1113345101475716,59.30674743652344,99.30052185058594,-33.212646484375
234166,-0.107330322265625,1.012649536132812,0.1237945556640625,-0.0099604884162545,-0.0143738789483904,-0.1113345101475716,59.30674743652344,99.30052185058594,-33.212646484375
234167,-0.1143035888671875,1.024246215820312,0.1040191650390625,-0.0478314384818077,-0.0102382563054561,-0.0903858244419097,59.22801208496094,99.29876708984376,-33.2340087890625
234168,-0.1200714111328125,1.029220581054688,0.0881500244140625,-0.0675612017512321,-0.0017630126094445,-0.0733506456017494,59.17929077148438,99.37995910644533,-33.30183410644531
234169,-0.119049072265625,1.032257080078125,0.0439910888671875,-0.0666677132248878,0.0347190983593463,-0.0448452346026897,59.08674621582031,99.33328247070312,-33.23466491699219
234170,-0.118377685546875,1.040725708007812,0.0344696044921875,-0.0576398596167564,0.0472444780170917,-0.0291706677526235,59.039306640625,99.46037292480467,-33.20002746582031
234171,-0.1114349365234375,1.05078125,0.0364227294921875,-0.0434830300509929,0.0552086606621742,-0.0296756029129028,59.07760620117188,99.40315246582033,-33.08116149902344
234172,-0.10577392578125,1.057815551757812,0.051513671875,-0.036037627607584,0.0771070346236228,-0.0269722286611795,58.978759765625,99.43556213378906,-33.10859680175781
234173,-0.1038970947265625,1.069778442382812,0.059295654296875,-0.0600167326629161,0.1154411062598228,-0.0475550033152103,58.95991516113281,99.47593688964844,-32.98426818847656
234174,-0.1038970947265625,1.069778442382812,0.059295654296875,-0.0600167326629161,0.1154411062598228,-0.0475550033152103,58.95991516113281,99.47593688964844,-32.98426818847656
234175,-0.1038970947265625,1.106155395507812,0.0478057861328125,-0.0840461701154708,0.1021455451846123,-0.0590843595564365,59.02117919921875,99.39939880371094,-32.86589050292969
234176,-0.09521484375,1.129974365234375,0.0179901123046875,-0.0914859771728515,0.0061250040307641,-0.0617419257760047,58.98751831054688,99.44807434082033,-32.70881652832031
234177,-0.075347900390625,1.1365966796875,-0.007080078125,-0.0914859771728515,0.0061250040307641,-0.0617419257760047,59.00807189941406,99.4267578125,-32.44462585449219
234178,-0.058868408203125,1.132965087890625,-0.0134735107421875,-0.0609032995998859,-0.010979413986206,-0.0429370813071727,58.99256896972656,99.4112548828125,-32.35272216796875
234179,-0.05743408203125,1.119796752929688,-0.0102996826171875,-0.0208679977804422,0.016197346150875,-0.0066682891920208,58.97256469726562,99.4589385986328,-32.31416320800781
234180,-0.05743408203125,1.119796752929688,-0.0102996826171875,-0.0208679977804422,0.016197346150875,-0.0066682891920208,58.97256469726562,99.4589385986328,-32.31416320800781
234181,-0.0959014892578125,1.04034423828125,-0.043731689453125,0.0275456067174673,0.0709553956985473,0.0480191893875598,58.89836120605469,99.63819885253906,-32.48672485351562
234182,-0.1094970703125,0.9964447021484376,-0.0797882080078125,0.0259053669869899,0.1008461862802505,0.068709023296833,58.82246398925781,99.59158325195312,-32.35781860351562
234183,-0.1153106689453125,0.954498291015625,-0.1185455322265625,0.0218565631657838,0.1347205340862274,0.095141164958477,58.86578369140625,99.57144165039062,-32.47853088378906
234184,-0.1153106689453125,0.954498291015625,-0.1185455322265625,0.0218565631657838,0.1347205340862274,0.095141164958477,58.86578369140625,99.57144165039062,-32.47853088378906
234185,-0.1213836669921875,0.8858795166015625,-0.122100830078125,0.0249367747455835,0.2709353566169739,0.1642611175775528,58.85537719726562,99.51657104492188,-32.57704162597656
234186,-0.10888671875,0.85546875,-0.1297149658203125,0.0260329321026802,0.3371916115283966,0.1983860582113266,58.99440002441406,99.59407043457033,-32.62855529785156
234187,-0.08251953125,0.834503173828125,-0.1367645263671875,0.0317110568284988,0.406017541885376,0.2619815468788147,59.01988220214844,99.51252746582033,-32.60159301757812
234188,-0.08251953125,0.834503173828125,-0.1367645263671875,0.0317110568284988,0.406017541885376,0.2619815468788147,59.01988220214844,99.51252746582033,-32.60159301757812
234189,-0.01873779296875,0.8403778076171875,-0.1257476806640625,0.024761538952589,0.4264466464519501,0.2853600978851318,59.34487915039062,99.40699768066406,-32.55755615234375
234190,0.012542724609375,0.8728790283203125,-0.11627197265625,0.006876281928271,0.4429135024547577,0.2908201217651367,59.55381774902344,99.41305541992188,-32.44526672363281
234191,0.0341033935546875,0.941558837890625,-0.0867919921875,-0.0219124890863895,0.4669916927814484,0.2899681627750397,59.80140686035156,99.35906982421876,-32.48403930664062
234192,0.0341033935546875,0.941558837890625,-0.0867919921875,-0.0219124890863895,0.4669916927814484,0.2899681627750397,59.80140686035156,99.35906982421876,-32.48403930664062
234193,-0.0007781982421875,1.135116577148438,-0.00347900390625,-0.1227546781301498,0.4828412234783173,0.2166036814451218,60.11245727539062,99.3087158203125,-32.46946716308594
234194,-0.031402587890625,1.218017578125,0.0305023193359375,-0.1709448397159576,0.4553145170211792,0.156158447265625,60.3134765625,99.3133544921875,-32.25624084472656
234195,-0.0552215576171875,1.280197143554688,0.064544677734375,-0.1997751593589783,0.4236551225185394,0.0766945108771324,60.43963623046875,99.2298583984375,-32.22299194335938
234196,-0.0552215576171875,1.280197143554688,0.064544677734375,-0.1997751593589783,0.4236551225185394,0.0766945108771324,60.43963623046875,99.2298583984375,-32.22299194335938
234197,-0.1080474853515625,1.319198608398438,0.118255615234375,-0.2136193364858627,0.3198991715908051,-0.0528389811515808,60.72352600097656,99.31214904785156,-32.00413513183594
234198,-0.1080474853515625,1.319198608398438,0.118255615234375,-0.2136193364858627,0.3198991715908051,-0.0528389811515808,60.72352600097656,99.31214904785156,-32.00413513183594
234199,-0.157501220703125,1.205474853515625,0.129730224609375,-0.0951845720410347,0.2194700390100479,-0.0549846887588501,60.80097961425781,99.4197235107422,-31.72450256347656
234200,-0.17108154296875,1.12353515625,0.1025238037109375,-0.0951845720410347,0.2194700390100479,-0.0549846887588501,60.78997802734375,99.45335388183594,-31.56178283691406
234201,-0.1751556396484375,1.062026977539062,0.07720947265625,-0.0717828422784805,0.1715001165866852,-0.0306026507169008,60.76716613769531,99.48638916015624,-31.47451782226562
234202,-0.1751556396484375,1.062026977539062,0.07720947265625,-0.0717828422784805,0.1715001165866852,-0.0306026507169008,60.76716613769531,99.48638916015624,-31.47451782226562
234203,-0.16265869140625,0.99993896484375,0.0514678955078125,-0.1015604436397552,0.1136149764060974,0.0011859056539833,60.70878601074219,99.63629150390624,-31.43499755859375
234204,-0.1381683349609375,0.991302490234375,0.0241241455078125,-0.1056707724928856,0.0946380943059921,0.0153043875470757,60.81300354003906,99.70774841308594,-31.36917114257812
234205,-0.09796142578125,0.989776611328125,-0.0221099853515625,-0.0796679332852363,0.0665981993079185,0.0290063507854938,60.81106567382812,99.71110534667967,-31.29789733886719
234206,-0.050933837890625,0.984954833984375,-0.059295654296875,-0.0401538126170635,0.0411205403506755,0.0387460626661777,60.87855529785156,99.73005676269533,-31.25398254394531
234207,-0.01129150390625,0.9703826904296876,-0.070709228515625,-0.0016271914355456,-0.0428249612450599,0.0500080399215221,60.89907836914062,99.63677978515624,-31.15957641601562
234208,-0.01129150390625,0.9703826904296876,-0.070709228515625,-0.0016271914355456,-0.0428249612450599,0.0500080399215221,60.89907836914062,99.63677978515624,-31.15957641601562
234209,0.0362548828125,0.9380950927734376,-0.055145263671875,0.0025923210196197,-0.1162815988063812,0.0435599945485591,60.86642456054688,99.70098876953124,-31.29914855957031
234210,0.0505218505859375,0.925628662109375,-0.055084228515625,0.0025923210196197,-0.1162815988063812,0.0435599945485591,60.84419250488281,99.57235717773438,-31.17558288574219
234211,0.052703857421875,0.9203948974609376,-0.05743408203125,0.0079569928348064,-0.1430069506168365,0.0410741977393627,60.81326293945312,99.48794555664062,-31.08396911621094
234212,0.052703857421875,0.9203948974609376,-0.05743408203125,0.0079569928348064,-0.1430069506168365,0.0410741977393627,60.81326293945312,99.48794555664062,-31.08396911621094
234213,0.0335540771484375,0.9219970703125,-0.0411224365234375,0.022840067744255,-0.1736857742071152,0.037493847310543,60.92576599121094,99.48573303222656,-31.0643310546875
234214,0.0126953125,0.923126220703125,-0.031524658203125,0.0370863825082778,-0.1708537638187408,0.0435267053544521,60.95231628417969,99.4818115234375,-31.04791259765625
234215,-0.0067291259765625,0.9248809814453124,-0.0232086181640625,0.0508179068565368,-0.1651556640863419,0.0456321984529495,60.91947937011719,99.55686950683594,-31.10118103027344
234216,-0.0269622802734375,0.925933837890625,-0.0045013427734375,0.0697745531797409,-0.1457193791866302,0.0533974431455135,60.89537048339844,99.4324188232422,-31.14451599121094
234217,-0.050323486328125,0.9288787841796876,0.0209197998046875,0.0782825574278831,-0.1215687766671181,0.0600689277052879,60.85972595214844,99.44451904296876,-31.23550415039062
234218,-0.072021484375,0.9321136474609376,0.041748046875,0.0771230161190033,-0.1054502576589584,0.0674461498856544,60.99128723144531,99.44662475585938,-31.35710144042969
234219,-0.091400146484375,0.938751220703125,0.0609130859375,0.0700682997703552,-0.0872076079249382,0.0675675943493843,60.98675537109375,99.46632385253906,-31.48196411132812
234220,-0.091400146484375,0.938751220703125,0.0609130859375,0.0700682997703552,-0.0872076079249382,0.0675675943493843,60.98675537109375,99.46632385253906,-31.48196411132812
234221,-0.120880126953125,0.9618377685546876,0.09185791015625,0.0241213142871856,-0.0081151844933629,0.0317792333662509,61.02178955078125,99.4061279296875,-31.48916625976562
234222,-0.13006591796875,0.973968505859375,0.1014862060546875,0.0241213142871856,-0.0081151844933629,0.0317792333662509,61.05093383789062,99.41419982910156,-31.55189514160156
234223,-0.1339874267578125,0.981597900390625,0.1085205078125,0.0129863722249865,0.0205588042736053,0.0196064580231905,61.05522155761719,99.4600830078125,-31.56744384765625
234224,-0.137664794921875,0.9838409423828124,0.11700439453125,0.0010394317796453,0.0470785610377788,0.010938667692244,61.08692932128906,99.55905151367188,-31.68571472167969
234225,-0.1364288330078125,0.981719970703125,0.123504638671875,0.0001294296234846,0.0708978772163391,0.0114752948284149,61.1688232421875,99.61930847167967,-31.67950439453125
234226,-0.135650634765625,0.982666015625,0.1285858154296875,-0.0010098706698045,0.1029279828071594,0.0214600190520286,61.13729858398438,99.53900146484376,-31.66398620605469
234227,-0.1335296630859375,0.97235107421875,0.12139892578125,0.0064626927487552,0.1226223185658455,0.0214307233691215,61.21881103515625,99.40513610839844,-31.52401733398438
234228,-0.12969970703125,0.958984375,0.1026458740234375,0.0128300450742244,0.1563651114702225,0.0316801667213439,61.22764587402344,99.49229431152344,-31.55604553222656
234229,-0.1248779296875,0.951904296875,0.0768280029296875,0.024286963045597,0.1776331067085266,0.0491747371852397,61.26806640625,99.43479919433594,-31.40110778808594
234230,-0.1147918701171875,0.95001220703125,0.0641632080078125,0.0478732511401176,0.1899387836456299,0.0676818415522575,61.37620544433594,99.3743133544922,-31.49263000488281
234231,-0.096405029296875,0.951751708984375,0.0423583984375,0.0780029222369194,0.1607073843479156,0.0902739688754081,61.37814331054688,99.46484375,-31.44140625
234232,-0.0687408447265625,0.9605255126953124,0.002532958984375,0.0780029222369194,0.1607073843479156,0.0902739688754081,61.47883605957031,99.54937744140624,-31.57376098632812
234233,-0.034820556640625,0.9678955078125,-0.0320892333984375,0.0991942286491394,0.1291252225637436,0.0981231033802032,61.43574523925781,99.44500732421876,-31.44027709960938
234234,-0.034820556640625,0.9678955078125,-0.0320892333984375,0.0991942286491394,0.1291252225637436,0.0981231033802032,61.43574523925781,99.44500732421876,-31.44027709960938
234235,-0.0048828125,0.9719085693359376,-0.06060791015625,0.1233491003513336,0.1294091194868088,0.0971220210194587,61.49833679199219,99.52297973632812,-31.53834533691406
234236,0.001556396484375,0.9668121337890624,-0.0748138427734375,0.1233491003513336,0.1294091194868088,0.0971220210194587,61.51518249511719,99.55686950683594,-31.52525329589844
234237,0.005828857421875,0.96527099609375,-0.0891265869140625,0.1016304865479469,0.1277766078710556,0.0789012089371681,61.6495361328125,99.4613037109375,-31.5704345703125
234238,0.0121917724609375,0.9781494140625,-0.102264404296875,0.0619062446057796,0.103489376604557,0.0627083852887153,61.67669677734375,99.44778442382812,-31.58274841308594
234239,0.0155181884765625,0.9913177490234376,-0.1138458251953125,0.0259903222322464,0.0763280615210533,0.0568843223154544,61.71444702148438,99.32374572753906,-31.60366821289062
234240,0.0155181884765625,0.9913177490234376,-0.1138458251953125,0.0259903222322464,0.0763280615210533,0.0568843223154544,61.71444702148438,99.32374572753906,-31.60366821289062
234241,0.0061798095703125,1.008575439453125,-0.1105804443359375,0.0088981539011001,0.0274191070348024,0.058244664222002,61.74462890625,99.24037170410156,-31.51629638671875
234242,-0.0054931640625,1.011062622070312,-0.1065216064453125,0.0128417629748582,0.025408687070012,0.0680597424507141,61.88978576660156,99.2893524169922,-31.56694030761719
234243,-0.0146636962890625,1.005172729492188,-0.1020050048828125,0.022326610982418,0.0347997918725013,0.0767975747585296,61.8873291015625,99.29542541503906,-31.56214904785156
234244,-0.0146636962890625,1.005172729492188,-0.1020050048828125,0.022326610982418,0.0347997918725013,0.0767975747585296,61.8873291015625,99.29542541503906,-31.56214904785156
234245,-0.021453857421875,0.9930877685546876,-0.082000732421875,0.0156916119158268,0.0497944541275501,0.0954375714063644,61.94444274902344,99.32847595214844,-31.56570434570312
234246,-0.0162811279296875,0.9928436279296876,-0.0730438232421875,0.0152031872421503,0.0540168955922126,0.1049961894750595,62.008056640625,99.35218811035156,-31.65419006347656
234247,-0.00811767578125,0.996612548828125,-0.0626068115234375,0.0131171336397528,0.0548661798238754,0.1109709888696671,62.064208984375,99.2541046142578,-31.59510803222656
234248,-0.0037689208984375,1.003311157226562,-0.0482330322265625,0.0150971934199333,0.0553154535591602,0.1146821081638336,62.15614318847656,99.13363647460938,-31.65882873535156
234249,-0.0067138671875,1.010635375976562,-0.0338134765625,0.0142785385251045,0.0516136586666107,0.1123816668987274,62.20736694335938,99.21774291992188,-31.67228698730469
234250,-0.0097198486328125,1.015518188476562,-0.0220947265625,0.0136596197262406,0.0502823442220687,0.1079797297716141,62.24887084960938,99.1963348388672,-31.66302490234375
234251,-0.013427734375,1.019805908203125,-0.0148162841796875,0.0104936538264155,0.0450963713228702,0.10294209420681,62.34141540527344,99.17048645019533,-31.76597595214844
234252,-0.01898193359375,1.02215576171875,-0.0070953369140625,0.0032266860362142,0.0433908849954605,0.0991425588726997,62.34194946289062,99.17103576660156,-31.69599914550781
234253,-0.027191162109375,1.0189208984375,-0.00592041015625,-0.0002002697146963,0.0456548370420932,0.0953792482614517,62.42010498046875,99.23033142089844,-31.67111206054688
234254,-0.037200927734375,1.0169677734375,-0.007720947265625,-0.0015108112711459,0.0429586507380008,0.0933017209172248,62.44674682617188,99.26708984375,-31.63697814941406
234255,-0.0418853759765625,1.015411376953125,-0.0089263916015625,-0.0009773800848051,0.035820048302412,0.0891346707940101,62.48503112792969,99.1959991455078,-31.65982055664062
234256,-0.0418853759765625,1.015411376953125,-0.0089263916015625,-0.0009773800848051,0.035820048302412,0.0891346707940101,62.48503112792969,99.1959991455078,-31.65982055664062
234257,-0.0450897216796875,1.01397705078125,-0.0143890380859375,0.0091245220974087,0.033473003655672,0.0794426277279853,62.59196472167969,99.24763488769533,-31.70539855957031
234258,-0.045135498046875,1.017471313476562,-0.018096923828125,0.0120292324572801,0.0292937066406011,0.0713359639048576,62.64425659179688,99.14743041992188,-31.56903076171875
234259,-0.046600341796875,1.022354125976562,-0.0197601318359375,0.0164924245327711,0.0361161939799785,0.0621307492256164,62.60792541503906,99.13931274414062,-31.51170349121094
234260,-0.046600341796875,1.022354125976562,-0.0197601318359375,0.0164924245327711,0.0361161939799785,0.0621307492256164,62.60792541503906,99.13931274414062,-31.51170349121094
234261,-0.049224853515625,1.018966674804688,-0.02471923828125,0.0251775253564119,0.0355790331959724,0.0508980676531791,62.75672912597656,99.12266540527344,-31.4666748046875
234262,-0.049224853515625,1.018966674804688,-0.02471923828125,0.0251775253564119,0.0355790331959724,0.0508980676531791,62.75672912597656,99.12266540527344,-31.4666748046875
234263,-0.0464935302734375,1.012451171875,-0.02947998046875,0.0343632996082305,0.0311957355588674,0.0474801659584045,62.79670715332031,99.03712463378906,-31.55386352539062
234264,-0.0471343994140625,1.008071899414062,-0.0560302734375,0.064188040792942,0.0603144727647304,0.0417024381458759,62.83456420898438,98.9530029296875,-31.68745422363281
234265,-0.053924560546875,1.004806518554688,-0.05877685546875,0.0734742134809494,0.0446835830807685,0.032401081174612,62.85098266601562,98.98918151855467,-31.72857666015625
234266,-0.0558624267578125,1.000503540039062,-0.044891357421875,0.0726220086216926,0.0086078690364956,0.0309813525527715,62.87307739257812,98.94557189941406,-31.71501159667969
234267,-0.052825927734375,0.9874420166015624,-0.02972412109375,0.0767959803342819,-0.0027601001784205,0.0364070087671279,63.06883239746094,98.96649169921876,-31.79769897460938
234268,-0.052825927734375,0.9874420166015624,-0.02972412109375,0.0767959803342819,-0.0027601001784205,0.0364070087671279,63.06883239746094,98.96649169921876,-31.79769897460938
234269,-0.040130615234375,0.9807586669921876,-0.0371856689453125,0.0708017349243164,0.0328053496778011,0.0463826768100261,63.04159545898438,98.83236694335938,-31.75906372070312
234270,-0.03594970703125,0.9860992431640624,-0.0471038818359375,0.0633041411638259,0.0246630012989044,0.0439661256968975,63.14576721191406,98.84831237792967,-31.76007080078125
234271,-0.0324249267578125,0.993804931640625,-0.0476226806640625,0.0571807324886322,0.0025992451701313,0.0351068526506424,63.14219665527344,98.92242431640624,-31.861572265625
234272,-0.0324249267578125,0.993804931640625,-0.0476226806640625,0.0571807324886322,0.0025992451701313,0.0351068526506424,63.14219665527344,98.92242431640624,-31.861572265625
234273,-0.021331787109375,1.007522583007812,-0.0346832275390625,0.0482343733310699,-0.0726385191082954,0.01887515373528,63.17703247070312,98.7575225830078,-31.74537658691406
234274,-0.021331787109375,1.007522583007812,-0.0346832275390625,0.0482343733310699,-0.0726385191082954,0.01887515373528,63.17703247070312,98.7575225830078,-31.74537658691406
234275,-0.0215911865234375,1.012420654296875,-0.03509521484375,0.0424427986145019,-0.09780965000391,0.0234557911753654,63.16159057617188,98.708984375,-31.61343383789062
234276,-0.030609130859375,1.015289306640625,-0.0146942138671875,0.0424427986145019,-0.09780965000391,0.0234557911753654,63.28143310546875,98.73651123046876,-31.58760070800781
234277,-0.0328521728515625,1.027114868164062,-0.0139312744140625,0.0291863810271024,-0.085071749985218,0.0326447635889053,63.37107849121094,98.58528137207033,-31.53817749023438
234278,-0.03350830078125,1.03460693359375,-0.033843994140625,0.0465195663273334,-0.091898500919342,0.030973095446825,63.40144348144531,98.537353515625,-31.62294006347656
234279,-0.0293121337890625,1.016128540039062,-0.009185791015625,0.0839811861515045,-0.0721327811479568,0.0265740863978862,63.29103088378906,98.58088684082033,-31.9766845703125
234280,-0.0293121337890625,1.016128540039062,-0.009185791015625,0.0839811861515045,-0.0721327811479568,0.0265740863978862,63.29103088378906,98.58088684082033,-31.9766845703125
234281,-0.0220184326171875,0.9971923828125,-0.006988525390625,0.1028321087360382,-0.037704236805439,0.0276899505406618,63.25044250488281,98.4890594482422,-31.94392395019531
234282,-0.011199951171875,0.9788818359375,-0.0163421630859375,0.1437087059020996,0.0102438488975167,0.0351265631616115,63.3514404296875,98.48277282714844,-31.92265319824219
234283,-0.00323486328125,0.965576171875,-0.0277099609375,0.1437087059020996,0.0102438488975167,0.0351265631616115,63.24951171875,98.55186462402344,-31.93330383300781
234284,-0.00323486328125,0.965576171875,-0.0277099609375,0.1437087059020996,0.0102438488975167,0.0351265631616115,63.24951171875,98.55186462402344,-31.93330383300781
234285,0.0009918212890625,0.96246337890625,-0.0452728271484375,0.1631138175725937,0.0337393209338188,0.0287128705531358,63.27925109863281,98.48883056640624,-32.13893127441406
234286,0.00091552734375,0.9684906005859376,-0.05413818359375,0.1654163897037506,0.0326032154262065,0.019227223470807,63.33734130859375,98.46435546875,-32.24406433105469
234287,-0.001678466796875,0.977508544921875,-0.0572357177734375,0.1638203561306,0.0307019855827093,0.0079386169090867,63.3740234375,98.36026000976562,-32.2235107421875
234288,-0.00469970703125,0.9849395751953124,-0.0586090087890625,0.1496600657701492,0.0481297113001346,-0.004349741153419,63.42304992675781,98.37081909179688,-32.31280517578125
234289,-0.0075531005859375,0.9899749755859376,-0.0615997314453125,0.1407115757465363,0.058339737355709,-0.0138311274349689,63.42756652832031,98.36685180664062,-32.35960388183594
234290,-0.006927490234375,0.9927825927734376,-0.0643157958984375,0.1356821954250336,0.0634524747729301,-0.0249285195022821,63.41668701171875,98.34963989257812,-32.37406921386719
234291,-0.00872802734375,0.9908905029296876,-0.0610198974609375,0.1337796300649643,0.066234678030014,-0.0403122678399086,63.34037780761719,98.29248046875,-32.50776672363281
234292,-0.00872802734375,0.9908905029296876,-0.0610198974609375,0.1337796300649643,0.066234678030014,-0.0403122678399086,63.34037780761719,98.29248046875,-32.50776672363281
234293,-0.0141448974609375,0.983642578125,-0.053741455078125,0.1252013295888901,0.0872912257909774,-0.0619392693042755,63.42135620117188,98.38839721679688,-32.64060974121094
234294,-0.0182037353515625,0.9772491455078124,-0.052001953125,0.1254625767469406,0.0975944697856903,-0.0669159144163131,63.39617919921875,98.2880859375,-32.66896057128906
234295,-0.0254669189453125,0.9703216552734376,-0.0501251220703125,0.1293774247169495,0.1100585907697678,-0.0639832466840744,63.44650268554688,98.27287292480467,-32.82716369628906
234296,-0.0254669189453125,0.9703216552734376,-0.0501251220703125,0.1293774247169495,0.1100585907697678,-0.0639832466840744,63.44650268554688,98.27287292480467,-32.82716369628906
234297,-0.04486083984375,0.9697418212890624,-0.0547637939453125,0.1355535686016083,0.129693016409874,-0.0637691244482994,63.522216796875,98.20729064941406,-32.85293579101562
234298,-0.05224609375,0.979461669921875,-0.0566864013671875,0.1459095329046249,0.1425997614860535,-0.0504969954490661,63.50184631347656,98.26954650878906,-32.89839172363281
234299,-0.0565185546875,0.9924468994140624,-0.0557403564453125,0.1659716665744781,0.1493135839700699,-0.0395042672753334,63.40016174316406,98.19302368164062,-33.017822265625
234300,-0.0565185546875,0.9924468994140624,-0.0557403564453125,0.1659716665744781,0.1493135839700699,-0.0395042672753334,63.40016174316406,98.19302368164062,-33.017822265625
234301,-0.061737060546875,1.004867553710938,-0.0640869140625,0.1760922074317932,0.1513240039348602,-0.0182927213609218,63.4295654296875,98.2600555419922,-33.252197265625
234302,-0.0572662353515625,1.010894775390625,-0.06817626953125,0.1719145029783249,0.1335293054580688,-0.0110723581165075,63.47117614746094,98.22406005859376,-33.25885009765625
234303,-0.04803466796875,1.003677368164062,-0.06561279296875,0.174909234046936,0.1147244498133659,-0.0102885905653238,63.63037109375,98.193115234375,-33.35557556152344
234304,-0.04803466796875,1.003677368164062,-0.06561279296875,0.174909234046936,0.1147244498133659,-0.0102885905653238,63.63037109375,98.193115234375,-33.35557556152344
234305,-0.026763916015625,0.9920654296875,-0.06201171875,0.1663980334997177,0.114323116838932,-0.0077444724738597,63.58589172363281,98.17529296875,-33.2705078125
234306,-0.02069091796875,0.9929351806640624,-0.064483642578125,0.1569715142250061,0.1155233979225159,-0.0110915331169962,63.51762390136719,98.16709899902344,-33.37393188476562
234307,-0.0236053466796875,0.9968414306640624,-0.0580902099609375,0.1447502672672272,0.1271409094333649,-0.0093098785728216,63.5174560546875,98.22067260742188,-33.5152587890625
234308,-0.0236053466796875,0.9968414306640624,-0.0580902099609375,0.1447502672672272,0.1271409094333649,-0.0093098785728216,63.5174560546875,98.22067260742188,-33.5152587890625
234309,-0.041351318359375,1.007293701171875,-0.04925537109375,0.137407124042511,0.1142312362790108,-0.0038000645581632,63.46676635742188,98.23643493652344,-33.51387023925781
234310,-0.0437164306640625,1.013092041015625,-0.0466766357421875,0.137407124042511,0.1142312362790108,-0.0038000645581632,63.56204223632812,98.23158264160156,-33.49134826660156
234311,-0.045501708984375,1.019287109375,-0.0398101806640625,0.1387839764356613,0.1168027818202972,0.000393881520722,63.58026123046875,98.16018676757812,-33.46429443359375
234312,-0.045501708984375,1.019287109375,-0.0398101806640625,0.1387839764356613,0.1168027818202972,0.000393881520722,63.58026123046875,98.16018676757812,-33.46429443359375
234313,-0.046875,1.0269775390625,-0.0338134765625,0.096498042345047,0.1046094968914986,-0.006345513742417,63.56517028808594,98.17401123046876,-33.63920593261719
234314,-0.0476837158203125,1.026580810546875,-0.0398406982421875,0.096498042345047,0.1046094968914986,-0.006345513742417,63.53099060058594,98.09951782226562,-33.63121032714844
234315,-0.0478515625,1.0213623046875,-0.04693603515625,0.0903639867901802,0.1020965427160263,-0.0129948947578668,63.5162353515625,98.18214416503906,-33.55708312988281
234316,-0.0478515625,1.0213623046875,-0.04693603515625,0.0903639867901802,0.1020965427160263,-0.0129948947578668,63.5162353515625,98.18214416503906,-33.55708312988281
234317,-0.0446014404296875,1.003921508789062,-0.0692291259765625,0.0807089582085609,0.0896627753973007,-0.0108534470200538,63.48246765136719,98.15322875976562,-33.61494445800781
234318,-0.0393829345703125,0.9903564453125,-0.0828094482421875,0.0701077133417129,0.0791685879230499,-0.0109855392947793,63.45635986328125,98.1875457763672,-33.65774536132812
234319,-0.0293731689453125,0.9783477783203124,-0.098297119140625,0.0348788872361183,0.0716717913746833,-0.0133866453543305,63.47392272949219,98.15397644042967,-33.72981262207031
234320,-0.0293731689453125,0.9783477783203124,-0.098297119140625,0.0348788872361183,0.0716717913746833,-0.0133866453543305,63.47392272949219,98.15397644042967,-33.72981262207031
234321,-0.0249481201171875,0.9627838134765624,-0.1142730712890625,0.0374831929802894,0.0584079176187515,-0.0093194656074047,63.46908569335938,98.02044677734376,-33.7449951171875
234322,-0.023406982421875,0.9661407470703124,-0.1076202392578125,0.016095345839858,0.0363681279122829,-0.0184903275221586,63.42132568359375,98.03070068359376,-33.64332580566406
234323,-0.0158843994140625,0.9697418212890624,-0.1221923828125,0.016095345839858,0.0363681279122829,-0.0184903275221586,63.52067565917969,98.07562255859376,-33.72145080566406
234324,-0.0158843994140625,0.9697418212890624,-0.1221923828125,0.016095345839858,0.0363681279122829,-0.0184903275221586,63.52067565917969,98.07562255859376,-33.72145080566406
234325,-0.0022735595703125,0.9832305908203124,-0.1287689208984375,0.0123781058937311,0.002281796419993,-0.0372893139719963,63.53611755371094,98.06134033203124,-33.71907043457031
234326,0.001739501953125,0.983154296875,-0.1118316650390625,0.0038916773628443,0.0003542004269547,-0.0458673574030399,63.41990661621094,98.0762939453125,-33.8472900390625
234327,0.0052947998046875,0.979156494140625,-0.1097564697265625,-0.0069623021408915,0.0088760498911142,-0.0490085557103157,63.48786926269531,98.20362854003906,-33.89834594726562
234328,0.0052947998046875,0.979156494140625,-0.1097564697265625,-0.0069623021408915,0.0088760498911142,-0.0490085557103157,63.48786926269531,98.20362854003906,-33.89834594726562
234329,0.0103912353515625,0.972686767578125,-0.11663818359375,-0.0172511581331491,0.0197225715965032,-0.0498604997992515,63.33595275878906,98.24806213378906,-33.98226928710938
234330,0.00946044921875,0.9684600830078124,-0.112518310546875,-0.024498151615262,0.0246361047029495,-0.0515393577516078,63.28176879882812,98.21310424804688,-33.832275390625
234331,0.004638671875,0.966583251953125,-0.10687255859375,-0.0356314964592456,0.0248331781476736,-0.0505097806453704,63.30741882324219,98.16574096679688,-33.83839416503906
234332,0.004638671875,0.966583251953125,-0.10687255859375,-0.0356314964592456,0.0248331781476736,-0.0505097806453704,63.30741882324219,98.16574096679688,-33.83839416503906
234333,0.000732421875,0.9695892333984376,-0.091766357421875,-0.0538424588739872,0.0116710374131798,-0.0692744106054306,63.37263488769531,98.06173706054688,-33.72955322265625
234334,-0.00347900390625,0.9736480712890624,-0.0880889892578125,-0.0626034587621688,-0.0022413162514567,-0.0757291167974472,63.36540222167969,98.16346740722656,-33.6343994140625
234335,-0.0065155029296875,0.9766082763671876,-0.0870819091796875,-0.0743128433823585,-0.0188306793570518,-0.0836970284581184,63.22344970703125,98.38345336914062,-33.552490234375
234336,-0.0065155029296875,0.9766082763671876,-0.0870819091796875,-0.0743128433823585,-0.0188306793570518,-0.0836970284581184,63.22344970703125,98.38345336914062,-33.552490234375
234337,-0.0077056884765625,0.978057861328125,-0.080841064453125,-0.0971475914120674,-0.0548978708684444,-0.0932969227433204,63.14842224121094,98.46607971191406,-33.50563049316406
234338,-0.0106964111328125,0.9776763916015624,-0.0748443603515625,-0.1066896915435791,-0.0594758428633213,-0.0931379348039627,63.06904602050781,98.41087341308594,-33.39845275878906
234339,-0.0123138427734375,0.9793701171875,-0.0701446533203125,-0.1364342719316483,-0.0601139366626739,-0.0978655740618705,63.06913757324219,98.51959228515624,-33.50508117675781
234340,-0.0123138427734375,0.9793701171875,-0.0701446533203125,-0.1364342719316483,-0.0601139366626739,-0.0978655740618705,63.06913757324219,98.51959228515624,-33.50508117675781
234341,-0.0238189697265625,0.980926513671875,-0.0613555908203125,-0.1544082164764404,-0.0612511076033115,-0.1028518155217171,62.97293090820312,98.52497863769533,-33.27410888671875
234342,-0.031585693359375,0.9813995361328124,-0.0603179931640625,-0.1943990439176559,-0.0748257711529731,-0.1148011535406113,62.91928100585938,98.50328063964844,-33.18983459472656
234343,-0.03680419921875,0.9847564697265624,-0.0607757568359375,-0.2013765275478363,-0.0730355978012085,-0.1169865429401398,63.00518798828125,98.65470886230467,-33.19129943847656
234344,-0.03680419921875,0.9847564697265624,-0.0607757568359375,-0.2013765275478363,-0.0730355978012085,-0.1169865429401398,63.00518798828125,98.65470886230467,-33.19129943847656
234345,-0.044525146484375,0.994415283203125,-0.0706024169921875,-0.2016822546720505,-0.0758449658751487,-0.1211666390299797,62.894287109375,98.69674682617188,-32.83660888671875
234346,-0.04461669921875,0.99688720703125,-0.0710906982421875,-0.201307013630867,-0.0706328898668289,-0.1171074509620667,62.76631164550781,98.78692626953124,-32.84176635742188
234347,-0.0444183349609375,0.9976806640625,-0.07489013671875,-0.2023549675941467,-0.0538033097982406,-0.1157313957810402,62.71864318847656,98.79202270507812,-32.77830505371094
234348,-0.0444183349609375,0.9976806640625,-0.07489013671875,-0.2023549675941467,-0.0538033097982406,-0.1157313957810402,62.71864318847656,98.79202270507812,-32.77830505371094
234349,-0.04547119140625,0.9856719970703124,-0.089813232421875,-0.1938397735357285,-0.0412797965109348,-0.0990988835692405,62.697509765625,98.7641143798828,-32.82536315917969
234350,-0.0411834716796875,0.988006591796875,-0.0968017578125,-0.1913926005363464,-0.0385798811912536,-0.088535189628601,62.67832946777344,98.87074279785156,-32.62861633300781
234351,-0.0363616943359375,0.9901275634765624,-0.1005096435546875,-0.1909502446651459,-0.050745204091072,-0.077908381819725,62.5709228515625,99.00212097167967,-32.44595336914062
234352,-0.0363616943359375,0.9901275634765624,-0.1005096435546875,-0.1909502446651459,-0.050745204091072,-0.077908381819725,62.5709228515625,99.00212097167967,-32.44595336914062
234353,-0.0217437744140625,1.00054931640625,-0.0991058349609375,-0.1909379959106445,-0.0798050835728645,-0.0540147647261619,62.4757080078125,99.19392395019533,-32.33662414550781
234354,-0.0176849365234375,1.007568359375,-0.0932159423828125,-0.1930661350488663,-0.0752103328704834,-0.0496447831392288,62.45819091796875,99.1647491455078,-32.16702270507812
234355,-0.0190582275390625,1.014419555664062,-0.084503173828125,-0.1918938010931015,-0.0718624740839004,-0.0431677103042602,62.39877319335938,99.2284698486328,-32.101318359375
234356,-0.0272369384765625,1.020614624023438,-0.06890869140625,-0.1964233070611954,-0.0662354752421379,-0.0523918345570564,62.51206970214844,99.14079284667967,-31.92617797851562
234357,-0.0441436767578125,1.0220947265625,-0.055206298828125,-0.2009584009647369,-0.0596955530345439,-0.0588289611041545,62.47128295898438,99.3415985107422,-31.94178771972656
234358,-0.0441436767578125,1.0220947265625,-0.055206298828125,-0.2009584009647369,-0.0596955530345439,-0.0588289611041545,62.47128295898438,99.3415985107422,-31.94178771972656
234359,-0.0693511962890625,1.025787353515625,-0.0399322509765625,-0.1904085576534271,-0.0528573542833328,-0.0604761280119419,62.40956115722656,99.29977416992188,-31.84927368164062
234360,-0.07000732421875,1.02740478515625,-0.034515380859375,-0.1742247939109802,-0.0495957806706428,-0.060137640684843,62.43951416015625,99.34524536132812,-31.74118041992188
234361,-0.0662841796875,1.0279541015625,-0.0224761962890625,-0.1585430353879929,-0.0411708727478981,-0.0597400292754173,62.42132568359375,99.2971649169922,-31.51191711425781
234362,-0.064605712890625,1.0306396484375,-0.0107269287109375,-0.154288113117218,-0.0308900047093629,-0.0611850619316101,62.33280944824219,99.42100524902344,-31.47393798828125
234363,-0.0670928955078125,1.0234375,0.003997802734375,-0.1476584374904633,-0.0336972437798976,-0.0611232742667198,62.30941772460938,99.52268981933594,-31.55241394042969
234364,-0.074737548828125,1.010467529296875,0.0198516845703125,-0.1436213403940201,-0.0333582237362861,-0.0652367919683456,62.41993713378906,99.55607604980467,-31.50566101074219
234365,-0.0792694091796875,1.0003662109375,0.0294647216796875,-0.1413131803274155,-0.0292353834956884,-0.0624548569321632,62.3975830078125,99.6002197265625,-31.54371643066406
234366,-0.082183837890625,0.9962921142578124,0.02435302734375,-0.1298189759254456,-0.0239234417676925,-0.060099821537733,62.35664367675781,99.6514129638672,-31.5926513671875
234367,-0.087799072265625,0.9891815185546876,0.0248565673828125,-0.1016424745321274,-0.0316055975854396,-0.0574529059231281,62.29710388183594,99.732666015625,-31.32843017578125
234368,-0.087799072265625,0.9891815185546876,0.0248565673828125,-0.1016424745321274,-0.0316055975854396,-0.0574529059231281,62.29710388183594,99.732666015625,-31.32843017578125
234369,-0.09405517578125,0.9889373779296876,0.04791259765625,-0.0763541609048843,-0.0576704852283,-0.040903490036726,62.167236328125,99.68772888183594,-31.19708251953125
234370,-0.0919647216796875,0.9915008544921876,0.02874755859375,-0.0785731077194213,-0.0735530480742454,-0.0433831587433815,62.13198852539062,99.88229370117188,-31.097900390625
234371,-0.0785064697265625,0.9917449951171876,0.010894775390625,-0.0784071907401084,-0.1024387553334236,-0.0389964021742343,62.13780212402344,99.83753967285156,-30.99955749511719
234372,-0.0785064697265625,0.9917449951171876,0.010894775390625,-0.0784071907401084,-0.1024387553334236,-0.0389964021742343,62.13780212402344,99.83753967285156,-30.99955749511719
234373,-0.057647705078125,0.9835968017578124,0.0121307373046875,-0.0746798291802406,-0.0914020836353302,-0.0272944718599319,62.04168701171875,99.99400329589844,-30.91580200195312
234374,-0.057647705078125,0.9835968017578124,0.0121307373046875,-0.0746798291802406,-0.0914020836353302,-0.0272944718599319,62.04168701171875,99.99400329589844,-30.91580200195312
234375,-0.0475921630859375,0.97845458984375,0.0151824951171875,-0.0739543884992599,-0.0754287093877792,-0.0230901390314102,61.99909973144531,99.96012878417967,-30.80419921875
234376,-0.0457000732421875,0.9823455810546876,0.0061492919921875,-0.0766316577792167,-0.05963696539402,-0.0246789809316396,61.99961853027344,99.88558959960938,-30.73908996582031
234377,-0.0548858642578125,0.9896392822265624,0.0088653564453125,-0.0841143429279327,-0.0594582669436931,-0.037079457193613,62.09892272949219,99.89154052734376,-30.58963012695312
234378,-0.0633697509765625,0.993865966796875,0.0099334716796875,-0.0853146314620971,-0.0683937072753906,-0.0497260093688964,62.11553955078125,99.84577941894533,-30.53076171875
234379,-0.0738372802734375,0.99560546875,0.0171356201171875,-0.0548107847571373,-0.0763778612017631,-0.0551628544926643,62.01910400390625,99.95883178710938,-30.727294921875
234380,-0.0738372802734375,0.99560546875,0.0171356201171875,-0.0548107847571373,-0.0763778612017631,-0.0551628544926643,62.01910400390625,99.95883178710938,-30.727294921875
234381,-0.089385986328125,0.9939117431640624,0.033416748046875,-0.0349649079144001,-0.0639235898852348,-0.0495529063045978,61.96127319335938,100.0236663818359,-30.58998107910156
234382,-0.0930633544921875,0.9922332763671876,0.0445556640625,-0.0097234677523374,-0.044494230300188,-0.0410749986767768,61.93458557128906,100.1166381835938,-30.68585205078125
234383,-0.0953521728515625,0.9870758056640624,0.0438995361328125,0.0159624554216861,-0.0231519248336553,-0.0303557757288217,61.89923095703125,99.97743225097656,-30.66648864746094
234384,-0.0949554443359375,0.9818115234375,0.040069580078125,0.0359010100364685,0.0001427454262739,-0.0266542471945285,61.91329956054688,99.98019409179688,-30.73300170898438
234385,-0.093475341796875,0.972808837890625,0.036163330078125,0.034927625209093,0.0253461021929979,-0.018417889252305,61.80406188964844,100.0050354003906,-30.7554931640625
234386,-0.09271240234375,0.96746826171875,0.0302581787109375,0.0310971997678279,0.0586172416806221,-0.0107783451676368,61.79896545410156,100.0113983154297,-30.71891784667969
234387,-0.09320068359375,0.9648590087890624,0.0193023681640625,0.0199726428836584,0.0907719805836677,-0.0015180017799139,61.81936645507812,100.1003723144531,-30.81674194335938
234388,-0.09320068359375,0.9648590087890624,0.0193023681640625,0.0199726428836584,0.0907719805836677,-0.0015180017799139,61.81936645507812,100.1003723144531,-30.81674194335938
234389,-0.0925750732421875,0.9720916748046876,0.0099029541015625,0.0101232081651687,0.0942559316754341,0.0048442902043461,61.80369567871094,100.0876159667969,-30.78292846679688
234390,-0.0870513916015625,0.9811859130859376,0.0054931640625,0.0016490293201059,0.0881053581833839,0.0168841741979122,61.77049255371094,100.0109100341797,-30.79135131835938
234391,-0.0810089111328125,0.9935455322265624,-0.0044403076171875,-0.0035071168094873,0.07883782684803,0.0285972896963357,61.76260375976562,100.0529632568359,-30.85798645019531
234392,-0.0723724365234375,1.004348754882812,-0.0116729736328125,0.0006205165409483,0.0687106177210807,0.0392491370439529,61.76873779296875,100.0393524169922,-30.81883239746094
234393,-0.065887451171875,1.011764526367188,-0.009002685546875,0.0096518285572528,0.0714592710137367,0.0482112057507038,61.82786560058594,100.1492462158203,-30.74818420410156
234394,-0.05718994140625,1.012954711914062,-0.00921630859375,0.0210533533245325,0.0691337957978248,0.0488679409027099,61.84805297851562,100.0537261962891,-30.65640258789062
234395,-0.0458526611328125,1.007568359375,-0.0151519775390625,0.0259003061801195,0.0652924552559852,0.0403793789446353,61.88058471679688,100.0743255615234,-30.707275390625
234396,-0.0458526611328125,1.007568359375,-0.0151519775390625,0.0259003061801195,0.0652924552559852,0.0403793789446353,61.88058471679688,100.0743255615234,-30.707275390625
234397,-0.029052734375,0.989288330078125,-0.0268707275390625,0.0291229970753192,0.0520235188305378,0.0255197416990995,61.95220947265625,100.0829925537109,-30.62765502929688
234398,-0.029052734375,0.989288330078125,-0.0268707275390625,0.0291229970753192,0.0520235188305378,0.0255197416990995,61.95220947265625,100.0829925537109,-30.62765502929688
234399,-0.0239715576171875,0.98974609375,-0.0267181396484375,0.0125125963240861,0.0146883986890316,0.0082296999171376,61.93862915039062,100.0495910644531,-30.48757934570312
234400,-0.029449462890625,0.998199462890625,-0.0265350341796875,0.0007648598402738,-0.0118409469723701,0.0038344194181263,62.01405334472656,99.99270629882812,-30.51608276367188
234401,-0.0336151123046875,1.004806518554688,-0.032470703125,-0.0083285039290785,-0.0391348861157894,0.0021880532149225,62.03767395019531,100.0184783935547,-30.59060668945312
234402,-0.0365447998046875,1.007904052734375,-0.033050537109375,-0.0083753755316138,-0.0582135058939456,0.0050546796992421,62.001220703125,100.0578308105469,-30.64700317382812
234403,-0.03826904296875,1.008468627929688,-0.0284271240234375,-0.0058030281215906,-0.0663031265139579,0.0097951060160994,62.05233764648438,100.0458374023438,-30.66558837890625
234404,-0.03826904296875,1.008468627929688,-0.0284271240234375,-0.0058030281215906,-0.0663031265139579,0.0097951060160994,62.05233764648438,100.0458374023438,-30.66558837890625
234405,-0.040496826171875,0.99749755859375,-0.0149078369140625,-0.0053486926481127,-0.0716427639126777,0.0045918221585452,61.98348999023438,99.99057006835938,-30.54000854492188
234406,-0.0418243408203125,0.998687744140625,-0.0114593505859375,-0.0071583106182515,-0.0689031705260276,0.0041228397749364,62.00930786132812,100.0217895507812,-30.658935546875
234407,-0.045501708984375,1.003005981445312,-0.0089569091796875,-0.001849565305747,-0.0687058269977569,0.0093157375231385,61.98651123046875,100.0923156738281,-30.72441101074219
234408,-0.05078125,1.007797241210938,-0.0058746337890625,0.0062688146717846,-0.0633550062775611,0.0132265891879797,61.96588134765625,100.1325836181641,-30.8260498046875
234409,-0.057159423828125,1.009414672851562,-0.0071563720703125,0.0129988892003893,-0.0625773593783378,0.023772707208991,62.03598022460938,99.95475769042967,-30.77604675292969
234410,-0.057159423828125,1.009414672851562,-0.0071563720703125,0.0129988892003893,-0.0625773593783378,0.023772707208991,62.03598022460938,99.95475769042967,-30.77604675292969
234411,-0.0606842041015625,1.0074462890625,-0.023468017578125,0.0135323200374841,-0.0625304877758026,0.0329664722084999,61.97425842285156,99.93376159667967,-30.88096618652344
234412,-0.0622406005859375,1.00732421875,-0.03948974609375,0.0135323200374841,-0.0625304877758026,0.0329664722084999,61.94622802734375,99.98399353027344,-30.88027954101562
234413,-0.0659637451171875,1.0048828125,-0.033966064453125,0.0137336552143096,-0.0730750113725662,0.0446098111569881,61.99571228027344,99.9912109375,-30.70707702636719
234414,-0.067108154296875,1.008255004882812,-0.015167236328125,0.0059617524966597,-0.0715783163905143,0.0529758669435977,61.9542236328125,99.87289428710938,-30.66058349609375
234415,-0.065948486328125,1.004013061523438,-0.0152587890625,-0.0086438218131661,-0.0812107026576995,0.0440159253776073,62.03056335449219,99.8775634765625,-30.82803344726562
234416,-0.065948486328125,1.004013061523438,-0.0152587890625,-0.0086438218131661,-0.0812107026576995,0.0440159253776073,62.03056335449219,99.8775634765625,-30.82803344726562
234417,-0.0596771240234375,0.9878997802734376,-0.030517578125,-0.0117900799959898,-0.1309947669506073,0.040421724319458,62.04129028320312,99.9063720703125,-30.77738952636719
234418,-0.0601348876953125,0.9787445068359376,-0.02203369140625,-0.01482954621315,-0.1215935423970222,0.0442830435931682,61.92671203613281,99.96102905273438,-30.7449951171875
234419,-0.0576324462890625,0.9733428955078124,-0.02752685546875,-0.014512363821268,-0.1070654690265656,0.0448127463459968,61.98870849609375,99.86187744140624,-30.58181762695312
234420,-0.045867919921875,0.9777069091796876,-0.0357513427734375,-0.0072824140079319,-0.0868877619504928,0.0494607612490654,62.02906799316406,99.78237915039062,-30.57614135742188
234421,-0.033905029296875,0.9912261962890624,-0.0375518798828125,-0.0084925545379519,-0.0736811459064483,0.0572459772229194,62.14308166503906,99.82525634765624,-30.64093017578125
234422,-0.0225982666015625,1.008804321289062,-0.0363006591796875,-0.0192416049540042,-0.0727458447217941,0.0513915531337261,62.09046936035156,99.74983215332033,-30.56637573242188
234423,-0.012664794921875,1.02099609375,-0.0291748046875,-0.0212629437446594,-0.0849657580256462,0.0469792261719703,62.0792236328125,99.77740478515624,-30.64500427246094
234424,-0.0115966796875,1.026809692382812,-0.0189056396484375,-0.0108361365273594,-0.0935307517647743,0.0381886661052703,62.13804626464844,99.79266357421876,-30.75177001953125
234425,-0.0145416259765625,1.025192260742188,-0.008270263671875,-0.000311589858029,-0.1082606911659241,0.0313054583966732,62.20323181152344,99.72955322265624,-30.57176208496094
234426,-0.0225372314453125,1.016494750976562,0.0008544921875,0.0015744607662782,-0.1144123300909996,0.0237615220248699,62.22456359863281,99.86000061035156,-30.64811706542969
234427,-0.0347900390625,1.003143310546875,0.0039215087890625,-0.0047534760087728,-0.1126144304871559,0.0202184524387121,62.22463989257812,99.85789489746094,-30.75163269042969
234428,-0.045684814453125,0.98980712890625,0.0023956298828125,-0.0083780381828546,-0.1116421073675156,0.019301526248455,62.15925598144531,99.83982849121094,-30.73098754882812
234429,-0.0567474365234375,0.9774169921875,0.00518798828125,-0.007964183576405,-0.0919112786650657,0.0196812935173511,62.18077087402344,99.86286926269533,-30.62858581542969
234430,-0.06573486328125,0.971282958984375,0.01116943359375,-0.0153904082253575,-0.0641651377081871,0.0190722271800041,62.16641235351562,99.82292175292967,-30.75605773925781
234431,-0.06878662109375,0.9671630859375,0.0183258056640625,-0.0271991305053234,-0.0405588783323764,0.0143730798736214,62.24221801757812,99.90077209472656,-30.83177185058594
234432,-0.06976318359375,0.968963623046875,0.028839111328125,-0.042447593063116,-0.0153155727311968,0.0022860574536025,62.18138122558594,99.91175842285156,-30.79585266113281
234433,-0.0682373046875,0.9732666015625,0.0355987548828125,-0.0507723651826381,0.0067154271528124,-0.0007243797881528,62.22653198242188,99.96347045898438,-30.76344299316406
234434,-0.0673370361328125,0.980682373046875,0.04107666015625,-0.0620764195919036,0.0230123754590749,-0.0101964445784688,62.23429870605469,99.89373779296876,-30.54832458496094
234435,-0.067291259765625,0.9909515380859376,0.0466766357421875,-0.0698776170611381,0.0500077717006206,-0.0100600905716419,62.20745849609375,99.8997802734375,-30.84028625488281
234436,-0.0673370361328125,1.001190185546875,0.045135498046875,-0.0698776170611381,0.0500077717006206,-0.0100600905716419,62.18238830566406,99.9626922607422,-30.8060302734375
234437,-0.0648345947265625,1.008819580078125,0.039703369140625,-0.062383484095335,0.0565032213926315,-0.0035284222103655,62.22550964355469,99.81199645996094,-30.76611328125
234438,-0.06219482421875,1.012588500976562,0.0364990234375,-0.0513718426227569,0.0574888586997985,0.008152469061315,62.15118408203125,99.84597778320312,-30.71717834472656
234439,-0.0572967529296875,1.013427734375,0.03643798828125,-0.0378927886486053,0.0562622062861919,0.0150963952764868,62.16847229003906,99.79180908203124,-30.59132385253906
234440,-0.0572967529296875,1.013427734375,0.03643798828125,-0.0378927886486053,0.0562622062861919,0.0150963952764868,62.16847229003906,99.79180908203124,-30.59132385253906
234441,-0.0437164306640625,1.004547119140625,0.03662109375,-0.0115293571725487,0.0561018846929073,0.0230925362557172,62.14830017089844,99.90690612792967,-30.37269592285156
234442,-0.0387725830078125,0.9994049072265624,0.0335845947265625,0.0089490199461579,0.0462537817656993,0.0260481126606464,62.15966796875,99.96858215332033,-30.32835388183594
234443,-0.038848876953125,0.995819091796875,0.028778076171875,0.0239434167742729,0.0325044132769107,0.024355674162507,62.14009094238281,99.949462890625,-30.32664489746094
234444,-0.038848876953125,0.995819091796875,0.028778076171875,0.0239434167742729,0.0325044132769107,0.024355674162507,62.14009094238281,99.949462890625,-30.32664489746094
234445,-0.0457000732421875,0.9787750244140624,0.0252838134765625,0.031097998842597,0.0099077578634023,0.0213351156562566,62.15469360351562,99.9128875732422,-30.35566711425781
234446,-0.04620361328125,0.9668121337890624,0.0272216796875,0.0276649165898561,-0.0100867226719856,0.0178506355732679,62.14462280273438,99.89024353027344,-30.3082275390625
234447,-0.04339599609375,0.9567108154296876,0.03057861328125,-0.0022381206508725,-0.0060720071196556,0.0110750216990709,62.08987426757812,99.88946533203124,-30.37103271484375
234448,-0.0370941162109375,0.9542694091796876,0.0325775146484375,-0.0022381206508725,-0.0060720071196556,0.0110750216990709,62.15388488769531,99.9434814453125,-30.39315795898438
234449,-0.033355712890625,0.960479736328125,0.0289306640625,-0.0140652190893888,-0.0036860811524093,0.0024338630028069,62.20162963867188,99.86073303222656,-30.39141845703125
234450,-0.03326416015625,0.970062255859375,0.0178070068359375,-0.0150905363261699,-0.0132582811638712,-0.0004503405361901,62.1551513671875,99.67463684082033,-30.32073974609375
234451,-0.0338592529296875,0.9876556396484376,0.009429931640625,-0.0116084525361657,-0.031407456845045,-0.0019286612514406,62.1929931640625,99.59222412109376,-30.31593322753906
234452,-0.0357818603515625,0.99945068359375,0.005035400390625,-0.0095668733119964,-0.0506991297006607,-0.006442985497415,62.19857788085938,99.68385314941406,-30.35565185546875
234453,-0.0372161865234375,1.014434814453125,0.007110595703125,-0.0164341013878583,-0.0570979081094265,-0.0006388923502527,62.215087890625,99.66853332519533,-30.30290222167969
234454,-0.0400238037109375,1.027206420898438,0.011077880859375,-0.0189662333577871,-0.0574292056262493,0.002183792181313,62.20774841308594,99.64695739746094,-30.07887268066406
234455,-0.0419921875,1.024871826171875,0.02337646484375,-0.0128417629748582,-0.0435357578098774,0.0059825251810252,62.22296142578125,99.666748046875,-30.11343383789062
234456,-0.0420379638671875,1.02099609375,0.028411865234375,-0.0049106026999652,-0.0211966317147016,0.0080760363489389,62.15269470214844,99.73385620117188,-30.13943481445312
234457,-0.03778076171875,1.015243530273438,0.0167388916015625,0.004309260752052,-0.0180860590189695,0.0028527781832963,62.20651245117188,99.8052215576172,-30.16773986816406
234458,-0.03875732421875,1.000534057617188,0.0034942626953125,0.0319776386022567,-0.0074720308184623,0.0062919841147959,62.12661743164062,99.71736145019533,-30.19624328613281
234459,-0.04998779296875,0.9882049560546876,0.0193023681640625,0.0256331916898489,0.0105983158573508,0.0031454595737159,62.17277526855469,99.69757080078124,-30.25357055664062
234460,-0.04998779296875,0.9882049560546876,0.0193023681640625,0.0256331916898489,0.0105983158573508,0.0031454595737159,62.17277526855469,99.69757080078124,-30.25357055664062
234461,-0.05889892578125,0.98297119140625,0.012664794921875,0.0224656276404857,0.010391654446721,-0.0093964310362935,62.23551940917969,99.64463806152344,-30.19297790527344
234462,-0.05889892578125,0.98297119140625,0.012664794921875,0.0224656276404857,0.010391654446721,-0.0093964310362935,62.23551940917969,99.64463806152344,-30.19297790527344
234463,-0.0599212646484375,0.98388671875,0.0250396728515625,0.0149802807718515,-0.0252891108393669,-0.0195811577141284,62.21365356445312,99.5977020263672,-30.21900939941406
234464,-0.052398681640625,0.98590087890625,0.0285797119140625,0.0048189898952841,-0.0138327246531844,-0.0204168576747179,62.11007690429688,99.64056396484376,-30.27413940429688
234465,-0.0392303466796875,0.9874114990234376,0.0173187255859375,0.0104662226513028,-0.0018298579379916,-0.0244100019335746,62.19343566894531,99.57920837402344,-30.26223754882812
234466,-0.0308380126953125,0.9924774169921876,0.00616455078125,0.0190176330506801,0.0236062593758106,-0.0261945854872465,62.16874694824219,99.62925720214844,-30.29167175292969
234467,-0.0301513671875,0.9964752197265624,0.0009307861328125,0.0285232532769441,0.0340205505490303,-0.0278308317065239,62.23809814453125,99.439697265625,-30.29862976074219
234468,-0.0330047607421875,1.000625610351562,-0.0030059814453125,0.0298119578510522,0.0277991406619548,-0.0333110839128494,62.24092102050781,99.47958374023438,-30.30918884277344
234469,-0.03253173828125,1.002670288085938,-0.0048370361328125,0.0227343402802944,0.0133994286879897,-0.0323885641992092,62.16844177246094,99.46263122558594,-30.25430297851562
234470,-0.0294952392578125,1.005523681640625,-0.0055694580078125,0.0191430673003196,0.0073444657027721,-0.0333973728120327,62.06405639648438,99.54338073730467,-30.34367370605469
234471,-0.026336669921875,1.01318359375,-0.0071563720703125,0.0292332526296377,0.0155129134654998,-0.0369039550423622,62.06587219238281,99.5017547607422,-30.3055419921875
234472,-0.026336669921875,1.01318359375,-0.0071563720703125,0.0292332526296377,0.0155129134654998,-0.0369039550423622,62.06587219238281,99.5017547607422,-30.3055419921875
234473,-0.026702880859375,1.022628784179688,-0.0191650390625,0.054945807904005,0.0190898049622774,-0.0302886627614498,61.93885803222656,99.49267578125,-30.26736450195312
234474,-0.026702880859375,1.022628784179688,-0.0191650390625,0.054945807904005,0.0190898049622774,-0.0302886627614498,61.93885803222656,99.49267578125,-30.26736450195312
234475,-0.027587890625,1.031097412109375,-0.025299072265625,0.0556488819420337,0.0142926527187228,-0.0288769211620092,62.036865234375,99.49676513671876,-30.17654418945312
234476,-0.025848388671875,1.024444580078125,-0.02349853515625,0.0662027224898338,0.0139693450182676,-0.0282830372452735,62.00169372558594,99.4988250732422,-30.09220886230469
234477,-0.0234222412109375,1.017349243164062,-0.0266876220703125,0.0769544392824173,0.012352273799479,-0.0262893941253423,62.0404052734375,99.4965362548828,-29.95173645019531
234478,-0.0234222412109375,1.017349243164062,-0.0266876220703125,0.0769544392824173,0.012352273799479,-0.0262893941253423,62.0404052734375,99.4965362548828,-29.95173645019531
234479,-0.0095367431640625,1.007720947265625,-0.014251708984375,0.0740318819880485,0.0104686198756098,-0.0298553667962551,61.93855285644531,99.46485900878906,-30.22657775878906
234480,-0.004638671875,1.003753662109375,-0.01190185546875,0.0740318819880485,0.0104686198756098,-0.0298553667962551,61.97250366210938,99.51318359375,-30.34840393066406
234481,-0.004852294921875,1.010650634765625,-0.0241546630859375,0.0809459835290908,-0.0084254425019025,-0.0316042639315128,61.95436096191406,99.32722473144533,-30.38975524902344
234482,-0.0063323974609375,1.020248413085938,-0.0362396240234375,0.0809459835290908,-0.0084254425019025,-0.0316042639315128,61.90849304199219,99.41682434082033,-30.34066772460938
234483,-0.006988525390625,1.027099609375,-0.040130615234375,0.0878203958272934,-0.0115133775398135,-0.036275714635849,61.82868957519531,99.35641479492188,-30.21952819824219
234484,-0.009765625,1.025970458984375,-0.043182373046875,0.0910441577434539,-0.0026900589000433,-0.0379857309162616,61.87815856933594,99.36051940917967,-30.31979370117188
234485,-0.0148468017578125,1.02337646484375,-0.0439605712890625,0.0804421082139015,0.0086400937288999,-0.0345915332436561,61.82818603515625,99.4835205078125,-30.5380859375
234486,-0.020477294921875,1.0191650390625,-0.03778076171875,0.0592385567724704,0.0240936186164617,-0.0403839088976383,61.81623840332031,99.39543151855467,-30.63504028320312
234487,-0.020477294921875,1.0191650390625,-0.03778076171875,0.0592385567724704,0.0240936186164617,-0.0403839088976383,61.81623840332031,99.39543151855467,-30.63504028320312
234488,-0.0252532958984375,1.003952026367188,-0.0308380126953125,0.0334732718765735,0.0242302380502224,-0.0401511490345001,61.74662780761719,99.4521026611328,-30.78329467773438
234489,-0.0281524658203125,0.9790191650390624,-0.0034332275390625,0.0335816629230976,0.0457049049437046,-0.0512634553015232,61.66781616210938,99.53370666503906,-30.75588989257812
234490,-0.0281524658203125,0.9790191650390624,-0.0034332275390625,0.0335816629230976,0.0457049049437046,-0.0512634553015232,61.66781616210938,99.53370666503906,-30.75588989257812
234491,-0.032135009765625,0.96942138671875,-0.0069122314453125,0.0358354970812797,0.0485648736357688,-0.0527638792991638,61.73956298828125,99.5225830078125,-30.77940368652344
234492,-0.03521728515625,0.965606689453125,-0.0084686279296875,0.0358354970812797,0.0485648736357688,-0.0527638792991638,61.63154602050781,99.5056610107422,-30.683349609375
234493,-0.0529937744140625,0.9709320068359376,-0.002349853515625,0.0454660169780254,0.0318359583616256,-0.0624138414859771,61.65292358398438,99.46420288085938,-30.68630981445312
234494,-0.0605621337890625,0.9718017578125,0.0112762451171875,0.0544155724346637,0.0321480818092823,-0.0662293508648872,61.6298828125,99.49079895019533,-30.50335693359375
234495,-0.0670623779296875,0.969390869140625,0.020111083984375,0.0563418343663215,0.0362829081714153,-0.066385418176651,61.66978454589844,99.38255310058594,-30.42759704589844
234496,-0.0670623779296875,0.969390869140625,0.020111083984375,0.0563418343663215,0.0362829081714153,-0.066385418176651,61.66978454589844,99.38255310058594,-30.42759704589844
234497,-0.075164794921875,0.9548797607421876,0.0172576904296875,0.0560933612287044,0.0248459614813327,-0.062752865254879,61.52301025390625,99.58779907226562,-30.54391479492188
234498,-0.075164794921875,0.9548797607421876,0.0172576904296875,0.0560933612287044,0.0248459614813327,-0.062752865254879,61.52301025390625,99.58779907226562,-30.54391479492188
234499,-0.0861968994140625,0.975616455078125,-0.0098419189453125,0.0303749497979879,-0.0282159261405468,-0.0523947663605213,61.49250793457031,99.6766357421875,-30.74809265136719
234500,-0.0874786376953125,0.988189697265625,-0.00567626953125,0.0303749497979879,-0.0282159261405468,-0.0523947663605213,61.47581481933594,99.5828857421875,-30.81295776367188
234501,-0.08978271484375,1.000961303710938,0.0079803466796875,0.0108603704720735,-0.0609024986624717,-0.0599576085805892,61.43675231933594,99.53562927246094,-30.83183288574219
234502,-0.0903472900390625,1.00872802734375,0.024993896484375,0.0006684534018859,-0.0826016664505004,-0.073623351752758,61.41996765136719,99.55143737792967,-30.85371398925781
234503,-0.0884552001953125,1.012664794921875,0.026031494140625,0.0213199350982904,-0.0809214785695076,-0.0692879930138588,61.41542053222656,99.62734985351562,-30.99610900878906
234504,-0.0884552001953125,1.012664794921875,0.026031494140625,0.0213199350982904,-0.0809214785695076,-0.0692879930138588,61.41542053222656,99.62734985351562,-30.99610900878906
234505,-0.0846405029296875,1.008392333984375,0.0380706787109375,0.0467592477798461,-0.0243407599627971,-0.0571301318705081,61.26351928710938,99.52278137207033,-30.89485168457031
234506,-0.0782470703125,1.016098022460938,0.0130615234375,0.0770865306258201,-0.0086440881714224,-0.052657350897789,61.15634155273438,99.66297912597656,-31.00845336914062
234507,-0.06903076171875,1.020126342773438,-0.0019378662109375,0.0937350168824195,-0.0383647009730339,-0.0553056001663208,61.10731506347656,99.73521423339844,-31.05899047851562
234508,-0.06903076171875,1.020126342773438,-0.0019378662109375,0.0937350168824195,-0.0383647009730339,-0.0553056001663208,61.10731506347656,99.73521423339844,-31.05899047851562
234509,-0.04266357421875,0.998504638671875,-0.007904052734375,0.0794588699936866,-0.0416614264249801,-0.0556227825582027,61.05281066894531,99.794921875,-31.17247009277344
234510,-0.04266357421875,0.998504638671875,-0.007904052734375,0.0794588699936866,-0.0416614264249801,-0.0556227825582027,61.05281066894531,99.794921875,-31.17247009277344
234511,-0.032684326171875,0.992645263671875,-0.0283660888671875,0.0667172446846962,-0.0698176994919776,-0.0601823814213275,61.06320190429688,99.764892578125,-31.2052001953125
234512,-0.032684326171875,0.992645263671875,-0.0283660888671875,0.0667172446846962,-0.0698176994919776,-0.0601823814213275,61.06320190429688,99.764892578125,-31.2052001953125
234513,-0.0666351318359375,0.99468994140625,-0.017486572265625,0.0459576360881328,-0.049020804464817,-0.0861149132251739,60.8931884765625,99.74598693847656,-31.36125183105469
234514,-0.0881195068359375,0.9892730712890624,-0.00994873046875,0.0402486212551593,-0.0539018474519252,-0.0869263783097267,60.88601684570312,99.73049926757812,-31.27693176269531
234515,-0.1024169921875,0.981658935546875,0.001495361328125,0.0418142937123775,-0.0831279084086418,-0.0756497532129287,60.83486938476562,99.87501525878906,-31.35987854003906
234516,-0.1024169921875,0.981658935546875,0.001495361328125,0.0418142937123775,-0.0831279084086418,-0.0756497532129287,60.83486938476562,99.87501525878906,-31.35987854003906
234517,-0.11260986328125,0.972198486328125,0.005279541015625,0.0423304140567779,-0.0998698696494102,-0.0628471374511718,60.67677307128906,99.90422058105467,-31.42689514160156
234518,-0.1072845458984375,0.9734344482421876,0.0061187744140625,0.0384187623858451,-0.1025697812438011,-0.0453123524785041,60.68943786621094,99.8375244140625,-31.36529541015625
234519,-0.09259033203125,0.9829559326171876,-0.0056915283203125,0.0337899215519428,-0.1099568605422974,-0.0257341247051954,60.72012329101562,99.7977294921875,-31.46109008789062
234520,-0.09259033203125,0.9829559326171876,-0.0056915283203125,0.0337899215519428,-0.1099568605422974,-0.0257341247051954,60.72012329101562,99.7977294921875,-31.46109008789062
234521,-0.0624847412109375,1.010696411132812,-0.0570526123046875,0.040402814745903,-0.1516278684139252,0.001954493811354,60.68080139160156,99.63792419433594,-31.51191711425781
234522,-0.0461273193359375,1.02734375,-0.068389892578125,0.0483129359781742,-0.1746437102556229,0.0167142655700445,60.65476989746094,99.69166564941406,-31.470703125
234523,-0.0287017822265625,1.036270141601562,-0.056182861328125,0.0622441992163658,-0.1658401042222977,0.0292801242321729,60.64418029785156,99.721923828125,-31.543701171875
234524,-0.0287017822265625,1.036270141601562,-0.056182861328125,0.0622441992163658,-0.1658401042222977,0.0292801242321729,60.64418029785156,99.721923828125,-31.543701171875
234525,-0.004425048828125,1.00927734375,-0.029693603515625,0.0643126741051673,-0.0626119822263717,0.0375830605626106,60.59539794921875,99.85853576660156,-31.62985229492188
234526,-0.004425048828125,1.00927734375,-0.029693603515625,0.0643126741051673,-0.0626119822263717,0.0375830605626106,60.59539794921875,99.85853576660156,-31.62985229492188
234527,-0.036102294921875,0.9842987060546876,-0.017913818359375,0.0447751954197883,-0.0801587477326393,0.0407674051821231,60.64974975585938,99.5645751953125,-31.62312316894531
234528,-0.04571533203125,0.97625732421875,-0.0023040771484375,0.0447429716587066,-0.0744526609778404,0.0422933958470821,60.74174499511719,99.50115966796876,-31.79225158691406
234529,-0.055633544921875,0.972869873046875,0.00311279296875,0.0454305969178676,-0.0503129698336124,0.0347816832363605,60.81105041503906,99.44740295410156,-31.8082275390625
234530,-0.0614013671875,0.978668212890625,-0.010467529296875,0.0330639444291591,-0.0252848509699106,0.0261580999940633,60.80921936035156,99.39877319335938,-31.74746704101562
234531,-0.0587615966796875,0.9882965087890624,-0.0297698974609375,-0.0132923694327473,-0.082028292119503,0.0193278919905424,60.91658020019531,99.39421081542967,-31.79641723632812
234532,-0.0587615966796875,0.9882965087890624,-0.0297698974609375,-0.0132923694327473,-0.082028292119503,0.0193278919905424,60.91658020019531,99.39421081542967,-31.79641723632812
234533,-0.0560302734375,1.00341796875,-0.0391387939453125,-0.0362141951918602,-0.1133531928062439,0.0190972611308097,60.88858032226562,99.28285217285156,-31.658203125
234534,-0.0596466064453125,1.010040283203125,-0.020782470703125,-0.053963366895914,-0.122682511806488,0.0208389684557914,60.78907775878906,99.29969787597656,-31.62840270996094
234535,-0.0662689208984375,1.0125732421875,-0.0013427734375,-0.0544861443340778,-0.1040126830339432,0.0183366630226373,60.814208984375,99.2430419921875,-31.64253234863281
234536,-0.0705108642578125,1.008834838867188,0.0212860107421875,-0.0433836914598941,-0.0678197965025901,0.0153491292148828,60.844970703125,99.35633850097656,-31.5771484375
234537,-0.0725250244140625,0.99908447265625,0.0366363525390625,-0.020748421549797,-0.016865000128746,0.0035545211285352,60.84782409667969,99.35614013671876,-31.56867980957031
234538,-0.0725250244140625,0.99908447265625,0.0366363525390625,-0.020748421549797,-0.016865000128746,0.0035545211285352,60.84782409667969,99.35614013671876,-31.56867980957031
234539,-0.0748443603515625,0.952667236328125,0.0252838134765625,-0.0044014062732458,-0.0052458946593105,-0.0178706105798482,60.9510498046875,99.4228057861328,-31.60223388671875
234540,-0.0706787109375,0.9334869384765624,0.01824951171875,-0.0164034739136695,-0.0327715277671814,-0.0289096795022487,61.02761840820312,99.24470520019533,-31.50221252441406
234541,-0.066802978515625,0.92730712890625,0.007415771484375,-0.0381412617862224,-0.0546134449541568,-0.0428446680307388,61.10960388183594,99.19602966308594,-31.64173889160156
234542,-0.0606842041015625,0.932525634765625,-0.003387451171875,-0.0651896521449089,-0.0654762089252471,-0.0549940094351768,61.09381103515625,99.18434143066406,-31.58749389648438
234543,-0.054840087890625,0.9460296630859376,-0.006622314453125,-0.0990080758929252,-0.0922897160053253,-0.086331695318222,61.22116088867188,99.14183044433594,-31.55793762207031
234544,-0.054840087890625,0.9460296630859376,-0.006622314453125,-0.0990080758929252,-0.0922897160053253,-0.086331695318222,61.22116088867188,99.14183044433594,-31.55793762207031
234545,-0.04571533203125,0.9711761474609376,0.0154876708984375,-0.1099491342902184,-0.0977678373456001,-0.1040001660585403,61.21295166015625,99.07997131347656,-31.41233825683594
234546,-0.05743408203125,0.9676055908203124,0.0264129638671875,-0.1084180846810341,-0.0926982462406158,-0.1113656759262085,61.19692993164062,98.9511260986328,-31.28828430175781
234547,-0.071075439453125,0.9571075439453124,0.038604736328125,-0.1147414967417717,-0.0586052574217319,-0.1088298112154007,61.18852233886719,98.99250793457033,-31.27655029296875
234548,-0.06829833984375,0.957672119140625,0.0364990234375,-0.1301659941673279,-0.0057271276600658,-0.1059320271015167,61.24810791015625,98.97607421875,-31.25675964355469
234549,-0.0619354248046875,0.9696044921875,0.0240631103515625,-0.1370830237865448,0.0545122437179088,-0.1066902279853821,61.10964965820312,99.06324768066406,-31.14665222167969
234550,-0.05487060546875,0.98382568359375,0.0178070068359375,-0.1470941156148911,0.1245286092162132,-0.1059123203158379,61.07273864746094,99.09185791015624,-31.08270263671875
234551,-0.05169677734375,1.004135131835938,-0.01202392578125,-0.1508864462375641,0.1264247894287109,-0.100898914039135,61.12179565429688,98.99864196777344,-30.96347045898438
234552,-0.05169677734375,1.004135131835938,-0.01202392578125,-0.1508864462375641,0.1264247894287109,-0.100898914039135,61.12179565429688,98.99864196777344,-30.96347045898438
234553,-0.051422119140625,1.011795043945312,-0.0071868896484375,-0.1462528109550476,0.0124233802780509,-0.1121760755777359,61.1185302734375,99.07273864746094,-30.67698669433594
234554,-0.051422119140625,1.011795043945312,-0.0071868896484375,-0.1462528109550476,0.0124233802780509,-0.1121760755777359,61.1185302734375,99.07273864746094,-30.67698669433594
234555,-0.0661773681640625,1.014236450195312,0.020751953125,-0.1185570061206818,0.0542027838528156,-0.1102567315101624,61.13748168945312,99.09422302246094,-30.46812438964844
234556,-0.081634521484375,1.02667236328125,0.028076171875,-0.1159058287739754,0.0783121138811111,-0.1059192419052124,61.10343933105469,99.10382080078124,-30.37255859375
234557,-0.091796875,1.038650512695312,0.0308685302734375,-0.1261105239391327,0.1218867599964142,-0.0966189503669738,60.98045349121094,99.13224792480467,-30.20716857910156
234558,-0.094482421875,1.039321899414062,0.003143310546875,-0.132402777671814,0.1726266294717789,-0.084270142018795,61.04344177246094,99.15031433105467,-30.19924926757812
234559,-0.094482421875,1.039321899414062,0.003143310546875,-0.132402777671814,0.1726266294717789,-0.084270142018795,61.04344177246094,99.15031433105467,-30.19924926757812
234560,-0.0949859619140625,1.032867431640625,-0.0207366943359375,-0.1081887856125832,0.2186902612447739,-0.0655795410275459,60.99310302734375,99.1519012451172,-30.1845703125
234561,-0.07525634765625,1.018280029296875,-0.01556396484375,-0.039194006472826,0.2502561807632446,-0.0455562993884086,60.95684814453125,99.2559051513672,-29.98150634765625
234562,-0.07525634765625,1.018280029296875,-0.01556396484375,-0.039194006472826,0.2502561807632446,-0.0455562993884086,60.95684814453125,99.2559051513672,-29.98150634765625
234563,-0.064239501953125,1.002349853515625,-0.0030517578125,-0.0075332839041948,0.2465256303548813,-0.0476050712168216,60.96633911132812,99.28952026367188,-29.91270446777344
234564,-0.0582275390625,0.9947357177734376,0.0026092529296875,-0.0056751961819827,0.2365867048501968,-0.0373500362038612,60.919921875,99.31350708007812,-29.92970275878906
234565,-0.0482940673828125,0.9847412109375,-0.0281982421875,-0.0130047481507062,0.233249232172966,-0.0202301703393459,60.79400634765625,99.30461120605467,-29.87147521972656
234566,-0.0452728271484375,0.9864349365234376,-0.05572509765625,-0.0207904987037181,0.2225835472345352,-0.0084187844768166,60.81626892089844,99.33221435546876,-29.85899353027344
234567,-0.0360260009765625,0.9905548095703124,-0.072967529296875,-0.034397654235363,0.2102195471525192,0.0019379822770133,60.874755859375,99.39608764648438,-29.81709289550781
234568,-0.0221710205078125,0.9959716796875,-0.0689697265625,-0.0607192739844322,0.1990856677293777,0.0021917815320193,60.94737243652344,99.451171875,-29.73916625976562
234569,-0.0148468017578125,1.006881713867188,-0.047271728515625,-0.0914172679185867,0.1847583949565887,-0.0119426790624856,60.90763854980469,99.46144104003906,-29.75566101074219
234570,-0.0137176513671875,1.023468017578125,-0.02777099609375,-0.1141753047704697,0.1642637699842453,-0.0421967208385467,60.88603210449219,99.56533813476562,-29.82200622558594
234571,-0.01092529296875,1.042083740234375,-0.0054168701171875,-0.1137505322694778,0.1515218764543533,-0.067734308540821,60.80120849609375,99.56480407714844,-29.70086669921875
234572,-0.0085906982421875,1.05731201171875,0.015106201171875,-0.1029471531510353,0.2316830307245255,-0.1031287834048271,60.91705322265625,99.69320678710938,-29.73472595214844
234573,-0.0202789306640625,1.055770874023438,0.033843994140625,-0.0983974114060401,0.2634793221950531,-0.0994733273983001,60.88160705566406,99.65516662597656,-29.6473388671875
234574,-0.0202789306640625,1.055770874023438,0.033843994140625,-0.0983974114060401,0.2634793221950531,-0.0994733273983001,60.88160705566406,99.65516662597656,-29.6473388671875
234575,-0.042266845703125,1.050582885742188,0.0336151123046875,-0.0851812064647674,0.238950788974762,-0.0869631245732307,60.83787536621094,99.71853637695312,-29.46044921875
234576,-0.058746337890625,1.048202514648438,-0.0255889892578125,-0.0487813875079155,0.1992963254451752,-0.0619885362684726,60.75784301757812,99.86288452148438,-29.16728210449219
234577,-0.0566558837890625,1.046356201171875,-0.0416259765625,-0.0041641187854111,0.1802517920732498,-0.0378674864768981,60.75302124023438,99.8662109375,-28.94589233398438
234578,-0.0477142333984375,1.031906127929688,-0.03717041015625,0.0233796238899231,0.1606474667787552,-0.0207188613712787,60.70484924316406,99.92527770996094,-29.03852844238281
234579,-0.0413055419921875,1.010894775390625,-0.009918212890625,0.0045374939218163,0.1629111617803574,-0.0082225101068615,60.61372375488281,100.0788421630859,-29.26167297363281
234580,-0.0413055419921875,1.010894775390625,-0.009918212890625,0.0045374939218163,0.1629111617803574,-0.0082225101068615,60.61372375488281,100.0788421630859,-29.26167297363281
234581,-0.044342041015625,0.99212646484375,0.0144805908203125,-0.0820035263895988,0.1528646498918533,-0.0008958873804658,60.49665832519531,100.1566467285156,-29.30146789550781
234582,-0.05218505859375,1.011810302734375,0.013885498046875,-0.1265632659196854,0.0050434945151209,-0.0014761901693418,60.52449035644531,100.1643371582031,-29.35841369628906
234583,-0.0594482421875,1.029342651367188,0.0205078125,-0.1265632659196854,0.0050434945151209,-0.0014761901693418,60.38568115234375,100.1821594238281,-29.07148742675781
234584,-0.0597686767578125,1.055618286132812,0.02337646484375,-0.116366021335125,-0.0382198244333267,0.0094169378280639,60.40609741210938,100.2419586181641,-29.05055236816406
234585,-0.0471343994140625,1.066207885742188,0.0210418701171875,-0.0331526286900043,-0.0547045245766639,0.0217881202697753,60.32887268066406,100.4323272705078,-29.05477905273438
234586,-0.0342254638671875,1.054153442382812,0.0266265869140625,-0.0331526286900043,-0.0547045245766639,0.0217881202697753,60.431640625,100.35888671875,-29.05294799804688
234587,-0.032806396484375,1.035797119140625,0.05181884765625,0.0282638613134622,-0.0524442978203296,0.0209838449954986,60.41270446777344,100.4003448486328,-29.11581420898438
234588,-0.032806396484375,1.035797119140625,0.05181884765625,0.0282638613134622,-0.0524442978203296,0.0209838449954986,60.41270446777344,100.4003448486328,-29.11581420898438
234589,-0.056396484375,1.00799560546875,0.1064605712890625,0.1037913784384727,-0.0281743798404932,0.0186333395540714,60.33366394042969,100.4659271240234,-28.97927856445312
234590,-0.0638275146484375,1.013290405273438,0.0966033935546875,0.1127406656742096,-0.0338610261678695,0.0115975337103009,60.32868957519531,100.5411071777344,-29.17308044433594
234591,-0.067901611328125,1.011978149414062,0.0747833251953125,0.1293638497591019,0.0049161952920258,-0.0120076602324843,60.23226928710938,100.6549987792969,-29.26649475097656
234592,-0.0720367431640625,1.007644653320312,0.0475921630859375,0.1293638497591019,0.0049161952920258,-0.0120076602324843,60.1575927734375,100.6734466552734,-29.26243591308594
234593,-0.0753173828125,0.99560546875,0.0164794921875,0.1614285707473755,0.075313925743103,-0.0217556282877922,60.21157836914062,100.7510375976562,-29.22895812988281
234594,-0.0834197998046875,0.987579345703125,-0.01177978515625,0.1877965331077576,0.1307372450828552,-0.0237013343721628,60.15484619140625,100.7407073974609,-29.34770202636719
234595,-0.099273681640625,0.9811859130859376,-0.0219573974609375,0.195889338850975,0.1344739198684692,-0.0118201738223433,60.16807556152344,100.8264923095703,-29.44491577148438
234596,-0.1206512451171875,0.975433349609375,-0.0128631591796875,0.1731600612401962,0.1073424369096756,-0.0047023436054587,60.18515014648438,100.7030029296875,-29.55735778808594
234597,-0.144317626953125,0.9796905517578124,-0.0031585693359375,0.1359985768795013,0.0486817844212055,-0.0068555092439055,60.16510009765625,100.6958770751953,-29.60690307617188
234598,-0.144317626953125,0.9796905517578124,-0.0031585693359375,0.1359985768795013,0.0486817844212055,-0.0068555092439055,60.16510009765625,100.6958770751953,-29.60690307617188
234599,-0.1558380126953125,0.97802734375,0.0128173828125,0.0231234282255172,0.0287996903061866,0.0088712554425001,60.21534729003906,100.6213989257812,-29.61848449707031
234600,-0.149566650390625,0.983795166015625,0.003875732421875,0.0231234282255172,0.0287996903061866,0.0088712554425001,60.267578125,100.7312927246094,-29.72660827636719
234601,-0.147308349609375,1.000640869140625,-0.02020263671875,0.0119211077690124,0.088577002286911,0.0107218865305185,60.18196105957031,100.6605682373047,-29.73941040039062
234602,-0.14825439453125,1.023345947265625,-0.052703857421875,0.0283943563699722,0.1646949350833893,0.010605240240693,60.24124145507812,100.5887145996094,-29.63291931152344
234603,-0.144744873046875,1.045623779296875,-0.07672119140625,0.0582926012575626,0.2230290919542313,0.0085426215082407,60.20341491699219,100.6724243164062,-29.70045471191406
234604,-0.133453369140625,1.064163208007812,-0.065093994140625,0.0831737145781517,0.2822580635547638,-0.0005115932435728,60.21235656738281,100.5783386230469,-29.64065551757812
234605,-0.1261138916015625,1.075042724609375,-0.0370635986328125,0.097502052783966,0.3251996636390686,-0.0084656560793519,60.14265441894531,100.5454559326172,-29.57830810546875
234606,-0.1292724609375,1.074020385742188,-0.016204833984375,0.1029719188809395,0.3414793014526367,-0.0206165947020053,60.25984191894531,100.5098876953125,-29.62530517578125
234607,-0.1349334716796875,1.065963745117188,-0.0119781494140625,0.1051735579967499,0.3390923142433167,-0.0288657359778881,60.32546997070312,100.4161834716797,-29.60801696777344
234608,-0.137176513671875,1.056381225585938,-0.0259552001953125,0.117876835167408,0.3324916660785675,-0.0321848355233669,60.2596435546875,100.3676147460938,-29.67625427246094
234609,-0.141265869140625,1.035293579101562,-0.04766845703125,0.1364609003067017,0.317696213722229,-0.0453461743891239,60.45016479492188,100.3073120117188,-29.63230895996094
234610,-0.1468658447265625,1.006668090820312,-0.076904296875,0.1639593690633774,0.3019691705703735,-0.062834620475769,60.44488525390625,100.3511962890625,-29.52491760253906
234611,-0.158355712890625,0.9917449951171876,-0.1072540283203125,0.1861229985952377,0.2670495510101318,-0.0799443647265434,60.51954650878906,100.4152526855469,-29.59803771972656
234612,-0.158355712890625,0.9917449951171876,-0.1072540283203125,0.1861229985952377,0.2670495510101318,-0.0799443647265434,60.51954650878906,100.4152526855469,-29.59803771972656
234613,-0.1675262451171875,0.98895263671875,-0.164794921875,0.1874473839998245,0.1447326838970184,-0.1004286035895348,60.49142456054688,100.3989562988281,-29.61956787109375
234614,-0.154083251953125,0.988616943359375,-0.187774658203125,0.1911832690238953,0.0901080518960952,-0.0954679325222969,60.46757507324219,100.4123840332031,-29.71844482421875
234615,-0.1319122314453125,0.9884490966796876,-0.202728271484375,0.2513496875762939,0.0376645550131797,-0.0799760594964027,60.4639892578125,100.2649688720703,-29.69180297851562
234616,-0.1114044189453125,0.982940673828125,-0.206024169921875,0.2513496875762939,0.0376645550131797,-0.0799760594964027,60.5606689453125,100.1865234375,-29.88822937011719
234617,-0.0968780517578125,0.962860107421875,-0.19287109375,0.269281804561615,0.0229106415063142,-0.0759032890200614,60.63356018066406,100.0504455566406,-29.9228515625
234618,-0.0968780517578125,0.962860107421875,-0.19287109375,0.269281804561615,0.0229106415063142,-0.0759032890200614,60.63356018066406,100.0504455566406,-29.9228515625
234619,-0.089569091796875,0.93426513671875,-0.172576904296875,0.2555968761444092,0.0218544322997331,-0.0789243727922439,60.59367370605469,100.0713500976562,-30.14744567871094
234620,-0.10992431640625,0.847564697265625,-0.18701171875,0.1686742305755615,-0.0782724320888519,-0.1022693812847137,60.65530395507812,99.88185119628906,-30.32815551757812
234621,-0.111236572265625,0.8138275146484375,-0.19830322265625,0.110544890165329,-0.2343238145112991,-0.1242559030652046,60.75123596191406,99.70196533203124,-30.47105407714844
234622,-0.111236572265625,0.8138275146484375,-0.19830322265625,0.110544890165329,-0.2343238145112991,-0.1242559030652046,60.75123596191406,99.70196533203124,-30.47105407714844
234623,-0.1079864501953125,0.7914886474609375,-0.187835693359375,0.0690222084522247,-0.3076363801956177,-0.1346523463726044,60.78176879882812,99.54185485839844,-30.49909973144531
234624,-0.0776519775390625,0.798675537109375,-0.243194580078125,0.0699087753891944,-0.2142321318387985,-0.1118799299001694,60.91741943359375,99.312744140625,-30.60336303710938
234625,-0.044281005859375,0.8237762451171875,-0.281524658203125,0.1013559177517891,-0.2032918632030487,-0.0737354755401611,60.91073608398438,99.19224548339844,-30.63102722167969
234626,-0.044281005859375,0.8237762451171875,-0.281524658203125,0.1013559177517891,-0.2032918632030487,-0.0737354755401611,60.91073608398438,99.19224548339844,-30.63102722167969
234627,0.0157470703125,0.8667449951171875,-0.2423553466796875,0.1308267265558243,-0.1944131553173065,-0.0031228226143866,60.81669616699219,99.16537475585938,-30.86997985839844
234628,0.0208587646484375,0.8598785400390625,-0.211944580078125,0.1352973729372025,-0.1839850097894669,0.0030780816450715,60.83975219726562,99.05682373046876,-30.71150207519531
234629,0.003509521484375,0.8411102294921875,-0.189727783203125,0.1420596688985825,-0.2115234285593033,0.0061151506379246,60.78468322753906,99.05703735351562,-30.60574340820312
234630,-0.0223846435546875,0.824554443359375,-0.165985107421875,0.1539815813302994,-0.2356783002614975,0.018010426312685,60.75015258789062,99.02593994140624,-30.6964111328125
234631,-0.0309906005859375,0.816436767578125,-0.1612091064453125,0.1310144811868668,-0.1969402283430099,0.024497352540493,60.744140625,98.954833984375,-30.89079284667969
234632,-0.0309906005859375,0.816436767578125,-0.1612091064453125,0.1310144811868668,-0.1969402283430099,0.024497352540493,60.744140625,98.954833984375,-30.89079284667969
234633,-0.026641845703125,0.83868408203125,-0.2218017578125,0.106780506670475,-0.1965444833040237,0.0189569126814603,60.73405456542969,98.81837463378906,-31.18344116210938
234634,-0.015594482421875,0.844573974609375,-0.235260009765625,0.0912319123744964,-0.2374586313962936,0.009425725787878,60.64958190917969,98.76573181152344,-31.19984436035156
234635,0.0028228759765625,0.836822509765625,-0.216583251953125,0.0694448575377464,-0.2652377784252167,-0.0096350507810711,60.60421752929688,98.66819763183594,-31.33256530761719
234636,0.0137939453125,0.827117919921875,-0.20501708984375,0.038193192332983,-0.2586912214756012,-0.0303933247923851,60.64933776855469,98.74307250976562,-31.41351318359375
234637,0.014617919921875,0.8166351318359375,-0.2133331298828125,0.012556804344058,-0.2650905251502991,-0.0459416583180427,60.70903015136719,98.73585510253906,-31.49967956542969
234638,0.009490966796875,0.8032073974609375,-0.2170257568359375,0.0084195835515856,-0.2936460077762604,-0.0466117113828659,60.5838623046875,98.77508544921876,-31.40049743652344
234639,0.0122222900390625,0.798675537109375,-0.2103729248046875,-0.0041164481081068,-0.3059130609035492,-0.0267967265099287,60.53288269042969,98.81509399414062,-31.4671630859375
234640,0.0122222900390625,0.798675537109375,-0.2103729248046875,-0.0041164481081068,-0.3059130609035492,-0.0267967265099287,60.53288269042969,98.81509399414062,-31.4671630859375
234641,0.017425537109375,0.826934814453125,-0.2010650634765625,-0.0446164682507515,-0.2855997979640961,0.0300377942621707,60.46482849121094,98.72996520996094,-31.53782653808594
234642,0.012603759765625,0.8642730712890625,-0.176025390625,-0.0762596204876899,-0.2703196406364441,0.0482982918620109,60.44271850585938,98.72653198242188,-31.59584045410156
234643,-0.0107574462890625,0.906463623046875,-0.12078857421875,-0.108621820807457,-0.2427007853984833,0.0634439513087272,60.30516052246094,98.72322082519533,-31.59944152832031
234644,-0.0107574462890625,0.906463623046875,-0.12078857421875,-0.108621820807457,-0.2427007853984833,0.0634439513087272,60.30516052246094,98.72322082519533,-31.59944152832031
234645,-0.0672760009765625,1.015213012695312,-0.08135986328125,-0.1590871214866638,-0.1613979488611221,0.0725255981087684,60.29759216308594,98.8531494140625,-31.46733093261719
234646,-0.0672760009765625,1.015213012695312,-0.08135986328125,-0.1590871214866638,-0.1613979488611221,0.0725255981087684,60.29759216308594,98.8531494140625,-31.46733093261719
234647,-0.047576904296875,1.098739624023438,-0.113677978515625,-0.0755110010504722,-0.2231784909963608,0.0653409212827682,60.25985717773438,98.85789489746094,-31.51127624511719
234648,-0.00482177734375,1.1492919921875,-0.1153717041015625,-0.0755110010504722,-0.2231784909963608,0.0653409212827682,60.10952758789062,98.95578002929688,-31.40339660644531
234649,0.053802490234375,1.212554931640625,-0.11358642578125,0.0110278837382793,-0.2612736821174622,0.0839851796627044,60.09292602539062,99.10537719726562,-31.43922424316406
234650,0.0970306396484375,1.25982666015625,-0.1101837158203125,0.0915062129497528,-0.2953339219093323,0.0835548117756843,60.0028076171875,99.1920166015625,-31.34718322753906
234651,0.0970306396484375,1.25982666015625,-0.1101837158203125,0.0915062129497528,-0.2953339219093323,0.0835548117756843,60.0028076171875,99.1920166015625,-31.34718322753906
234652,0.1161651611328125,1.282806396484375,-0.0828094482421875,0.1003114208579063,-0.252466082572937,0.035138014703989,59.90896606445312,99.34895324707033,-31.4429931640625
234653,0.080596923828125,1.2838134765625,-0.06573486328125,0.0505582503974437,-0.2054074853658676,-0.0073577812872827,59.6090087890625,99.41911315917967,-31.4532470703125
234654,0.080596923828125,1.2838134765625,-0.06573486328125,0.0505582503974437,-0.2054074853658676,-0.0073577812872827,59.6090087890625,99.41911315917967,-31.4532470703125
234655,-0.040802001953125,1.215362548828125,-0.169708251953125,0.0137246008962392,-0.2295375913381577,-0.0548065230250358,59.61073303222656,99.54359436035156,-31.4334716796875
234656,-0.077667236328125,1.223129272460938,-0.203765869140625,0.0334471724927425,-0.2177661508321762,-0.0695463195443153,59.49116516113281,99.60745239257812,-31.61648559570312
234657,-0.100555419921875,1.249603271484375,-0.229034423828125,0.0660748928785324,-0.1539301723241806,-0.0960476994514465,59.37747192382812,99.68544006347656,-31.75563049316406
234658,-0.1360321044921875,1.17315673828125,-0.219696044921875,0.0783464685082435,-0.0745658501982688,-0.1217440143227577,59.17364501953125,99.77972412109376,-31.74978637695312
234659,-0.1360321044921875,1.17315673828125,-0.219696044921875,0.0783464685082435,-0.0745658501982688,-0.1217440143227577,59.17364501953125,99.77972412109376,-31.74978637695312
234660,-0.1360321044921875,1.17315673828125,-0.219696044921875,0.0783464685082435,-0.0745658501982688,-0.1217440143227577,59.17364501953125,99.77972412109376,-31.74978637695312
234661,-0.125640869140625,1.064453125,-0.172698974609375,0.1022720411419868,-0.0298692155629396,-0.1059807613492012,59.13645935058594,99.73155212402344,-31.85404968261719
234662,-0.125640869140625,1.064453125,-0.172698974609375,0.1022720411419868,-0.0298692155629396,-0.1059807613492012,59.13645935058594,99.73155212402344,-31.85404968261719
234663,-0.131805419921875,1.042800903320312,-0.2184295654296875,0.1323148906230927,-0.0702097117900848,-0.0936710983514785,59.18778991699219,99.69981384277344,-31.9107666015625
234664,-0.134674072265625,1.030044555664062,-0.2793121337890625,0.1400039792060852,-0.1026523411273956,-0.0819441378116607,59.04379272460938,99.56884765625,-31.99884033203125
234665,-0.1246490478515625,1.045928955078125,-0.2819976806640625,0.1419656574726105,-0.0948194563388824,-0.0670599937438964,58.96553039550781,99.5093994140625,-31.94400024414062
234666,-0.1246490478515625,1.045928955078125,-0.2819976806640625,0.1419656574726105,-0.0948194563388824,-0.0670599937438964,58.96553039550781,99.5093994140625,-31.94400024414062
234667,-0.117584228515625,1.064041137695312,-0.2786865234375,0.1426652669906616,-0.0640144050121307,-0.0469877496361732,59.01254272460938,99.57498168945312,-32.14581298828125
234668,-0.1424713134765625,1.038253784179688,-0.2292938232421875,0.1620858460664749,0.0304029136896133,-0.0148500520735979,59.02857971191406,99.46751403808594,-32.18014526367188
234669,-0.16705322265625,1.007583618164062,-0.203155517578125,0.1443246901035309,0.0825950130820274,0.0038365498185157,59.11979675292969,99.2928466796875,-32.117431640625
234670,-0.1953582763671875,0.984466552734375,-0.1657257080078125,0.1125989854335785,0.117655523121357,0.014954182319343,59.14199829101562,99.227783203125,-32.29995727539062
234671,-0.226348876953125,0.9636993408203124,-0.1278228759765625,0.0269509237259626,0.1559123694896698,0.0356221757829189,59.22065734863281,99.06602478027344,-32.34297180175781
234672,-0.226348876953125,0.9636993408203124,-0.1278228759765625,0.0269509237259626,0.1559123694896698,0.0356221757829189,59.22065734863281,99.06602478027344,-32.34297180175781
234673,-0.221923828125,0.9491424560546876,-0.099365234375,-0.0313944071531295,0.1185234487056732,0.0490445084869861,59.37052917480469,98.90428161621094,-32.29196166992188
234674,-0.188934326171875,0.95758056640625,-0.08642578125,-0.0313944071531295,0.1185234487056732,0.0490445084869861,59.40998840332031,98.97817993164062,-32.40338134765625
234675,-0.188934326171875,0.95758056640625,-0.08642578125,-0.0313944071531295,0.1185234487056732,0.0490445084869861,59.40998840332031,98.97817993164062,-32.40338134765625
234676,-0.157867431640625,0.9644317626953124,-0.0635986328125,-0.0452194102108478,0.1814699321985245,0.0525921061635017,59.50532531738281,98.86767578125,-32.38591003417969
234677,-0.1131134033203125,0.934844970703125,0.000946044921875,-0.0741479992866516,0.2029754817485809,0.064120665192604,59.60409545898438,98.75807189941406,-32.04898071289062
234678,-0.1123046875,0.89447021484375,0.017578125,-0.1011055782437325,0.1799327433109283,0.0843124836683273,59.65597534179688,98.71183776855467,-31.85032653808594
234679,-0.118682861328125,0.83868408203125,0.0171051025390625,-0.0999524295330047,0.1444703638553619,0.1163061037659645,59.73171997070312,98.80908203125,-32.0584716796875
234680,-0.118682861328125,0.83868408203125,0.0171051025390625,-0.0999524295330047,0.1444703638553619,0.1163061037659645,59.73171997070312,98.80908203125,-32.0584716796875
234681,-0.0904541015625,0.7569732666015625,-0.037872314453125,-0.0475898906588554,0.093776561319828,0.1982651501893997,59.84040832519531,98.74658203125,-32.13937377929688
234682,-0.0516204833984375,0.73968505859375,-0.0785064697265625,-0.0406619422137737,0.0639382377266883,0.2290459722280502,59.88581848144531,98.77130126953124,-32.13981628417969
234683,-0.0153656005859375,0.7272796630859375,-0.115875244140625,-0.0532179474830627,-0.0325736552476882,0.278956264257431,59.97415161132812,98.7899169921875,-32.11643981933594
234684,-0.0153656005859375,0.7272796630859375,-0.115875244140625,-0.0532179474830627,-0.0325736552476882,0.278956264257431,59.97415161132812,98.7899169921875,-32.11643981933594
234685,0.050567626953125,0.711090087890625,-0.17919921875,-0.0447656065225601,-0.0874962955713272,0.3030280470848083,60.24581909179688,98.86180114746094,-32.02676391601562
234686,0.0884857177734375,0.7033843994140625,-0.2035369873046875,-0.0252329185605049,-0.1446794271469116,0.3236078917980194,60.297119140625,98.92488098144533,-32.02085876464844
234687,0.0884857177734375,0.7033843994140625,-0.2035369873046875,-0.0252329185605049,-0.1446794271469116,0.3236078917980194,60.297119140625,98.92488098144533,-32.02085876464844
234688,0.178070068359375,0.73175048828125,-0.2234344482421875,0.0336455777287483,-0.2511211633682251,0.3348544239997864,60.48715209960938,98.74659729003906,-31.89131164550781
234689,0.2206573486328125,0.7578125,-0.2283477783203125,0.0736824795603752,-0.2823755145072937,0.3252132534980774,60.56266784667969,98.7265625,-31.87995910644531
234690,0.2206573486328125,0.7578125,-0.2283477783203125,0.0736824795603752,-0.2823755145072937,0.3252132534980774,60.56266784667969,98.7265625,-31.87995910644531
234691,0.295013427734375,0.8369903564453125,-0.2204437255859375,0.0773235484957695,-0.299284964799881,0.2924089729785919,60.66508483886719,98.78790283203124,-32.06521606445312
234692,0.3220672607421875,0.9051666259765624,-0.1782989501953125,0.0773235484957695,-0.299284964799881,0.2924089729785919,60.63432312011719,98.67910766601562,-32.20730590820312
234693,0.3250732421875,0.9871063232421876,-0.166900634765625,-0.0009158611064776,-0.2510146498680115,0.2227555811405182,60.66471862792969,98.722412109375,-32.21531677246094
234694,0.2861480712890625,1.0810546875,-0.1337738037109375,-0.0646996349096298,-0.1730290353298187,0.1298200488090515,60.63023376464844,98.77940368652344,-32.25282287597656
234695,0.1928558349609375,1.1746826171875,-0.09381103515625,-0.0674493461847305,-0.0088179921731352,0.0619121044874191,60.67927551269531,98.72373962402344,-32.30668640136719
234696,0.1928558349609375,1.1746826171875,-0.09381103515625,-0.0674493461847305,-0.0088179921731352,0.0619121044874191,60.67927551269531,98.72373962402344,-32.30668640136719
234697,0.0355072021484375,1.344497680664062,-0.016143798828125,-0.0243024099618196,0.4130648076534271,-0.0522014200687408,60.58657836914062,98.79972839355467,-32.08660888671875
234698,-0.0354766845703125,1.4293212890625,-0.0035552978515625,-0.0288156699389219,0.5572525858879089,-0.0865612551569938,60.57279968261719,98.8539581298828,-32.06707763671875
234699,-0.10125732421875,1.510101318359375,-0.0064849853515625,-0.0084203826263546,0.6719623804092407,-0.1065450832247734,60.51362609863281,99.10598754882812,-32.09437561035156
234700,-0.1343536376953125,1.56683349609375,-0.0396881103515625,0.0528517626225948,0.7203323245048523,-0.0808748751878738,60.4505615234375,99.26600646972656,-32.05764770507812
234701,-0.1534423828125,1.59857177734375,-0.089752197265625,0.153428703546524,0.7255385518074036,-0.0433770343661308,60.43865966796875,99.25082397460938,-31.85791015625
234702,-0.1534423828125,1.59857177734375,-0.089752197265625,0.153428703546524,0.7255385518074036,-0.0433770343661308,60.43865966796875,99.25082397460938,-31.85791015625
234703,-0.0557708740234375,1.383773803710938,-0.3114166259765625,0.4180353283882141,0.4907063245773315,0.0884097591042518,60.543701171875,99.32408142089844,-31.88336181640625
234704,0.00372314453125,1.237213134765625,-0.3806304931640625,0.4968489110469818,0.4647746086120605,0.1221458837389946,60.68989562988281,99.22744750976562,-31.99812316894531
