time_idx,accelerometerAccelerationX(G),accelerometerAccelerationY(G),accelerometerAccelerationZ(G),gyroRotationX(rad/s),gyroRotationY(rad/s),gyroRotationZ(rad/s),magnetometerX(µT),magnetometerY(µT),magnetometerZ(µT)
274028,-0.8460540771484375,0.893402099609375,0.03680419921875,-0.4892016351222992,-0.339069664478302,-0.3908702731132507,41.27333068847656,100.2562408447266,-18.73876953125
274029,-0.85638427734375,0.931243896484375,0.0146026611328125,-0.5406608581542969,-0.3615390360355377,-0.2887196838855743,40.89906311035156,100.0778503417969,-18.50367736816406
274030,-0.8423004150390625,0.95391845703125,-0.023101806640625,-0.5840160250663757,-0.4152099788188934,-0.1587582230567932,40.63558959960938,100.2341918945312,-18.25997924804688
274031,-0.8423004150390625,0.95391845703125,-0.023101806640625,-0.5840160250663757,-0.4152099788188934,-0.1587582230567932,40.63558959960938,100.2341918945312,-18.25997924804688
274032,-0.795257568359375,0.974761962890625,-0.0649871826171875,-0.6034629940986633,-0.5040591359138489,-0.0194988660514354,40.32955932617188,100.1318511962891,-18.01158142089844
274033,-0.6284332275390625,1.007827758789062,-0.10943603515625,-0.4959269165992737,-0.5573077201843262,0.2016566842794418,40.02581787109375,100.1107940673828,-17.46183776855469
274034,-0.53411865234375,1.003738403320312,-0.121124267578125,-0.2756789922714233,-0.4727928340435028,0.3061426281929016,40.05122375488281,100.1256408691406,-17.11213684082031
274035,-0.43963623046875,0.9768218994140624,-0.1306915283203125,-0.2756789922714233,-0.4727928340435028,0.3061426281929016,40.02720642089844,100.0674285888672,-16.80340576171875
274036,-0.349853515625,0.935302734375,-0.14453125,-0.1135662421584129,-0.5616611838340759,0.269278883934021,40.09573364257812,100.0683288574219,-16.51725769042969
274037,-0.28424072265625,0.880828857421875,-0.148681640625,-0.1135662421584129,-0.5616611838340759,0.269278883934021,40.24467468261719,100.0745239257812,-16.32785034179688
274038,-0.2347259521484375,0.8241729736328125,-0.1579742431640625,-0.0230850782245397,-0.6275651454925537,0.2318119257688522,40.39863586425781,100.1229248046875,-16.03726196289062
274039,-0.2025604248046875,0.7735137939453125,-0.1808624267578125,0.0778881385922431,-0.6613702178001404,0.1912051141262054,40.53141784667969,100.0775451660156,-15.91094970703125
274040,-0.192474365234375,0.7406768798828125,-0.1945343017578125,0.1804997324943542,-0.6353247761726379,0.1409816145896912,40.59375,100.1332855224609,-15.89485168457031
274041,-0.192474365234375,0.7406768798828125,-0.1945343017578125,0.1804997324943542,-0.6353247761726379,0.1409816145896912,40.59375,100.1332855224609,-15.89485168457031
274042,-0.2458648681640625,0.706512451171875,-0.2328948974609375,0.3222688436508179,-0.5255039930343628,0.0397751107811927,40.84318542480469,100.2089691162109,-16.00445556640625
274043,-0.314300537109375,0.7129974365234375,-0.2279815673828125,0.3500227332115173,-0.4982393383979797,0.0306063778698444,40.83525085449219,100.1889190673828,-16.01640319824219
274044,-0.3655548095703125,0.749420166015625,-0.2044219970703125,0.3033723831176758,-0.446021169424057,0.051036287099123,40.93112182617188,100.1864624023438,-16.10610961914062
274045,-0.3655548095703125,0.749420166015625,-0.2044219970703125,0.3033723831176758,-0.446021169424057,0.051036287099123,40.93112182617188,100.1864624023438,-16.10610961914062
274046,-0.42193603515625,0.8761138916015625,-0.1693572998046875,0.256130039691925,-0.403851330280304,0.0807584971189498,40.94354248046875,100.1580505371094,-16.43690490722656
274047,-0.428619384765625,0.9484710693359376,-0.1390838623046875,0.2128859013319016,-0.3695586025714874,0.1097166463732719,41.01673889160156,100.2397918701172,-16.50434875488281
274048,-0.4458770751953125,1.022018432617188,-0.106597900390625,0.2063121646642685,-0.3005718290805817,0.163633406162262,41.05116271972656,100.3063812255859,-16.60762023925781
274049,-0.46697998046875,1.09674072265625,-0.0445098876953125,0.1845229715108871,-0.2595596611499786,0.157338485121727,40.99089050292969,100.4218139648438,-16.55587768554688
274050,-0.494354248046875,1.172409057617188,0.0438690185546875,0.1845229715108871,-0.2595596611499786,0.157338485121727,41.12612915039062,100.2799835205078,-16.59945678710938
274051,-0.5226287841796875,1.217086791992188,0.12548828125,0.1420852392911911,-0.1879837512969971,0.1324094384908676,41.2960205078125,100.2082672119141,-16.76420593261719
274052,-0.54840087890625,1.239273071289062,0.1815032958984375,0.1192038878798485,-0.1264127939939499,0.1065903604030609,41.35697937011719,100.1885223388672,-17.11570739746094
274053,-0.5713043212890625,1.247756958007812,0.220794677734375,0.1117787286639214,-0.0829382911324501,0.0796183943748474,41.42904663085938,100.1812744140625,-17.26646423339844
274054,-0.5928955078125,1.234649658203125,0.2401580810546875,0.1292810291051865,-0.0534592308104038,0.0715721845626831,41.53959655761719,100.2861022949219,-17.36273193359375
274055,-0.5928955078125,1.234649658203125,0.2401580810546875,0.1292810291051865,-0.0534592308104038,0.0715721845626831,41.53959655761719,100.2861022949219,-17.36273193359375
274056,-0.6253814697265625,1.203903198242188,0.238525390625,0.1818805783987045,-0.0181363932788372,0.0607517622411251,41.64901733398438,100.1643676757812,-17.43270874023438
274057,-0.6863250732421875,1.069183349609375,0.1691436767578125,0.395703136920929,0.0970043092966079,0.024895230308175,41.81234741210938,100.3223876953125,-17.72688293457031
274058,-0.6930999755859375,0.9965972900390624,0.1435699462890625,0.4854420721530914,0.1958001255989075,0.0036602485924959,41.96534729003906,100.3916473388672,-17.89192199707031
274059,-0.6925048828125,0.92669677734375,0.1177520751953125,0.5371193885803223,0.2804665565490723,-0.0107162939384579,42.04776000976562,100.5158386230469,-18.1282958984375
274060,-0.6845550537109375,0.853424072265625,0.0986175537109375,0.563518226146698,0.3287155628204346,-0.0076672406867146,42.10549926757812,100.5395355224609,-18.36648559570312
274061,-0.6708221435546875,0.7899017333984375,0.091400146484375,0.5661499500274658,0.3580577373504639,-3.648530764621682e-05,42.17990112304688,100.4925384521484,-18.69175720214844
274062,-0.65509033203125,0.732421875,0.0826263427734375,0.5166580677032471,0.3811366856098175,0.0102105597034096,42.28974914550781,100.6075286865234,-19.00028991699219
274063,-0.6358642578125,0.6845245361328125,0.0782623291015625,0.4096916317939758,0.3617246448993683,0.014912636950612,42.3538818359375,100.6070709228516,-19.28480529785156
274064,-0.6075897216796875,0.66033935546875,0.0987396240234375,0.0421107001602649,0.2781104445457458,-0.0141070308163762,42.41838073730469,100.5381469726562,-19.53201293945312
274065,-0.6075897216796875,0.66033935546875,0.0987396240234375,0.0421107001602649,0.2781104445457458,-0.0141070308163762,42.41838073730469,100.5381469726562,-19.53201293945312
274066,-0.59832763671875,0.648040771484375,0.2260284423828125,-0.1295193731784821,0.216496080160141,0.0052637378685176,42.59584045410156,100.6068878173828,-20.01298522949219
274067,-0.59832763671875,0.648040771484375,0.2260284423828125,-0.1295193731784821,0.216496080160141,0.0052637378685176,42.59584045410156,100.6068878173828,-20.01298522949219
274068,-0.5175018310546875,0.6679840087890625,0.311859130859375,-0.3978573679924011,0.0317123904824256,0.0926383212208747,42.61407470703125,100.6457977294922,-19.99528503417969
274069,-0.46380615234375,0.6826019287109375,0.3433990478515625,-0.4726700782775879,-0.0810224115848541,0.1537112593650818,42.62368774414062,100.6034545898438,-19.99237060546875
274070,-0.4056396484375,0.6930694580078125,0.381256103515625,-0.510404646396637,-0.1477660238742828,0.2097194045782089,42.60601806640625,100.5788421630859,-19.91058349609375
274071,-0.4056396484375,0.6930694580078125,0.381256103515625,-0.510404646396637,-0.1477660238742828,0.2097194045782089,42.60601806640625,100.5788421630859,-19.91058349609375
274072,-0.2923431396484375,0.732513427734375,0.392333984375,-0.4904027283191681,-0.193142831325531,0.3088292181491852,42.73638916015625,100.6016082763672,-19.313232421875
274073,-0.2395477294921875,0.738616943359375,0.31854248046875,-0.4484467506408691,-0.3292311429977417,0.3491276204586029,42.88015747070312,100.5525817871094,-19.09880065917969
274074,-0.191619873046875,0.7654876708984375,0.2516021728515625,-0.4195999205112457,-0.524523138999939,0.3918764293193817,43.07650756835938,100.5257415771484,-18.86276245117188
274075,-0.191619873046875,0.7654876708984375,0.2516021728515625,-0.4195999205112457,-0.524523138999939,0.3918764293193817,43.07650756835938,100.5257415771484,-18.86276245117188
274076,-0.1447601318359375,0.910186767578125,0.294189453125,-0.4259790182113647,-0.6758798956871033,0.4166648685932159,43.30889892578125,100.5508728027344,-18.39053344726562
274077,-0.1603546142578125,0.9884033203125,0.3881072998046875,-0.4248972237110138,-0.4153500497341156,0.3532443344593048,43.44184875488281,100.5375061035156,-18.15933227539062
274078,-0.1902008056640625,1.012451171875,0.421722412109375,-0.4128988981246948,-0.0741791576147079,0.2446145415306091,43.53167724609375,100.6028289794922,-18.09011840820312
274079,-0.24237060546875,1.000686645507812,0.3957061767578125,-0.4075078666210175,0.1517333388328552,0.1226409673690796,43.59416198730469,100.6461029052734,-17.79542541503906
274080,-0.294891357421875,0.9741973876953124,0.3624114990234375,-0.4458195567131042,0.1952930688858032,-0.0284707900136709,43.68275451660156,100.6598815917969,-17.60641479492188
274081,-0.347015380859375,0.9268646240234376,0.3528594970703125,-0.5367785096168518,0.0910188555717468,-0.1814392954111099,43.774658203125,100.6730804443359,-17.47097778320312
274082,-0.4058685302734375,0.860260009765625,0.3535003662109375,-0.7003282904624939,-0.0851122289896011,-0.2932787537574768,43.82637023925781,100.5631866455078,-17.27740478515625
274083,-0.464080810546875,0.7975616455078125,0.33709716796875,-0.8662639856338501,-0.2248533517122269,-0.3508040904998779,43.70068359375,100.6392669677734,-16.98947143554688
274084,-0.5050048828125,0.748809814453125,0.2882537841796875,-0.9539695978164672,-0.3019550740718842,-0.3945478498935699,43.52494812011719,100.6540374755859,-16.72573852539062
274085,-0.5050048828125,0.748809814453125,0.2882537841796875,-0.9539695978164672,-0.3019550740718842,-0.3945478498935699,43.52494812011719,100.6540374755859,-16.72573852539062
274086,-0.5453033447265625,0.7335052490234375,0.199310302734375,-0.8082627058029175,-0.2671771049499512,-0.4385648369789124,43.09344482421875,100.6448059082031,-15.95503234863281
274087,-0.5453033447265625,0.7335052490234375,0.199310302734375,-0.8082627058029175,-0.2671771049499512,-0.4385648369789124,43.09344482421875,100.6448059082031,-15.95503234863281
274088,-0.5731048583984375,0.782958984375,0.1894073486328125,-0.5594739317893982,0.1548441797494888,-0.4892637133598328,42.67642211914062,100.5623168945312,-15.02336120605469
274089,-0.581939697265625,0.8263702392578125,0.1560211181640625,-0.5594739317893982,0.1548441797494888,-0.4892637133598328,42.40985107421875,100.4222259521484,-14.64256286621094
274090,-0.5848236083984375,0.8646240234375,0.1165008544921875,-0.5312896966934204,0.225666418671608,-0.4542276859283447,42.20111083984375,100.2852630615234,-14.34580993652344
274091,-0.59295654296875,0.9188385009765624,0.0621337890625,-0.5062325596809387,0.2968324720859528,-0.4182369410991669,41.81155395507812,100.1569519042969,-13.92372131347656
274092,-0.5950927734375,0.96429443359375,0.00018310546875,-0.4439433515071869,0.3972863852977753,-0.3953965902328491,41.53622436523438,100.1422729492188,-13.72747802734375
274093,-0.5950927734375,0.96429443359375,0.00018310546875,-0.4439433515071869,0.3972863852977753,-0.3953965902328491,41.53622436523438,100.1422729492188,-13.72747802734375
274094,-0.554534912109375,1.020095825195312,-0.090240478515625,-0.246737077832222,0.6553221940994263,-0.2183456569910049,41.14968872070312,99.91941833496094,-13.22404479980469
274095,-0.516571044921875,1.023544311523438,-0.1115264892578125,-0.246737077832222,0.6553221940994263,-0.2183456569910049,40.95352172851562,99.799560546875,-12.9794921875
274096,-0.4681549072265625,1.008956909179688,-0.126190185546875,-0.0665737017989158,0.6863954067230225,-0.0508003309369087,40.72845458984375,99.74571228027344,-12.71452331542969
274097,-0.393646240234375,0.9767608642578124,-0.153900146484375,-0.0665737017989158,0.6863954067230225,-0.0508003309369087,40.61421203613281,99.67108154296876,-12.69490051269531
274098,-0.3343658447265625,0.934906005859375,-0.185089111328125,0.0183350648730993,0.6978262066841125,-0.002274605911225,40.5013427734375,99.62179565429688,-12.603515625
274099,-0.2884368896484375,0.8871307373046875,-0.212432861328125,0.0883242711424827,0.6879038214683533,0.0391407459974288,40.43342590332031,99.4297332763672,-12.49723815917969
274100,-0.267303466796875,0.858734130859375,-0.2216949462890625,0.1693615913391113,0.6521106958389282,0.084816887974739,40.45960998535156,99.50643920898438,-12.63467407226562
274101,-0.276092529296875,0.84930419921875,-0.2190704345703125,0.1693615913391113,0.6521106958389282,0.084816887974739,40.40835571289062,99.55242919921876,-12.686767578125
274102,-0.3124237060546875,0.8558197021484375,-0.2069549560546875,0.1970614045858383,0.6480299234390259,0.0882877856492996,40.34228515625,99.50222778320312,-12.77040100097656
274103,-0.3475341796875,0.8730621337890625,-0.185791015625,0.2204255759716034,0.6556558609008789,0.0981393530964851,40.44288635253906,99.57600402832033,-12.85110473632812
274104,-0.3882293701171875,0.904083251953125,-0.1587066650390625,0.2373891174793243,0.6645521521568298,0.1145875677466393,40.37174987792969,99.66764831542967,-12.99557495117188
274105,-0.4309539794921875,0.9367523193359376,-0.1232452392578125,0.2542149722576141,0.6958616375923157,0.1205714195966721,40.41603088378906,99.71861267089844,-13.08470153808594
274106,-0.4752349853515625,0.964813232421875,-0.0864105224609375,0.2700237631797791,0.7416222095489502,0.1334754973649979,40.43258666992188,99.68589782714844,-13.037353515625
274107,-0.533416748046875,0.99542236328125,-0.0413818359375,0.2707928717136383,0.7998724579811096,0.1400844007730484,40.4580078125,99.71809387207033,-13.08984375
274108,-0.6005859375,1.018020629882812,0.006195068359375,0.2609200179576874,0.8457339406013489,0.1259315609931946,40.47080993652344,99.82012939453124,-13.43336486816406
274109,-0.66888427734375,1.021682739257812,0.053680419921875,0.2475706487894058,0.8933517932891846,0.1035165414214134,40.51727294921875,99.89289855957033,-13.73475646972656
274110,-0.726043701171875,1.016250610351562,0.0845947265625,0.2243428230285645,0.924180269241333,0.0786367580294609,40.45585632324219,100.0361175537109,-13.94317626953125
274111,-0.7656402587890625,0.99462890625,0.1056060791015625,0.2146494537591934,0.921787440776825,0.0682632103562355,40.45803833007812,100.1801605224609,-14.05592346191406
274112,-0.7824249267578125,0.962127685546875,0.1208953857421875,0.1956440657377243,0.8989662528038025,0.0794404968619346,40.46308898925781,100.224609375,-14.21009826660156
274113,-0.7689361572265625,0.9151458740234376,0.1316986083984375,0.1752943247556686,0.8592012524604797,0.100062683224678,40.47138977050781,100.235107421875,-14.44454956054688
274114,-0.71942138671875,0.8542022705078125,0.1463775634765625,0.1431981772184372,0.8427985906600952,0.1357730180025101,40.52981567382812,100.3295135498047,-14.63194274902344
274115,-0.66656494140625,0.795135498046875,0.1660919189453125,0.1230950355529785,0.8756375312805176,0.1770653277635574,40.6207275390625,100.3817291259766,-14.84005737304688
274116,-0.6155853271484375,0.7433929443359375,0.1814727783203125,0.1031724587082863,0.9337918758392334,0.2158838212490082,40.68544006347656,100.3572845458984,-15.06806945800781
274117,-0.571685791015625,0.6969146728515625,0.1822357177734375,0.0656354650855064,0.9540513753890992,0.2471394836902618,40.81503295898438,100.2726745605469,-15.03643798828125
274118,-0.5370330810546875,0.6561737060546875,0.17840576171875,-0.0080901505425572,0.9307218194007874,0.2588363587856293,40.90257263183594,100.3800354003906,-15.11570739746094
274119,-0.498626708984375,0.633392333984375,0.1672515869140625,-0.1047213524580002,0.8841489553451538,0.2694695591926575,41.07391357421875,100.4411315917969,-15.09637451171875
274120,-0.468994140625,0.63641357421875,0.1500244140625,-0.2173387110233307,0.8461531400680542,0.2779216170310974,41.23712158203125,100.4170074462891,-15.19752502441406
274121,-0.4560546875,0.6647796630859375,0.1288604736328125,-0.3155180215835571,0.833018958568573,0.2806543111801147,41.39727783203125,100.4085845947266,-15.22842407226562
274122,-0.4607086181640625,0.71539306640625,0.1114654541015625,-0.3993210196495056,0.8529694676399231,0.2733100950717926,41.59591674804688,100.4617919921875,-15.11570739746094
274123,-0.4887847900390625,0.776824951171875,0.1094512939453125,-0.4476976096630096,0.9260926842689514,0.2471381574869156,41.67726135253906,100.4537353515625,-14.92189025878906
274124,-0.5162811279296875,0.83526611328125,0.111480712890625,-0.4639655351638794,1.035236001014709,0.2117300927639008,41.80992126464844,100.4391632080078,-14.76055908203125
274125,-0.5359344482421875,0.8809356689453125,0.114410400390625,-0.4519805014133453,1.120772480964661,0.1644224971532822,41.91825866699219,100.5275115966797,-14.6400146484375
274126,-0.545806884765625,0.9076690673828124,0.1119842529296875,-0.4367919564247131,1.1479332447052,0.1118751391768456,41.97752380371094,100.4801635742188,-14.36669921875
274127,-0.5540313720703125,0.9239044189453124,0.116455078125,-0.4185514450073242,1.121129035949707,0.0510863550007343,42.041259765625,100.4821929931641,-14.28565979003906
274128,-0.554168701171875,0.921417236328125,0.1177825927734375,-0.3836464583873749,1.056270956993103,-0.0038008634001016,41.96797180175781,100.4401092529297,-14.25669860839844
274129,-0.542327880859375,0.9031219482421876,0.1083831787109375,-0.3139512836933136,0.983508288860321,-0.050166230648756,41.98335266113281,100.4611358642578,-14.00387573242188
274130,-0.5332183837890625,0.881195068359375,0.098297119140625,-0.2254253923892975,0.9095962643623352,-0.0826027318835258,41.95803833007812,100.3899993896484,-13.93772888183594
274131,-0.5269317626953125,0.8533782958984375,0.08612060546875,-0.1334488689899445,0.8279123306274414,-0.1071150004863739,41.90374755859375,100.3368682861328,-13.86875915527344
274132,-0.518585205078125,0.810333251953125,0.060455322265625,-0.041620947420597,0.7268104553222656,-0.1327244937419891,41.80950927734375,100.3162689208984,-13.88664245605469
274133,-0.5031585693359375,0.7607879638671875,0.0209197998046875,0.0243093334138393,0.6111438274383545,-0.1478714793920517,41.73928833007812,100.1540374755859,-13.82276916503906
274134,-0.496795654296875,0.7358856201171875,-0.027099609375,0.0394027978181839,0.4978981912136078,-0.1707760095596313,41.73348999023438,100.0376281738281,-13.78379821777344
274135,-0.5152130126953125,0.721649169921875,-0.067840576171875,0.0422563776373863,0.3890060782432556,-0.1955612450838089,41.56816101074219,100.0501251220703,-13.78105163574219
274136,-0.5506591796875,0.7091217041015625,-0.077667236328125,0.0279453471302986,0.3398537039756775,-0.2255100905895233,41.36753845214844,100.0997772216797,-13.73478698730469
274137,-0.5935821533203125,0.69610595703125,-0.09832763671875,0.0416752733290195,0.3312602043151855,-0.2758505046367645,41.28544616699219,100.1090698242188,-13.77571105957031
274138,-0.627166748046875,0.6826934814453125,-0.10858154296875,0.0728651508688926,0.3332687616348267,-0.3172613084316254,41.12567138671875,100.1455535888672,-13.77395629882812
274139,-0.6425628662109375,0.66082763671875,-0.093994140625,0.0622061155736446,0.3188637495040894,-0.3571378886699677,40.89402770996094,100.1625213623047,-13.79499816894531
274140,-0.64422607421875,0.64398193359375,-0.091400146484375,0.017372066155076,0.2807925045490265,-0.3831753432750702,40.69706726074219,100.2348175048828,-13.93423461914062
274141,-0.64422607421875,0.64398193359375,-0.091400146484375,0.017372066155076,0.2807925045490265,-0.3831753432750702,40.69706726074219,100.2348175048828,-13.93423461914062
274142,-0.6260528564453125,0.6639251708984375,-0.0879364013671875,-0.1674257516860962,0.1908226758241653,-0.3624993562698364,40.28517150878906,100.1779174804688,-13.92988586425781
274143,-0.6166839599609375,0.69232177734375,-0.0779571533203125,-0.2894025146961212,0.164506658911705,-0.3315036296844482,40.08566284179688,100.0685119628906,-13.85273742675781
274144,-0.6146240234375,0.72442626953125,-0.067108154296875,-0.4191448092460632,0.1509687453508377,-0.2931115031242371,39.84306335449219,100.0319213867188,-13.80096435546875
274145,-0.6146240234375,0.72442626953125,-0.067108154296875,-0.4191448092460632,0.1509687453508377,-0.2931115031242371,39.84306335449219,100.0319213867188,-13.80096435546875
274146,-0.6341552734375,0.7977142333984375,-0.044158935546875,-0.6603882908821106,0.0939794927835464,-0.1750415861606598,39.32443237304688,100.0315093994141,-13.43606567382812
274147,-0.6444091796875,0.8314056396484375,-0.05413818359375,-0.6603882908821106,0.0939794927835464,-0.1750415861606598,39.0836181640625,99.8885498046875,-13.12300109863281
274148,-0.6507720947265625,0.8698883056640625,-0.0771942138671875,-0.6181210279464722,-0.0106356004253029,-0.0692640244960784,38.95368957519531,99.67523193359376,-12.5618896484375
274149,-0.64691162109375,0.9072723388671876,-0.1156768798828125,-0.6181210279464722,-0.0106356004253029,-0.0692640244960784,38.83340454101562,99.63221740722656,-12.15289306640625
274150,-0.6309051513671875,0.947967529296875,-0.1523895263671875,-0.5493634939193726,-0.0530581586062908,-0.0109085738658905,38.69113159179688,99.45492553710938,-11.81315612792969
274151,-0.6028900146484375,0.9811553955078124,-0.1865234375,-0.4522050023078918,-0.0630641877651214,0.029127525165677,38.54072570800781,99.41325378417967,-11.63352966308594
274152,-0.5801239013671875,1.001922607421875,-0.197479248046875,-0.3477409183979034,-0.0269538536667823,0.05518389493227,38.47956848144531,99.39234924316406,-11.50592041015625
274153,-0.538665771484375,0.9937896728515624,-0.202667236328125,-0.2577945291996002,0.0317294336855411,0.0664658397436142,38.47038269042969,99.32225036621094,-11.34593200683594
274154,-0.485595703125,0.95672607421875,-0.2081756591796875,-0.164506122469902,0.0725349187850952,0.0673273727297782,38.4964599609375,99.15885925292967,-10.99317932128906
274155,-0.430328369140625,0.9016876220703124,-0.224761962890625,-0.0647150799632072,0.0858232975006103,0.061781607568264,38.54736328125,99.1790008544922,-10.78970336914062
274156,-0.37603759765625,0.8460845947265625,-0.2571563720703125,0.0285168625414371,0.0749738439917564,0.0582497231662273,38.543212890625,99.04193115234376,-10.76980590820312
274157,-0.326812744140625,0.7886962890625,-0.290008544921875,0.1126442551612854,0.0507494620978832,0.065316691994667,38.59237670898438,99.08772277832033,-10.81663513183594
274158,-0.2956390380859375,0.7443084716796875,-0.3130645751953125,0.1960627138614655,0.0407852455973625,0.0746223032474517,38.55961608886719,99.02789306640624,-10.71603393554688
274159,-0.2956390380859375,0.7443084716796875,-0.3130645751953125,0.1960627138614655,0.0407852455973625,0.0746223032474517,38.55961608886719,99.02789306640624,-10.71603393554688
274160,-0.2703094482421875,0.695770263671875,-0.3555145263671875,0.3446154296398163,0.064364343881607,0.0926697477698326,38.75936889648438,99.05747985839844,-10.79486083984375
274161,-0.278228759765625,0.70404052734375,-0.3636016845703125,0.3796147108078003,0.1065493449568748,0.0956255942583084,38.85020446777344,99.10914611816406,-10.89817810058594
274162,-0.3140411376953125,0.7300262451171875,-0.3522796630859375,0.3710824549198151,0.1697110086679459,0.0843652114272117,38.97651672363281,99.19097900390624,-11.1065673828125
274163,-0.355865478515625,0.782440185546875,-0.3272857666015625,0.3375085294246674,0.2199565917253494,0.0840823873877525,39.13600158691406,99.145751953125,-11.27423095703125
274164,-0.39141845703125,0.8478240966796875,-0.29876708984375,0.2929088473320007,0.251422107219696,0.0958053544163703,39.14881896972656,99.11837768554688,-11.43107604980469
274165,-0.4263763427734375,0.922943115234375,-0.267333984375,0.2479895651340485,0.2738571166992188,0.1243597716093063,39.22987365722656,99.27967834472656,-11.65046691894531
274166,-0.464935302734375,0.988525390625,-0.240020751953125,0.2047733813524246,0.2954143285751343,0.1496613919734955,39.36245727539062,99.23353576660156,-11.76480102539062
274167,-0.5043792724609375,1.045669555664062,-0.204833984375,0.1567374169826508,0.2999065518379211,0.1870391219854355,39.422607421875,99.2025146484375,-11.99050903320312
274168,-0.5343780517578125,1.104339599609375,-0.1416473388671875,0.1253470033407211,0.3557107150554657,0.249016746878624,39.44419860839844,99.24285888671876,-12.09684753417969
274169,-0.5541534423828125,1.143356323242188,-0.0718231201171875,0.1253470033407211,0.3557107150554657,0.249016746878624,39.49043273925781,99.2891845703125,-12.15007019042969
274170,-0.5627288818359375,1.157318115234375,-0.0213165283203125,0.1491546034812927,0.4161372780799866,0.2760632634162903,39.59382629394531,99.25633239746094,-12.2281494140625
274171,-0.569854736328125,1.14495849609375,0.0140228271484375,0.196043536067009,0.4508947432041168,0.2979190349578857,39.74868774414062,99.21853637695312,-12.39361572265625
274172,-0.5826568603515625,1.110092163085938,0.0375213623046875,0.2637666761875153,0.4715243875980377,0.3155110776424408,39.87791442871094,99.30451965332033,-12.55581665039062
274173,-0.5826568603515625,1.110092163085938,0.0375213623046875,0.2637666761875153,0.4715243875980377,0.3155110776424408,39.87791442871094,99.30451965332033,-12.55581665039062
274174,-0.601287841796875,1.066665649414062,-0.005096435546875,0.3991934657096863,0.4657091200351715,0.2621690332889557,40.28150939941406,99.40028381347656,-12.76490783691406
274175,-0.601287841796875,1.066665649414062,-0.005096435546875,0.3991934657096863,0.4657091200351715,0.2621690332889557,40.28150939941406,99.40028381347656,-12.76490783691406
274176,-0.65936279296875,1.060470581054688,-0.061309814453125,0.4919921159744263,0.5140979290008545,0.0576678216457366,40.45205688476562,99.48648071289062,-13.471435546875
274177,-0.7007904052734375,1.056594848632812,-0.079132080078125,0.5592457056045532,0.5363861918449402,-0.0558619350194931,40.52459716796875,99.62709045410156,-13.77748107910156
274178,-0.7274932861328125,1.042083740234375,-0.0977935791015625,0.6156985759735107,0.5313469767570496,-0.1564966589212418,40.48005676269531,99.6771240234375,-13.95172119140625
274179,-0.7277984619140625,1.012039184570312,-0.1125946044921875,0.6287656426429749,0.4857264757156372,-0.2333339154720306,40.44839477539062,99.7067413330078,-14.23104858398438
274180,-0.7151947021484375,0.9588623046875,-0.116363525390625,0.5023571252822876,0.2632012665271759,-0.2688767313957214,40.33673095703125,99.75979614257812,-14.62324523925781
274181,-0.7069854736328125,0.907012939453125,-0.07794189453125,0.5023571252822876,0.2632012665271759,-0.2688767313957214,40.24069213867188,99.73307800292967,-14.981689453125
274182,-0.6989288330078125,0.856842041015625,-0.008636474609375,0.3811614513397217,0.201059877872467,-0.2337539047002792,40.18367004394531,99.65968322753906,-15.16477966308594
274183,-0.691986083984375,0.8150177001953125,0.066131591796875,0.2993390262126923,0.1860351115465164,-0.1845757067203522,40.06752014160156,99.740966796875,-15.4237060546875
274184,-0.691986083984375,0.8150177001953125,0.066131591796875,0.2993390262126923,0.1860351115465164,-0.1845757067203522,40.06752014160156,99.740966796875,-15.4237060546875
274185,-0.7171173095703125,0.7208099365234375,0.2474517822265625,0.0814831405878067,0.2691169679164886,-0.0939398109912872,39.88249206542969,99.84446716308594,-15.92652893066406
274186,-0.6822662353515625,0.660614013671875,0.285888671875,-0.2629669010639191,0.2627778351306915,-0.0415700785815715,39.91937255859375,99.86395263671876,-15.84913635253906
274187,-0.607574462890625,0.594818115234375,0.2880706787109375,-0.2629669010639191,0.2627778351306915,-0.0415700785815715,39.93696594238281,99.69798278808594,-15.72216796875
274188,-0.5034027099609375,0.5319671630859375,0.2850494384765625,-0.4440096616744995,0.1470885127782822,-0.0087202545255422,39.95372009277344,99.6724090576172,-15.8353271484375
274189,-0.5034027099609375,0.5319671630859375,0.2850494384765625,-0.4440096616744995,0.1470885127782822,-0.0087202545255422,39.95372009277344,99.6724090576172,-15.8353271484375
274190,-0.281646728515625,0.4565277099609375,0.2818145751953125,-0.6981891989707947,-0.1443217545747757,0.1349791288375854,40.03483581542969,99.66024780273438,-15.63429260253906
274191,-0.192657470703125,0.4872589111328125,0.285247802734375,-0.7696367502212524,-0.2559444308280945,0.2433378249406815,40.14607238769531,99.71043395996094,-15.44184875488281
274192,-0.1396636962890625,0.5691986083984375,0.27032470703125,-0.7239470481872559,-0.2640857100486755,0.3188059329986572,40.20362854003906,99.7140655517578,-15.04620361328125
274193,-0.148101806640625,0.7388458251953125,0.288330078125,-0.7239470481872559,-0.2640857100486755,0.3188059329986572,40.24041748046875,99.8001708984375,-14.71809387207031
274194,-0.25732421875,0.9398651123046876,0.33612060546875,-0.6786463856697083,-0.0944237038493156,0.269878089427948,40.28054809570312,99.77351379394533,-14.17366027832031
274195,-0.3890228271484375,1.080123901367188,0.310272216796875,-0.6870604157447815,0.1027881652116776,0.127654105424881,40.35870361328125,99.70964050292967,-13.84066772460938
274196,-0.4758758544921875,1.136459350585938,0.2307891845703125,-0.7192428112030029,0.1064587980508804,-0.0550129190087318,40.54873657226562,99.6512451171875,-13.56419372558594
274197,-0.5485382080078125,1.148223876953125,0.197174072265625,-0.7499802708625793,-0.0083394227549433,-0.2531555593013763,40.59739685058594,99.66485595703124,-13.2987060546875
274198,-0.59552001953125,1.136688232421875,0.199005126953125,-0.7707188129425049,-0.0941062569618225,-0.4562032222747803,40.51359558105469,99.5064697265625,-12.84819030761719
274199,-0.629150390625,1.082321166992188,0.2059478759765625,-0.761069655418396,-0.0962077602744102,-0.6337220668792725,40.361572265625,99.44856262207033,-12.37660217285156
274200,-0.653594970703125,0.9824676513671876,0.207427978515625,-0.6291971206665039,0.0717764496803283,-0.8290742635726929,40.16522216796875,99.39756774902344,-11.9605712890625
274201,-0.67425537109375,0.85614013671875,0.2044219970703125,-0.6291971206665039,0.0717764496803283,-0.8290742635726929,39.81214904785156,99.27108764648438,-11.6861572265625
274202,-0.6819610595703125,0.742645263671875,0.1675567626953125,-0.545505940914154,0.1557041108608246,-0.7909082174301147,39.45706176757812,99.148681640625,-11.341552734375
274203,-0.686370849609375,0.6654052734375,0.114471435546875,-0.4636534154415131,0.1693341732025146,-0.6909962892532349,39.04751586914062,99.06101989746094,-10.97615051269531
274204,-0.7207183837890625,0.653778076171875,0.0233001708984375,-0.3410420119762421,0.0947504788637161,-0.4659439921379089,38.28607177734375,99.0400848388672,-10.69561767578125
274205,-0.7207183837890625,0.653778076171875,0.0233001708984375,-0.3410420119762421,0.0947504788637161,-0.4659439921379089,38.28607177734375,99.0400848388672,-10.69561767578125
274206,-0.7353973388671875,0.676177978515625,-0.0061492919921875,-0.2865523993968964,0.086762860417366,-0.4047871530056,37.94548034667969,98.82057189941406,-10.61688232421875
274207,-0.7596282958984375,0.7062835693359375,-0.0224151611328125,-0.2619551718235016,0.1624075472354889,-0.3742388486862183,37.63652038574219,98.84727478027344,-10.36851501464844
274208,-0.7787322998046875,0.7313079833984375,-0.070770263671875,-0.3078638017177582,0.3745336532592773,-0.3167510628700256,37.34481811523438,98.71902465820312,-10.19828796386719
274209,-0.7890777587890625,0.77813720703125,-0.156982421875,-0.3668555021286011,0.5899085402488708,-0.2491352558135986,37.1866455078125,98.6146240234375,-10.16365051269531
274210,-0.7718963623046875,0.8111114501953125,-0.2226409912109375,-0.3977732062339783,0.7121652364730835,-0.2064530402421951,36.96298217773438,98.65135192871094,-10.03584289550781
274211,-0.7438507080078125,0.81207275390625,-0.231292724609375,-0.3993383347988129,0.7961522936820984,-0.1682212352752686,36.67164611816406,98.54774475097656,-9.86737060546875
274212,-0.70831298828125,0.8099517822265625,-0.2390899658203125,-0.3714151084423065,0.8834490776062012,-0.1381368339061737,36.56748962402344,98.4740753173828,-9.764907836914062
274213,-0.648651123046875,0.7898406982421875,-0.2716217041015625,-0.319603830575943,0.9239805340766908,-0.0876486226916313,36.37850952148438,98.48394775390624,-9.589157104492188
274214,-0.5822296142578125,0.76348876953125,-0.301910400390625,-0.2468718290328979,0.9280894994735718,-0.0565692707896232,36.21044921875,98.48046875,-9.364501953125
274215,-0.49114990234375,0.7212677001953125,-0.33746337890625,-0.1622509509325027,0.8852802515029907,0.0162884257733821,36.21253967285156,98.29701232910156,-9.230331420898438
274216,-0.401641845703125,0.6796875,-0.3597869873046875,-0.0698182284832,0.8632308840751648,0.0996640101075172,36.09149169921875,98.36589050292967,-9.314788818359377
274217,-0.3274993896484375,0.6496429443359375,-0.3833160400390625,0.0265945922583341,0.8459153175354004,0.1934767812490463,36.01675415039062,98.33045959472656,-9.277252197265623
274218,-0.2748870849609375,0.6406097412109375,-0.398345947265625,0.1171215623617172,0.812781035900116,0.2608158886432648,35.95533752441406,98.39773559570312,-9.237045288085938
274219,-0.251251220703125,0.6463165283203125,-0.4081573486328125,0.1867642849683762,0.7850977778434753,0.2960425913333893,36.02041625976562,98.3696746826172,-9.074310302734377
274220,-0.2639007568359375,0.667022705078125,-0.4093017578125,0.2323695868253708,0.7860279679298401,0.2987081408500671,35.98176574707031,98.54710388183594,-9.340194702148438
274221,-0.30438232421875,0.71331787109375,-0.411865234375,0.2495602965354919,0.7952347993850708,0.2839153409004211,36.08143615722656,98.60781860351562,-9.456649780273438
274222,-0.3579864501953125,0.7808380126953125,-0.39886474609375,0.2570815980434418,0.8001052141189575,0.2730693519115448,36.23565673828125,98.47946166992188,-9.5499267578125
274223,-0.4073944091796875,0.8661956787109375,-0.3621826171875,0.2621333599090576,0.7833880186080933,0.2497187554836273,36.34423828125,98.50505065917967,-9.734527587890623
274224,-0.449432373046875,0.9373626708984376,-0.3077545166015625,0.2699593007564545,0.7761157155036926,0.155055895447731,36.33639526367188,98.56297302246094,-9.965423583984377
274225,-0.5065460205078125,0.9878387451171876,-0.2575531005859375,0.2699593007564545,0.7761157155036926,0.155055895447731,36.41716003417969,98.6331787109375,-10.22590637207031
274226,-0.5958709716796875,1.00732421875,-0.19110107421875,0.2601141333580017,0.7484433650970459,0.0829100608825683,36.51449584960938,98.580810546875,-10.39938354492188
274227,-0.760833740234375,0.9752655029296876,-0.085662841796875,0.1803934723138809,0.6139337420463562,-0.0715636685490608,36.6270751953125,98.61271667480467,-10.92935180664062
274228,-0.760833740234375,0.9752655029296876,-0.085662841796875,0.1803934723138809,0.6139337420463562,-0.0715636685490608,36.6270751953125,98.61271667480467,-10.92935180664062
274229,-0.8162384033203125,0.9364471435546876,-0.0590362548828125,0.1958368867635727,0.509794294834137,-0.0716233178973197,36.62603759765625,98.59091186523438,-11.10734558105469
274230,-0.8425750732421875,0.883575439453125,-0.0380401611328125,0.1980326622724533,0.4791394174098969,0.0215907786041498,36.70016479492188,98.59176635742188,-11.24775695800781
274231,-0.7992401123046875,0.820831298828125,-0.0746612548828125,0.2002140581607819,0.453904390335083,0.1685855537652969,36.66630554199219,98.62582397460938,-11.40534973144531
274232,-0.6906585693359375,0.7536163330078125,-0.09747314453125,0.2009805142879486,0.4763636291027069,0.3051620423793793,36.6871337890625,98.65650939941406,-11.56524658203125
274233,-0.6209564208984375,0.687408447265625,-0.1094970703125,0.1632557660341263,0.5477331280708313,0.3997766971588135,36.7652587890625,98.6331787109375,-11.68238830566406
274234,-0.6061859130859375,0.6543731689453125,-0.10089111328125,0.0918742641806602,0.5861068964004517,0.4526191353797913,36.82328796386719,98.7101593017578,-11.78204345703125
274235,-0.6017303466796875,0.6653289794921875,-0.0639190673828125,-0.0299464464187622,0.5867779850959778,0.4582610428333282,37.06233215332031,98.68360900878906,-11.796875
274236,-0.610626220703125,0.71258544921875,-0.0052642822265625,-0.1693315058946609,0.5731285214424133,0.4346790313720703,37.22579956054688,98.88450622558594,-11.92822265625
274237,-0.6229248046875,0.7809600830078125,0.0472259521484375,-0.2936566472053528,0.6013249754905701,0.4038284420967102,37.53678894042969,98.93505859375,-12.14497375488281
274238,-0.6097869873046875,0.8188629150390625,0.0789947509765625,-0.3804908692836761,0.662213921546936,0.3684158325195312,37.76033020019531,98.90357971191406,-12.03898620605469
274239,-0.580230712890625,0.830841064453125,0.1148223876953125,-0.4429140388965607,0.7606185078620911,0.3283754885196686,37.95307922363281,98.90945434570312,-11.9744873046875
274240,-0.5402679443359375,0.841461181640625,0.142059326171875,-0.5086251497268677,0.8943930864334106,0.285828560590744,38.03695678710938,98.92364501953124,-11.88258361816406
274241,-0.5026397705078125,0.844818115234375,0.1475982666015625,-0.5829622149467468,1.009077072143555,0.2491571009159088,38.17861938476562,98.9345703125,-11.72674560546875
274242,-0.497711181640625,0.8622283935546875,0.1572113037109375,-0.6550055146217346,1.081634640693665,0.2243204563856125,38.36601257324219,98.8750457763672,-11.58261108398438
274243,-0.5355987548828125,0.89520263671875,0.1494598388671875,-0.679628849029541,1.103700757026672,0.1785228699445724,38.45079040527344,98.89100646972656,-11.4423828125
274244,-0.6005401611328125,0.9326324462890624,0.134368896484375,-0.6401994228363037,1.01984715461731,0.1277987062931061,38.58224487304688,98.8529815673828,-11.18959045410156
274245,-0.6455230712890625,0.9529266357421876,0.117523193359375,-0.4536684155464172,0.849983274936676,0.0370661430060863,38.694091796875,98.8054656982422,-11.02503967285156
274246,-0.639251708984375,0.9331512451171876,0.084075927734375,-0.3722332119941711,0.8345843553543091,-0.0019542276859283,38.76528930664062,98.84713745117188,-10.75032043457031
274247,-0.5885162353515625,0.8861846923828125,0.0316162109375,-0.3722332119941711,0.8345843553543091,-0.0019542276859283,38.67546081542969,98.74542236328124,-10.3104248046875
274248,-0.5885162353515625,0.8861846923828125,0.0316162109375,-0.3722332119941711,0.8345843553543091,-0.0019542276859283,38.67546081542969,98.74542236328124,-10.3104248046875
274249,-0.463531494140625,0.766204833984375,-0.07666015625,-0.3847412765026093,0.6869866251945496,-0.1420759111642838,38.59635925292969,98.57733154296876,-9.91717529296875
274250,-0.427734375,0.731597900390625,-0.0986175537109375,-0.3847412765026093,0.6869866251945496,-0.1420759111642838,38.58772277832031,98.53736877441406,-9.7733154296875
274251,-0.427734375,0.731597900390625,-0.0986175537109375,-0.3847412765026093,0.6869866251945496,-0.1420759111642838,38.58772277832031,98.53736877441406,-9.7733154296875
274252,-0.4338226318359375,0.7113037109375,-0.08160400390625,-0.4755406975746155,0.5542331337928772,-0.2594917714595795,38.32411193847656,98.57258605957033,-9.802169799804688
274253,-0.471710205078125,0.7066802978515625,-0.0752716064453125,-0.4881329238414764,0.4949346482753754,-0.3130143582820892,38.245361328125,98.47970581054688,-9.854598999023438
274254,-0.518768310546875,0.7106781005859375,-0.0707550048828125,-0.5000327229499817,0.4093134701251984,-0.3390169441699982,38.08088684082031,98.45925903320312,-9.724288940429688
274255,-0.5611114501953125,0.72674560546875,-0.0623016357421875,-0.5246049165725708,0.3192549645900726,-0.3435688316822052,37.84330749511719,98.31727600097656,-9.522247314453123
274256,-0.590728759765625,0.7496490478515625,-0.0648040771484375,-0.5432047247886658,0.2615416049957275,-0.3283184766769409,37.65721130371094,98.27890014648438,-9.381866455078123
274257,-0.590728759765625,0.7496490478515625,-0.0648040771484375,-0.5432047247886658,0.2615416049957275,-0.3283184766769409,37.65721130371094,98.27890014648438,-9.381866455078123
274258,-0.6227264404296875,0.8166351318359375,-0.1007843017578125,-0.5161429643630981,0.2975882887840271,-0.2370394468307495,37.17350769042969,98.0783233642578,-8.905166625976562
274259,-0.6227264404296875,0.8166351318359375,-0.1007843017578125,-0.5161429643630981,0.2975882887840271,-0.2370394468307495,37.17350769042969,98.0783233642578,-8.905166625976562
274260,-0.62567138671875,0.8558349609375,-0.1087188720703125,-0.5058072805404663,0.343993067741394,-0.1949026435613632,36.91902160644531,97.88775634765624,-8.697845458984375
274261,-0.635955810546875,0.90899658203125,-0.07342529296875,-0.5203249454498291,0.3842163681983948,-0.154647096991539,36.51103210449219,97.65811157226562,-8.139846801757812
274262,-0.633636474609375,0.91973876953125,-0.0672760009765625,-0.5246608257293701,0.2762225270271301,-0.1192116141319275,36.28907775878906,97.64543151855467,-7.86651611328125
274263,-0.6166839599609375,0.9380645751953124,-0.0572357177734375,-0.5246608257293701,0.2762225270271301,-0.1192116141319275,36.11485290527344,97.50398254394533,-7.567428588867188
274264,-0.563079833984375,0.9466705322265624,-0.1397705078125,-0.4090346395969391,0.2077691704034805,-0.0856469944119453,35.90782165527344,97.4559326171875,-7.104766845703125
274265,-0.563079833984375,0.9466705322265624,-0.1397705078125,-0.4090346395969391,0.2077691704034805,-0.0856469944119453,35.90782165527344,97.4559326171875,-7.104766845703125
274266,-0.5273590087890625,0.9320831298828124,-0.2038421630859375,-0.3229327797889709,0.1353975087404251,-0.0703945383429527,35.75961303710938,97.37686157226562,-6.933639526367188
274267,-0.4958648681640625,0.92266845703125,-0.236541748046875,-0.256314605474472,0.087189495563507,-0.0445325821638107,35.69204711914062,97.280517578125,-6.772689819335938
274268,-0.4740142822265625,0.9221649169921876,-0.262115478515625,-0.21117003262043,0.0725495666265487,-0.0289850458502769,35.52400207519531,97.31797790527344,-6.718185424804688
274269,-0.4524993896484375,0.910308837890625,-0.2774658203125,-0.1837240308523178,0.0573186837136745,-0.0062999739311635,35.42665100097656,97.0601043701172,-6.426605224609375
274270,-0.444061279296875,0.898193359375,-0.2696685791015625,-0.1571456789970398,0.0489925779402256,0.0219279360026121,35.34646606445312,97.06597900390624,-6.27886962890625
274271,-0.43634033203125,0.87103271484375,-0.24859619140625,-0.1166408658027649,0.0660972595214843,0.0453059636056423,35.26669311523438,97.10000610351562,-6.197555541992188
274272,-0.4271240234375,0.822235107421875,-0.2099761962890625,-0.0855167657136917,0.1266956329345703,0.0782929435372352,35.20742797851562,97.10755920410156,-6.156448364257812
274273,-0.43133544921875,0.786468505859375,-0.237335205078125,-0.010603642091155,0.1844422817230225,0.0889517068862915,35.19091796875,97.07260131835938,-6.078262329101562
274274,-0.4230499267578125,0.7526092529296875,-0.293304443359375,0.1030680611729622,0.210964173078537,0.101678155362606,35.25473022460938,97.093505859375,-5.970138549804688
274275,-0.396148681640625,0.725921630859375,-0.329315185546875,0.1871216893196106,0.2352769672870636,0.1184733808040619,35.27903747558594,97.09342956542967,-6.0521240234375
274276,-0.3606414794921875,0.7179107666015625,-0.36077880859375,0.2137431800365448,0.2731495201587677,0.1276093572378159,35.24258422851562,97.12947082519533,-6.0733642578125
274277,-0.3241119384765625,0.727874755859375,-0.3988189697265625,0.2142126858234406,0.3203383386135101,0.1239810660481453,35.31022644042969,96.99845886230467,-6.15460205078125
274278,-0.2939300537109375,0.7716064453125,-0.4315643310546875,0.187114492058754,0.3803792893886566,0.1083624288439751,35.39286804199219,96.90985107421876,-6.171676635742188
274279,-0.2712554931640625,0.8379058837890625,-0.445404052734375,0.1442152261734009,0.439713180065155,0.0917152687907218,35.47723388671875,96.91716003417967,-6.28350830078125
274280,-0.265655517578125,0.911590576171875,-0.4330902099609375,0.1134027242660522,0.4702151715755463,0.0796833783388137,35.51554870605469,96.95620727539062,-6.441787719726562
274281,-0.2861328125,0.9754486083984376,-0.391448974609375,0.1008741483092308,0.4971876740455627,0.0714182555675506,35.51664733886719,97.0878448486328,-6.522720336914062
274282,-0.3255767822265625,1.031219482421875,-0.3420562744140625,0.1189359724521637,0.504939079284668,0.0655419901013374,35.59854125976562,97.04226684570312,-6.532989501953125
274283,-0.372894287109375,1.06561279296875,-0.2985076904296875,0.1421704590320587,0.5188620686531067,0.053116213530302,35.57200622558594,97.0474853515625,-6.624176025390625
274284,-0.42181396484375,1.074981689453125,-0.25640869140625,0.1567254364490509,0.5394206047058105,0.0328192003071308,35.57792663574219,97.144775390625,-6.88714599609375
274285,-0.4662933349609375,1.07977294921875,-0.2147064208984375,0.1591648906469345,0.5629491209983826,0.012010590173304,35.55844116210938,97.13223266601562,-6.979995727539062
274286,-0.514434814453125,1.0772705078125,-0.1817474365234375,0.1641042530536652,0.5816439390182495,-0.0255754012614488,35.55935668945312,97.1240692138672,-7.070022583007812
274287,-0.568359375,1.062088012695312,-0.15777587890625,0.1745315939188004,0.5897296071052551,-0.071280837059021,35.56858825683594,97.25022888183594,-7.279586791992188
274288,-0.62725830078125,1.039459228515625,-0.1285400390625,0.2111370116472244,0.6192142367362976,-0.1289523839950562,35.48060607910156,97.35061645507812,-7.386276245117188
274289,-0.678009033203125,1.006103515625,-0.1156463623046875,0.2583436667919159,0.6797489523887634,-0.1911731511354446,35.39239501953125,97.21282958984376,-7.59051513671875
274290,-0.7158966064453125,0.961639404296875,-0.129638671875,0.3050291538238525,0.7158627510070801,-0.2563257813453674,35.2823486328125,97.21734619140624,-7.823196411132812
274291,-0.7440338134765625,0.9145050048828124,-0.153106689453125,0.3297169208526611,0.7222325205802917,-0.3233202695846558,35.1517333984375,97.38282775878906,-8.055221557617188
274292,-0.748077392578125,0.863494873046875,-0.175262451171875,0.355913370847702,0.6880883574485779,-0.3803681135177612,34.96743774414062,97.40031433105467,-8.338394165039062
274293,-0.7334747314453125,0.82574462890625,-0.19830322265625,0.3864678144454956,0.6132767200469971,-0.4187338650226593,34.81570434570312,97.49871826171876,-8.538482666015625
274294,-0.7109375,0.8065643310546875,-0.2225799560546875,0.4208556115627289,0.5062013864517212,-0.4461282193660736,34.61457824707031,97.438232421875,-8.744705200195312
274295,-0.7109375,0.8065643310546875,-0.2225799560546875,0.4208556115627289,0.5062013864517212,-0.4461282193660736,34.61457824707031,97.438232421875,-8.744705200195312
274296,-0.68316650390625,0.790740966796875,-0.2321624755859375,0.4801074862480164,0.4108780920505524,-0.4552718997001648,34.43426513671875,97.38905334472656,-9.096588134765623
274297,-0.6444549560546875,0.7675933837890625,-0.2384033203125,0.6362819075584412,0.3815252482891083,-0.3749123513698578,34.13497924804688,97.4927978515625,-9.596847534179688
274298,-0.6571502685546875,0.7540283203125,-0.2186431884765625,0.684187650680542,0.3974000811576843,-0.331928938627243,34.03587341308594,97.50965881347656,-9.785842895507812
274299,-0.71624755859375,0.6678619384765625,-0.1066741943359375,0.6314882040023804,0.4422498643398285,-0.2267612367868423,33.83518981933594,97.4206085205078,-10.6793212890625
274300,-0.71624755859375,0.6678619384765625,-0.1066741943359375,0.6314882040023804,0.4422498643398285,-0.2267612367868423,33.83518981933594,97.4206085205078,-10.6793212890625
274301,-0.7317657470703125,0.6453094482421875,-0.036773681640625,0.5156137943267822,0.4691256880760193,-0.1702737361192703,33.78779602050781,97.45770263671876,-10.95465087890625
274302,-0.7339019775390625,0.63311767578125,0.0510406494140625,0.3463797867298126,0.507638692855835,-0.1268146634101868,33.73117065429688,97.5552215576172,-11.22694396972656
274303,-0.7236785888671875,0.623382568359375,0.1202545166015625,0.1303247213363647,0.5539689064025879,-0.0975715667009353,33.75196838378906,97.63320922851562,-11.60360717773438
274304,-0.6961212158203125,0.6065521240234375,0.1687774658203125,-0.1160682812333107,0.5707364678382874,-0.0568148121237754,33.70277404785156,97.64199829101562,-11.91358947753906
274305,-0.641754150390625,0.575958251953125,0.1976318359375,-0.345935046672821,0.5681177973747253,0.0073772226460278,33.60203552246094,97.60604858398438,-11.93367004394531
274306,-0.5680999755859375,0.534759521484375,0.209930419921875,-0.5273988246917725,0.5562986731529236,0.085120752453804,33.63215637207031,97.60848999023438,-11.92193603515625
274307,-0.4857330322265625,0.5128936767578125,0.21844482421875,-0.6543157696723938,0.5288864970207214,0.1701996922492981,33.64810180664062,97.62754821777344,-11.90853881835938
274308,-0.4095916748046875,0.524017333984375,0.2247314453125,-0.741496205329895,0.5014663338661194,0.2505054473876953,33.7132568359375,97.5478515625,-11.80912780761719
274309,-0.3349609375,0.5617828369140625,0.202606201171875,-0.7831704020500183,0.4399869740009308,0.3120476305484772,33.79498291015625,97.49085998535156,-11.60345458984375
274310,-0.2802276611328125,0.637542724609375,0.172760009765625,-0.7910999655723572,0.3550494313240051,0.3275030255317688,33.75083923339844,97.39271545410156,-11.30068969726562
274311,-0.2672576904296875,0.7616729736328125,0.1327056884765625,-0.7804383039474487,0.1827365309000015,0.3159217536449432,33.84309387207031,97.44841003417967,-11.04277038574219
274312,-0.3144378662109375,0.912109375,0.1410980224609375,-0.792237401008606,0.033271137624979,0.2493674904108047,34.01263427734375,97.38986206054688,-10.76539611816406
274313,-0.3907318115234375,1.014862060546875,0.1536712646484375,-0.7958129644393921,-0.0474719107151031,0.1277001649141312,34.037353515625,97.23648071289062,-10.38151550292969
274314,-0.4724578857421875,1.065078735351562,0.1640625,-0.797907292842865,-0.032646894454956,0.019330820068717,34.10569763183594,97.1651611328125,-9.919891357421877
274315,-0.535247802734375,1.110153198242188,0.118133544921875,-0.8266459703445435,0.0344956591725349,-0.0792639255523681,33.99005126953125,97.1930694580078,-9.5506591796875
274316,-0.58282470703125,1.136764526367188,0.0493011474609375,-0.8632513880729675,-0.0088845714926719,-0.3010240197181702,33.97225952148438,97.09291076660156,-9.293975830078123
274317,-0.58282470703125,1.136764526367188,0.0493011474609375,-0.8632513880729675,-0.0088845714926719,-0.3010240197181702,33.97225952148438,97.09291076660156,-9.293975830078123
274318,-0.651947021484375,1.027023315429688,0.047576904296875,-0.881217896938324,-0.0265583731234073,-0.3967145979404449,33.67779541015625,96.94509887695312,-8.450759887695312
274319,-0.6681365966796875,0.917724609375,0.036773681640625,-0.864488422870636,-0.0564592815935611,-0.4714919030666351,33.36921691894531,96.8857421875,-7.956527709960938
274320,-0.655731201171875,0.7836456298828125,0.0240631103515625,-0.7782696485519409,-0.0820080488920211,-0.4978601336479187,33.11212158203125,96.8494110107422,-7.732025146484375
274321,-0.6398468017578125,0.6872711181640625,0.025146484375,-0.7782696485519409,-0.0820080488920211,-0.4978601336479187,32.87380981445312,96.65504455566406,-7.277297973632812
274322,-0.6372833251953125,0.6410980224609375,0.0195770263671875,-0.7629200220108032,-0.0168988220393657,-0.4942970871925354,32.64768981933594,96.61428833007812,-6.9249267578125
274323,-0.6511077880859375,0.6371307373046875,-0.0062255859375,-0.7607492804527283,0.0776244848966598,-0.4856806695461273,32.29087829589844,96.43154907226562,-6.389450073242188
274324,-0.67535400390625,0.6647796630859375,-0.0315399169921875,-0.8183544874191284,0.387596994638443,-0.4131769239902496,31.98956298828125,96.25537109375,-6.08233642578125
274325,-0.7091522216796875,0.7047271728515625,-0.0860595703125,-0.8183544874191284,0.387596994638443,-0.4131769239902496,31.76670837402344,96.1311492919922,-5.799041748046875
274326,-0.7625732421875,0.7801666259765625,-0.17730712890625,-0.8614359498023987,0.5137573480606079,-0.362602174282074,31.48338317871094,95.88465881347656,-5.37249755859375
274327,-0.7625732421875,0.7801666259765625,-0.17730712890625,-0.8614359498023987,0.5137573480606079,-0.362602174282074,31.48338317871094,95.88465881347656,-5.37249755859375
274328,-0.843658447265625,0.8949127197265625,-0.3670196533203125,-0.8104649186134338,0.7667099833488464,-0.1225243210792542,30.98066711425781,95.46443176269533,-4.566162109375
274329,-0.8465728759765625,0.9255218505859376,-0.4301910400390625,-0.8104649186134338,0.7667099833488464,-0.1225243210792542,30.80409240722656,95.30281066894533,-4.302261352539062
274330,-0.8089447021484375,0.9395599365234376,-0.48486328125,-0.7719939351081848,0.8449307084083557,-0.0257913842797279,30.46444702148438,95.1594696044922,-4.082870483398438
274331,-0.8089447021484375,0.9395599365234376,-0.48486328125,-0.7719939351081848,0.8449307084083557,-0.0257913842797279,30.46444702148438,95.1594696044922,-4.082870483398438
274332,-0.5765533447265625,0.9590606689453124,-0.4743194580078125,-0.5373878479003906,0.9797300696372986,0.256058931350708,30.2574462890625,94.78135681152344,-3.577468872070312
274333,-0.3731689453125,0.9466552734375,-0.45428466796875,-0.5373878479003906,0.9797300696372986,0.256058931350708,30.14544677734375,94.6282196044922,-3.385208129882812
274334,-0.2183074951171875,0.9180908203125,-0.4889373779296875,-0.4225515127182007,1.006265878677368,0.3544973731040955,30.13789367675781,94.55461120605467,-3.244094848632812
274335,-0.11395263671875,0.898681640625,-0.53045654296875,-0.3328362703323364,0.9417049288749696,0.4291319251060486,30.06364440917969,94.4490966796875,-3.14105224609375
274336,-0.057342529296875,0.8864898681640625,-0.5486602783203125,-0.1980691403150558,0.7119998335838318,0.4220487177371979,30.06259155273438,94.51551818847656,-3.15728759765625
274337,-0.050140380859375,0.8787078857421875,-0.5321044921875,-0.1980691403150558,0.7119998335838318,0.4220487177371979,30.16804504394531,94.4359893798828,-3.142364501953125
274338,-0.102691650390625,0.872894287109375,-0.5067138671875,-0.150707483291626,0.6910426020622253,0.3426162004470825,30.27679443359375,94.47494506835938,-3.123123168945312
274339,-0.2036285400390625,0.8707275390625,-0.4966888427734375,-0.1162299364805222,0.7091640830039978,0.2852589190006256,30.41044616699219,94.48095703125,-3.117279052734375
274340,-0.2901611328125,0.8881072998046875,-0.4803924560546875,-0.0912913009524345,0.7068375945091248,0.2264643013477325,30.38191223144531,94.5960693359375,-3.3062744140625
274341,-0.3697357177734375,0.9103546142578124,-0.4438629150390625,-0.0805987045168876,0.7096232175827026,0.173080176115036,30.3953857421875,94.50843811035156,-3.46783447265625
274342,-0.44964599609375,0.9415283203125,-0.4008331298828125,-0.0723213329911232,0.7116301655769348,0.1316331326961517,30.383544921875,94.6033935546875,-3.486312866210938
274343,-0.5345458984375,0.9744720458984376,-0.3428192138671875,-0.058852132409811,0.7139657735824585,0.0996514931321144,30.34434509277344,94.68400573730467,-3.508560180664062
274344,-0.61865234375,1.007583618164062,-0.2758941650390625,-0.0467880107462406,0.7060271501541138,0.0558371655642986,30.32635498046875,94.78431701660156,-3.6058349609375
274345,-0.700653076171875,1.030990600585938,-0.202789306640625,-0.0659907311201095,0.6748095750808716,0.0434891544282436,30.24032592773438,94.84642028808594,-3.630096435546875
274346,-0.7607421875,1.0260009765625,-0.11749267578125,-0.0600572116672992,0.6408151388168335,0.050111636519432,30.13473510742188,94.9608917236328,-3.730575561523438
274347,-0.7607421875,1.0260009765625,-0.11749267578125,-0.0600572116672992,0.6408151388168335,0.050111636519432,30.13473510742188,94.9608917236328,-3.730575561523438
274348,-0.767059326171875,0.904083251953125,0.01824951171875,0.0124505441635847,0.6201421022415161,0.1089834719896317,30.07273864746094,95.04525756835938,-3.951889038085938
274349,-0.71673583984375,0.8061370849609375,0.046875,0.1074588149785995,0.5982024073600769,0.1907246708869934,29.9783935546875,95.05740356445312,-3.920852661132812
274350,-0.6548614501953125,0.7309722900390625,0.0494537353515625,0.1746666133403778,0.5504189133644104,0.2756110727787018,30.060791015625,95.12049865722656,-3.892166137695312
274351,-0.595245361328125,0.6878662109375,0.0456390380859375,0.169829785823822,0.4661799669265747,0.3162767291069031,30.00006103515625,95.24581909179688,-4.098037719726562
274352,-0.5430908203125,0.65625,0.0513916015625,0.1182869598269463,0.3713823258876801,0.322031557559967,30.04682922363281,95.42594909667967,-4.627365112304688
274353,-0.5430908203125,0.65625,0.0513916015625,0.1182869598269463,0.3713823258876801,0.322031557559967,30.04682922363281,95.42594909667967,-4.627365112304688
274354,-0.4775238037109375,0.645904541015625,0.0919647216796875,-0.0559908300638198,0.2781360149383545,0.2501011788845062,30.32376098632812,95.52117919921876,-5.034957885742188
274355,-0.4805755615234375,0.724151611328125,0.1036834716796875,-0.1694002151489258,0.296068400144577,0.2168002128601074,30.49368286132812,95.42781066894533,-5.030838012695312
274356,-0.5662689208984375,0.868194580078125,0.117462158203125,-0.2946034073829651,0.3322432041168213,0.2062722146511078,30.63323974609375,95.46896362304688,-5.139022827148438
274357,-0.609130859375,0.9132843017578124,0.1232147216796875,-0.3498450815677643,0.3531564772129059,0.1925350874662399,30.75213623046875,95.47579956054688,-5.051910400390625
274358,-0.5951080322265625,0.8927764892578125,0.1371612548828125,-0.3718105852603912,0.4269750416278839,0.1921177804470062,30.82566833496094,95.55307006835938,-4.881057739257812
274359,-0.570953369140625,0.8545074462890625,0.1234130859375,-0.4053858518600464,0.52914959192276,0.1796725541353226,30.88018798828125,95.61610412597656,-4.90228271484375
274360,-0.5527801513671875,0.82269287109375,0.096221923828125,-0.5310226082801819,0.6370230913162231,0.1299723833799362,30.9267578125,95.60774230957033,-4.800125122070312
274361,-0.53668212890625,0.7897491455078125,0.08160400390625,-0.5310226082801819,0.6370230913162231,0.1299723833799362,30.95497131347656,95.5695343017578,-4.676620483398438
274362,-0.523956298828125,0.765899658203125,0.066192626953125,-0.5835260152816772,0.6849170923233032,0.0869468823075294,31.00877380371094,95.418212890625,-4.553802490234375
274363,-0.52667236328125,0.7640838623046875,0.0560760498046875,-0.609770655632019,0.7235071063041687,0.0445363074541091,30.97531127929688,95.39532470703124,-4.381134033203125
274364,-0.544464111328125,0.7851409912109375,0.08074951171875,-0.6340392827987671,0.7549400925636292,-0.0027811392210423,30.92352294921875,95.38096618652344,-4.320709228515625
274365,-0.544464111328125,0.7851409912109375,0.08074951171875,-0.6340392827987671,0.7549400925636292,-0.0027811392210423,30.92352294921875,95.38096618652344,-4.320709228515625
274366,-0.566192626953125,0.8439178466796875,0.1140899658203125,-0.5975728631019592,0.7768771052360535,-0.1393919736146927,30.67947387695312,95.32414245605467,-4.092803955078125
274367,-0.55157470703125,0.8379974365234375,0.1062164306640625,-0.5736052393913269,0.7666729688644409,-0.2148494571447372,30.56472778320312,95.11857604980467,-3.873062133789062
274368,-0.5250701904296875,0.7933502197265625,0.076141357421875,-0.5088691115379333,0.6040118336677551,-0.3089538514614105,30.40078735351562,95.06683349609376,-3.786575317382812
274369,-0.5050048828125,0.740814208984375,0.054962158203125,-0.5088691115379333,0.6040118336677551,-0.3089538514614105,30.2471923828125,94.78030395507812,-3.644027709960938
274370,-0.498687744140625,0.7003326416015625,0.0324554443359375,-0.4798132181167603,0.5356988310813904,-0.3412140607833862,29.96609497070312,94.68014526367188,-3.584747314453125
274371,-0.509246826171875,0.67578125,0.0082244873046875,-0.4691800177097321,0.5037100315093994,-0.3772024214267731,29.77153015136719,94.60595703125,-3.360809326171875
274372,-0.53106689453125,0.6670989990234375,-0.0062255859375,-0.4727060198783875,0.4879222810268402,-0.4208308458328247,29.51869201660156,94.53488159179688,-3.1917724609375
274373,-0.5556793212890625,0.66192626953125,-0.002410888671875,-0.4897180497646332,0.4774962663650513,-0.4629095792770386,29.32124328613281,94.36083984375,-3.101318359375
274374,-0.5785064697265625,0.6492462158203125,0.0016021728515625,-0.5110166668891907,0.4671091437339783,-0.5045822262763977,28.99794006347656,94.23594665527344,-3.028640747070312
274375,-0.5893707275390625,0.6348876953125,0.0020294189453125,-0.5265932083129883,0.4384601712226868,-0.5260382294654846,28.66835021972656,94.11799621582033,-2.9202880859375
274376,-0.5848388671875,0.6271820068359375,-0.00421142578125,-0.5461581349372864,0.3829729557037354,-0.526240885257721,28.40132141113281,93.83877563476562,-2.764633178710938
274377,-0.56610107421875,0.6277923583984375,-0.0247955322265625,-0.5837848782539368,0.3233397006988525,-0.5087023973464966,28.05877685546875,93.73171997070312,-2.611160278320312
274378,-0.55059814453125,0.64056396484375,-0.0481109619140625,-0.6435819268226624,0.2724517583847046,-0.4823240339756012,27.72242736816406,93.42483520507812,-2.449310302734375
274379,-0.54168701171875,0.6694183349609375,-0.07012939453125,-0.7217038869857788,0.214719757437706,-0.4500696957111359,27.39735412597656,93.1778564453125,-2.154296875
274380,-0.54559326171875,0.7086334228515625,-0.08795166015625,-0.8506829142570496,0.1427464932203293,-0.4014669954776764,27.14007568359375,93.03236389160156,-2.071441650390625
274381,-0.559326171875,0.7509765625,-0.0932464599609375,-0.8506829142570496,0.1427464932203293,-0.4014669954776764,26.86708068847656,92.65760803222656,-1.88006591796875
274382,-0.581024169921875,0.8044586181640625,-0.0909271240234375,-0.8771445751190186,0.1427353173494339,-0.362975537776947,26.562255859375,92.4792938232422,-1.569183349609375
274383,-0.61248779296875,0.8661651611328125,-0.113494873046875,-0.8741195201873779,0.1565158367156982,-0.319863498210907,26.30911254882812,92.2824249267578,-1.258544921875
274384,-0.6363372802734375,0.920379638671875,-0.1580352783203125,-0.8259924650192261,0.1465156674385071,-0.2525387704372406,26.02964782714844,92.07080078125,-0.91485595703125
274385,-0.6427764892578125,0.9758758544921876,-0.20391845703125,-0.7534788250923157,0.1402247548103333,-0.1795119643211365,25.7041015625,91.83779907226562,-0.56884765625
274386,-0.639923095703125,1.016143798828125,-0.2485809326171875,-0.6651564240455627,0.1240979805588722,-0.0919967666268348,25.49494934082031,91.45089721679688,-0.1946868896484375
274387,-0.615966796875,1.052932739257812,-0.269287109375,-0.5696948766708374,0.1416673809289932,0.0019536949694156,25.38504028320312,91.1531219482422,0.1336822509765625
274388,-0.5683135986328125,1.060516357421875,-0.2618408203125,-0.3222012221813202,0.256093293428421,0.1313822567462921,25.20997619628906,90.96975708007812,0.489288330078125
274389,-0.50482177734375,1.043121337890625,-0.253387451171875,-0.3222012221813202,0.256093293428421,0.1313822567462921,25.21466064453125,90.78622436523438,0.7800140380859375
274390,-0.4445343017578125,1.024932861328125,-0.277862548828125,-0.1978291869163513,0.2664218246936798,0.171238586306572,25.04899597167969,90.74665832519533,0.914154052734375
274391,-0.3878326416015625,1.002792358398438,-0.3070831298828125,-0.0841084867715835,0.2429636418819427,0.1981905847787857,25.04061889648438,90.63230895996094,0.9688262939453124
274392,-0.3514556884765625,0.989166259765625,-0.33563232421875,0.0174932405352592,0.239225372672081,0.220676451921463,25.050537109375,90.59333801269533,1.021514892578125
274393,-0.32342529296875,0.979736328125,-0.3848114013671875,0.1054782196879387,0.2309485226869583,0.2333837300539017,25.12623596191406,90.5559539794922,1.079986572265625
274394,-0.3144683837890625,0.9858245849609376,-0.417755126953125,0.1768858283758163,0.2290337234735489,0.2362114638090134,25.15690612792969,90.6518096923828,1.062576293945312
274395,-0.3144683837890625,0.9858245849609376,-0.417755126953125,0.1768858283758163,0.2290337234735489,0.2362114638090134,25.15690612792969,90.6518096923828,1.062576293945312
274396,-0.3100738525390625,1.003875732421875,-0.441986083984375,0.225140705704689,0.2149871438741684,0.2276275604963303,25.21600341796875,90.7305145263672,0.95751953125
274397,-0.3060455322265625,1.088241577148438,-0.392547607421875,0.2759681940078735,0.2118784338235855,0.216605007648468,25.33123779296875,90.901123046875,0.85968017578125
274398,-0.30682373046875,1.12811279296875,-0.3577423095703125,0.2877857089042664,0.1993298828601837,0.2200780361890793,25.42350769042969,90.81842041015624,0.6396636962890625
274399,-0.30682373046875,1.12811279296875,-0.3577423095703125,0.2877857089042664,0.1993298828601837,0.2200780361890793,25.42350769042969,90.81842041015624,0.6396636962890625
274400,-0.317474365234375,1.1572265625,-0.3142547607421875,0.3062472641468048,0.1555869281291962,0.2545936703681946,25.56355285644531,90.7783660888672,0.621368408203125
274401,-0.3647003173828125,1.171768188476562,-0.2137908935546875,0.3147350251674652,0.1282706260681152,0.2669640481472015,25.76307678222656,90.96574401855467,0.29534912109375
274402,-0.399139404296875,1.168365478515625,-0.1576080322265625,0.3168549239635468,0.1302528083324432,0.2587162554264069,25.91928100585938,91.064697265625,0.145904541015625
274403,-0.4471282958984375,1.163742065429688,-0.0952301025390625,0.3086771368980408,0.1601063162088394,0.243131160736084,26.0299072265625,91.25675964355467,-0.0793914794921875
274404,-0.506011962890625,1.155044555664062,-0.0295867919921875,0.3054203689098358,0.2018111497163773,0.1949897259473801,26.16072082519531,91.49734497070312,-0.3165435791015625
274405,-0.564422607421875,1.134841918945312,0.0206298828125,0.3666017055511475,0.2328803837299347,0.1275092214345932,26.23231506347656,91.7372589111328,-0.555145263671875
274406,-0.61865234375,1.108078002929688,0.0311431884765625,0.4407995045185089,0.2376932501792908,0.0332764647901058,26.30842590332031,91.93728637695312,-0.6495361328125
274407,-0.6618804931640625,1.068328857421875,0.0323944091796875,0.5153903961181641,0.2609533071517944,-0.0841580182313919,26.4183349609375,92.00717163085938,-0.8287811279296875
274408,-0.6927642822265625,1.00762939453125,0.0176239013671875,0.6257197856903076,0.3968594670295715,-0.3656299114227295,26.44638061523438,92.17570495605467,-1.111984252929688
274409,-0.7171783447265625,0.93060302734375,-0.0025177001953125,0.6257197856903076,0.3968594670295715,-0.3656299114227295,26.43040466308594,92.30642700195312,-1.444869995117188
274410,-0.7321624755859375,0.849822998046875,-0.0347900390625,0.6559544205665588,0.4237526059150696,-0.4883118867874146,26.217041015625,92.4803466796875,-1.688690185546875
274411,-0.730133056640625,0.77923583984375,-0.0756378173828125,0.7190489768981934,0.3753770887851715,-0.5662423968315125,25.96224975585938,92.5871124267578,-1.901596069335938
274412,-0.6962738037109375,0.71099853515625,-0.088958740234375,0.7030636072158813,0.1959814876317978,-0.5565897226333618,25.74778747558594,92.64021301269533,-2.270187377929688
274413,-0.6506805419921875,0.65869140625,-0.1074066162109375,0.7030636072158813,0.1959814876317978,-0.5565897226333618,25.57734680175781,92.65660095214844,-2.661239624023438
274414,-0.6268310546875,0.6197662353515625,-0.135528564453125,0.613365113735199,0.0307752229273319,-0.4960813820362091,25.29415893554688,92.67588806152344,-3.068389892578125
274415,-0.62042236328125,0.606201171875,-0.1386871337890625,0.5558834671974182,-0.1199165508151054,-0.4220633506774902,25.16160583496094,92.66764831542967,-3.445663452148438
274416,-0.6117706298828125,0.5919342041015625,-0.1314697265625,0.5421828627586365,-0.1416881531476974,-0.2900539338588715,25.07093811035156,92.73484802246094,-3.76959228515625
274417,-0.6162109375,0.579498291015625,-0.1263275146484375,0.5421828627586365,-0.1416881531476974,-0.2900539338588715,24.920654296875,92.8070831298828,-3.927719116210938
274418,-0.646636962890625,0.5701904296875,-0.102569580078125,0.5834735631942749,-0.013905162923038,-0.2356828302145004,24.90870666503906,92.8134765625,-4.0185546875
274419,-0.646636962890625,0.5701904296875,-0.102569580078125,0.5834735631942749,-0.013905162923038,-0.2356828302145004,24.90870666503906,92.8134765625,-4.0185546875
274420,-0.726776123046875,0.521881103515625,-0.0977630615234375,0.6522678136825562,0.4746514558792114,-0.1418958902359009,24.8033447265625,92.89566040039062,-4.440032958984375
274421,-0.729156494140625,0.50384521484375,-0.0927734375,0.6522678136825562,0.4746514558792114,-0.1418958902359009,24.68154907226562,93.03341674804688,-4.748046875
274422,-0.7029571533203125,0.5082855224609375,-0.070587158203125,0.6066212058067322,0.5495011806488037,-0.1249019876122475,24.66705322265625,92.9691162109375,-5.065231323242188
274423,-0.6514129638671875,0.5302886962890625,-0.0238494873046875,0.5234999656677246,0.6051849722862244,-0.1131550520658493,24.72067260742188,92.87904357910156,-5.384780883789062
274424,-0.598663330078125,0.5586700439453125,0.0133209228515625,0.4014792442321777,0.6255970597267151,-0.0873823091387748,24.74058532714844,92.79356384277344,-5.649200439453125
274425,-0.5572662353515625,0.5881500244140625,0.0411376953125,0.2443351745605469,0.6005505323410034,-0.0508759655058383,24.62974548339844,92.7649383544922,-6.010604858398438
274426,-0.53411865234375,0.6324310302734375,0.0569000244140625,0.0708592608571052,0.5527374744415283,-0.0217865221202373,24.60340881347656,92.81260681152344,-6.37847900390625
274427,-0.53411865234375,0.6324310302734375,0.0569000244140625,0.0708592608571052,0.5527374744415283,-0.0217865221202373,24.60340881347656,92.81260681152344,-6.37847900390625
274428,-0.48907470703125,0.66864013671875,0.08795166015625,-0.2193517982959747,0.3982086181640625,0.0539953261613845,24.31045532226562,92.87638854980467,-6.972381591796875
274429,-0.45208740234375,0.679473876953125,0.1172943115234375,-0.3320445120334625,0.3165265321731567,0.0991817116737365,24.28536987304688,92.746826171875,-7.049896240234375
274430,-0.414459228515625,0.6815185546875,0.1472625732421875,-0.4781412780284882,0.1898482292890549,0.186661496758461,24.18333435058594,92.69895935058594,-7.112136840820312
274431,-0.3776092529296875,0.6832122802734375,0.1587982177734375,-0.4781412780284882,0.1898482292890549,0.186661496758461,24.27970886230469,92.7003936767578,-6.976028442382812
274432,-0.3776092529296875,0.6832122802734375,0.1587982177734375,-0.4781412780284882,0.1898482292890549,0.186661496758461,24.27970886230469,92.7003936767578,-6.976028442382812
274433,-0.330322265625,0.7115020751953125,0.127197265625,-0.5209451913833618,0.1398271471261978,0.2611056268215179,24.35604858398438,92.50950622558594,-6.748458862304688
274434,-0.349639892578125,0.7466888427734375,0.1054229736328125,-0.5297975540161133,0.1742839217185974,0.2624872922897339,24.41233825683594,92.54090881347656,-6.479324340820312
274435,-0.384063720703125,0.787445068359375,0.0874786376953125,-0.5590603351593018,0.2196399420499802,0.2487917095422745,24.48976135253906,92.57225036621094,-6.375198364257812
274436,-0.411651611328125,0.8266448974609375,0.0881500244140625,-0.6062076091766357,0.2243287116289139,0.2164028733968735,24.52140808105469,92.57218933105467,-6.22491455078125
274437,-0.4337310791015625,0.8597259521484375,0.108367919921875,-0.6663902997970581,0.177990511059761,0.1682923436164856,24.57402038574219,92.65554809570312,-6.0718994140625
274438,-0.4517364501953125,0.8790435791015625,0.1181182861328125,-0.7257398962974548,0.0980842188000679,0.1188230589032173,24.61476135253906,92.50372314453124,-5.761138916015625
274439,-0.4763641357421875,0.8955841064453125,0.124481201171875,-0.7849291563034058,0.0181683506816625,0.0655443891882896,24.6044921875,92.34506225585938,-5.392105102539062
274440,-0.5018157958984375,0.9029541015625,0.1248626708984375,-0.8323779106140137,-0.0278465449810028,0.0118502676486969,24.59632873535156,92.2314910888672,-5.0987548828125
274441,-0.5275726318359375,0.90216064453125,0.09918212890625,-0.8732870221138,0.0044578653760254,-0.0377825312316417,24.66703796386719,92.02224731445312,-4.78619384765625
274442,-0.5662384033203125,0.915863037109375,0.0241241455078125,-0.8784815073013306,0.0725548937916755,-0.0812871307134628,24.50950622558594,91.98385620117188,-4.358261108398438
274443,-0.6762237548828125,0.9201812744140624,-0.123687744140625,-0.8347135186195374,0.1919446736574173,-0.1824110895395279,24.29681396484375,91.7171630859375,-3.902908325195312
274444,-0.6762237548828125,0.9201812744140624,-0.123687744140625,-0.8347135186195374,0.1919446736574173,-0.1824110895395279,24.29681396484375,91.7171630859375,-3.902908325195312
274445,-0.7259368896484375,0.9197235107421876,-0.1245574951171875,-0.8140886425971985,0.3307294547557831,-0.2171850502490997,24.17515563964844,91.52857971191406,-3.532806396484375
274446,-0.7706451416015625,0.9445953369140624,-0.1341552734375,-0.7984404563903809,0.4921779930591583,-0.2364293187856674,24.0372314453125,91.40016174316406,-3.140975952148438
274447,-0.81378173828125,0.9797210693359376,-0.194580078125,-0.6718255281448364,0.5077242255210876,-0.2007245868444443,23.85836791992188,91.27085876464844,-2.948928833007812
274448,-0.8232574462890625,0.9976654052734376,-0.2652587890625,-0.6718255281448364,0.5077242255210876,-0.2007245868444443,23.69316101074219,90.90325927734376,-2.606613159179688
274449,-0.7941131591796875,1.027420043945312,-0.2958831787109375,-0.5726590156555176,0.5035361051559448,-0.1029287800192833,23.54959106445312,90.7406768798828,-2.347686767578125
274450,-0.7503509521484375,1.076705932617188,-0.306121826171875,-0.4611287415027618,0.5802026391029358,0.0062416507862508,23.36669921875,90.47288513183594,-2.071609497070312
274451,-0.6789093017578125,1.100173950195312,-0.31292724609375,-0.346356600522995,0.6331912875175476,0.0791704505681991,23.232421875,90.4739990234375,-2.139373779296875
274452,-0.5957183837890625,1.077804565429688,-0.319915771484375,-0.2486958354711533,0.6445552706718445,0.1321005076169968,23.06106567382812,90.34547424316406,-2.2569580078125
274453,-0.5957183837890625,1.077804565429688,-0.319915771484375,-0.2486958354711533,0.6445552706718445,0.1321005076169968,23.06106567382812,90.34547424316406,-2.2569580078125
274454,-0.491424560546875,1.002700805664062,-0.42535400390625,-0.0731066986918449,0.6337950229644775,0.2428912073373795,22.97103881835938,90.255615234375,-2.145660400390625
274455,-0.4730224609375,0.97491455078125,-0.4755706787109375,-0.0476809702813625,0.6634264588356018,0.2840668857097626,23.03269958496094,90.345703125,-2.09295654296875
274456,-0.4485321044921875,0.9644317626953124,-0.5177764892578125,0.0032927324064075,0.6659317016601562,0.2897577881813049,22.99615478515625,90.42605590820312,-2.2476806640625
274457,-0.421356201171875,0.9571380615234376,-0.513153076171875,0.0183699522167444,0.7023701071739197,0.2932305335998535,23.08982849121094,90.49530029296876,-2.36566162109375
274458,-0.4085540771484375,0.96356201171875,-0.5194244384765625,0.0075806877575814,0.7401582598686218,0.2913945615291595,23.08590698242188,90.4965362548828,-2.359039306640625
274459,-0.4302215576171875,0.9768524169921876,-0.5277862548828125,-0.0092451637610793,0.7854897975921631,0.2653712034225464,23.11912536621094,90.67674255371094,-2.535125732421875
274460,-0.4753265380859375,0.986968994140625,-0.5370025634765625,0.0041289650835096,0.8341188430786133,0.2285458296537399,23.05938720703125,90.702392578125,-2.752777099609375
274461,-0.5144500732421875,0.993499755859375,-0.5196380615234375,0.0387141071259975,0.8672218918800354,0.1879525929689407,23.08041381835938,90.81706237792967,-2.861526489257812
274462,-0.53619384765625,0.9926910400390624,-0.48468017578125,0.0775688290596008,0.9074801206588744,0.1410151720046997,23.122802734375,90.92955017089844,-3.044281005859375
274463,-0.5385284423828125,0.98712158203125,-0.4536895751953125,0.1160110235214233,0.936137318611145,0.1088505834341049,23.05618286132812,90.97372436523438,-3.323089599609375
274464,-0.5295257568359375,0.9795989990234376,-0.4276885986328125,0.1002496406435966,0.8002048134803772,0.067407801747322,23.00035095214844,91.059326171875,-3.561080932617188
274465,-0.50823974609375,0.95257568359375,-0.4025421142578125,0.1002496406435966,0.8002048134803772,0.067407801747322,22.86268615722656,91.25808715820312,-3.926788330078125
274466,-0.48114013671875,0.9140472412109376,-0.354217529296875,0.0703449994325637,0.6353010535240173,0.0547165088355541,22.88188171386719,91.31219482421876,-4.158935546875
274467,-0.44964599609375,0.8757476806640625,-0.2836456298828125,0.0942061245441436,0.5109623670578003,0.0388499274849891,22.88674926757812,91.30630493164062,-4.391754150390625
274468,-0.4270782470703125,0.8580169677734375,-0.209869384765625,0.131709024310112,0.4773881435394287,0.0250590145587921,22.78839111328125,91.39492797851562,-4.704635620117188
274469,-0.409027099609375,0.8308563232421875,-0.1600341796875,0.1127361357212067,0.4290813207626343,0.0204048734158277,22.68229675292969,91.46981811523438,-4.802536010742188
274470,-0.39874267578125,0.7949066162109375,-0.1396484375,0.0411370508372783,0.3045135736465454,0.0395988076925277,22.66677856445312,91.5594482421875,-4.952407836914062
274471,-0.39874267578125,0.7949066162109375,-0.1396484375,0.0411370508372783,0.3045135736465454,0.0395988076925277,22.66677856445312,91.5594482421875,-4.952407836914062
274472,-0.4345855712890625,0.7440032958984375,-0.0422210693359375,0.0441251173615455,0.0053172674961388,0.0910944864153862,22.80715942382812,91.55462646484376,-5.087890625
274473,-0.4608154296875,0.7337493896484375,0.0090484619140625,0.0441251173615455,0.0053172674961388,0.0910944864153862,22.8453369140625,91.60409545898438,-5.129409790039062
274474,-0.475189208984375,0.7087554931640625,0.0410003662109375,0.0917397737503051,0.0684096813201904,0.082020565867424,22.99087524414062,91.47161865234376,-5.091156005859375
274475,-0.4713287353515625,0.67431640625,0.051483154296875,0.1186068058013916,0.1802973300218582,0.0978328213095665,23.24107360839844,91.40615844726562,-5.044967651367188
274476,-0.4446563720703125,0.6490631103515625,0.0362091064453125,0.1400561779737473,0.2793610692024231,0.1125166937708855,23.40982055664062,91.52281188964844,-5.1641845703125
274477,-0.4167938232421875,0.6194915771484375,0.0151519775390625,0.1489987969398499,0.3242699503898621,0.1200531721115112,23.49362182617188,91.50294494628906,-5.264266967773438
274478,-0.4004669189453125,0.593658447265625,0.019622802734375,0.1198640838265419,0.3693341016769409,0.1127755492925644,23.63288879394531,91.583251953125,-5.3582763671875
274479,-0.402557373046875,0.5770111083984375,0.027008056640625,0.0389106459915638,0.4293401837348938,0.0814485177397728,23.67768859863281,91.58734130859376,-5.540313720703125
274480,-0.4327850341796875,0.5767059326171875,0.02252197265625,-0.0755355060100555,0.4861760437488556,0.0482873730361461,23.75730895996094,91.70399475097656,-5.647018432617188
274481,-0.4733734130859375,0.5987396240234375,0.0055389404296875,-0.1925473511219025,0.4982638657093048,0.0238784346729517,23.76451110839844,91.65859985351562,-5.78204345703125
274482,-0.492156982421875,0.6319732666015625,-0.0113525390625,-0.2882959842681885,0.5008809566497803,0.02778822183609,23.80418395996094,91.67921447753906,-5.84063720703125
274483,-0.46893310546875,0.6487274169921875,-0.023223876953125,-0.3621433079242706,0.5227566957473755,0.0241314359009265,23.79005432128906,91.69671630859376,-5.883163452148438
274484,-0.444061279296875,0.656341552734375,-0.03558349609375,-0.471690833568573,0.6042565703392029,-0.014912636950612,23.82028198242188,91.654296875,-5.91143798828125
274485,-0.4453277587890625,0.67071533203125,-0.0533294677734375,-0.471690833568573,0.6042565703392029,-0.014912636950612,23.72232055664062,91.64505004882812,-5.82305908203125
274486,-0.4643707275390625,0.6905364990234375,-0.078857421875,-0.5149189829826355,0.6396284103393555,-0.0569125525653362,23.73043823242188,91.5486297607422,-5.758102416992188
274487,-0.5233917236328125,0.744781494140625,-0.135406494140625,-0.5389004945755005,0.6030648350715637,-0.2343627065420151,23.55134582519531,91.34190368652344,-5.8458251953125
274488,-0.5233917236328125,0.744781494140625,-0.135406494140625,-0.5389004945755005,0.6030648350715637,-0.2343627065420151,23.55134582519531,91.34190368652344,-5.8458251953125
274489,-0.535003662109375,0.7891387939453125,-0.1112213134765625,-0.5389004945755005,0.6030648350715637,-0.2343627065420151,23.384521484375,91.2108154296875,-5.774520874023438
274490,-0.5325927734375,0.8243560791015625,-0.0749053955078125,-0.5432204008102417,0.6400976777076721,-0.2768033742904663,23.11221313476562,90.99211120605467,-5.658660888671875
274491,-0.530853271484375,0.8446502685546875,-0.0544891357421875,-0.534458339214325,0.6277827024459839,-0.3026666641235352,22.95960998535156,90.87464904785156,-5.69232177734375
274492,-0.5355224609375,0.8490447998046875,-0.0238494873046875,-0.5102320909500122,0.5785413980484009,-0.3206035792827606,22.7073974609375,90.74569702148438,-5.677719116210938
274493,-0.533538818359375,0.823974609375,0.010772705078125,-0.4809293448925018,0.5033097267150879,-0.3247477114200592,22.55632019042969,90.66769409179688,-5.690353393554688
274494,-0.5224761962890625,0.773529052734375,0.0121307373046875,-0.4458850622177124,0.4145042300224304,-0.317437618970871,22.37623596191406,90.42691040039062,-5.4580078125
274495,-0.51318359375,0.7218475341796875,-0.01666259765625,-0.3820890486240387,0.2816964089870453,-0.3095732927322388,22.07254028320312,90.44139099121094,-5.44476318359375
274496,-0.4978485107421875,0.6776885986328125,-0.0376129150390625,-0.3130252957344055,0.1639801412820816,-0.3089887499809265,22.0118408203125,90.27239990234376,-5.399169921875
274497,-0.4821929931640625,0.6461944580078125,-0.0557861328125,-0.2751005291938782,0.0727200135588645,-0.3239501118659973,21.82951354980469,90.2069091796875,-5.345245361328125
274498,-0.482513427734375,0.62640380859375,-0.0695648193359375,-0.2729694843292236,0.0066632288508117,-0.3527716398239136,21.65142822265625,90.05570983886719,-5.172988891601562
274499,-0.502838134765625,0.632415771484375,-0.0778656005859375,-0.3933976292610168,-0.1110114753246307,-0.3741232752799988,21.28054809570312,89.79463195800781,-5.1082763671875
274500,-0.502838134765625,0.632415771484375,-0.0778656005859375,-0.3933976292610168,-0.1110114753246307,-0.3741232752799988,21.28054809570312,89.79463195800781,-5.1082763671875
274501,-0.5114593505859375,0.688690185546875,-0.0787200927734375,-0.4541163742542267,-0.2183379232883453,-0.354869931936264,21.06137084960938,89.74116516113281,-4.90899658203125
274502,-0.5178070068359375,0.761932373046875,-0.06243896484375,-0.5478566884994507,-0.2566147446632385,-0.3230299949645996,20.85006713867188,89.63786315917969,-4.652969360351562
274503,-0.520263671875,0.837158203125,-0.0820159912109375,-0.6331489682197571,-0.2519020140171051,-0.2814391255378723,20.67082214355469,89.37312316894531,-4.363174438476562
274504,-0.5332794189453125,0.898468017578125,-0.0886993408203125,-0.6633419990539551,-0.1934360414743423,-0.2429205030202866,20.35340881347656,89.38150024414062,-4.250228881835938
274505,-0.5504913330078125,0.943634033203125,-0.086944580078125,-0.64398592710495,-0.082159049808979,-0.2123727202415466,20.193603515625,89.16854858398438,-3.8717041015625
274506,-0.5632781982421875,0.9898834228515624,-0.096771240234375,-0.5940889120101929,0.0131656033918261,-0.1899936348199844,20.05099487304688,89.02494812011719,-3.3829345703125
274507,-0.5632781982421875,0.9898834228515624,-0.096771240234375,-0.5940889120101929,0.0131656033918261,-0.1899936348199844,20.05099487304688,89.02494812011719,-3.3829345703125
274508,-0.56903076171875,1.02532958984375,-0.1119842529296875,-0.5286862254142761,0.0603877082467079,-0.1664800643920898,19.90322875976562,88.76756286621094,-2.991867065429688
274509,-0.5633697509765625,1.086151123046875,-0.1689910888671875,-0.298757940530777,0.0958844497799873,-0.1196267977356911,19.56959533691406,88.67306518554688,-2.796859741210938
274510,-0.565826416015625,1.102951049804688,-0.216217041015625,-0.112010158598423,0.1203466504812241,-0.1116394475102425,19.35789489746094,88.595703125,-2.579421997070312
274511,-0.5499114990234375,1.118560791015625,-0.2795257568359375,0.0630865544080734,0.1352821886539459,-0.0930353999137878,19.20265197753906,88.49037170410156,-2.360702514648438
274512,-0.5487823486328125,1.141265869140625,-0.366363525390625,0.2797831892967224,0.1163300722837448,-0.0790484771132469,19.12425231933594,88.4027099609375,-2.258865356445312
274513,-0.553619384765625,1.16033935546875,-0.468414306640625,0.2797831892967224,0.1163300722837448,-0.0790484771132469,19.03732299804688,88.47512817382812,-2.264053344726562
274514,-0.565673828125,1.203338623046875,-0.5332183837890625,0.3202584385871887,0.0800519585609436,-0.0895109772682189,18.93431091308594,88.44132995605469,-2.297470092773438
274515,-0.5733489990234375,1.235000610351562,-0.5736846923828125,0.3323928713798523,0.0908476114273071,-0.0946380943059921,18.96414184570312,88.34278869628906,-2.348129272460938
274516,-0.5681915283203125,1.246002197265625,-0.5953369140625,0.3419735729694366,0.1479761451482773,-0.0986629277467727,18.846435546875,88.22297668457031,-2.507980346679688
274517,-0.542877197265625,1.221923828125,-0.5913848876953125,0.3821423053741455,0.2797701358795166,-0.0421146973967552,18.82524108886719,88.28826904296875,-2.612106323242188
274518,-0.4963531494140625,1.155029296875,-0.55889892578125,0.3821423053741455,0.2797701358795166,-0.0421146973967552,18.83804321289062,88.30705261230469,-2.693679809570312
274519,-0.4963531494140625,1.155029296875,-0.55889892578125,0.3821423053741455,0.2797701358795166,-0.0421146973967552,18.83804321289062,88.30705261230469,-2.693679809570312
274520,-0.4251556396484375,0.968902587890625,-0.4786376953125,0.4883957803249359,0.4321713745594025,0.1935391128063202,18.97537231445312,88.42710876464844,-3.440505981445312
274521,-0.4251556396484375,0.968902587890625,-0.4786376953125,0.4883957803249359,0.4321713745594025,0.1935391128063202,18.97537231445312,88.42710876464844,-3.440505981445312
274522,-0.4322052001953125,0.96026611328125,-0.4427490234375,0.4887856543064117,0.4364082217216492,0.2273766994476318,19.02120971679688,88.49264526367188,-3.653411865234375
274523,-0.4490814208984375,0.968994140625,-0.3966064453125,0.4670899510383606,0.4546655118465424,0.208107128739357,19.10047912597656,88.62983703613281,-4.047409057617188
274524,-0.4859466552734375,0.991943359375,-0.3357391357421875,0.4474126696586609,0.4784150421619415,0.1242324709892273,19.13697814941406,88.81939697265625,-4.389816284179688
274525,-0.5385589599609375,1.014999389648438,-0.2687835693359375,0.4151013195514679,0.4889110922813416,0.0182820688933134,19.32038879394531,88.92037963867188,-4.854217529296875
274526,-0.6084747314453125,1.041763305664062,-0.22064208984375,0.3956826031208038,0.4628938734531403,-0.1161644235253334,19.36724853515625,89.07284545898438,-5.1300048828125
274527,-0.6756439208984375,1.051071166992188,-0.1800537109375,0.4048039317131042,0.4293239414691925,-0.2567159533500671,19.54722595214844,89.13021850585938,-5.291824340820312
274528,-0.7270660400390625,1.024749755859375,-0.1457366943359375,0.4460701644420624,0.3533404767513275,-0.4300448596477509,19.58744812011719,89.27670288085938,-5.594436645507812
274529,-0.7514495849609375,0.9686126708984376,-0.1520538330078125,0.4460701644420624,0.3533404767513275,-0.4300448596477509,19.55728149414062,89.29656982421875,-5.867660522460938
274530,-0.7461090087890625,0.8873291015625,-0.1504669189453125,0.4982449412345886,0.3036333918571472,-0.4471838772296906,19.42396545410156,89.2353515625,-6.0455322265625
274531,-0.719512939453125,0.795989990234375,-0.1379241943359375,0.576521098613739,0.3155821859836578,-0.4207679927349091,19.37788391113281,89.16004943847656,-6.269195556640625
274532,-0.719512939453125,0.795989990234375,-0.1379241943359375,0.576521098613739,0.3155821859836578,-0.4207679927349091,19.37788391113281,89.16004943847656,-6.269195556640625
274533,-0.6567230224609375,0.6740570068359375,-0.1868133544921875,0.7470009922981262,0.4041866362094879,-0.320318877696991,19.1927490234375,89.02046203613281,-6.933914184570312
274534,-0.6209564208984375,0.631866455078125,-0.2236175537109375,0.7866477370262146,0.3838147819042206,-0.2741141021251678,19.17860412597656,88.97425842285156,-7.220413208007812
274535,-0.6209564208984375,0.631866455078125,-0.2236175537109375,0.7866477370262146,0.3838147819042206,-0.2741141021251678,19.17860412597656,88.97425842285156,-7.220413208007812
274536,-0.571685791015625,0.60064697265625,-0.2448272705078125,0.7285404801368713,0.3329614400863647,-0.1770149916410446,19.1390380859375,89.0068359375,-8.219436645507812
274537,-0.57550048828125,0.6123809814453125,-0.227813720703125,0.6708289384841919,0.326966404914856,-0.1278184205293655,19.02497863769531,89.03648376464844,-8.5975341796875
274538,-0.581817626953125,0.6185455322265625,-0.20751953125,0.5960857272148132,0.3109091520309448,-0.0887256115674972,19.11752319335938,89.03947448730469,-8.838043212890625
274539,-0.581817626953125,0.6185455322265625,-0.20751953125,0.5960857272148132,0.3109091520309448,-0.0887256115674972,19.11752319335938,89.03947448730469,-8.838043212890625
274540,-0.553985595703125,0.58935546875,-0.1537933349609375,0.3464303910732269,0.2985688447952271,0.0043071303516626,19.14561462402344,88.93077087402344,-9.650222778320312
274541,-0.5018310546875,0.5547637939453125,-0.129241943359375,0.3464303910732269,0.2985688447952271,0.0043071303516626,19.12771606445312,89.06390380859375,-9.958709716796877
274542,-0.4437255859375,0.5167694091796875,-0.1258697509765625,0.2592901587486267,0.2840863168239594,0.0345933958888053,19.21017456054688,89.0135498046875,-10.16778564453125
274543,-0.388214111328125,0.4730987548828125,-0.1175994873046875,0.1925473511219025,0.2499778866767883,0.0762825235724449,19.27351379394531,89.0975341796875,-10.35647583007812
274544,-0.3392181396484375,0.4453277587890625,-0.0825042724609375,0.1020901501178741,0.2380154877901077,0.1177599206566811,19.32058715820312,89.12889099121094,-10.526123046875
274545,-0.30035400390625,0.4312591552734375,-0.05548095703125,-0.126311868429184,0.2536314725875854,0.1931926310062408,19.22824096679688,89.09843444824219,-10.66056823730469
274546,-0.2732391357421875,0.4402923583984375,-0.02923583984375,-0.126311868429184,0.2536314725875854,0.1931926310062408,19.25558471679688,89.2789306640625,-10.74530029296875
274547,-0.2732391357421875,0.4402923583984375,-0.02923583984375,-0.126311868429184,0.2536314725875854,0.1931926310062408,19.25558471679688,89.2789306640625,-10.74530029296875
274548,-0.2583465576171875,0.48345947265625,0.0017242431640625,-0.2498985230922699,0.2507438063621521,0.1992792785167694,19.29734802246094,89.2587890625,-10.77464294433594
274549,-0.27508544921875,0.6526031494140625,0.0632171630859375,-0.495146632194519,0.1360379904508591,0.125748872756958,19.43093872070312,89.41952514648438,-10.73756408691406
274550,-0.32855224609375,0.7364501953125,0.106048583984375,-0.580635130405426,0.066081017255783,0.0905304327607154,19.49261474609375,89.35617065429688,-10.62942504882812
274551,-0.32855224609375,0.7364501953125,0.106048583984375,-0.580635130405426,0.066081017255783,0.0905304327607154,19.49261474609375,89.35617065429688,-10.62942504882812
274552,-0.4649810791015625,0.8255462646484375,0.1849517822265625,-0.6096612215042114,-0.0572225414216518,0.0237956102937459,19.31973266601562,89.42167663574219,-10.50791931152344
274553,-0.5163116455078125,0.83892822265625,0.2047576904296875,-0.6096612215042114,-0.0572225414216518,0.0237956102937459,19.3568115234375,89.42648315429688,-10.4205322265625
274554,-0.556610107421875,0.855926513671875,0.2132110595703125,-0.638380765914917,-0.077956847846508,-0.0141967786476016,19.32377624511719,89.3486328125,-10.20329284667969
274555,-0.5977325439453125,0.878082275390625,0.2158660888671875,-0.6930975317955017,-0.0826320275664329,-0.065642662346363,19.27015686035156,89.33694458007812,-9.999847412109377
274556,-0.5977325439453125,0.878082275390625,0.2158660888671875,-0.6930975317955017,-0.0826320275664329,-0.065642662346363,19.27015686035156,89.33694458007812,-9.999847412109377
274557,-0.679046630859375,0.8929290771484375,0.1995391845703125,-0.8135064840316772,-0.0519657284021377,-0.1915736943483353,19.22439575195312,89.27862548828125,-9.481658935546877
274558,-0.7168731689453125,0.885589599609375,0.17962646484375,-0.8400800228118896,-0.0551498048007488,-0.2482502907514572,19.09980773925781,89.10687255859375,-9.288711547851562
274559,-0.7168731689453125,0.885589599609375,0.17962646484375,-0.8400800228118896,-0.0551498048007488,-0.2482502907514572,19.09980773925781,89.10687255859375,-9.288711547851562
274560,-0.7432403564453125,0.8816986083984375,0.1531829833984375,-0.8476828336715698,-0.0575008429586887,-0.2958185970783234,19.00941467285156,89.02041625976562,-8.907028198242188
274561,-0.7259674072265625,0.86163330078125,0.0482177734375,-0.8809848427772522,0.0868179872632026,-0.2953400313854218,18.67539978027344,88.74124145507812,-8.230682373046875
274562,-0.694427490234375,0.8558807373046875,-0.019561767578125,-0.9101608395576476,0.1797825396060944,-0.2754432857036591,18.4681396484375,88.58624267578125,-7.852706909179688
274563,-0.694427490234375,0.8558807373046875,-0.019561767578125,-0.9101608395576476,0.1797825396060944,-0.2754432857036591,18.4681396484375,88.58624267578125,-7.852706909179688
274564,-0.6267547607421875,0.8501129150390625,-0.188812255859375,-0.9204779267311096,0.2989161312580109,-0.2496391236782074,18.19781494140625,88.23121643066406,-7.227645874023438
274565,-0.5944366455078125,0.8818511962890625,-0.27825927734375,-0.9204779267311096,0.2989161312580109,-0.2496391236782074,17.93368530273438,88.00914001464844,-6.88836669921875
274566,-0.572784423828125,0.93157958984375,-0.339599609375,-0.9028691053390504,0.3902977108955383,-0.2476388216018677,17.79624938964844,87.8482666015625,-6.575820922851562
274567,-0.572784423828125,0.93157958984375,-0.339599609375,-0.9028691053390504,0.3902977108955383,-0.2476388216018677,17.79624938964844,87.8482666015625,-6.575820922851562
274568,-0.5860137939453125,1.03582763671875,-0.4591522216796875,-0.8702201247215271,0.5817025303840637,-0.2220431864261627,17.30351257324219,87.64337158203125,-5.94281005859375
274569,-0.619598388671875,1.0750732421875,-0.48785400390625,-0.8471022844314575,0.5704850554466248,-0.2024907916784286,17.0712890625,87.40185546875,-5.746658325195312
274570,-0.62255859375,1.082687377929688,-0.4858551025390625,-0.8249388933181763,0.5599916577339172,-0.1375820934772491,16.833984375,87.11900329589844,-5.483734130859375
274571,-0.5941162109375,1.077346801757812,-0.51202392578125,-0.7728738188743591,0.5539817214012146,-0.0413714088499546,16.65504455566406,86.86253356933594,-5.269882202148438
274572,-0.5941162109375,1.077346801757812,-0.51202392578125,-0.7728738188743591,0.5539817214012146,-0.0413714088499546,16.65504455566406,86.86253356933594,-5.269882202148438
274573,-0.44378662109375,1.031707763671875,-0.624176025390625,-0.495449423789978,0.5572909712791443,0.2182963788509369,16.32638549804688,86.52044677734375,-4.990005493164062
274574,-0.333953857421875,0.9988250732421876,-0.6668701171875,-0.3412561416625977,0.6256508231163025,0.3534994721412659,16.23411560058594,86.36395263671875,-4.825149536132812
274575,-0.333953857421875,0.9988250732421876,-0.6668701171875,-0.3412561416625977,0.6256508231163025,0.3534994721412659,16.23411560058594,86.36395263671875,-4.825149536132812
274576,-0.2592315673828125,0.9794921875,-0.6966552734375,-0.2193017303943634,0.6911622285842896,0.4661626517772675,16.26004028320312,86.31755065917969,-4.82464599609375
274577,-0.2033538818359375,1.005294799804688,-0.69049072265625,-0.0209223255515098,0.7256909012794495,0.4981701076030731,16.38223266601562,86.46592712402344,-4.9986572265625
274578,-0.20721435546875,1.023605346679688,-0.6985015869140625,0.0723439678549766,0.7503946423530579,0.3847716450691223,16.51449584960938,86.68206787109375,-5.056625366210938
274579,-0.20721435546875,1.023605346679688,-0.6985015869140625,0.0723439678549766,0.7503946423530579,0.3847716450691223,16.51449584960938,86.68206787109375,-5.056625366210938
274580,-0.231719970703125,1.0372314453125,-0.736846923828125,0.1631670892238617,0.7747055888175964,0.2456896603107452,16.66690063476562,86.82049560546875,-5.224533081054688
274581,-0.302154541015625,1.055755615234375,-0.7701873779296875,0.2144039124250412,0.7972558736801147,0.0859942734241485,16.70988464355469,86.99971008300781,-5.445068359375
274582,-0.5377960205078125,0.991485595703125,-0.6891632080078125,0.0812410563230514,0.6393490433692932,-0.1126178875565529,16.690185546875,87.17800903320312,-6.079559326171875
274583,-0.5377960205078125,0.991485595703125,-0.6891632080078125,0.0812410563230514,0.6393490433692932,-0.1126178875565529,16.690185546875,87.17800903320312,-6.079559326171875
274584,-0.5898895263671875,0.92919921875,-0.562713623046875,0.0262387935072183,0.4824657142162323,-0.1445915400981903,16.59136962890625,87.26771545410156,-6.267196655273438
274585,-0.6222991943359375,0.837615966796875,-0.256805419921875,0.3085575699806213,0.8859860301017761,0.0059143481776118,16.26611328125,87.38064575195312,-6.716094970703125
274586,-0.6172637939453125,0.8037567138671875,-0.1992340087890625,0.3085575699806213,0.8859860301017761,0.0059143481776118,16.14122009277344,87.4805908203125,-7.010498046875
274587,-0.6172637939453125,0.8037567138671875,-0.1992340087890625,0.3085575699806213,0.8859860301017761,0.0059143481776118,16.14122009277344,87.4805908203125,-7.010498046875
274588,-0.5875244140625,0.7603912353515625,-0.176910400390625,0.2400285750627518,0.8331329226493835,0.0924705415964126,16.04176330566406,87.63082885742188,-7.324203491210938
274589,-0.5525665283203125,0.70977783203125,-0.02960205078125,-0.1547597497701645,0.5154559016227722,0.2279785722494125,15.9974365234375,87.75927734375,-8.423797607421875
274590,-0.5398406982421875,0.6953887939453125,0.0608062744140625,-0.3773776590824127,0.4378228783607483,0.2064961791038513,15.99957275390625,87.82693481445312,-8.792770385742188
274591,-0.5398406982421875,0.6953887939453125,0.0608062744140625,-0.3773776590824127,0.4378228783607483,0.2064961791038513,15.99957275390625,87.82693481445312,-8.792770385742188
274592,-0.6020965576171875,0.6888885498046875,0.1496429443359375,-0.4378015697002411,0.295172780752182,-0.0518056750297546,16.16603088378906,87.94454956054688,-9.211624145507812
274593,-0.662994384765625,0.692169189453125,0.1964111328125,-0.4378015697002411,0.295172780752182,-0.0518056750297546,16.31132507324219,87.93060302734375,-9.192108154296877
274594,-0.68023681640625,0.738922119140625,0.1855010986328125,-0.3976307213306427,0.3440758883953094,-0.002362756524235,16.39041137695312,87.78799438476562,-9.023300170898438
274595,-0.68023681640625,0.738922119140625,0.1855010986328125,-0.3976307213306427,0.3440758883953094,-0.002362756524235,16.39041137695312,87.78799438476562,-9.023300170898438
274596,-0.6125030517578125,0.850738525390625,0.110931396484375,-0.3616088032722473,0.3642748892307281,0.0890880674123764,16.48786926269531,87.70790100097656,-8.966293334960938
274597,-0.4303741455078125,0.9143524169921876,0.038299560546875,-0.3057987987995148,0.2052104026079178,0.2417026460170746,16.59104919433594,87.62060546875,-8.859268188476562
274598,-0.36077880859375,0.9036712646484376,0.0512237548828125,-0.3068483471870422,0.1493732482194901,0.2634068727493286,16.71929931640625,87.581298828125,-8.782012939453125
274599,-0.36077880859375,0.9036712646484376,0.0512237548828125,-0.3068483471870422,0.1493732482194901,0.2634068727493286,16.71929931640625,87.581298828125,-8.782012939453125
274600,-0.3551025390625,0.876068115234375,0.0719146728515625,-0.3134324848651886,0.134340226650238,0.1505295932292938,16.96379089355469,87.824462890625,-8.632308959960938
274601,-0.4355926513671875,0.83807373046875,0.0699005126953125,-0.2852394580841064,0.1568484753370285,0.0428127124905586,17.12466430664062,87.83738708496094,-8.567459106445312
274602,-0.4978179931640625,0.76568603515625,0.0530242919921875,-0.2648012936115265,0.1245866715908051,-0.08472740650177,17.08308410644531,87.81944274902344,-8.476058959960938
274603,-0.4978179931640625,0.76568603515625,0.0530242919921875,-0.2648012936115265,0.1245866715908051,-0.08472740650177,17.08308410644531,87.81944274902344,-8.476058959960938
274604,-0.5198516845703125,0.615447998046875,0.081573486328125,-0.2815597653388977,0.0325632691383361,-0.273574560880661,16.96719360351562,87.84793090820312,-8.473892211914062
274605,-0.5200347900390625,0.5630340576171875,0.1101837158203125,-0.3150271773338318,0.0477475486695766,-0.359881728887558,16.88726806640625,87.76382446289062,-8.272918701171875
274606,-0.5205230712890625,0.53021240234375,0.128082275390625,-0.3665276765823364,0.08174679428339,-0.41628298163414,16.76927185058594,87.60060119628906,-8.158279418945312
274607,-0.5205230712890625,0.53021240234375,0.128082275390625,-0.3665276765823364,0.08174679428339,-0.41628298163414,16.76927185058594,87.60060119628906,-8.158279418945312
274608,-0.5362548828125,0.5352020263671875,0.131378173828125,-0.4235920011997223,0.1209660992026329,-0.4309125244617462,16.65364074707031,87.49346923828125,-8.077804565429688
274609,-0.5745391845703125,0.60174560546875,0.1143951416015625,-0.5853670835494995,0.1475806683301926,-0.4495860636234283,16.19050598144531,87.30256652832031,-7.848770141601562
274610,-0.6138153076171875,0.6112823486328125,0.0915679931640625,-0.6395314931869507,0.1343743205070496,-0.4494529068470001,16.00973510742188,87.09347534179688,-7.831924438476562
274611,-0.6494903564453125,0.607513427734375,0.0797271728515625,-0.6430631279945374,0.1459255069494247,-0.4618927836418152,15.78018188476562,87.06404113769531,-7.607513427734375
274612,-0.6494903564453125,0.607513427734375,0.0797271728515625,-0.6430631279945374,0.1459255069494247,-0.4618927836418152,15.78018188476562,87.06404113769531,-7.607513427734375
274613,-0.63897705078125,0.5675201416015625,0.06768798828125,-0.6061469316482544,0.191047191619873,-0.4646385014057159,15.23721313476562,86.68707275390625,-7.393295288085938
274614,-0.6131134033203125,0.5654449462890625,0.0786895751953125,-0.6350507140159607,0.1938874423503876,-0.4281739890575409,15.02388000488281,86.45182800292969,-7.135971069335938
274615,-0.59088134765625,0.5912933349609375,0.0720367431640625,-0.6955641508102417,0.1554937213659286,-0.3926226496696472,14.77754211425781,86.24671936035156,-6.978103637695312
274616,-0.59088134765625,0.5912933349609375,0.0720367431640625,-0.6955641508102417,0.1554937213659286,-0.3926226496696472,14.77754211425781,86.24671936035156,-6.978103637695312
274617,-0.5827178955078125,0.6784210205078125,0.028839111328125,-0.8292686939239502,-0.074459321796894,-0.300814151763916,14.28361511230469,85.92790222167969,-6.759246826171875
274618,-0.58270263671875,0.749176025390625,0.0120697021484375,-0.8773912191390991,-0.1861858516931534,-0.2718520164489746,14.10707092285156,85.70552062988281,-6.3553466796875
274619,-0.58270263671875,0.749176025390625,0.0120697021484375,-0.8773912191390991,-0.1861858516931534,-0.2718520164489746,14.10707092285156,85.70552062988281,-6.3553466796875
274620,-0.6046142578125,0.813385009765625,-0.00091552734375,-0.9078348278999328,-0.2510300874710083,-0.2493296712636948,13.840576171875,85.5255126953125,-6.049789428710938
274621,-0.5985565185546875,0.9607086181640624,-0.0932159423828125,-0.7902738451957703,-0.321095198392868,-0.2505427300930023,13.46710205078125,85.08418273925781,-5.21405029296875
274622,-0.571685791015625,1.035491943359375,-0.1356048583984375,-0.6653875708580017,-0.2872986197471619,-0.2108672261238098,13.17060852050781,85.00914001464844,-4.892852783203125
274623,-0.571685791015625,1.035491943359375,-0.1356048583984375,-0.6653875708580017,-0.2872986197471619,-0.2108672261238098,13.17060852050781,85.00914001464844,-4.892852783203125
274624,-0.5122833251953125,1.141876220703125,-0.2479400634765625,-0.3303683400154114,-0.0677020847797393,-0.0468812212347984,12.91371154785156,84.45150756835938,-4.020217895507812
274625,-0.4878082275390625,1.1392822265625,-0.322113037109375,-0.1381863653659821,0.0264907293021678,0.0309744272381067,12.79241943359375,84.34294128417969,-3.635955810546875
274626,-0.4529266357421875,1.119766235351562,-0.388214111328125,0.0441099368035793,0.0073822825215756,0.0945145189762115,12.77508544921875,84.18302917480469,-3.3712158203125
274627,-0.4529266357421875,1.119766235351562,-0.388214111328125,0.0441099368035793,0.0073822825215756,0.0945145189762115,12.77508544921875,84.18302917480469,-3.3712158203125
274628,-0.4301910400390625,1.0919189453125,-0.4286651611328125,0.340375155210495,-0.0357577316462993,0.2058857828378677,12.7562255859375,83.98977661132812,-3.351303100585938
274629,-0.4048919677734375,1.069122314453125,-0.465301513671875,0.340375155210495,-0.0357577316462993,0.2058857828378677,12.85636901855469,83.9932861328125,-3.3138427734375
274630,-0.3487091064453125,1.035552978515625,-0.5641632080078125,0.5908566117286682,0.2375526428222656,0.3286777436733246,13.17529296875,84.03860473632812,-3.3831787109375
274631,-0.314361572265625,1.016464233398438,-0.58050537109375,0.4781958758831024,0.4482821822166443,0.2774710357189178,13.3555908203125,84.14276123046875,-3.561416625976562
274632,-0.314361572265625,1.016464233398438,-0.58050537109375,0.4781958758831024,0.4482821822166443,0.2774710357189178,13.3555908203125,84.14276123046875,-3.561416625976562
274633,-0.3048095703125,1.012237548828125,-0.542083740234375,0.3555554449558258,0.3685524761676788,0.2418757379055023,13.48335266113281,84.59553527832031,-4.053604125976562
274634,-0.3463287353515625,1.06622314453125,-0.49810791015625,0.3428212702274323,0.2962106168270111,0.2385388016700745,13.59609985351562,84.75404357910156,-4.4417724609375
274635,-0.3708038330078125,1.1573486328125,-0.467254638671875,0.4488441050052643,0.384940505027771,0.2050668597221375,13.78126525878906,84.79881286621094,-4.655258178710938
274636,-0.3708038330078125,1.1573486328125,-0.467254638671875,0.4488441050052643,0.384940505027771,0.2050668597221375,13.78126525878906,84.79881286621094,-4.655258178710938
274637,-0.4340057373046875,1.332931518554688,-0.3614044189453125,0.4756400287151337,0.4490105509757996,0.1743260025978088,13.89926147460938,85.11872863769531,-5.165603637695312
274638,-0.484466552734375,1.406478881835938,-0.3075714111328125,0.5205923318862915,0.4777276813983917,0.1274927109479904,14.04075622558594,85.20709228515625,-5.615554809570312
274639,-0.484466552734375,1.406478881835938,-0.3075714111328125,0.5205923318862915,0.4777276813983917,0.1274927109479904,14.04075622558594,85.20709228515625,-5.615554809570312
274640,-0.55303955078125,1.446990966796875,-0.2830352783203125,0.6139994859695435,0.4132621586322784,0.0589109882712364,14.08621215820312,85.30734252929688,-5.86175537109375
274641,-0.72412109375,1.331802368164062,-0.219268798828125,0.8307421803474426,0.1656038761138916,-0.0644181370735168,14.08189392089844,85.61907958984375,-6.776153564453125
274642,-0.773773193359375,1.18646240234375,-0.1609649658203125,0.9017798900604248,0.1166083738207817,-0.1495149284601212,14.11495971679688,85.83392333984375,-7.087783813476562
274643,-0.773773193359375,1.18646240234375,-0.1609649658203125,0.9017798900604248,0.1166083738207817,-0.1495149284601212,14.11495971679688,85.83392333984375,-7.087783813476562
274644,-0.7837066650390625,1.0078125,-0.1360626220703125,0.9648581743240356,0.0952325090765953,-0.2292235940694809,14.15579223632812,85.85971069335938,-7.47784423828125
274645,-0.7473602294921875,0.6995697021484375,-0.1131439208984375,1.001182436943054,-0.0442092716693878,-0.3231231868267059,14.27171325683594,85.91426086425781,-8.159500122070312
274646,-0.71173095703125,0.63836669921875,-0.098663330078125,0.9773699641227722,-0.1628802567720413,-0.2612805962562561,14.36013793945312,85.99604797363281,-8.600830078125
274647,-0.71173095703125,0.63836669921875,-0.098663330078125,0.9773699641227722,-0.1628802567720413,-0.2612805962562561,14.36013793945312,85.99604797363281,-8.600830078125
274648,-0.697509765625,0.6393890380859375,-0.0810699462890625,0.9773699641227722,-0.1628802567720413,-0.2612805962562561,14.3782958984375,85.90211486816406,-8.822616577148438
274649,-0.72808837890625,0.65496826171875,-0.1155853271484375,0.9829487800598145,-0.0812061727046966,-0.119627334177494,14.553466796875,85.89356994628906,-9.218597412109377
274650,-0.7472076416015625,0.6521148681640625,-0.0772705078125,1.003373861312866,0.0184354670345783,-0.0665278956294059,14.717041015625,85.68464660644531,-9.480072021484377
274651,-0.7472076416015625,0.6521148681640625,-0.0772705078125,1.003373861312866,0.0184354670345783,-0.0665278956294059,14.717041015625,85.68464660644531,-9.480072021484377
274652,-0.7224884033203125,0.607147216796875,-0.041229248046875,1.003527283668518,0.16611547768116,-0.014218084514141,14.80398559570312,85.75241088867188,-9.9156494140625
274653,-0.657928466796875,0.5547332763671875,-0.0366668701171875,0.9796485900878906,0.2746699154376984,0.0427498593926429,14.91728210449219,85.78623962402344,-10.56871032714844
274654,-0.46185302734375,0.438690185546875,-0.0406951904296875,0.7714384198188782,0.305294930934906,0.1178589910268784,15.14041137695312,85.83427429199219,-11.40411376953125
274655,-0.46185302734375,0.438690185546875,-0.0406951904296875,0.7714384198188782,0.305294930934906,0.1178589910268784,15.14041137695312,85.83427429199219,-11.40411376953125
274656,-0.3572540283203125,0.406402587890625,-0.02252197265625,0.5903767347335815,0.2274829596281052,0.1457004696130753,15.24343872070312,85.8896484375,-11.83329772949219
274657,-0.1993255615234375,0.4438629150390625,0.0469970703125,0.1153979673981667,-0.0652671530842781,0.2377616912126541,15.23231506347656,86.09957885742188,-12.74031066894531
274658,-0.1560821533203125,0.498809814453125,0.0957489013671875,-0.1010632365942001,-0.1686433404684067,0.2758062779903412,15.3466796875,86.15995788574219,-12.86959838867188
274659,-0.1560821533203125,0.498809814453125,0.0957489013671875,-0.1010632365942001,-0.1686433404684067,0.2758062779903412,15.3466796875,86.15995788574219,-12.86959838867188
274660,-0.1469573974609375,0.593170166015625,0.1573486328125,-0.4776318073272705,-0.221688985824585,0.2788729071617126,15.51005554199219,86.4031982421875,-12.85003662109375
274661,-0.191802978515625,0.6242828369140625,0.1878204345703125,-0.4776318073272705,-0.221688985824585,0.2788729071617126,15.5904541015625,86.44625854492188,-12.58973693847656
274662,-0.2532501220703125,0.651397705078125,0.1761474609375,-0.5384759902954102,-0.2016391158103943,0.2574035823345184,15.62593078613281,86.40675354003906,-12.29908752441406
274663,-0.2532501220703125,0.651397705078125,0.1761474609375,-0.5384759902954102,-0.2016391158103943,0.2574035823345184,15.62593078613281,86.40675354003906,-12.29908752441406
274664,-0.3248138427734375,0.6935577392578125,0.1597137451171875,-0.5867106318473816,-0.2188886702060699,0.2284978926181793,15.63499450683594,86.45640563964844,-12.11099243164062
274665,-0.3663177490234375,0.7533111572265625,0.146942138671875,-0.659752607345581,-0.273730605840683,0.2089079469442368,15.69456481933594,86.52897644042969,-11.96153259277344
274666,-0.3640289306640625,0.87139892578125,0.15557861328125,-0.901993215084076,-0.4589851498603821,0.134861946105957,15.72425842285156,86.56361389160156,-11.38162231445312
274667,-0.383453369140625,0.9089813232421876,0.1959228515625,-1.033004760742188,-0.4148728251457214,0.0877927020192146,15.78152465820312,86.6622314453125,-10.99043273925781
274668,-0.383453369140625,0.9089813232421876,0.1959228515625,-1.033004760742188,-0.4148728251457214,0.0877927020192146,15.78152465820312,86.6622314453125,-10.99043273925781
274669,-0.4892425537109375,0.925048828125,0.196929931640625,-1.260203003883362,-0.2725018262863159,-0.0774473845958709,15.67179870605469,86.58760070800781,-10.21136474609375
274670,-0.5504608154296875,0.9075164794921876,0.1834564208984375,-1.346717119216919,-0.3120148777961731,-0.1612171232700348,15.60844421386719,86.43812561035156,-9.669281005859377
274671,-0.5504608154296875,0.9075164794921876,0.1834564208984375,-1.346717119216919,-0.3120148777961731,-0.1612171232700348,15.60844421386719,86.43812561035156,-9.669281005859377
274672,-0.6521453857421875,0.889068603515625,0.2189178466796875,-1.437804698944092,-0.2790188491344452,-0.3097381591796875,15.30032348632812,86.15971374511719,-8.421981811523438
274673,-0.6974639892578125,0.8863677978515625,0.21240234375,-1.437804698944092,-0.2790188491344452,-0.3097381591796875,15.14346313476562,85.93965148925781,-7.888320922851562
274674,-0.7490386962890625,0.9083099365234376,0.148590087890625,-1.351315140724182,-0.1955417990684509,-0.3273680210113525,14.94650268554688,85.86796569824219,-7.23541259765625
274675,-0.7490386962890625,0.9083099365234376,0.148590087890625,-1.351315140724182,-0.1955417990684509,-0.3273680210113525,14.94650268554688,85.86796569824219,-7.23541259765625
274676,-0.8081817626953125,0.9648590087890624,0.0602874755859375,-1.199803590774536,-0.140377089381218,-0.3626509010791779,14.78640747070312,85.6524658203125,-6.751480102539062
274677,-0.81146240234375,1.022933959960938,-0.032318115234375,-0.8175225257873535,0.1239592283964157,-0.3923467397689819,14.40434265136719,85.18572998046875,-5.64794921875
274678,-0.7589111328125,1.038040161132812,-0.099456787109375,-0.6489388346672058,0.2739335596561432,-0.3470503687858582,14.24922180175781,84.95639038085938,-5.351425170898438
274679,-0.7589111328125,1.038040161132812,-0.099456787109375,-0.6489388346672058,0.2739335596561432,-0.3470503687858582,14.24922180175781,84.95639038085938,-5.351425170898438
274680,-0.6263427734375,1.091323852539062,-0.23193359375,-0.3034994304180145,0.3124042451381683,-0.0602620095014572,13.81892395019531,84.38229370117188,-4.878494262695312
274681,-0.53558349609375,1.073745727539062,-0.325653076171875,-0.3034994304180145,0.3124042451381683,-0.0602620095014572,13.61532592773438,84.05874633789062,-4.775787353515625
274682,-0.4387359619140625,1.031875610351562,-0.3960113525390625,-0.1816355735063553,0.2020415067672729,0.0688531026244163,13.42234802246094,83.78488159179688,-4.678512573242188
274683,-0.4387359619140625,1.031875610351562,-0.3960113525390625,-0.1816355735063553,0.2020415067672729,0.0688531026244163,13.42234802246094,83.78488159179688,-4.678512573242188
274684,-0.302581787109375,0.9163360595703124,-0.528594970703125,-0.0300833340734243,0.0589988715946674,0.2596539556980133,13.23281860351562,83.65315246582031,-4.65704345703125
274685,-0.263031005859375,0.8926849365234375,-0.5753021240234375,-0.0092249233275651,0.0592747740447521,0.3207657635211945,13.35581970214844,83.63722229003906,-4.590805053710938
274686,-0.247100830078125,0.899200439453125,-0.612213134765625,-0.024836640805006,0.1338629871606827,0.3291730880737305,13.39689636230469,83.84080505371094,-4.523590087890625
274687,-0.247100830078125,0.899200439453125,-0.612213134765625,-0.024836640805006,0.1338629871606827,0.3291730880737305,13.39689636230469,83.84080505371094,-4.523590087890625
274688,-0.26641845703125,0.9346771240234376,-0.6269683837890625,-0.047561127692461,0.2155312299728394,0.284823477268219,13.49006652832031,83.95175170898438,-4.5037841796875
274689,-0.4152374267578125,1.021209716796875,-0.5331878662109375,-0.0191113762557506,0.289078414440155,0.1793543100357056,13.65348815917969,84.0472412109375,-4.51055908203125
274690,-0.474151611328125,1.073028564453125,-0.4945220947265625,0.0486721992492675,0.3336717188358307,0.1453923434019089,13.70622253417969,84.15243530273438,-4.639144897460938
274691,-0.474151611328125,1.073028564453125,-0.4945220947265625,0.0486721992492675,0.3336717188358307,0.1453923434019089,13.70622253417969,84.15243530273438,-4.639144897460938
274692,-0.5532989501953125,1.11749267578125,-0.4092559814453125,0.1615625321865082,0.4648457169532776,0.0975326821208,13.76130676269531,84.25579833984375,-4.778411865234375
274693,-0.581787109375,1.0997314453125,-0.32159423828125,0.166789248585701,0.4837536215782166,0.1093243584036827,13.69877624511719,84.40010070800781,-4.929473876953125
274694,-0.6001739501953125,1.07244873046875,-0.230621337890625,0.1333692371845245,0.4538545906543732,0.1510017663240433,13.70075988769531,84.53759765625,-5.146011352539062
274695,-0.5930938720703125,1.042877197265625,-0.1545562744140625,0.0930583029985427,0.3744971752166748,0.2210021615028381,13.67021179199219,84.6275634765625,-5.407119750976562
274696,-0.5930938720703125,1.042877197265625,-0.1545562744140625,0.0930583029985427,0.3744971752166748,0.2210021615028381,13.67021179199219,84.6275634765625,-5.407119750976562
274697,-0.508209228515625,0.9549102783203124,0.0013885498046875,0.0677721202373504,0.2581308782100677,0.4053443074226379,13.76011657714844,84.82157897949219,-5.992889404296875
274698,-0.466827392578125,0.9088897705078124,0.067962646484375,0.055159393697977,0.1870798766613007,0.492159366607666,13.91462707519531,84.94671630859375,-6.21624755859375
274699,-0.466827392578125,0.9088897705078124,0.067962646484375,0.055159393697977,0.1870798766613007,0.492159366607666,13.91462707519531,84.94671630859375,-6.21624755859375
274700,-0.4472808837890625,0.891387939453125,0.1109619140625,0.0420747473835945,0.1147305741906166,0.5392914414405823,14.08468627929688,85.08383178710938,-6.356735229492188
274701,-0.44671630859375,0.86431884765625,0.135894775390625,-0.0191952660679817,-0.0312708355486393,0.5076912045478821,14.64271545410156,85.4630126953125,-6.615646362304688
274702,-0.4462432861328125,0.8428192138671875,0.1428070068359375,-0.0551165156066417,-0.0834331065416336,0.4648393094539642,14.91818237304688,85.63154602050781,-6.60308837890625
274703,-0.4462432861328125,0.8428192138671875,0.1428070068359375,-0.0551165156066417,-0.0834331065416336,0.4648393094539642,14.91818237304688,85.63154602050781,-6.60308837890625
274704,-0.43841552734375,0.8312225341796875,0.1717376708984375,-0.0551476739346981,-0.1078439056873322,0.4340899288654327,15.16764831542969,85.7529296875,-6.470306396484375
274705,-0.368408203125,0.822174072265625,0.1902313232421875,-0.0967957824468612,-0.0773632302880287,0.4032417237758636,15.68666076660156,86.150390625,-6.35467529296875
274706,-0.3204498291015625,0.827239990234375,0.1920166015625,-0.155453234910965,-0.0625994652509689,0.410681813955307,15.89022827148438,86.16087341308594,-6.3321533203125
274707,-0.296539306640625,0.836761474609375,0.18377685546875,-0.196223571896553,-0.0031100395135581,0.4193741083145142,16.060791015625,86.34017944335938,-6.345001220703125
274708,-0.296539306640625,0.836761474609375,0.18377685546875,-0.196223571896553,-0.0031100395135581,0.4193741083145142,16.060791015625,86.34017944335938,-6.345001220703125
274709,-0.3348846435546875,0.798675537109375,0.07989501953125,-0.131971076130867,0.1938589513301849,0.3583573400974274,16.5146484375,86.53309631347656,-6.26971435546875
274710,-0.394256591796875,0.750152587890625,0.039093017578125,-0.0811041742563247,0.2211347818374634,0.293121874332428,16.7188720703125,86.57185363769531,-6.07769775390625
274711,-0.394256591796875,0.750152587890625,0.039093017578125,-0.0811041742563247,0.2211347818374634,0.293121874332428,16.7188720703125,86.57185363769531,-6.07769775390625
274712,-0.43731689453125,0.71099853515625,0.0198974609375,-0.0473515354096889,0.1828901916742325,0.2255114167928696,16.93946838378906,86.65309143066406,-6.040328979492188
274713,-0.4982757568359375,0.67303466796875,0.054779052734375,-0.0137144802138209,0.2464534491300583,-0.0171797852963209,17.02345275878906,86.86164855957031,-6.133468627929688
