time_idx,accelerometerAccelerationX(G),accelerometerAccelerationY(G),accelerometerAccelerationZ(G),gyroRotationX(rad/s),gyroRotationY(rad/s),gyroRotationZ(rad/s),magnetometerX(µT),magnetometerY(µT),magnetometerZ(µT)
181446,-0.0853118896484375,0.6827392578125,0.2920074462890625,0.6300740838050842,0.3792407810688019,0.3213852047920227,40.52041625976562,96.455078125,-0.087310791015625
181447,-0.0853118896484375,0.6827392578125,0.2920074462890625,0.6300740838050842,0.3792407810688019,0.3213852047920227,40.52041625976562,96.455078125,-0.087310791015625
181448,-0.167236328125,0.4380035400390625,0.1346435546875,0.6430484652519226,0.2286036163568497,0.0117016630247235,41.11775207519531,96.56881713867188,-0.5678863525390625
181449,-0.187103271484375,0.3188018798828125,0.070526123046875,0.6613579392433167,-0.0285155307501554,-0.1843930184841156,41.31570434570312,96.60243225097656,-0.8062896728515625
181450,-0.19488525390625,0.206390380859375,0.0331573486328125,0.6810286045074463,-0.3029457628726959,-0.396449863910675,41.33425903320312,96.56979370117188,-0.8741455078125
181451,-0.19488525390625,0.206390380859375,0.0331573486328125,0.6810286045074463,-0.3029457628726959,-0.396449863910675,41.33425903320312,96.56979370117188,-0.8741455078125
181452,-0.1560821533203125,-0.0455169677734375,-0.2586669921875,0.6511024236679077,-1.065575480461121,-0.7216333150863647,41.20765686035156,96.70489501953124,-1.188995361328125
181453,-0.1046142578125,-0.15936279296875,-0.448028564453125,0.6119792461395264,-2.033369779586792,-0.7294446229934692,41.07022094726562,96.9286651611328,-1.440765380859375
181454,-0.1046142578125,-0.15936279296875,-0.448028564453125,0.6119792461395264,-2.033369779586792,-0.7294446229934692,41.07022094726562,96.9286651611328,-1.440765380859375
181455,-0.0745849609375,-0.1658172607421875,-0.2205963134765625,0.508455216884613,-2.40919041633606,-0.7008992433547974,40.91987609863281,97.03718566894533,-1.68487548828125
181456,-0.048736572265625,-0.1128997802734375,0.1611480712890625,0.4718266427516937,-1.688934445381165,-0.7029999494552612,40.73170471191406,97.1876220703125,-1.5828857421875
181457,-0.0053863525390625,-0.0424346923828125,0.1348419189453125,0.4814918041229248,-0.8173326253890991,-0.6633577346801758,40.58045959472656,97.26959228515624,-1.479873657226562
181458,-0.0053863525390625,-0.0424346923828125,0.1348419189453125,0.4814918041229248,-0.8173326253890991,-0.6633577346801758,40.58045959472656,97.26959228515624,-1.479873657226562
181459,-0.0046234130859375,0.2309112548828125,-0.0575714111328125,0.7135931849479675,0.1934733241796494,-0.7230586409568787,40.06851196289062,97.6252899169922,-1.8143310546875
181460,-0.012115478515625,0.5115203857421875,-0.0205535888671875,0.7167991399765015,0.3979391157627106,-0.7729127407073975,39.69041442871094,97.6990966796875,-2.066055297851562
181461,-0.089019775390625,1.020782470703125,-0.009979248046875,0.7159271836280823,0.4040292203426361,-0.7701864242553711,39.21804809570312,97.77008056640624,-2.303619384765625
181462,-0.089019775390625,1.020782470703125,-0.009979248046875,0.7159271836280823,0.4040292203426361,-0.7701864242553711,39.21804809570312,97.77008056640624,-2.303619384765625
181463,-0.5841064453125,1.69525146484375,0.0024566650390625,0.6801625490188599,-0.1431598216295242,-1.082806944847107,38.36204528808594,97.80120849609376,-3.260452270507812
181464,-0.669189453125,1.505096435546875,-0.131561279296875,0.6801625490188599,-0.1431598216295242,-1.082806944847107,37.85731506347656,97.90855407714844,-3.747940063476562
181465,-0.6082916259765625,0.9562225341796876,-0.2030029296875,0.5655661821365356,-0.3317433297634125,-0.5362253785133362,37.43196105957031,97.821533203125,-3.972732543945312
181466,-0.6082916259765625,0.9562225341796876,-0.2030029296875,0.5655661821365356,-0.3317433297634125,-0.5362253785133362,37.43196105957031,97.821533203125,-3.972732543945312
181467,-0.3430023193359375,0.6698150634765625,-0.162322998046875,0.4913561344146729,-0.2469349503517151,-0.2391976714134216,37.16853332519531,97.798828125,-4.289321899414062
181468,-0.224090576171875,0.4712677001953125,-0.073272705078125,0.4396823048591614,0.1123230755329132,-0.0877045542001724,36.78434753417969,97.7227783203125,-4.842926025390625
181469,-0.16827392578125,0.3469085693359375,-0.076568603515625,0.4049645364284515,0.2540218830108643,-0.0643539577722549,36.76844787597656,97.70465087890624,-5.059600830078125
181470,-0.16827392578125,0.3469085693359375,-0.076568603515625,0.4049645364284515,0.2540218830108643,-0.0643539577722549,36.76844787597656,97.70465087890624,-5.059600830078125
181471,-0.0711517333984375,0.2890777587890625,-0.004150390625,0.4301705658435822,0.9128623604774476,0.1843879520893097,36.74554443359375,97.5736083984375,-5.173614501953125
181472,0.05267333984375,0.45391845703125,-0.106964111328125,0.4029091000556946,1.06161105632782,0.3348363041877747,36.53836059570312,97.88473510742188,-5.468597412109375
181473,0.0779876708984375,0.6761474609375,-0.237030029296875,0.2738454043865204,0.792675256729126,0.4247941672801971,36.48257446289062,98.0627899169922,-5.767547607421875
181474,0.0779876708984375,0.6761474609375,-0.237030029296875,0.2738454043865204,0.792675256729126,0.4247941672801971,36.48257446289062,98.0627899169922,-5.767547607421875
181475,0.0954437255859375,1.003402709960938,-0.24530029296875,0.0217423141002655,0.3197199404239655,0.3694835007190704,36.41729736328125,98.31027221679688,-5.9359130859375
181476,0.12689208984375,1.48614501953125,0.108978271484375,-0.5002971887588501,-0.1538303047418594,0.1531725078821182,36.45877075195312,98.33265686035156,-6.1337890625
181477,0.1601409912109375,1.631195068359375,0.1871490478515625,-0.5539036989212036,-0.189315065741539,0.0854286178946495,36.60614013671875,98.50692749023438,-6.07781982421875
181478,0.1601409912109375,1.631195068359375,0.1871490478515625,-0.5539036989212036,-0.189315065741539,0.0854286178946495,36.60614013671875,98.50692749023438,-6.07781982421875
181479,0.18634033203125,1.67315673828125,0.21405029296875,-0.4125180542469025,-0.2839526236057281,0.0350482650101184,36.66279602050781,98.48056030273438,-5.895980834960938
181480,0.1333770751953125,1.551910400390625,0.268280029296875,0.1722239702939987,-0.505987823009491,-0.045603971928358,36.75518798828125,98.4240264892578,-5.377655029296875
181481,0.0540924072265625,1.545486450195312,0.2997283935546875,0.4052148759365082,-0.4430969953536987,-0.0393407493829727,36.67326354980469,98.53863525390624,-5.270858764648438
181482,0.0540924072265625,1.545486450195312,0.2997283935546875,0.4052148759365082,-0.4430969953536987,-0.0393407493829727,36.67326354980469,98.53863525390624,-5.270858764648438
181483,0.002960205078125,1.589340209960938,0.2819976806640625,0.4934347569942474,-0.3736702501773834,-0.0484290532767772,36.61195373535156,98.71240234375,-5.277328491210938
181484,-0.0517730712890625,1.727371215820312,0.27001953125,0.2361270487308502,-0.5807904005050659,-0.1601747572422028,36.67942810058594,98.84814453125,-5.4366455078125
181485,-0.014678955078125,1.749679565429688,0.3134765625,-0.001498028053902,-0.7431923747062683,-0.2125567346811295,36.69761657714844,98.80458068847656,-5.469512939453125
181486,-0.014678955078125,1.749679565429688,0.3134765625,-0.001498028053902,-0.7431923747062683,-0.2125567346811295,36.69761657714844,98.80458068847656,-5.469512939453125
181487,0.0467071533203125,1.70416259765625,0.381805419921875,-0.2075918018817902,-0.8419575691223145,-0.2198492735624313,36.63043212890625,98.84315490722656,-5.622833251953125
181488,0.0786590576171875,1.624130249023438,0.4565277099609375,-0.3354927897453308,-0.7906853556632996,-0.1983154863119125,36.66281127929688,98.71856689453124,-5.534072875976562
181489,-0.13214111328125,1.52252197265625,0.502288818359375,-0.32901331782341,-0.3688158392906189,-0.1520523875951767,36.78802490234375,98.66119384765624,-4.941543579101562
181490,-0.13214111328125,1.52252197265625,0.502288818359375,-0.32901331782341,-0.3688158392906189,-0.1520523875951767,36.78802490234375,98.66119384765624,-4.941543579101562
181491,-0.2613372802734375,1.532302856445312,0.386138916015625,-0.2684551477432251,-0.4131945073604584,-0.2534823417663574,36.6746826171875,98.53865051269533,-4.61773681640625
181492,-0.38897705078125,1.5430908203125,-0.0982208251953125,-0.2549009919166565,-0.8783483505249023,-0.3161995112895966,36.78977966308594,98.3291015625,-4.091629028320312
181493,-0.3512420654296875,1.491668701171875,-0.1696624755859375,-0.2114027887582779,-1.061404705047607,-0.2547808885574341,36.78169250488281,98.12214660644533,-3.77764892578125
181494,-0.3512420654296875,1.491668701171875,-0.1696624755859375,-0.2114027887582779,-1.061404705047607,-0.2547808885574341,36.78169250488281,98.12214660644533,-3.77764892578125
181495,-0.24224853515625,1.48089599609375,-0.176300048828125,-0.1257182508707047,-0.6061700582504272,0.0035742283798754,36.8157958984375,98.17591857910156,-3.562454223632812
181496,-0.0664215087890625,1.419540405273438,-0.4059906005859375,0.3652831614017487,0.3561200201511383,0.4056947827339172,36.63917541503906,98.09364318847656,-3.211273193359375
181497,-0.043212890625,1.23138427734375,-0.274658203125,0.6333844065666199,0.298080176115036,0.4981631934642792,36.78483581542969,98.12525939941406,-3.192962646484375
181498,-0.043212890625,1.23138427734375,-0.274658203125,0.6333844065666199,0.298080176115036,0.4981631934642792,36.78483581542969,98.12525939941406,-3.192962646484375
181499,0.0145111083984375,1.09808349609375,-0.20111083984375,0.6814901232719421,0.2358892261981964,0.5462406873703003,36.87254333496094,98.20051574707033,-3.407821655273438
181500,0.0747833251953125,0.857208251953125,-0.198089599609375,0.4978667795658112,0.0726419761776924,0.6072127223014832,37.35531616210938,98.2694854736328,-4.061660766601562
181501,0.093994140625,0.708892822265625,-0.1754913330078125,0.4594099223613739,0.0005464806454256,0.6437395811080933,37.6024169921875,98.26945495605467,-4.405960083007812
181502,0.114593505859375,0.570770263671875,-0.130401611328125,0.4876285195350647,0.0322812423110008,0.6809175610542297,37.94425964355469,98.265869140625,-4.695343017578125
181503,0.114593505859375,0.570770263671875,-0.130401611328125,0.4876285195350647,0.0322812423110008,0.6809175610542297,37.94425964355469,98.265869140625,-4.695343017578125
181504,0.16357421875,0.303009033203125,-0.1820831298828125,0.5596795678138733,0.1504611372947693,0.755096971988678,38.7166748046875,98.21354675292967,-5.159515380859375
181505,0.1905517578125,0.161163330078125,-0.2376556396484375,0.5478436350822449,0.0879154726862907,0.8071263432502747,39.08345031738281,98.15934753417967,-5.327865600585938
181506,0.2085418701171875,0.0275421142578125,-0.27734375,0.514653742313385,-0.1576623320579529,0.958546221256256,39.47386169433594,98.19003295898438,-5.557525634765625
181507,0.2085418701171875,0.0275421142578125,-0.27734375,0.514653742313385,-0.1576623320579529,0.958546221256256,39.47386169433594,98.19003295898438,-5.557525634765625
181508,0.172088623046875,-0.1733856201171875,-0.332733154296875,0.5502604842185974,-0.2590259611606598,1.011524796485901,40.19798278808594,98.40104675292967,-5.957290649414062
181509,0.155517578125,-0.2309417724609375,-0.3676910400390625,0.6024262309074402,-0.3045907914638519,1.040816307067871,40.61906433105469,98.62362670898438,-6.116043090820312
181510,0.155517578125,-0.2309417724609375,-0.3676910400390625,0.6024262309074402,-0.3045907914638519,1.040816307067871,40.61906433105469,98.62362670898438,-6.116043090820312
181511,0.1497039794921875,-0.2818145751953125,-0.33697509765625,0.6295353174209595,-0.0703287571668624,1.033307790756226,41.07606506347656,98.77171325683594,-6.09466552734375
181512,0.134552001953125,-0.2396697998046875,-0.113067626953125,0.7182835936546326,0.825182318687439,0.9636166095733644,41.92173767089844,99.11953735351562,-6.3922119140625
181513,0.1254119873046875,-0.1667327880859375,0.0547332763671875,0.7692312002182007,1.145226955413818,0.9301888942718506,42.44813537597656,99.18629455566406,-6.417373657226562
181514,0.1254119873046875,-0.1667327880859375,0.0547332763671875,0.7692312002182007,1.145226955413818,0.9301888942718506,42.44813537597656,99.18629455566406,-6.417373657226562
181515,0.11566162109375,-0.10302734375,0.2214813232421875,0.6801263093948364,1.497340202331543,0.86918705701828,42.95599365234375,99.21961975097656,-6.51556396484375
181516,0.1053466796875,0.061431884765625,0.34027099609375,-0.0664906129240989,2.179109334945679,0.5487192869186401,43.81863403320312,99.13069152832033,-7.158676147460938
181517,0.0875701904296875,0.2165985107421875,0.3804168701171875,-0.6818986535072327,2.238397598266602,0.2956063449382782,44.10311889648438,99.17481994628906,-7.3768310546875
181518,0.0875701904296875,0.2165985107421875,0.3804168701171875,-0.6818986535072327,2.238397598266602,0.2956063449382782,44.10311889648438,99.17481994628906,-7.3768310546875
181519,0.03082275390625,0.3994293212890625,0.49554443359375,-1.360641717910767,2.262346029281616,-0.0075721656903624,44.26690673828125,99.2011260986328,-7.383148193359375
181520,-0.0200347900390625,0.563140869140625,0.6115264892578125,-2.020339488983154,2.311429500579834,-0.4151753485202789,44.32223510742188,99.25192260742188,-7.305068969726562
181521,-0.14569091796875,0.7892913818359375,0.6197357177734375,-2.929767608642578,1.977576851844788,-1.154452323913574,43.92567443847656,99.12301635742188,-6.114761352539062
181522,-0.14569091796875,0.7892913818359375,0.6197357177734375,-2.929767608642578,1.977576851844788,-1.154452323913574,43.92567443847656,99.12301635742188,-6.114761352539062
181523,-0.215728759765625,3.04345703125,0.5617828369140625,-2.460631608963013,0.5537505745887756,-2.301045417785645,42.80082702636719,98.75984191894533,-4.707290649414062
181524,-0.3610992431640625,3.358566284179688,0.583984375,-2.210962533950806,-0.8514746427536011,-1.770887851715088,41.85969543457031,98.48858642578124,-4.07965087890625
181525,-0.5336761474609375,3.147216796875,0.76873779296875,-1.93828558921814,-1.302051901817322,-1.355009913444519,40.9271240234375,98.0539093017578,-3.247634887695312
181526,-0.5336761474609375,3.147216796875,0.76873779296875,-1.93828558921814,-1.302051901817322,-1.355009913444519,40.9271240234375,98.0539093017578,-3.247634887695312
181527,-0.1134796142578125,1.317642211914062,0.373016357421875,-1.375581502914429,0.0640535503625869,-0.6567328572273254,39.7427978515625,97.2309112548828,-2.137191772460938
181528,-0.0323333740234375,1.0523681640625,0.0875244140625,-0.9947713613510132,0.7491442561149597,-0.3848419487476349,39.25904846191406,96.948486328125,-1.652130126953125
181529,0.0449981689453125,1.074478149414062,-0.2917327880859375,-0.574123740196228,0.7298187613487244,-0.2338657528162003,38.70185852050781,96.8511962890625,-0.99139404296875
181530,0.05682373046875,1.284912109375,-0.2320709228515625,-0.2857068479061127,0.2450763285160065,-0.3030235171318054,38.19622802734375,96.72381591796876,-0.58917236328125
181531,0.05682373046875,1.284912109375,-0.2320709228515625,-0.2857068479061127,0.2450763285160065,-0.3030235171318054,38.19622802734375,96.72381591796876,-0.58917236328125
181532,0.0268096923828125,1.393707275390625,0.19207763671875,-0.2154428064823151,0.0757917016744613,-0.5176047682762146,37.66064453125,96.55990600585938,-0.116973876953125
181533,0.04205322265625,1.439056396484375,0.135467529296875,-0.2056799232959747,-0.1167702898383141,-0.4811407923698425,37.40950012207031,96.42759704589844,-0.036163330078125
181534,0.04205322265625,1.439056396484375,0.135467529296875,-0.2056799232959747,-0.1167702898383141,-0.4811407923698425,37.40950012207031,96.42759704589844,-0.036163330078125
181535,0.0928802490234375,1.695877075195312,-0.2586822509765625,0.2885010242462158,-0.799319326877594,-0.2535108327865601,37.02275085449219,96.24037170410156,0.070709228515625
181536,0.0682830810546875,1.893051147460938,-0.452178955078125,0.7408772706985474,-1.225589394569397,-0.2314033955335617,36.74064636230469,96.32797241210938,0.03814697265625
181537,-0.021453857421875,1.992706298828125,-0.388824462890625,1.154179334640503,-1.197736144065857,-0.2843981683254242,36.68360900878906,96.35148620605467,0.2351226806640625
181538,-0.021453857421875,1.992706298828125,-0.388824462890625,1.154179334640503,-1.197736144065857,-0.2843981683254242,36.68360900878906,96.35148620605467,0.2351226806640625
181539,-0.173095703125,1.927902221679688,-0.2771759033203125,1.328268885612488,-0.5494862794876099,-0.2238277643918991,36.53778076171875,96.59552001953124,0.1048431396484375
181540,-0.2458038330078125,1.779296875,-0.128662109375,1.175309181213379,-0.2997957766056061,-0.1035096123814583,36.58631896972656,96.79513549804688,-0.2456512451171875
181541,0.032318115234375,1.591598510742188,0.4865264892578125,0.7103965878486633,0.0412403792142868,0.0262387935072183,36.75985717773438,97.07179260253906,-1.05853271484375
181542,0.032318115234375,1.591598510742188,0.4865264892578125,0.7103965878486633,0.0412403792142868,0.0262387935072183,36.75985717773438,97.07179260253906,-1.05853271484375
181543,0.087066650390625,1.521987915039062,0.479400634765625,0.465896338224411,-0.9851179122924804,-0.0544544532895088,37.00700378417969,97.14056396484376,-1.834365844726562
181544,0.10528564453125,1.40185546875,0.4881744384765625,0.465896338224411,-0.9851179122924804,-0.0544544532895088,37.18087768554688,96.99871826171876,-2.095458984375
181545,0.079925537109375,1.211715698242188,0.558685302734375,0.4282533526420593,-1.404569506645203,-0.2042532712221146,37.39695739746094,96.8871612548828,-2.228240966796875
181546,0.079925537109375,1.211715698242188,0.558685302734375,0.4282533526420593,-1.404569506645203,-0.2042532712221146,37.39695739746094,96.8871612548828,-2.228240966796875
181547,-0.1328887939453125,0.8548736572265625,0.6623077392578125,0.3918402194976807,-0.9216548204421996,-0.1626538932323456,37.84306335449219,96.75274658203124,-2.391281127929688
181548,-0.19879150390625,0.8335418701171875,0.50433349609375,0.3830565810203552,-0.2858943343162537,-0.1454919576644897,37.90168762207031,96.7160186767578,-2.397354125976562
181549,-0.224151611328125,0.8923492431640625,0.2360382080078125,0.3446090519428253,0.1417318284511566,-0.1787969172000885,38.08934020996094,96.64065551757812,-2.346633911132812
181550,-0.224151611328125,0.8923492431640625,0.2360382080078125,0.3446090519428253,0.1417318284511566,-0.1787969172000885,38.08934020996094,96.64065551757812,-2.346633911132812
181551,-0.2593841552734375,0.9278564453125,-0.4342803955078125,0.3062046766281128,-0.2453543692827225,-0.2517251670360565,38.04299926757812,96.63336181640624,-2.425094604492188
181552,-0.38592529296875,0.84051513671875,-0.005126953125,0.3634759485721588,-2.117992401123047,-0.494362860918045,37.96272277832031,96.86677551269533,-2.694732666015625
181553,-0.371490478515625,0.650634765625,0.2734375,0.3338919579982758,-0.9378430843353271,-0.3125863969326019,37.89488220214844,97.04551696777344,-2.452362060546875
181554,-0.371490478515625,0.650634765625,0.2734375,0.3338919579982758,-0.9378430843353271,-0.3125863969326019,37.89488220214844,97.04551696777344,-2.452362060546875
181555,-0.212615966796875,0.5758056640625,0.095123291015625,0.2108049094676971,-0.1802459359169006,-0.0913072749972343,37.89028930664062,97.1513671875,-2.453369140625
181556,0.0034332275390625,0.58892822265625,0.0206756591796875,0.2340385913848877,-0.1289025843143463,-0.0689851939678192,37.8133544921875,96.94180297851562,-2.652740478515625
181557,0.047882080078125,0.5495452880859375,0.041717529296875,0.3201007843017578,-0.2219433188438416,-0.111650362610817,37.961669921875,96.72854614257812,-2.623748779296875
181558,0.047882080078125,0.5495452880859375,0.041717529296875,0.3201007843017578,-0.2219433188438416,-0.111650362610817,37.961669921875,96.72854614257812,-2.623748779296875
181559,0.0894012451171875,0.4639434814453125,0.0064697265625,0.3738652169704437,-0.3795430660247803,-0.1215445399284363,37.95748901367188,96.66720581054688,-2.654205322265625
181560,0.13104248046875,0.355926513671875,-0.074127197265625,0.4866612553596497,-0.9189748764038086,0.0014029532903805,37.92219543457031,96.67774963378906,-2.675399780273438
181561,0.1810760498046875,0.21600341796875,-0.149688720703125,0.6249560117721558,-1.00520396232605,0.0822890102863311,37.92416381835938,96.65621948242188,-2.78582763671875
181562,0.153472900390625,0.200592041015625,-0.1693115234375,0.7465596795082092,-0.8878864645957947,0.0777917355298996,38.00462341308594,96.6595458984375,-2.66998291015625
181563,0.153472900390625,0.200592041015625,-0.1693115234375,0.7465596795082092,-0.8878864645957947,0.0777917355298996,38.00462341308594,96.6595458984375,-2.66998291015625
181564,0.068023681640625,0.1687469482421875,-0.0852203369140625,0.6342118382453918,-0.155581071972847,-0.0981777012348175,38.03919982910156,97.07095336914062,-2.836135864257812
181565,-0.003021240234375,0.16552734375,-0.032958984375,0.412215530872345,0.3601459264755249,-0.2145780771970749,38.03225708007812,97.09831237792967,-2.963943481445312
181566,-0.003021240234375,0.16552734375,-0.032958984375,0.412215530872345,0.3601459264755249,-0.2145780771970749,38.03225708007812,97.09831237792967,-2.963943481445312
181567,-0.064544677734375,0.1520233154296875,0.02886962890625,-0.0616215541958808,1.238517761230469,-0.2821025252342224,38.00129699707031,97.2710418701172,-3.604156494140625
181568,-0.054962158203125,0.14410400390625,0.0140838623046875,-0.0616215541958808,1.238517761230469,-0.2821025252342224,37.64520263671875,97.31608581542967,-4.0899658203125
181569,-0.0424957275390625,0.1406097412109375,-0.053863525390625,-0.1342622041702271,1.213039755821228,-0.2866030037403107,37.49479675292969,97.12638854980467,-4.14617919921875
181570,-0.0424957275390625,0.1406097412109375,-0.053863525390625,-0.1342622041702271,1.213039755821228,-0.2866030037403107,37.49479675292969,97.12638854980467,-4.14617919921875
181571,-0.0401763916015625,0.169677734375,-0.085968017578125,-0.1702127456665039,0.9845392107963562,-0.2923130989074707,37.30815124511719,97.14808654785156,-4.166748046875
181572,-0.0574951171875,0.3660125732421875,0.0524139404296875,-0.2488950341939926,0.5295940637588501,-0.3580878376960754,36.94189453125,97.114013671875,-4.337417602539062
181573,-0.0549163818359375,0.5194244384765625,0.152801513671875,-0.3781587481498718,0.4379464387893677,-0.4082490205764771,36.70976257324219,97.0796356201172,-4.311416625976562
181574,-0.0538482666015625,0.7064971923828125,0.2328948974609375,-0.5625703930854797,0.4326475560665131,-0.4569259881973267,36.55610656738281,97.10826110839844,-4.137069702148438
181575,-0.0538482666015625,0.7064971923828125,0.2328948974609375,-0.5625703930854797,0.4326475560665131,-0.4569259881973267,36.55610656738281,97.10826110839844,-4.137069702148438
181576,-0.113983154296875,1.080917358398438,0.2603759765625,-0.8306913375854492,0.4780464768409729,-0.5332322120666504,36.08688354492188,96.97010803222656,-3.83514404296875
181577,-0.197509765625,1.202102661132812,0.2198944091796875,-0.8154317140579224,0.3208602964878082,-0.6057841777801514,35.85911560058594,96.91885375976562,-3.556915283203125
181578,-0.197509765625,1.202102661132812,0.2198944091796875,-0.8154317140579224,0.3208602964878082,-0.6057841777801514,35.85911560058594,96.91885375976562,-3.556915283203125
181579,-0.3270721435546875,1.301345825195312,0.2187957763671875,-0.5718605518341064,-0.2844991087913513,-0.7427350878715515,35.38865661621094,96.60435485839844,-3.042648315429688
181580,-0.3250732421875,1.328826904296875,0.257781982421875,-0.4475314319133759,-0.5197012424468994,-0.7390649914741516,35.16157531738281,96.4319305419922,-2.7877197265625
181581,-0.263275146484375,1.349822998046875,0.2758331298828125,-0.3644053936004639,-0.6361551284790039,-0.6434268951416016,34.87911987304688,96.3856964111328,-2.467742919921875
181582,-0.263275146484375,1.349822998046875,0.2758331298828125,-0.3644053936004639,-0.6361551284790039,-0.6434268951416016,34.87911987304688,96.3856964111328,-2.467742919921875
181583,-0.1869964599609375,1.389129638671875,0.2341156005859375,-0.3060376942157745,-0.6671330332756042,-0.529451310634613,34.56501770019531,96.10511779785156,-2.078521728515625
181584,-0.1375732421875,1.5321044921875,-0.0025787353515625,-0.2655251622200012,-1.005199193954468,-0.2798537611961365,34.23069763183594,95.9512939453125,-1.784072875976562
181585,-0.13470458984375,1.603363037109375,0.0326690673828125,-0.2680737972259521,-1.112947225570679,-0.1398284733295441,34.11785888671875,95.8332061767578,-1.57513427734375
181586,-0.13470458984375,1.603363037109375,0.0326690673828125,-0.2680737972259521,-1.112947225570679,-0.1398284733295441,34.11785888671875,95.8332061767578,-1.57513427734375
181587,-0.127166748046875,1.613876342773438,0.241912841796875,-0.2461256235837936,-0.889500617980957,0.0109860720112919,34.13597106933594,95.84616088867188,-1.295883178710938
181588,-0.1153411865234375,1.57098388671875,0.4818572998046875,-0.1789724081754684,-0.5573303699493408,0.1417624652385712,34.18000793457031,95.83387756347656,-0.9768218994140624
181589,-0.1280975341796875,1.667770385742188,0.661834716796875,-0.1587947010993958,-0.3474612832069397,0.1750024408102036,34.60499572753906,95.71334838867188,-0.5938720703125
181590,-0.1280975341796875,1.667770385742188,0.661834716796875,-0.1587947010993958,-0.3474612832069397,0.1750024408102036,34.60499572753906,95.71334838867188,-0.5938720703125
181591,-0.140045166015625,1.812744140625,0.5552215576171875,-0.3144535422325134,-0.2954843640327454,0.0515633262693882,34.71893310546875,95.72618103027344,-0.40924072265625
181592,-0.1493682861328125,1.961563110351562,0.2101593017578125,-0.4513829052448273,-0.5188599228858948,-0.1929564028978348,34.92987060546875,95.58111572265624,0.1902313232421875
181593,-0.1079559326171875,1.942169189453125,0.033477783203125,-0.2158374935388565,-0.5036338567733765,-0.1790421903133392,34.96060180664062,95.52131652832033,0.4882659912109375
181594,-0.1079559326171875,1.942169189453125,0.033477783203125,-0.2158374935388565,-0.5036338567733765,-0.1790421903133392,34.96060180664062,95.52131652832033,0.4882659912109375
181595,0.0007476806640625,1.78033447265625,-0.08941650390625,0.624258816242218,0.0096193375065922,0.1433702111244202,34.90557861328125,95.42669677734376,0.75762939453125
181596,-0.04638671875,1.690872192382812,0.0308837890625,0.9205232262611388,0.176536425948143,0.2912057340145111,34.92367553710938,95.45773315429688,0.727569580078125
181597,-0.1108856201171875,1.59759521484375,0.1461181640625,1.009956121444702,0.2788572013378143,0.3505609333515167,34.91195678710938,95.65028381347656,0.5048828125
181598,-0.1108856201171875,1.59759521484375,0.1461181640625,1.009956121444702,0.2788572013378143,0.3505609333515167,34.91195678710938,95.65028381347656,0.5048828125
181599,-0.139923095703125,1.492324829101562,0.1423492431640625,0.921277403831482,0.3251155018806458,0.3308666050434113,34.97604370117188,95.85481262207033,0.076324462890625
181600,-0.0809173583984375,1.248870849609375,0.01275634765625,0.7109569311141968,0.3451805710792542,0.2885396480560303,35.14016723632812,96.1260986328125,-0.77459716796875
181601,-0.0639495849609375,1.178985595703125,-0.05615234375,0.7586458921432495,0.3473382592201233,0.3289144933223724,35.18936157226562,96.31881713867188,-1.094390869140625
181602,-0.0639495849609375,1.178985595703125,-0.05615234375,0.7586458921432495,0.3473382592201233,0.3289144933223724,35.18936157226562,96.31881713867188,-1.094390869140625
181603,-0.04827880859375,1.109573364257812,-0.1182708740234375,0.8923317790031433,0.3498347103595734,0.3932993412017822,35.36625671386719,96.44183349609376,-1.507705688476562
181604,-0.0008544921875,1.012435913085938,-0.272003173828125,1.118196845054626,0.1731603294610977,0.5772476196289062,35.59547424316406,96.70944213867188,-2.420135498046875
181605,0.0212554931640625,0.9846343994140624,-0.3173675537109375,1.146562457084656,-0.0247950945049524,0.6473630666732788,35.814453125,96.87570190429688,-2.882095336914062
181606,0.0212554931640625,0.9846343994140624,-0.3173675537109375,1.146562457084656,-0.0247950945049524,0.6473630666732788,35.814453125,96.87570190429688,-2.882095336914062
181607,0.01544189453125,0.806854248046875,-0.269073486328125,1.075189232826233,-0.2867262959480286,0.7626134753227234,36.23104858398438,97.27302551269533,-4.0848388671875
181608,-0.019287109375,0.6909332275390625,-0.20526123046875,1.075189232826233,-0.2867262959480286,0.7626134753227234,36.57682800292969,97.44033813476562,-4.46099853515625
181609,-0.0457000732421875,0.6194305419921875,-0.1414337158203125,1.044232606887817,-0.3767997324466705,0.7992910742759705,36.90251159667969,97.72184753417967,-4.891036987304688
181610,-0.0467529296875,0.5774688720703125,-0.09722900390625,0.9769119024276732,-0.4292997121810913,0.7553643584251404,37.220947265625,97.934814453125,-5.32696533203125
181611,-0.0467529296875,0.5774688720703125,-0.09722900390625,0.9769119024276732,-0.4292997121810913,0.7553643584251404,37.220947265625,97.934814453125,-5.32696533203125
181612,0.0382080078125,0.5298004150390625,0.0059051513671875,0.75830078125,-0.2275902777910233,0.5399577617645264,37.91897583007812,98.27352905273438,-6.055435180664062
181613,0.0814666748046875,0.519256591796875,0.0401458740234375,0.6760601997375488,0.1623170077800751,0.4350478649139404,38.21453857421875,98.49671936035156,-6.409500122070312
181614,0.0814666748046875,0.519256591796875,0.0401458740234375,0.6760601997375488,0.1623170077800751,0.4350478649139404,38.21453857421875,98.49671936035156,-6.409500122070312
181615,0.0799713134765625,0.4958038330078125,-0.0366058349609375,0.6305323839187622,0.5019773840904236,0.3470583558082581,38.4906005859375,98.4544677734375,-6.820938110351562
181616,0.04693603515625,0.426513671875,-0.2133636474609375,0.6256295442581177,0.3151845932006836,0.2709547877311707,38.84722900390625,98.48440551757812,-7.419464111328125
181617,0.0457611083984375,0.35247802734375,-0.1939697265625,0.5949587225914001,0.1565051823854446,0.2667243778705597,38.89518737792969,98.56419372558594,-7.714950561523438
181618,0.04107666015625,0.2573699951171875,-0.19329833984375,0.5326428413391113,0.0649987086653709,0.3184685111045837,39.12362670898438,98.62442016601562,-7.984909057617188
181619,0.04107666015625,0.2573699951171875,-0.19329833984375,0.5326428413391113,0.0649987086653709,0.3184685111045837,39.12362670898438,98.62442016601562,-7.984909057617188
181620,0.023529052734375,0.0692138671875,-0.25323486328125,0.356999933719635,-0.1667626202106476,0.4066329896450043,39.29862976074219,98.85560607910156,-8.599533081054688
181621,0.0131072998046875,0.0035247802734375,-0.2260284423828125,0.2538458406925201,-0.2845385074615479,0.4097438454627991,39.55996704101562,98.84651184082033,-8.673355102539062
181622,0.0199127197265625,-0.02484130859375,-0.160888671875,0.1226004809141159,-0.261024683713913,0.3890241682529449,39.78713989257812,98.84622192382812,-8.780136108398438
181623,0.0199127197265625,-0.02484130859375,-0.160888671875,0.1226004809141159,-0.261024683713913,0.3890241682529449,39.78713989257812,98.84622192382812,-8.780136108398438
181624,0.077789306640625,0.0146026611328125,-0.0776824951171875,-0.3557407855987549,0.5680104494094849,0.2738571166992188,40.38056945800781,99.118896484375,-8.4669189453125
181625,0.1163482666015625,0.09490966796875,-0.0910491943359375,-0.3557407855987549,0.5680104494094849,0.2738571166992188,40.57177734375,99.1354522705078,-8.239425659179688
181626,0.1163482666015625,0.09490966796875,-0.0910491943359375,-0.3557407855987549,0.5680104494094849,0.2738571166992188,40.57177734375,99.1354522705078,-8.239425659179688
181627,0.1407470703125,0.2414398193359375,-0.067626953125,-0.5106741786003113,1.112280130386353,0.2244096696376801,40.75614929199219,99.28041076660156,-8.26702880859375
181628,0.10235595703125,0.6324615478515625,0.116058349609375,-0.5885929465293884,1.237645268440247,0.1680060476064682,40.96173095703125,99.47467041015624,-8.06182861328125
181629,0.040924072265625,0.85125732421875,0.2747344970703125,-0.6945534944534302,1.343432664871216,0.1163356676697731,41.05851745605469,99.46690368652344,-7.805435180664062
181630,-0.043853759765625,1.099807739257812,0.4243927001953125,-0.8580102920532227,1.778295755386353,-0.0829292386770248,41.0859375,99.52816772460938,-7.724700927734375
181631,-0.1420135498046875,1.318527221679688,0.5436553955078125,-0.8580102920532227,1.778295755386353,-0.0829292386770248,41.03138732910156,99.52853393554688,-7.597808837890625
181632,-0.2260894775390625,1.439376831054688,0.6071319580078125,-0.9140347242355348,1.984563112258911,-0.2510442137718201,40.99716186523438,99.45225524902344,-7.337173461914062
181633,-0.2847442626953125,1.481109619140625,0.6159515380859375,-0.9313830733299256,1.992196798324585,-0.3902745246887207,40.92277526855469,99.3702392578125,-7.218536376953125
181634,-0.2847442626953125,1.481109619140625,0.6159515380859375,-0.9313830733299256,1.992196798324585,-0.3902745246887207,40.92277526855469,99.3702392578125,-7.218536376953125
181635,-0.3406982421875,1.4898681640625,0.6059722900390625,-0.9481630921363832,1.851166486740112,-0.4957242608070374,40.6695556640625,99.42234802246094,-7.022628784179688
181636,-0.3675689697265625,1.376602172851562,0.5335693359375,-1.157484889030457,1.119033336639404,-0.491938054561615,40.03512573242188,99.42172241210938,-6.736953735351562
181637,-0.3504486083984375,1.31689453125,0.5599822998046875,-1.284517168998718,0.7075340151786804,-0.4372793436050415,39.70779418945312,99.15989685058594,-6.466766357421875
181638,-0.3504486083984375,1.31689453125,0.5599822998046875,-1.284517168998718,0.7075340151786804,-0.4372793436050415,39.70779418945312,99.15989685058594,-6.466766357421875
181639,-0.3141021728515625,1.289581298828125,0.609039306640625,-1.512189149856567,0.2642566859722137,-0.4244434237480164,39.36836242675781,98.9726104736328,-6.087844848632812
181640,-0.24664306640625,1.275360107421875,0.629180908203125,-1.512189149856567,0.2642566859722137,-0.4244434237480164,39.19577026367188,98.80450439453124,-5.630935668945312
181641,-0.129608154296875,1.288650512695312,0.6295928955078125,-1.653802275657654,0.443636029958725,-0.4944603145122528,38.65458679199219,98.41847229003906,-4.634078979492188
181642,-0.129608154296875,1.288650512695312,0.6295928955078125,-1.653802275657654,0.443636029958725,-0.4944603145122528,38.65458679199219,98.41847229003906,-4.634078979492188
181643,-0.1216278076171875,1.324371337890625,0.5632171630859375,-1.691924810409546,0.7256006002426147,-0.5687696933746338,38.37858581542969,98.15423583984376,-4.004791259765625
181644,-0.1707000732421875,1.5108642578125,0.000152587890625,-1.567046880722046,0.838258683681488,-0.8397670984268188,37.44065856933594,97.7880859375,-2.655120849609375
181645,-0.110748291015625,1.717910766601562,-0.823028564453125,-1.131504654884338,-0.4604877233505249,-1.07275402545929,36.90467834472656,97.48989868164062,-2.043121337890625
181646,0.0942230224609375,1.865737915039062,-0.9871978759765624,-0.370974063873291,-2.309296131134033,-1.226678609848022,36.26380920410156,97.3656768798828,-1.564315795898438
181647,0.0942230224609375,1.865737915039062,-0.9871978759765624,-0.370974063873291,-2.309296131134033,-1.226678609848022,36.26380920410156,97.3656768798828,-1.564315795898438
181648,0.208038330078125,1.775985717773438,-0.2926788330078125,0.9126397371292114,0.264458566904068,-0.5587199926376343,35.12821960449219,97.13726806640624,-0.8077392578125
181649,0.1087799072265625,1.60614013671875,-0.15484619140625,0.5462740063667297,0.0830842331051826,-0.4617135524749756,34.86976623535156,97.1102294921875,-0.873260498046875
181650,0.1087799072265625,1.60614013671875,-0.15484619140625,0.5462740063667297,0.0830842331051826,-0.4617135524749756,34.86976623535156,97.1102294921875,-0.873260498046875
181651,-0.004974365234375,1.527206420898438,-0.0536346435546875,0.1702713370323181,-0.0618034452199935,-0.3420566618442535,34.51481628417969,97.16323852539062,-1.233810424804688
181652,-0.2037811279296875,1.572891235351562,-0.35980224609375,0.2731516361236572,-0.4238514006137848,0.0280774403363466,34.15983581542969,97.154296875,-1.385086059570312
181653,-0.250457763671875,1.59844970703125,-0.2281494140625,0.49537193775177,-0.4861139953136444,0.2066378593444824,34.07594299316406,97.06051635742188,-1.284317016601562
181654,-0.250457763671875,1.59844970703125,-0.2281494140625,0.49537193775177,-0.4861139953136444,0.2066378593444824,34.07594299316406,97.06051635742188,-1.284317016601562
181655,-0.244903564453125,1.584075927734375,-0.1178131103515625,0.6405853033065796,-0.4145431220531464,0.2887415289878845,34.17916870117188,96.99398803710938,-1.444686889648438
181656,-0.2165985107421875,1.5174560546875,-0.135223388671875,0.7268584370613098,-0.3511380553245544,0.3436439037322998,34.30142211914062,97.09877014160156,-1.795761108398438
181657,-0.062255859375,1.393264770507812,-0.2777557373046875,0.8807411789894104,-0.5101162791252136,0.403881162405014,34.70401000976562,97.39373779296876,-2.107086181640625
181658,-0.062255859375,1.393264770507812,-0.2777557373046875,0.8807411789894104,-0.5101162791252136,0.403881162405014,34.70401000976562,97.39373779296876,-2.107086181640625
181659,-0.0023193359375,1.339935302734375,-0.2635498046875,1.013044118881226,-0.6447909474372864,0.4216324687004089,34.92808532714844,97.45413208007812,-2.326614379882812
181660,0.074981689453125,1.185958862304688,-0.1069793701171875,1.267129898071289,-0.7278887629508972,0.4620456695556641,35.35557556152344,97.79107666015624,-3.167465209960938
181661,0.0986328125,1.117385864257812,0.008636474609375,1.325649380683899,-0.6104385852813721,0.499035120010376,35.64601135253906,97.9628448486328,-3.546676635742188
181662,0.0986328125,1.117385864257812,0.008636474609375,1.325649380683899,-0.6104385852813721,0.499035120010376,35.64601135253906,97.9628448486328,-3.546676635742188
181663,0.11346435546875,1.066207885742188,0.1605072021484375,1.296643614768982,0.0399791076779365,0.5333043932914734,36.04232788085938,98.13369750976562,-4.085250854492188
181664,0.1312255859375,0.976776123046875,0.30267333984375,1.180333733558655,0.3523439466953278,0.4626075923442841,36.74737548828125,98.40943908691406,-4.981796264648438
181665,0.109832763671875,0.8693695068359375,0.2758331298828125,0.9129252433776855,0.4368774592876434,0.1392748057842255,37.03599548339844,98.4622802734375,-5.422454833984375
181666,0.109832763671875,0.8693695068359375,0.2758331298828125,0.9129252433776855,0.4368774592876434,0.1392748057842255,37.03599548339844,98.4622802734375,-5.422454833984375
181667,0.0641632080078125,0.741485595703125,0.2446441650390625,0.9129252433776855,0.4368774592876434,0.1392748057842255,37.22850036621094,98.57649230957033,-5.912857055664062
181668,-0.0834503173828125,0.537384033203125,0.2695159912109375,0.7349736094474792,0.2579929232597351,-0.11200962215662,37.69378662109375,98.62525939941406,-6.560867309570312
181669,-0.124603271484375,0.4690704345703125,0.2632904052734375,0.7063264846801758,0.2395984828472137,-0.1773633360862732,37.78823852539062,98.6453857421875,-6.79718017578125
181670,-0.14306640625,0.416412353515625,0.232025146484375,0.694576621055603,0.308391660451889,-0.2257705479860306,37.78671264648438,98.58389282226562,-6.953689575195312
181671,-0.14739990234375,0.3737640380859375,0.174224853515625,0.694576621055603,0.308391660451889,-0.2257705479860306,37.739990234375,98.58502197265624,-7.182235717773438
181672,-0.14849853515625,0.3311614990234375,0.1026153564453125,0.6550233960151672,0.3240140378475189,-0.2120984047651291,37.6036376953125,98.66567993164062,-7.699783325195312
181673,-0.14306640625,0.2796630859375,-0.0001373291015625,0.5934513807296753,0.2646543085575104,-0.1826872527599335,37.47486877441406,98.70062255859376,-8.087203979492188
181674,-0.1274566650390625,0.19158935546875,-0.2468109130859375,0.5115628838539124,-0.1219157874584198,-0.1390918493270874,37.39581298828125,98.87330627441406,-8.531967163085938
181675,-0.1274566650390625,0.19158935546875,-0.2468109130859375,0.5115628838539124,-0.1219157874584198,-0.1390918493270874,37.39581298828125,98.87330627441406,-8.531967163085938
181676,-0.0466766357421875,0.0850067138671875,-0.0727996826171875,0.3262073993682861,-0.905344784259796,-0.0534086301922798,37.09605407714844,99.2453155517578,-9.349960327148438
181677,0.007476806640625,0.06109619140625,0.19952392578125,0.2001876831054688,-0.2164124697446823,0.0537340678274631,37.1304931640625,99.31658935546876,-9.489471435546877
181678,0.0662994384765625,0.087738037109375,0.25653076171875,0.0346115082502365,0.6123563647270203,0.188043937087059,37.10984802246094,99.40235900878906,-9.442367553710938
181679,0.0662994384765625,0.087738037109375,0.25653076171875,0.0346115082502365,0.6123563647270203,0.188043937087059,37.10984802246094,99.40235900878906,-9.442367553710938
181680,0.0605926513671875,0.3344268798828125,0.170654296875,-0.0662621110677719,1.116166710853577,0.2133975028991699,37.24359130859375,99.2411651611328,-9.607391357421877
181681,0.004425048828125,0.430816650390625,0.1247711181640625,-0.0375702790915966,0.687853217124939,-0.0070651001296937,37.38761901855469,99.1875457763672,-9.561248779296877
181682,0.004425048828125,0.430816650390625,0.1247711181640625,-0.0375702790915966,0.687853217124939,-0.0070651001296937,37.38761901855469,99.1875457763672,-9.561248779296877
181683,-0.10791015625,0.4091796875,0.163116455078125,-0.0577021799981594,0.1594029664993286,-0.2358162552118301,37.53150939941406,99.02041625976562,-9.639556884765623
181684,-0.1904449462890625,0.3329925537109375,0.2079010009765625,-0.4219182133674622,-0.3550417125225067,-0.5226248502731323,37.30632019042969,99.17108154296876,-9.734115600585938
181685,-0.1960601806640625,0.34027099609375,0.2140045166015625,-0.6392912864685059,-0.4614776074886322,-0.6382681131362915,37.0927734375,99.17745971679688,-9.669891357421877
181686,-0.1865081787109375,0.385650634765625,0.2165679931640625,-1.065188050270081,-0.1137643828988075,-0.7075384855270386,36.81002807617188,99.0258331298828,-9.376327514648438
181687,-0.1865081787109375,0.385650634765625,0.2165679931640625,-1.065188050270081,-0.1137643828988075,-0.7075384855270386,36.81002807617188,99.0258331298828,-9.376327514648438
181688,-0.122222900390625,0.89190673828125,-0.1691436767578125,-1.361182689666748,0.3041393756866455,-0.6574561595916748,36.11402893066406,98.87155151367188,-8.9658203125
181689,-0.08709716796875,1.404510498046875,-0.827484130859375,-1.589892506599426,-0.4163386225700378,-0.6858449578285217,35.66593933105469,98.66610717773438,-8.517654418945312
181690,-0.08709716796875,1.404510498046875,-0.827484130859375,-1.589892506599426,-0.4163386225700378,-0.6858449578285217,35.66593933105469,98.66610717773438,-8.517654418945312
181691,-0.1304779052734375,1.70947265625,-0.528106689453125,-1.536117434501648,-0.7227824330329895,-0.6928056478500366,35.25306701660156,98.61996459960938,-8.062347412109375
181692,-0.2142791748046875,1.7335205078125,0.0284881591796875,-1.161123275756836,-0.0366360433399677,-0.6077123284339905,34.70834350585938,98.59934997558594,-7.322097778320312
181693,-0.35211181640625,1.787063598632812,0.3693695068359375,-0.5102651119232178,0.0216997023671865,-0.6062901616096497,34.05908203125,97.97056579589844,-5.728485107421875
181694,-0.35211181640625,1.787063598632812,0.3693695068359375,-0.5102651119232178,0.0216997023671865,-0.6062901616096497,34.05908203125,97.97056579589844,-5.728485107421875
181695,-0.24639892578125,1.913375854492188,0.5023193359375,-0.6444671154022217,-0.4151420593261719,-0.464821994304657,33.81245422363281,97.78338623046876,-5.351654052734375
181696,0.1244049072265625,2.083450317382812,0.377899169921875,-1.129254102706909,-0.4211206138134003,-0.0872805789113044,33.41958618164062,97.22410583496094,-4.883163452148438
181697,0.22454833984375,1.762741088867188,-0.065887451171875,-0.956975519657135,-0.3813838362693787,0.0116750318557024,33.26707458496094,97.19279479980467,-4.438034057617188
181698,0.1835784912109375,1.3717041015625,-0.2962799072265625,-0.5828932523727417,-0.5049166679382324,0.0694557726383209,33.21620178222656,97.04571533203124,-3.853515625
181699,0.1835784912109375,1.3717041015625,-0.2962799072265625,-0.5828932523727417,-0.5049166679382324,0.0694557726383209,33.21620178222656,97.04571533203124,-3.853515625
181700,0.0702972412109375,1.217941284179688,0.01324462890625,-0.4076657891273499,-0.2802915871143341,0.1243381947278976,33.28535461425781,96.95930480957033,-2.986968994140625
181701,0.0510711669921875,1.20208740234375,0.070068359375,-0.5246261954307556,-0.2247601449489594,0.1051477268338203,33.31132507324219,96.99452209472656,-2.7342529296875
181702,0.0510711669921875,1.20208740234375,0.070068359375,-0.5246261954307556,-0.2247601449489594,0.1051477268338203,33.31132507324219,96.99452209472656,-2.7342529296875
181703,0.0740509033203125,1.180801391601562,0.0854034423828125,-0.5778015851974487,-0.0463259518146514,0.0750340297818183,33.39344787597656,96.89328002929688,-2.529754638671875
181704,0.07708740234375,1.21826171875,0.0224761962890625,-0.4186404049396515,-0.0054698665626347,0.0657731518149375,33.51564025878906,96.83169555664062,-1.938217163085938
181705,0.0419464111328125,1.242813110351562,-0.0076904296875,-0.2397633194923401,-0.0589213743805885,0.0669068619608879,33.55670166015625,96.59083557128906,-1.503631591796875
181706,0.0419464111328125,1.242813110351562,-0.0076904296875,-0.2397633194923401,-0.0589213743805885,0.0669068619608879,33.55670166015625,96.59083557128906,-1.503631591796875
181707,0.02740478515625,1.30694580078125,0.03240966796875,-0.0106489155441522,-0.0538240820169448,0.175845593214035,33.65335083007812,96.54896545410156,-1.122314453125
181708,0.04901123046875,1.318862915039062,0.06170654296875,0.0427517257630825,0.0009560748003423,0.217032715678215,33.75424194335938,96.50918579101562,-0.9491729736328124
181709,0.0525665283203125,1.341567993164062,0.0650177001953125,0.0427517257630825,0.0009560748003423,0.217032715678215,33.78233337402344,96.49623107910156,-0.948974609375
181710,0.0525665283203125,1.341567993164062,0.0650177001953125,0.0427517257630825,0.0009560748003423,0.217032715678215,33.78233337402344,96.49623107910156,-0.948974609375
181711,0.0102996826171875,1.35760498046875,0.1341705322265625,0.1422128081321716,-0.1517413258552551,0.2003360241651535,33.95477294921875,96.58244323730467,-0.990234375
181712,-0.0523834228515625,1.2977294921875,0.2861175537109375,0.1677011102437973,-0.2479376345872879,0.2188769578933716,34.05940246582031,96.66493225097656,-1.06494140625
181713,-0.1215667724609375,1.264022827148438,0.42913818359375,0.1976928412914276,-0.2914025485515594,0.2056279927492142,34.28285217285156,96.6539306640625,-1.023880004882812
181714,-0.1215667724609375,1.264022827148438,0.42913818359375,0.1976928412914276,-0.2914025485515594,0.2056279927492142,34.28285217285156,96.6539306640625,-1.023880004882812
181715,-0.2027435302734375,1.252777099609375,0.5092620849609375,0.1797753572463989,-0.1742314547300339,0.1221229806542397,34.45304870605469,96.69973754882812,-1.009292602539062
181716,-0.27447509765625,1.245361328125,0.474822998046875,-0.0458055697381496,-0.0969712883234024,-0.036804087460041,34.61648559570312,96.73863220214844,-1.087860107421875
181717,-0.209869384765625,1.1478271484375,0.2687530517578125,-0.1549134105443954,0.058454256504774,-0.0091391699388623,34.97035217285156,96.66566467285156,-1.157363891601562
181718,-0.06561279296875,1.16217041015625,-0.0725555419921875,-0.0837180688977241,-0.1289209574460983,0.298017829656601,34.99662780761719,96.7270050048828,-1.189620971679688
181719,0.1022491455078125,1.273483276367188,-0.312286376953125,-0.0837180688977241,-0.1289209574460983,0.298017829656601,34.986328125,96.62905883789062,-1.097259521484375
181720,0.154754638671875,1.408660888671875,-0.03466796875,0.0099937785416841,0.0720350444316864,0.4456405937671661,34.93345642089844,96.6310577392578,-0.987030029296875
181721,0.0704803466796875,1.388259887695312,0.3046722412109375,0.166207879781723,0.3274266123771667,0.6199101209640503,35.00190734863281,96.551513671875,-0.8902587890625
181722,-0.00616455078125,1.300308227539062,0.437469482421875,0.2043067961931229,0.2955411076545715,0.648626446723938,35.17483520507812,96.687255859375,-0.880096435546875
181723,-0.00616455078125,1.300308227539062,0.437469482421875,0.2043067961931229,0.2955411076545715,0.648626446723938,35.17483520507812,96.687255859375,-0.880096435546875
181724,0.02178955078125,1.040359497070312,0.2005462646484375,0.3149358332157135,-0.1303004771471024,0.4847115576267242,35.84220886230469,96.66554260253906,-0.8593902587890625
181725,0.014556884765625,0.8690032958984375,0.0715179443359375,0.3149358332157135,-0.1303004771471024,0.4847115576267242,36.20126342773438,96.45254516601562,-0.75030517578125
181726,-0.0419769287109375,0.661102294921875,-0.0778350830078125,0.3866896629333496,-0.3199492394924164,0.3761595189571381,36.58714294433594,96.48039245605467,-0.792236328125
181727,-0.0419769287109375,0.661102294921875,-0.0778350830078125,0.3866896629333496,-0.3199492394924164,0.3761595189571381,36.58714294433594,96.48039245605467,-0.792236328125
181728,-0.162567138671875,0.257781982421875,-0.3112640380859375,0.489357978105545,-0.2472782284021378,0.2409409731626511,37.07655334472656,96.55868530273438,-1.451217651367188
181729,-0.12982177734375,0.20159912109375,-0.437286376953125,0.551040768623352,0.2366266548633575,0.2972798943519592,37.26066589355469,96.53636169433594,-1.655075073242188
181730,-0.12982177734375,0.20159912109375,-0.437286376953125,0.551040768623352,0.2366266548633575,0.2972798943519592,37.26066589355469,96.53636169433594,-1.655075073242188
181731,-0.0069427490234375,0.3734283447265625,-0.50982666015625,0.6803569793701172,0.7191437482833862,0.3724188506603241,37.44776916503906,96.43673706054688,-1.779083251953125
181732,0.028839111328125,0.6204681396484375,-0.150726318359375,0.6438287496566772,0.7407137751579285,0.4577870070934296,37.71829223632812,96.65510559082033,-2.156326293945312
181733,0.0270538330078125,0.6898040771484375,-0.0316619873046875,0.5154417753219604,0.6805593371391296,0.4930581748485565,37.81231689453125,96.75892639160156,-2.626663208007812
181734,0.0270538330078125,0.6898040771484375,-0.0316619873046875,0.5154417753219604,0.6805593371391296,0.4930581748485565,37.81231689453125,96.75892639160156,-2.626663208007812
181735,0.0135650634765625,0.7219696044921875,0.04156494140625,0.3914290070533752,0.5837593078613281,0.4835237860679626,37.92982482910156,96.9884796142578,-3.494873046875
181736,0.05364990234375,0.6687469482421875,0.050872802734375,0.3766266405582428,0.3077344000339508,0.4066937267780304,38.22821044921875,97.3381805419922,-4.00079345703125
181737,0.0860595703125,0.6502227783203125,0.004302978515625,0.4433875679969788,0.0699548497796058,0.3352277874946594,38.35040283203125,97.45533752441406,-4.236465454101562
181738,0.0860595703125,0.6502227783203125,0.004302978515625,0.4433875679969788,0.0699548497796058,0.3352277874946594,38.35040283203125,97.45533752441406,-4.236465454101562
181739,0.191558837890625,0.6946868896484375,-0.02423095703125,0.4441273808479309,-0.4584557116031647,0.1766256392002106,38.51748657226562,97.53477478027344,-4.731307983398438
181740,0.2398834228515625,0.671783447265625,-0.034698486328125,0.3804541230201721,-0.4498656988143921,0.2111276835203171,38.55078125,97.66203308105467,-4.873092651367188
181741,0.315704345703125,0.6071319580078125,-0.16375732421875,0.3705695271492004,-0.3128671050071716,0.3370539247989655,38.71995544433594,97.734130859375,-5.05865478515625
181742,0.3614501953125,0.51055908203125,-0.2845001220703125,0.4386564493179321,-0.2751844227313995,0.4657652974128723,38.81024169921875,97.86947631835938,-5.234725952148438
181743,0.3614501953125,0.51055908203125,-0.2845001220703125,0.4386564493179321,-0.2751844227313995,0.4657652974128723,38.81024169921875,97.86947631835938,-5.234725952148438
181744,0.345550537109375,0.34783935546875,-0.2448272705078125,0.4625569880008698,-0.4682367146015167,0.5942058563232422,39.17852783203125,98.11296081542967,-5.540420532226562
181745,0.3403167724609375,0.3430938720703125,-0.2856597900390625,0.3750276863574982,-0.6744825839996338,0.5669901967048645,39.44084167480469,98.14015197753906,-5.679534912109375
181746,0.3403167724609375,0.3430938720703125,-0.2856597900390625,0.3750276863574982,-0.6744825839996338,0.5669901967048645,39.44084167480469,98.14015197753906,-5.679534912109375
181747,0.3353271484375,0.383148193359375,-0.280487060546875,0.2988341152667999,-0.8220301866531372,0.4592868983745575,39.8316650390625,98.30706787109376,-5.929519653320312
181748,0.2258758544921875,0.55487060546875,-0.2079620361328125,0.2991392910480499,-0.716234028339386,0.1610149890184402,40.49456787109375,98.50828552246094,-5.89739990234375
181749,0.060791015625,0.6516571044921875,-0.220245361328125,0.3178892731666565,-0.7121476531028748,0.1132714301347733,40.62396240234375,98.58277893066406,-6.019546508789062
181750,0.060791015625,0.6516571044921875,-0.220245361328125,0.3178892731666565,-0.7121476531028748,0.1132714301347733,40.62396240234375,98.58277893066406,-6.019546508789062
181751,-0.0128326416015625,0.8446807861328125,-0.1383209228515625,0.1591888517141342,-0.5723543167114258,0.0026501116808503,40.91905212402344,98.548095703125,-6.081436157226562
181752,0.0023345947265625,0.9683074951171876,-0.11456298828125,0.0056594833731651,-0.3201106190681458,-0.0341398604214191,40.99862670898438,98.60578918457033,-6.183135986328125
181753,0.0195770263671875,1.100112915039062,-0.1061859130859375,-0.1322773396968842,-0.0689609572291374,-0.0686187446117401,41.04910278320312,98.57000732421876,-6.1114501953125
181754,0.0195770263671875,1.100112915039062,-0.1061859130859375,-0.1322773396968842,-0.0689609572291374,-0.0686187446117401,41.04910278320312,98.57000732421876,-6.1114501953125
181755,-0.046295166015625,1.237045288085938,-0.1220550537109375,-0.2302406579256058,0.1193639412522316,-0.1720953285694122,41.02330017089844,98.71914672851562,-6.100494384765625
181756,-0.1400604248046875,1.35272216796875,-0.0495758056640625,-0.3268550932407379,0.3015382885932922,-0.3207836151123047,40.88090515136719,98.71702575683594,-5.973617553710938
181757,-0.2039794921875,1.569427490234375,0.348358154296875,-0.4633532762527466,0.973207712173462,-0.493586003780365,40.6171875,98.70750427246094,-5.8585205078125
181758,-0.2039794921875,1.569427490234375,0.348358154296875,-0.4633532762527466,0.973207712173462,-0.493586003780365,40.6171875,98.70750427246094,-5.8585205078125
181759,-0.2228546142578125,1.683486938476562,0.540435791015625,-0.4940555393695831,1.426157355308533,-0.2980601787567139,40.15322875976562,98.56964111328124,-5.578399658203125
181760,-0.2823486328125,1.6314697265625,0.4094390869140625,-0.4775654971599579,1.208026647567749,-0.096437320113182,39.88575744628906,98.58682250976562,-5.482620239257812
181761,-0.249603271484375,1.453262329101562,0.31842041015625,-0.3797697126865387,0.9452743530273438,0.0260358620434999,39.69232177734375,98.45755004882812,-5.327011108398438
181762,-0.249603271484375,1.453262329101562,0.31842041015625,-0.3797697126865387,0.9452743530273438,0.0260358620434999,39.69232177734375,98.45755004882812,-5.327011108398438
181763,0.052734375,1.32098388671875,0.3360595703125,-0.1889667212963104,1.21114706993103,0.0568654127418994,39.35934448242188,98.5167999267578,-5.434722900390625
181764,0.114105224609375,1.284423828125,0.3330535888671875,-0.1871323436498642,1.236443042755127,0.0764215365052223,39.17767333984375,98.53724670410156,-5.483795166015625
181765,0.155242919921875,1.233963012695312,0.2977447509765625,-0.4046673178672791,0.9134802222251892,0.0208482909947633,39.13485717773438,98.46768188476562,-5.435943603515625
181766,0.155242919921875,1.233963012695312,0.2977447509765625,-0.4046673178672791,0.9134802222251892,0.0208482909947633,39.13485717773438,98.46768188476562,-5.435943603515625
181767,0.204315185546875,1.19525146484375,0.245849609375,-0.4046673178672791,0.9134802222251892,0.0208482909947633,39.07743835449219,98.40876770019533,-5.445663452148438
181768,0.283905029296875,1.137710571289062,0.1145477294921875,-0.6670251488685608,0.5194511413574219,-0.1092710942029953,38.82421875,98.35267639160156,-5.472213745117188
181769,0.3059234619140625,1.149810791015625,-0.0205230712890625,-0.7067941427230835,0.3602156937122345,-0.1765819638967514,38.61717224121094,98.28596496582033,-5.27130126953125
181770,0.3059234619140625,1.149810791015625,-0.0205230712890625,-0.7067941427230835,0.3602156937122345,-0.1765819638967514,38.61717224121094,98.28596496582033,-5.27130126953125
181771,0.3082122802734375,1.203689575195312,-0.1805572509765625,-0.6543671488761902,0.1743403822183609,-0.1988433301448822,38.42263793945312,98.283203125,-5.190994262695312
181772,0.3009490966796875,1.28173828125,-0.2315826416015625,-0.2830210626125336,0.0819390714168548,-0.2384069710969925,38.06045532226562,98.2854461669922,-4.548980712890625
181773,0.2712554931640625,1.262405395507812,-0.2080230712890625,-0.1124823391437531,0.0852909311652183,-0.2866599857807159,37.94132995605469,98.19784545898438,-4.290786743164062
181774,0.2712554931640625,1.262405395507812,-0.2080230712890625,-0.1124823391437531,0.0852909311652183,-0.2866599857807159,37.94132995605469,98.19784545898438,-4.290786743164062
181775,0.2143402099609375,1.227859497070312,-0.1983184814453125,-0.0415714122354984,-0.0321289077401161,-0.3314120173454285,37.79399108886719,98.2559814453125,-4.188583374023438
181776,0.070220947265625,1.1982421875,-0.22125244140625,0.0286809131503105,-0.2375153452157974,-0.3225074708461761,37.58427429199219,98.1388702392578,-4.054733276367188
181777,0.0083160400390625,1.214981079101562,-0.2465057373046875,0.1290005892515182,-0.3391189277172089,-0.2810396552085876,37.49385070800781,98.12068176269533,-4.032913208007812
181778,-0.0609130859375,1.23834228515625,-0.27032470703125,0.2400048673152924,-0.4234591126441956,-0.2481805086135864,37.35151672363281,98.08140563964844,-3.962112426757812
181779,-0.0609130859375,1.23834228515625,-0.27032470703125,0.2400048673152924,-0.4234591126441956,-0.2481805086135864,37.35151672363281,98.08140563964844,-3.962112426757812
181780,-0.1396026611328125,1.224349975585938,-0.2661895751953125,0.4195168316364288,-0.3443384766578674,-0.2175863832235336,37.23895263671875,98.1944580078125,-4.12261962890625
181781,-0.1201019287109375,1.168624877929688,-0.2601165771484375,0.4832185804843903,-0.2522000074386597,-0.2230328172445297,37.23736572265625,98.1102294921875,-4.249404907226562
181782,-0.1201019287109375,1.168624877929688,-0.2601165771484375,0.4832185804843903,-0.2522000074386597,-0.2230328172445297,37.23736572265625,98.1102294921875,-4.249404907226562
181783,-0.0644989013671875,1.13067626953125,-0.2360382080078125,0.4956960380077362,-0.1583179980516434,-0.1542558819055557,37.1947021484375,98.10539245605467,-4.522048950195312
181784,0.0774383544921875,1.152740478515625,-0.1194610595703125,0.4793961644172668,-0.1050084382295609,-0.1073791906237602,37.11492919921875,98.25607299804688,-4.858901977539062
181785,0.1221466064453125,1.1754150390625,-0.0415496826171875,0.4781290292739868,0.0062903864309191,-0.0650064274668693,36.99008178710938,98.2367706298828,-5.11907958984375
181786,0.1221466064453125,1.1754150390625,-0.0415496826171875,0.4781290292739868,0.0062903864309191,-0.0650064274668693,36.99008178710938,98.2367706298828,-5.11907958984375
181787,0.1273040771484375,1.15509033203125,-0.1203765869140625,0.735438346862793,-0.1004885211586952,0.0763794630765914,36.88180541992188,98.41952514648438,-5.557586669921875
181788,0.08441162109375,1.082260131835938,-0.151702880859375,0.8501909971237183,-0.1795258224010468,0.1108293086290359,36.88211059570312,98.36630249023438,-5.726486206054688
181789,0.0439605712890625,0.97900390625,-0.134521484375,0.8501909971237183,-0.1795258224010468,0.1108293086290359,36.99311828613281,98.3155517578125,-5.992691040039062
181790,0.0221099853515625,0.837310791015625,-0.1070404052734375,0.9472304582595824,-0.2240301668643951,0.1399547010660172,36.99592590332031,98.41600036621094,-6.313491821289062
181791,0.0221099853515625,0.837310791015625,-0.1070404052734375,0.9472304582595824,-0.2240301668643951,0.1399547010660172,36.99592590332031,98.41600036621094,-6.313491821289062
181792,0.0096588134765625,0.5902557373046875,-0.1259918212890625,1.016417741775513,-0.2567103505134583,0.2513408958911896,37.1190185546875,98.59756469726562,-7.069595336914062
181793,0.00628662109375,0.5164642333984375,-0.152252197265625,0.9928951859474182,-0.2548349499702454,0.2916430234909058,37.2357177734375,98.73176574707033,-7.428558349609375
181794,0.001617431640625,0.4671783447265625,-0.1694488525390625,0.804257333278656,-0.1783236712217331,0.2702703773975372,37.30482482910156,98.7392120361328,-7.850189208984375
181795,0.001617431640625,0.4671783447265625,-0.1694488525390625,0.804257333278656,-0.1783236712217331,0.2702703773975372,37.30482482910156,98.7392120361328,-7.850189208984375
181796,0.0230255126953125,0.39312744140625,-0.1728515625,0.804257333278656,-0.1783236712217331,0.2702703773975372,37.4483642578125,98.6933135986328,-8.254486083984375
181797,0.031494140625,0.292327880859375,-0.1322479248046875,0.5073332786560059,0.1238154172897339,0.1322933286428452,37.6517333984375,98.95541381835938,-9.005111694335938
181798,0.031494140625,0.292327880859375,-0.1322479248046875,0.5073332786560059,0.1238154172897339,0.1322933286428452,37.6517333984375,98.95541381835938,-9.005111694335938
181799,0.0250244140625,0.230010986328125,-0.1764068603515625,0.3763954639434814,0.2069364041090012,0.03480751439929,37.79246520996094,99.00396728515624,-9.358078002929688
181800,0.047882080078125,0.2209320068359375,-0.206817626953125,0.252207487821579,0.176280751824379,-0.2032007873058319,37.96800231933594,99.0576171875,-9.647308349609377
181801,0.059356689453125,0.2695159912109375,-0.176910400390625,0.2741005122661591,0.1788778752088547,-0.2889862656593323,37.96864318847656,98.9482421875,-9.683349609375
181802,0.059356689453125,0.2695159912109375,-0.176910400390625,0.2741005122661591,0.1788778752088547,-0.2889862656593323,37.96864318847656,98.9482421875,-9.683349609375
181803,0.0160064697265625,0.434356689453125,-0.0972747802734375,0.2863713204860687,0.1216513365507126,-0.3182144463062286,37.84696960449219,98.96540832519533,-9.98712158203125
181804,0.04461669921875,0.5830078125,-0.062530517578125,0.1878777593374252,0.081132672727108,-0.2689081728458405,37.69465637207031,98.97702026367188,-10.15647888183594
181805,0.039398193359375,0.710205078125,-0.008544921875,0.0267567783594131,0.0865612551569938,-0.2135511636734009,37.58865356445312,98.9907684326172,-10.30975341796875
181806,0.0019073486328125,0.79705810546875,0.0339508056640625,-0.1266277134418488,0.145662397146225,-0.1826465129852295,37.33840942382812,99.2177276611328,-10.46565246582031
181807,0.0019073486328125,0.79705810546875,0.0339508056640625,-0.1266277134418488,0.145662397146225,-0.1826465129852295,37.33840942382812,99.2177276611328,-10.46565246582031
181808,-0.0835113525390625,0.9824371337890624,-0.1495819091796875,-0.0966434553265571,-0.4389832317829132,-0.277090460062027,37.11408996582031,99.0789031982422,-10.46441650390625
181809,-0.1071319580078125,1.090438842773438,-0.213104248046875,-0.0966434553265571,-0.4389832317829132,-0.277090460062027,37.09642028808594,99.04417419433594,-10.27531433105469
181810,-0.1061553955078125,1.15093994140625,-0.1869659423828125,0.0190922021865844,-0.5292076468467712,-0.3396846055984497,36.94732666015625,99.1328582763672,-10.1185302734375
181811,-0.0666351318359375,1.121917724609375,-0.0496368408203125,0.0478705875575542,-0.4239925444126129,-0.2948271036148071,36.69381713867188,99.28204345703124,-10.11331176757812
181812,0.0520477294921875,1.019073486328125,0.13519287109375,-0.058432150632143,-0.2849158942699432,-0.2398200482130051,36.62530517578125,99.38121032714844,-10.21421813964844
181813,0.12158203125,0.9756011962890624,0.28863525390625,-0.27895388007164,-0.1860108822584152,-0.1984393149614334,36.36282348632812,99.37741088867188,-10.16920471191406
181814,0.12158203125,0.9756011962890624,0.28863525390625,-0.27895388007164,-0.1860108822584152,-0.1984393149614334,36.36282348632812,99.37741088867188,-10.16920471191406
181815,0.0698394775390625,1.096710205078125,0.3718719482421875,-0.5112435817718506,-0.0022232069168239,-0.1520587801933289,36.34419250488281,99.34625244140624,-10.10481262207031
181816,-0.1608734130859375,1.426528930664062,0.3159027099609375,-0.8284377455711365,0.3635478615760803,-0.2255146205425262,36.21383666992188,99.17066955566406,-9.790054321289062
181817,-0.26617431640625,1.606979370117188,0.156768798828125,-0.9057988524436952,0.2093857079744339,-0.3046693503856659,36.18203735351562,99.08529663085938,-9.46099853515625
181818,-0.26617431640625,1.606979370117188,0.156768798828125,-0.9057988524436952,0.2093857079744339,-0.3046693503856659,36.18203735351562,99.08529663085938,-9.46099853515625
181819,-0.345733642578125,1.743377685546875,0.0565185546875,-0.9274040460586548,-0.4867803156375885,-0.2130520939826965,36.04324340820312,99.1860809326172,-9.181060791015623
181820,-0.2027130126953125,1.753936767578125,0.1947174072265625,-0.9143832921981812,-0.3506235182285309,0.0475350283086299,35.76104736328125,98.96791076660156,-8.451019287109375
181821,-0.00335693359375,1.603439331054688,0.2218017578125,-0.6295276284217834,0.0581953972578048,0.1471146196126938,35.77449035644531,98.72430419921876,-7.950759887695312
181822,0.0303192138671875,1.415420532226562,0.244415283203125,-0.6295276284217834,0.0581953972578048,0.1471146196126938,35.82986450195312,98.54524230957033,-7.523345947265625
181823,0.0303192138671875,1.415420532226562,0.244415283203125,-0.6295276284217834,0.0581953972578048,0.1471146196126938,35.82986450195312,98.54524230957033,-7.523345947265625
181824,0.0196380615234375,1.17584228515625,0.2420196533203125,-0.3844704329967499,0.0375835932791233,0.0985337644815444,35.83721923828125,98.53921508789062,-6.636459350585938
181825,0.08746337890625,1.156951904296875,0.1552276611328125,-0.4237744510173798,-0.081495389342308,0.048325452953577,36.00625610351562,98.41607666015624,-6.215408325195312
181826,0.08746337890625,1.156951904296875,0.1552276611328125,-0.4237744510173798,-0.081495389342308,0.048325452953577,36.00625610351562,98.41607666015624,-6.215408325195312
181827,0.157867431640625,1.177413940429688,0.0330047607421875,-0.5161600112915039,-0.3068185150623322,0.0081085264682769,36.00425720214844,98.32057189941406,-6.054840087890625
181828,0.222808837890625,1.23126220703125,-0.0532989501953125,-0.5545204877853394,-0.5208058953285217,-0.0062978430651128,36.03851318359375,98.34759521484376,-6.157028198242188
181829,0.2798004150390625,1.321990966796875,-0.133514404296875,-0.4216316640377045,-0.409032791852951,0.0021885856986045,36.13377380371094,98.11900329589844,-5.599655151367188
181830,0.2798004150390625,1.321990966796875,-0.133514404296875,-0.4216316640377045,-0.409032791852951,0.0021885856986045,36.13377380371094,98.11900329589844,-5.599655151367188
181831,0.2499237060546875,1.342529296875,-0.198028564453125,-0.2596568763256073,-0.2883463203907013,0.0240946840494871,36.26216125488281,97.8947296142578,-5.1824951171875
181832,0.2155609130859375,1.393478393554688,-0.286651611328125,0.1921617239713669,-0.6042275428771973,0.0825553312897682,36.31727600097656,97.72531127929688,-4.580535888671875
181833,0.2514190673828125,1.432205200195312,-0.320098876953125,0.4252253174781799,-0.7686538100242615,0.0997593477368354,36.46746826171875,97.64170837402344,-4.439895629882812
181834,0.2514190673828125,1.432205200195312,-0.320098876953125,0.4252253174781799,-0.7686538100242615,0.0997593477368354,36.46746826171875,97.64170837402344,-4.439895629882812
181835,0.420623779296875,1.366653442382812,-0.3441162109375,0.6584082245826721,-0.8825824856758118,0.1684185713529587,36.71247863769531,97.613037109375,-4.467071533203125
181836,0.4485626220703125,1.228988647460938,-0.1864776611328125,0.527067244052887,-0.7858884334564209,0.2055595517158508,36.93223571777344,97.62710571289062,-4.527435302734375
181837,0.4041595458984375,1.123916625976562,-0.044586181640625,0.2956990301609039,-0.6649236679077148,0.2227230966091156,37.04437255859375,97.73497009277344,-4.68719482421875
181838,0.4041595458984375,1.123916625976562,-0.044586181640625,0.2956990301609039,-0.6649236679077148,0.2227230966091156,37.04437255859375,97.73497009277344,-4.68719482421875
181839,0.315155029296875,1.082855224609375,-0.0127410888671875,0.1315851956605911,-0.5217188596725464,0.1417070627212524,37.2679443359375,97.81398010253906,-4.769332885742188
181840,-0.019287109375,1.075668334960938,-0.158294677734375,0.2016795873641968,-0.4513882100582123,0.0290686693042516,37.50062561035156,98.00918579101562,-4.892974853515625
181841,-0.147491455078125,1.057403564453125,-0.184173583984375,0.2997145354747772,-0.4385485947132111,0.0532387197017669,37.71615600585938,97.92669677734376,-4.78118896484375
181842,-0.147491455078125,1.057403564453125,-0.184173583984375,0.2997145354747772,-0.4385485947132111,0.0532387197017669,37.71615600585938,97.92669677734376,-4.78118896484375
181843,-0.198974609375,0.944427490234375,-0.1755218505859375,0.4662031233310699,-0.3379756510257721,0.2784302830696106,37.76985168457031,97.85940551757812,-4.855499267578125
181844,-0.0620880126953125,0.64642333984375,-0.2007293701171875,0.5174300670623779,-0.3957113921642303,0.4492606222629547,38.16256713867188,97.76588439941406,-5.003585815429688
181845,0.057281494140625,0.51202392578125,-0.2014617919921875,0.5435360074043274,-0.5245434045791626,0.6199447512626648,38.34239196777344,97.78121948242188,-5.264495849609375
181846,0.1449737548828125,0.4045562744140625,-0.165130615234375,0.5173379182815552,-0.5012242197990417,0.984998345375061,38.49888610839844,97.78938293457033,-5.47869873046875
181847,0.1449737548828125,0.4045562744140625,-0.165130615234375,0.5173379182815552,-0.5012242197990417,0.984998345375061,38.49888610839844,97.78938293457033,-5.47869873046875
181848,0.1923675537109375,0.3103179931640625,-0.06134033203125,0.466911792755127,-0.2950345575809479,1.115286350250244,39.31816101074219,97.90977478027344,-5.711746215820312
181849,0.19976806640625,0.2918548583984375,-0.0405120849609375,0.3739919662475586,-0.0563199967145919,1.146395802497864,39.80540466308594,98.09864807128906,-5.838592529296875
181850,0.1996002197265625,0.2579345703125,-0.05078125,0.2452036291360855,0.1306456327438354,1.10377562046051,40.20285034179688,98.42599487304688,-5.98663330078125
181851,0.1996002197265625,0.2579345703125,-0.05078125,0.2452036291360855,0.1306456327438354,1.10377562046051,40.20285034179688,98.42599487304688,-5.98663330078125
181852,0.1639251708984375,0.1572265625,-0.17510986328125,0.0335603579878807,0.1330352872610092,0.9018059968948364,41.21847534179688,98.68695068359376,-6.218276977539062
181853,0.143890380859375,0.138885498046875,-0.201202392578125,-0.0085287736728787,-0.0621829479932785,0.7454044222831726,41.6629638671875,98.66845703125,-6.060562133789062
181854,0.143890380859375,0.138885498046875,-0.201202392578125,-0.0085287736728787,-0.0621829479932785,0.7454044222831726,41.6629638671875,98.66845703125,-6.060562133789062
181855,0.1207122802734375,0.1535186767578125,-0.135101318359375,-0.0382965207099914,-0.1797809451818466,0.5434057712554932,42.09884643554688,98.8175048828125,-6.08746337890625
181856,-0.024749755859375,0.2772216796875,0.109405517578125,-0.0968192219734191,0.2329245954751968,-0.0097082871943712,42.86093139648438,99.12509155273438,-5.933349609375
181857,-0.08966064453125,0.47216796875,0.174285888671875,-0.1616658568382263,0.572861909866333,-0.2879875898361206,43.06698608398438,99.1599578857422,-5.890228271484375
181858,-0.0926666259765625,0.664276123046875,0.2128143310546875,-0.2545569241046906,0.843928873538971,-0.5732834935188293,43.13938903808594,99.21559143066406,-6.00030517578125
181859,-0.0926666259765625,0.664276123046875,0.2128143310546875,-0.2545569241046906,0.843928873538971,-0.5732834935188293,43.13938903808594,99.21559143066406,-6.00030517578125
181860,-0.1572418212890625,1.021270751953125,0.2177276611328125,-0.5365568995475769,0.8449030518531799,-0.937555730342865,42.85453796386719,99.174560546875,-5.702316284179688
181861,-0.223052978515625,1.221145629882812,0.232696533203125,-0.7788422703742981,0.9426823258399964,-1.134224534034729,42.537841796875,99.05792236328124,-5.690353393554688
181862,-0.223052978515625,1.221145629882812,0.232696533203125,-0.7788422703742981,0.9426823258399964,-1.134224534034729,42.537841796875,99.05792236328124,-5.690353393554688
181863,-0.292633056640625,1.3944091796875,0.19366455078125,-0.7458124160766602,1.149450421333313,-1.118920683860779,41.97315979003906,98.88067626953124,-5.562332153320312
181864,-0.3689117431640625,1.469131469726562,0.2339630126953125,-0.6031609773635864,1.412502288818359,-0.9429917931556702,40.82933044433594,98.79801940917967,-5.428314208984375
181865,-0.331024169921875,1.4232177734375,0.363433837890625,-0.4471298158168793,1.643251657485962,-0.62239670753479,40.18148803710938,98.72860717773438,-5.18304443359375
181866,-0.331024169921875,1.4232177734375,0.363433837890625,-0.4471298158168793,1.643251657485962,-0.62239670753479,40.18148803710938,98.72860717773438,-5.18304443359375
181867,-0.1890716552734375,1.460494995117188,0.483551025390625,-0.3733336329460144,1.664642930030823,-0.3986150324344635,39.62013244628906,98.72349548339844,-5.281997680664062
181868,-0.1061859130859375,1.516677856445312,0.654022216796875,-0.6006991267204285,1.46558678150177,-0.5343121290206909,38.73133850097656,98.7706298828125,-5.492416381835938
181869,-0.1457061767578125,1.5289306640625,0.54052734375,-0.7750331163406372,1.206132292747498,-0.5859044790267944,38.42214965820312,98.65188598632812,-5.601760864257812
181870,-0.1457061767578125,1.5289306640625,0.54052734375,-0.7750331163406372,1.206132292747498,-0.5859044790267944,38.42214965820312,98.65188598632812,-5.601760864257812
181871,-0.1524200439453125,1.502197265625,0.3866729736328125,-0.9493024349212646,0.4051573574542999,-0.6698662638664246,38.17401123046875,98.46820068359376,-5.50836181640625
181872,-3.0517578125e-05,1.31475830078125,0.2028656005859375,-0.896993100643158,0.3527061343193054,-0.6571746468544006,37.360595703125,98.13729858398438,-5.052047729492188
181873,0.0603179931640625,1.231353759765625,0.0505218505859375,-0.7166507840156555,0.2935080528259277,-0.6054922938346863,37.02926635742188,97.8685302734375,-4.651641845703125
181874,0.0591583251953125,1.128265380859375,-0.0485382080078125,-0.2967911958694458,-0.053986269980669,-0.4550713896751404,36.32502746582031,97.68830871582033,-4.178009033203125
181875,0.0591583251953125,1.128265380859375,-0.0485382080078125,-0.2967911958694458,-0.053986269980669,-0.4550713896751404,36.32502746582031,97.68830871582033,-4.178009033203125
181876,-0.003631591796875,1.1431884765625,-0.0712890625,-0.2442805767059326,-0.1266988217830658,-0.4430027306079865,36.00457763671875,97.57118225097656,-3.891555786132812
181877,-0.0683746337890625,1.16534423828125,-0.1107635498046875,-0.2943868935108185,-0.1470107585191727,-0.4471575319766998,35.71224975585938,97.43362426757812,-3.748550415039062
181878,-0.0683746337890625,1.16534423828125,-0.1107635498046875,-0.2943868935108185,-0.1470107585191727,-0.4471575319766998,35.71224975585938,97.43362426757812,-3.748550415039062
181879,-0.12750244140625,1.234725952148438,-0.236602783203125,-0.3457843065261841,-0.1604639738798141,-0.3490900695323944,35.28024291992188,97.26531982421876,-3.4248046875
181880,-0.0842742919921875,1.287704467773438,-0.319488525390625,-0.2344511151313782,-0.2685041725635529,-0.2627940773963928,35.05145263671875,97.16246032714844,-3.301620483398438
181881,-0.0350341796875,1.369094848632812,-0.3801727294921875,0.029258020222187,-0.3051513731479645,-0.1544540226459503,34.84173583984375,97.0875244140625,-3.033157348632812
181882,-0.0350341796875,1.369094848632812,-0.3801727294921875,0.029258020222187,-0.3051513731479645,-0.1544540226459503,34.84173583984375,97.0875244140625,-3.033157348632812
181883,-0.0046539306640625,1.455169677734375,-0.44256591796875,0.3846840262413025,-0.2579542994499207,-0.040747694671154,34.7301025390625,97.00547790527344,-2.935440063476562
181884,-0.024749755859375,1.538192749023438,-0.5023040771484375,0.9411075711250304,-0.2104666829109192,0.054958589375019,34.52932739257812,96.99624633789062,-3.031417846679688
181885,-0.03045654296875,1.458572387695312,-0.4060516357421875,0.9985410571098328,-0.251201868057251,0.0730172172188758,34.53594970703125,97.16720581054688,-3.1671142578125
181886,-0.0434417724609375,1.339813232421875,-0.245086669921875,0.8993393778800964,-0.2660540640354156,0.1148813143372536,34.547607421875,97.23812866210938,-3.442184448242188
181887,-0.0434417724609375,1.339813232421875,-0.245086669921875,0.8993393778800964,-0.2660540640354156,0.1148813143372536,34.547607421875,97.23812866210938,-3.442184448242188
181888,-0.0387725830078125,1.047531127929688,-0.10443115234375,0.5692431926727295,-0.459514856338501,0.172228217124939,34.60205078125,97.27180480957033,-4.253005981445312
181889,-0.0077972412109375,0.915618896484375,-0.0529937744140625,0.39461949467659,-0.4641628861427307,0.2029075771570206,34.71397399902344,97.31727600097656,-4.502059936523438
181890,-0.0077972412109375,0.915618896484375,-0.0529937744140625,0.39461949467659,-0.4641628861427307,0.2029075771570206,34.71397399902344,97.31727600097656,-4.502059936523438
181891,-0.00885009765625,0.9464569091796876,-0.040008544921875,0.2219651490449905,-0.4048334956169128,0.2799477577209473,34.86880493164062,97.45602416992188,-4.734115600585938
181892,-0.031890869140625,1.171966552734375,-0.0277252197265625,0.1175226345658302,-0.1950547099113464,0.383372962474823,35.09906005859375,97.62356567382812,-5.148483276367188
181893,-0.0435791015625,1.257858276367188,-0.0186920166015625,0.2285125404596329,-0.1030134633183479,0.4136997163295746,35.36543273925781,97.7484130859375,-5.173904418945312
181894,-0.0435791015625,1.257858276367188,-0.0186920166015625,0.2285125404596329,-0.1030134633183479,0.4136997163295746,35.36543273925781,97.7484130859375,-5.173904418945312
181895,-0.050384521484375,1.2869873046875,-0.006683349609375,0.6495710611343384,-0.0879650115966796,0.4054881036281586,35.54231262207031,97.84893798828124,-5.11346435546875
181896,-0.01690673828125,1.220947265625,0.206268310546875,0.8448092937469482,0.0279943495988845,0.3414358794689178,35.96247863769531,98.08383178710938,-5.24395751953125
181897,0.010955810546875,1.092483520507812,0.3237762451171875,0.9353040456771852,0.2903404831886292,0.2408578842878342,36.19717407226562,98.15103149414062,-5.583572387695312
181898,0.0236663818359375,0.92236328125,0.3639373779296875,0.7684106230735779,0.9061421751976012,0.0712225139141082,36.32711791992188,98.20817565917967,-5.842254638671875
181899,0.0236663818359375,0.92236328125,0.3639373779296875,0.7684106230735779,0.9061421751976012,0.0712225139141082,36.32711791992188,98.20817565917967,-5.842254638671875
181900,-0.0224456787109375,0.5937652587890625,0.208038330078125,0.699722409248352,0.9863973259925842,-0.0026615632232278,36.67173767089844,98.35081481933594,-6.881622314453125
181901,-0.0531158447265625,0.428253173828125,0.088226318359375,0.6949580311775208,0.7509011626243591,-0.0775158330798149,36.68832397460938,98.40830993652344,-7.21466064453125
181902,-0.07989501953125,0.3159332275390625,0.002471923828125,0.7006697058677673,0.2933485209941864,-0.1632043719291687,36.81477355957031,98.36756896972656,-8.044464111328125
181903,-0.07989501953125,0.3159332275390625,0.002471923828125,0.7006697058677673,0.2933485209941864,-0.1632043719291687,36.81477355957031,98.36756896972656,-8.044464111328125
181904,-0.0651397705078125,0.1397247314453125,-0.06011962890625,0.5487837791442871,-0.6426072120666504,-0.3202730715274811,36.7864990234375,98.26722717285156,-8.566635131835938
181905,-0.0377349853515625,0.08013916015625,-0.1099853515625,0.407956600189209,-0.9447012543678284,-0.3651359081268311,36.75314331054688,98.2786102294922,-8.822784423828125
181906,0.0216064453125,0.0450439453125,-0.2196197509765625,0.257851243019104,-1.207150459289551,-0.3573163151741028,36.64439392089844,98.24153137207033,-8.94293212890625
181907,0.0216064453125,0.0450439453125,-0.2196197509765625,0.257851243019104,-1.207150459289551,-0.3573163151741028,36.64439392089844,98.24153137207033,-8.94293212890625
181908,0.0899200439453125,0.07244873046875,-0.2278900146484375,0.0821936726570129,-0.915061891078949,-0.1081243380904198,36.21099853515625,98.2566375732422,-8.878341674804688
181909,0.0765533447265625,0.136871337890625,-0.2339935302734375,0.0837191343307495,0.1612735837697983,0.0641038864850997,36.03785705566406,98.46836853027344,-8.68792724609375
181910,0.0765533447265625,0.136871337890625,-0.2339935302734375,0.0837191343307495,0.1612735837697983,0.0641038864850997,36.03785705566406,98.46836853027344,-8.68792724609375
181911,0.034454345703125,0.3908843994140625,-0.3979034423828125,0.1559126377105713,1.08678138256073,0.0517686568200588,35.89654541015625,98.73176574707033,-8.695877075195312
181912,0.0399932861328125,0.4955596923828125,-0.2416839599609375,0.1370702385902405,0.7704599499702454,0.0385702960193157,35.86979675292969,98.707275390625,-8.8671875
181913,0.03131103515625,0.6502838134765625,-0.0765533447265625,0.0888465121388435,0.5415258407592773,-0.0346216261386871,35.78659057617188,98.73118591308594,-9.090240478515623
181914,0.03131103515625,0.6502838134765625,-0.0765533447265625,0.0888465121388435,0.5415258407592773,-0.0346216261386871,35.78659057617188,98.73118591308594,-9.090240478515623
181915,-0.0640106201171875,0.9226531982421876,-0.12725830078125,0.0696642994880676,0.4008004069328308,-0.2691523730754852,35.56539916992188,98.82365417480467,-9.428207397460938
181916,-0.0955657958984375,1.055465698242188,-0.208404541015625,0.079812541604042,0.2803917229175568,-0.3051702976226807,35.23843383789062,98.98316955566406,-9.60565185546875
181917,-0.1187591552734375,1.152908325195312,-0.1172637939453125,0.0359481461346149,0.3289602994918823,-0.2704650461673737,34.97169494628906,99.07449340820312,-9.806228637695312
181918,-0.1432342529296875,1.182418823242188,0.0172271728515625,-0.081301249563694,0.5421612858772278,-0.2044207751750946,34.82955932617188,99.09982299804688,-9.997314453125
181919,-0.1432342529296875,1.182418823242188,0.0172271728515625,-0.081301249563694,0.5421612858772278,-0.2044207751750946,34.82955932617188,99.09982299804688,-9.997314453125
181920,-0.09716796875,1.173782348632812,0.1145172119140625,-0.3664488196372986,0.317546546459198,-0.2530708611011505,34.50172424316406,99.23005676269533,-10.13552856445312
181921,-0.0932464599609375,1.167587280273438,0.175567626953125,-0.3348365724086761,-0.1907390505075455,-0.2456180155277252,34.45280456542969,99.14768981933594,-10.14561462402344
181922,-0.1046600341796875,1.206771850585938,0.2467498779296875,-0.3348365724086761,-0.1907390505075455,-0.2456180155277252,34.34014892578125,99.214599609375,-9.847763061523438
181923,-0.1046600341796875,1.206771850585938,0.2467498779296875,-0.3348365724086761,-0.1907390505075455,-0.2456180155277252,34.34014892578125,99.214599609375,-9.847763061523438
181924,-0.1310272216796875,1.364151000976562,0.302764892578125,-0.3195511102676392,-0.3788399994373322,-0.1336584687232971,34.19108581542969,98.971923828125,-9.314041137695312
181925,-0.1263275146484375,1.379058837890625,0.301300048828125,-0.4543078541755676,-0.4170259833335876,-0.1464528143405914,34.14625549316406,98.97746276855467,-9.08673095703125
181926,-0.1263275146484375,1.379058837890625,0.301300048828125,-0.4543078541755676,-0.4170259833335876,-0.1464528143405914,34.14625549316406,98.97746276855467,-9.08673095703125
181927,-0.11944580078125,1.314010620117188,0.27081298828125,-0.9049383997917176,-0.4497820734977722,-0.2917239964008331,34.04583740234375,99.029541015625,-9.032989501953123
181928,-0.1497955322265625,1.244979858398438,0.1349029541015625,-1.070979833602905,-0.5145650506019592,-0.3882859647274017,33.84268188476562,98.90367126464844,-8.732223510742188
181929,-0.1382293701171875,1.236495971679688,0.0449981689453125,-1.127019882202148,-0.6807015538215637,-0.4898916780948639,33.74052429199219,98.80056762695312,-8.194427490234375
181930,-0.0935516357421875,1.212326049804688,-0.016326904296875,-1.065377831459045,-0.9234790802001952,-0.5107554197311401,33.62411499023438,98.54383850097656,-7.348953247070312
181931,-0.0935516357421875,1.212326049804688,-0.016326904296875,-1.065377831459045,-0.9234790802001952,-0.5107554197311401,33.62411499023438,98.54383850097656,-7.348953247070312
181932,0.0872039794921875,1.230087280273438,0.02459716796875,-0.7430261969566345,-0.9859962463378906,-0.2876040935516357,33.42655944824219,98.22312927246094,-6.04547119140625
181933,0.1184539794921875,1.314682006835938,0.0020294189453125,-0.5797789692878723,-0.7434744238853455,-0.1527304202318192,33.26176452636719,97.99479675292967,-5.391082763671875
181934,0.1184539794921875,1.314682006835938,0.0020294189453125,-0.5797789692878723,-0.7434744238853455,-0.1527304202318192,33.26176452636719,97.99479675292967,-5.391082763671875
181935,0.08837890625,1.431884765625,-0.0645751953125,-0.3676219582557678,-0.2108414024114609,-0.0556057393550872,33.3060302734375,97.83834838867188,-5.06268310546875
181936,-0.0033416748046875,1.68304443359375,-0.2481536865234375,-0.311130702495575,-0.064881794154644,-0.060079850256443,33.21929931640625,97.65553283691406,-4.184234619140625
181937,0.016082763671875,1.781951904296875,-0.2332916259765625,-0.2863894104957581,0.0291075520217418,-0.0525697357952594,33.25802612304688,97.42636108398438,-3.889862060546875
181938,0.016082763671875,1.781951904296875,-0.2332916259765625,-0.2863894104957581,0.0291075520217418,-0.0525697357952594,33.25802612304688,97.42636108398438,-3.889862060546875
181939,0.1031951904296875,1.842575073242188,0.052764892578125,-0.2896161079406738,0.3122250139713287,0.0523188635706901,33.18125915527344,97.3254852294922,-3.911331176757812
181940,0.042572021484375,1.812057495117188,0.1731414794921875,-0.2234155088663101,0.3757035732269287,0.0358943529427051,33.18545532226562,97.23989868164062,-3.65142822265625
181941,-0.042388916015625,1.656402587890625,0.1810760498046875,-0.0912771821022033,0.4259073734283447,-0.0181134901940822,33.24688720703125,97.1558074951172,-3.580169677734375
181942,0.0041961669921875,1.26251220703125,-0.0010833740234375,0.1984012424945831,0.3020051419734955,-0.0014692660188302,33.14173889160156,97.0849609375,-3.574493408203125
181943,0.0041961669921875,1.26251220703125,-0.0010833740234375,0.1984012424945831,0.3020051419734955,-0.0014692660188302,33.14173889160156,97.0849609375,-3.574493408203125
181944,0.05889892578125,1.205459594726562,-0.081024169921875,0.3506387174129486,0.2127253115177155,0.0586542598903179,33.19586181640625,96.99609375,-3.599380493164062
181945,0.122344970703125,1.185440063476562,-0.15594482421875,0.4574874043464661,0.0716856345534324,0.1297776997089386,33.24664306640625,97.06036376953124,-3.663604736328125
181946,0.1711883544921875,1.179672241210938,-0.204498291015625,0.485809326171875,-0.130453884601593,0.2197581976652145,33.27778625488281,97.24407958984376,-3.884780883789062
181947,0.1711883544921875,1.179672241210938,-0.204498291015625,0.485809326171875,-0.130453884601593,0.2197581976652145,33.27778625488281,97.24407958984376,-3.884780883789062
181948,0.1865692138671875,1.19000244140625,-0.1509857177734375,0.3657383024692535,-0.4994843900203705,0.3862555623054504,33.45008850097656,97.38632202148438,-4.283660888671875
181949,0.171783447265625,1.1651611328125,-0.1007080078125,0.280155748128891,-0.5710728168487549,0.4512702524662018,33.69566345214844,97.42820739746094,-4.311676025390625
181950,0.146087646484375,1.107772827148438,-0.071014404296875,0.1808483451604843,-0.6006439924240112,0.4780760407447815,33.9356689453125,97.4923858642578,-4.341293334960938
181951,0.146087646484375,1.107772827148438,-0.071014404296875,0.1808483451604843,-0.6006439924240112,0.4780760407447815,33.9356689453125,97.4923858642578,-4.341293334960938
181952,0.062652587890625,0.932861328125,-0.073089599609375,0.2048775106668472,-0.6083197593688965,0.4284935593605042,34.48991394042969,97.68150329589844,-4.473922729492188
181953,0.0058441162109375,0.808135986328125,-0.030609130859375,0.2759908437728882,-0.5237897038459778,0.3425392508506775,34.85073852539062,97.5778350830078,-4.371536254882812
181954,0.0058441162109375,0.808135986328125,-0.030609130859375,0.2759908437728882,-0.5237897038459778,0.3425392508506775,34.85073852539062,97.5778350830078,-4.371536254882812
181955,-0.0468597412109375,0.67779541015625,-0.0050201416015625,0.4229680299758911,-0.2767748832702637,0.1787322014570236,35.15072631835938,97.55514526367188,-4.341110229492188
181956,-0.1294708251953125,0.4377899169921875,0.060333251953125,0.4315809607505798,-0.1516851335763931,0.1122692823410034,35.61088562011719,97.7162628173828,-4.574539184570312
181957,-0.1525726318359375,0.3312225341796875,0.0700531005859375,0.368764728307724,-0.0467182360589504,0.0711314305663108,35.78660583496094,97.70712280273438,-4.580535888671875
181958,-0.170928955078125,0.1043548583984375,-0.036651611328125,0.1556796133518219,-0.0503119081258773,0.1540718525648117,36.13955688476562,97.6494140625,-4.844329833984375
181959,-0.170928955078125,0.1043548583984375,-0.036651611328125,0.1556796133518219,-0.0503119081258773,0.1540718525648117,36.13955688476562,97.6494140625,-4.844329833984375
181960,-0.1331329345703125,0.046112060546875,-0.11376953125,0.050586212426424,-0.0170239899307489,0.2546173632144928,36.28671264648438,97.5905303955078,-4.90557861328125
181961,-0.077178955078125,0.101104736328125,-0.1921539306640625,-0.0179217420518398,0.0237854905426502,0.3228755295276642,36.35057067871094,97.56472778320312,-4.956771850585938
181962,-0.077178955078125,0.101104736328125,-0.1921539306640625,-0.0179217420518398,0.0237854905426502,0.3228755295276642,36.35057067871094,97.56472778320312,-4.956771850585938
181963,-0.0206451416015625,0.281463623046875,-0.178436279296875,0.0381327383220195,0.1581094712018967,0.1907457113265991,36.57289123535156,97.52163696289062,-5.080001831054688
181964,-0.001007080078125,0.29425048828125,-0.133544921875,0.0821252316236496,0.218733936548233,0.1642187684774399,36.56423950195312,97.52200317382812,-5.130813598632812
181965,0.0718536376953125,0.3062744140625,-0.0918121337890625,0.0985342934727668,0.1750485152006149,0.1745893806219101,36.653564453125,97.54893493652344,-5.198760986328125
181966,0.0718536376953125,0.3062744140625,-0.0918121337890625,0.0985342934727668,0.1750485152006149,0.1745893806219101,36.653564453125,97.54893493652344,-5.198760986328125
181967,0.212249755859375,0.355194091796875,0.013702392578125,-0.0858576521277427,0.128143846988678,0.2901391386985779,36.78286743164062,97.58639526367188,-5.332305908203125
181968,0.234222412109375,0.408721923828125,0.0569305419921875,-0.147881343960762,0.2411638796329498,0.2718267142772675,36.80880737304688,97.56048583984376,-5.223770141601562
181969,0.221893310546875,0.502593994140625,0.08349609375,-0.147881343960762,0.2411638796329498,0.2718267142772675,36.98338317871094,97.57278442382812,-5.355499267578125
181970,0.1533966064453125,0.6315460205078125,0.0883331298828125,-0.205861821770668,0.3298937380313873,0.1865922510623932,37.05380249023438,97.55958557128906,-5.262222290039062
181971,0.1533966064453125,0.6315460205078125,0.0883331298828125,-0.205861821770668,0.3298937380313873,0.1865922510623932,37.05380249023438,97.55958557128906,-5.262222290039062
181972,0.020477294921875,0.8749237060546875,0.164215087890625,-0.3200962543487549,0.3680336773395538,-0.0859628468751907,37.14053344726562,97.77073669433594,-5.338821411132812
181973,0.0003662109375,0.990264892578125,0.2400054931640625,-0.3812205791473389,0.4109441339969635,-0.2180822640657425,37.18179321289062,97.86083984375,-5.212677001953125
181974,-0.0209808349609375,1.093704223632812,0.3503570556640625,-0.5532299280166626,0.8258499503135681,-0.3961319029331207,37.16053771972656,97.85208129882812,-5.236465454101562
181975,-0.0209808349609375,1.093704223632812,0.3503570556640625,-0.5532299280166626,0.8258499503135681,-0.3961319029331207,37.16053771972656,97.85208129882812,-5.236465454101562
181976,-0.153289794921875,1.235198974609375,0.5240631103515625,-0.6726620197296143,1.103594183921814,-0.4420408010482788,36.73110961914062,97.80270385742188,-5.002166748046875
181977,-0.2636260986328125,1.235519409179688,0.5498809814453125,-0.7850314378738403,1.242767095565796,-0.4627527296543121,36.53919982910156,97.60769653320312,-4.823715209960938
181978,-0.378143310546875,1.200958251953125,0.59112548828125,-0.8594635725021362,1.282058477401733,-0.4974958002567291,36.25340270996094,97.448974609375,-4.578201293945312
181979,-0.378143310546875,1.200958251953125,0.59112548828125,-0.8594635725021362,1.282058477401733,-0.4974958002567291,36.25340270996094,97.448974609375,-4.578201293945312
181980,-0.4815673828125,1.172775268554688,0.6331634521484375,-0.872480034828186,1.29038405418396,-0.5395902395248413,35.94424438476562,97.45315551757812,-4.598342895507812
181981,-0.6339874267578125,1.2469482421875,0.5326385498046875,-0.9166472554206848,1.147466897964478,-0.589524507522583,35.49142456054688,97.1135711669922,-4.102508544921875
181982,-0.68145751953125,1.336898803710938,0.4111328125,-0.9357839226722716,1.017319560050964,-0.5614665150642395,35.09112548828125,96.950439453125,-4.01922607421875
181983,-0.68145751953125,1.336898803710938,0.4111328125,-0.9357839226722716,1.017319560050964,-0.5614665150642395,35.09112548828125,96.950439453125,-4.01922607421875
181984,-0.5362548828125,1.500228881835938,-0.07501220703125,-0.6446791291236877,0.7910395264625549,-0.4974478483200073,34.43070983886719,96.54345703125,-3.580856323242188
181985,-0.34002685546875,1.515090942382812,-0.2813568115234375,-0.2257550954818726,0.6522334218025208,-0.3685916066169739,34.03195190429688,96.5663604736328,-3.372573852539062
181986,-0.1544342041015625,1.498779296875,-0.2816009521484375,0.1792879998683929,0.3574100732803345,-0.2709526717662811,33.58494567871094,96.4585418701172,-3.325576782226562
181987,-0.1544342041015625,1.498779296875,-0.2816009521484375,0.1792879998683929,0.3574100732803345,-0.2709526717662811,33.58494567871094,96.4585418701172,-3.325576782226562
181988,0.1610260009765625,1.267578125,-0.01416015625,-0.0723413079977035,0.227851539850235,-0.1751262694597244,32.98616027832031,96.29972839355467,-3.545028686523438
181989,0.2953948974609375,1.196044921875,-0.043853759765625,-0.0723413079977035,0.227851539850235,-0.1751262694597244,32.6109619140625,96.32130432128906,-3.652450561523438
181990,0.3726043701171875,1.193267822265625,-0.132080078125,-0.205640509724617,-0.0998826548457145,-0.1359461098909378,32.33621215820312,96.34315490722656,-3.72967529296875
181991,0.3726043701171875,1.193267822265625,-0.132080078125,-0.205640509724617,-0.0998826548457145,-0.1359461098909378,32.33621215820312,96.34315490722656,-3.72967529296875
181992,0.33843994140625,1.416275024414062,-0.1582489013671875,-0.3421552181243896,-0.6063442230224609,-0.1731970757246017,32.05465698242188,96.306884765625,-3.539688110351562
181993,0.1324920654296875,1.519744873046875,-0.2243804931640625,-0.2631999552249908,-0.5365886092185974,-0.1476653516292572,31.82319641113281,96.23435974121094,-3.24261474609375
181994,-0.061431884765625,1.558364868164062,-0.3380584716796875,-0.0608076900243759,-0.4631926715373993,-0.0449445731937885,31.77659606933594,96.34446716308594,-3.07958984375
181995,-0.061431884765625,1.558364868164062,-0.3380584716796875,-0.0608076900243759,-0.4631926715373993,-0.0449445731937885,31.77659606933594,96.34446716308594,-3.07958984375
181996,-0.1804351806640625,1.641098022460938,-0.329620361328125,0.3653353750705719,-0.4170321226119995,0.0764132812619209,31.79351806640625,96.25480651855467,-2.6529541015625
181997,-0.1673126220703125,1.620132446289062,-0.2322998046875,0.4400090575218201,-0.4266969859600067,0.088497906923294,31.91868591308594,96.3962860107422,-2.61724853515625
181998,-0.12371826171875,1.547134399414062,-0.1480865478515625,0.4455433785915375,-0.4546631276607513,0.1450091153383255,31.93582153320312,96.4652099609375,-2.714080810546875
181999,-0.12371826171875,1.547134399414062,-0.1480865478515625,0.4455433785915375,-0.4546631276607513,0.1450091153383255,31.93582153320312,96.4652099609375,-2.714080810546875
182000,0.0142974853515625,1.28326416015625,-0.113922119140625,0.4387153089046478,-0.4940952062606812,0.1993064433336258,32.27549743652344,96.4811553955078,-2.804840087890625
182001,0.0529022216796875,1.132949829101562,-0.0780487060546875,0.436682254076004,-0.5081127285957336,0.2403151392936707,32.39816284179688,96.52439880371094,-3.029220581054688
182002,0.0465850830078125,1.033096313476562,-0.0232391357421875,0.423272430896759,-0.5547937154769897,0.2354617863893509,32.57745361328125,96.59017944335938,-3.202682495117188
182003,0.0465850830078125,1.033096313476562,-0.0232391357421875,0.423272430896759,-0.5547937154769897,0.2354617863893509,32.57745361328125,96.59017944335938,-3.202682495117188
182004,-0.02423095703125,0.9011993408203124,0.1178436279296875,0.2175363153219223,-0.5712368488311768,0.152420699596405,32.80851745605469,96.79005432128906,-3.416717529296875
182005,-0.0738067626953125,0.8732757568359375,0.149383544921875,0.0797321125864982,-0.4843275249004364,0.1267145425081253,33.05445861816406,96.83010864257812,-3.495635986328125
182006,-0.1299591064453125,0.8626556396484375,0.163604736328125,0.0024168186355382,-0.4134528338909149,0.1296772956848145,33.27374267578125,96.76748657226562,-3.505706787109375
182007,-0.1299591064453125,0.8626556396484375,0.163604736328125,0.0024168186355382,-0.4134528338909149,0.1296772956848145,33.27374267578125,96.76748657226562,-3.505706787109375
182008,-0.235198974609375,0.862091064453125,0.166168212890625,0.1074438989162445,-0.3248052597045898,0.1466759890317917,33.65533447265625,96.4990692138672,-3.352752685546875
182009,-0.2459564208984375,0.7931060791015625,0.15985107421875,0.2297794073820114,-0.3080518245697021,0.1271720677614212,33.90446472167969,96.40672302246094,-3.283554077148438
182010,-0.1805267333984375,0.61529541015625,0.0826263427734375,0.4436118006706238,-0.0635856315493583,0.0454588271677494,34.0755615234375,96.5563507080078,-3.309860229492188
182011,-0.1805267333984375,0.61529541015625,0.0826263427734375,0.4436118006706238,-0.0635856315493583,0.0454588271677494,34.0755615234375,96.5563507080078,-3.309860229492188
182012,-0.14276123046875,0.5259552001953125,0.00396728515625,0.4784675240516663,-0.0024764735717326,0.057798583060503,34.09686279296875,96.50733947753906,-3.36407470703125
182013,-0.12347412109375,0.4893341064453125,-0.0625762939453125,0.4194465279579163,-0.0095506282523274,0.0954373031854629,34.12507629394531,96.5457763671875,-3.546127319335938
182014,-0.088226318359375,0.5035247802734375,-0.09979248046875,0.3174320161342621,-0.1033607423305511,0.138434037566185,34.13163757324219,96.67741394042967,-3.860183715820312
182015,-0.03240966796875,0.5534515380859375,-0.07611083984375,0.1036680713295937,-0.2543965876102448,0.1964430212974548,34.15548706054688,96.7779541015625,-4.179168701171875
182016,0.0303192138671875,0.6095123291015625,-0.02130126953125,0.1036680713295937,-0.2543965876102448,0.1964430212974548,34.20669555664062,96.86593627929688,-4.270965576171875
182017,0.0758056640625,0.6459503173828125,0.0252532958984375,0.0756686627864837,-0.2214495688676834,0.1883328855037689,34.28662109375,96.71749877929688,-4.203475952148438
182018,0.1028594970703125,0.6656341552734375,0.0448760986328125,0.2068152278661728,-0.0237620547413826,0.1275326609611511,34.35108947753906,96.832763671875,-4.213394165039062
182019,0.1028594970703125,0.6656341552734375,0.0448760986328125,0.2068152278661728,-0.0237620547413826,0.1275326609611511,34.35108947753906,96.832763671875,-4.213394165039062
182020,0.1238250732421875,0.6400909423828125,-0.0191192626953125,0.4568756818771362,0.0676719844341278,0.0929163545370101,34.60264587402344,96.7529296875,-4.34552001953125
182021,0.1268768310546875,0.5935821533203125,-0.0847320556640625,0.5491629838943481,0.0357918180525302,0.0965025722980499,34.63656616210938,96.96670532226562,-4.38818359375
182022,0.09979248046875,0.5400238037109375,-0.143280029296875,0.5876741409301758,0.0790388956665992,0.050544399768114,34.72618103027344,97.0354461669922,-4.715423583984375
182023,0.09979248046875,0.5400238037109375,-0.143280029296875,0.5876741409301758,0.0790388956665992,0.050544399768114,34.72618103027344,97.0354461669922,-4.715423583984375
182024,0.076751708984375,0.5621185302734375,-0.14410400390625,0.5412842631340027,0.2857851386070251,-0.0046743801794946,34.77326965332031,96.91770935058594,-4.751312255859375
182025,0.0523834228515625,0.5897369384765625,-0.14495849609375,0.5412842631340027,0.2857851386070251,-0.0046743801794946,34.80667114257812,96.96607971191406,-4.942794799804688
182026,0.0396575927734375,0.6292572021484375,-0.1549224853515625,0.4393520653247833,0.669236958026886,-0.0614985153079032,34.72422790527344,97.01521301269533,-5.143600463867188
182027,0.0396575927734375,0.6292572021484375,-0.1549224853515625,0.4393520653247833,0.669236958026886,-0.0614985153079032,34.72422790527344,97.01521301269533,-5.143600463867188
182028,-0.0902862548828125,0.8753662109375,-0.342315673828125,0.1483210325241089,0.7176803350448608,-0.2045249044895172,34.572021484375,97.37049865722656,-6.090606689453125
182029,-0.18798828125,0.987823486328125,-0.408050537109375,0.1483210325241089,0.7176803350448608,-0.2045249044895172,34.36137390136719,97.59149169921876,-6.402694702148438
182030,-0.25128173828125,1.0643310546875,-0.355438232421875,0.1974813789129257,0.4411504864692688,-0.2163514792919159,34.16648864746094,97.60578918457033,-6.607208251953125
182031,-0.26239013671875,1.116134643554688,-0.2203521728515625,0.1222662553191185,0.3937427699565887,-0.1282445192337036,34.05963134765625,97.5956573486328,-6.909835815429688
182032,-0.2050628662109375,1.134780883789062,-0.1096649169921875,0.1222662553191185,0.3937427699565887,-0.1282445192337036,33.86541748046875,97.79209899902344,-7.074172973632812
182033,-0.104705810546875,1.12054443359375,-0.037872314453125,-0.0217907819896936,0.3533399403095245,-0.1378840953111649,33.74998474121094,97.7879638671875,-7.10162353515625
182034,-0.0357513427734375,1.095977783203125,0.00628662109375,-0.2268885374069214,0.14222452044487,-0.2632188498973846,33.6212158203125,97.77960205078124,-7.1766357421875
182035,-0.0357513427734375,1.095977783203125,0.00628662109375,-0.2268885374069214,0.14222452044487,-0.2632188498973846,33.6212158203125,97.77960205078124,-7.1766357421875
182036,0.025543212890625,1.08642578125,0.0883331298828125,-0.280864953994751,0.0015291870804503,-0.2918728590011597,33.4091796875,97.92527770996094,-7.467330932617188
182037,0.013275146484375,1.125900268554688,0.1380615234375,-0.3417789041996002,-0.0265913978219032,-0.2517645955085754,33.21389770507812,97.79910278320312,-7.259933471679688
182038,-0.0032196044921875,1.177230834960938,0.1422119140625,-0.4207373857498169,0.0156103847548365,-0.1380108594894409,33.02024841308594,97.71971130371094,-7.198410034179688
182039,-0.0032196044921875,1.177230834960938,0.1422119140625,-0.4207373857498169,0.0156103847548365,-0.1380108594894409,33.02024841308594,97.71971130371094,-7.198410034179688
182040,0.0256195068359375,1.313827514648438,0.0718231201171875,-0.6151049733161926,-0.1797402054071426,0.0693652257323265,32.67848205566406,97.73924255371094,-7.254104614257812
182041,0.0747222900390625,1.352859497070312,0.05181884765625,-0.7547526359558105,-0.560752272605896,0.0883769989013671,32.71266174316406,97.69833374023438,-6.981170654296875
182042,0.12286376953125,1.371994018554688,0.0390625,-0.7547526359558105,-0.560752272605896,0.0883769989013671,32.75810241699219,97.61279296875,-6.637603759765625
182043,0.12286376953125,1.371994018554688,0.0390625,-0.7547526359558105,-0.560752272605896,0.0883769989013671,32.75810241699219,97.61279296875,-6.637603759765625
182044,0.192169189453125,1.336410522460938,-0.0192413330078125,-0.6383559703826904,-0.7344287037849426,0.0247466247528791,32.82040405273438,97.4559326171875,-5.79754638671875
182045,0.2154083251953125,1.325668334960938,-0.007415771484375,-0.5337334275245667,-0.7402123212814331,0.0133285885676741,32.891845703125,97.3898468017578,-5.39251708984375
182046,0.2283782958984375,1.320907592773438,0.03125,-0.463401734828949,-0.7045491337776184,-0.0048128645867109,32.96209716796875,97.27407836914062,-4.940277099609375
182047,0.2283782958984375,1.320907592773438,0.03125,-0.463401734828949,-0.7045491337776184,-0.0048128645867109,32.96209716796875,97.27407836914062,-4.940277099609375
182048,0.223052978515625,1.23199462890625,0.14739990234375,-0.349117249250412,-0.4824220538139343,-0.0661601126194,33.25669860839844,97.0625,-4.079803466796875
182049,0.2091522216796875,1.15447998046875,0.1513519287109375,-0.1986137628555298,-0.3844848275184631,-0.1298227161169052,33.29666137695312,97.07208251953124,-3.688385009765625
182050,0.1706085205078125,1.0653076171875,0.14727783203125,-0.0840490981936454,-0.2860077917575836,-0.1815599352121353,33.40333557128906,96.92904663085938,-3.358856201171875
182051,0.1706085205078125,1.0653076171875,0.14727783203125,-0.0840490981936454,-0.2860077917575836,-0.1815599352121353,33.40333557128906,96.92904663085938,-3.358856201171875
182052,0.0587921142578125,0.91705322265625,0.102691650390625,-0.0668322965502739,-0.0475368909537792,-0.2108283489942551,33.49911499023438,96.78785705566406,-2.8382568359375
182053,0.00152587890625,0.8798370361328125,0.042388916015625,-0.1206305474042892,0.0560891032218933,-0.2223939299583435,33.56454467773438,96.63490295410156,-2.800445556640625
182054,-0.054107666015625,0.8910064697265625,-0.06536865234375,-0.1710271388292313,0.0995050221681594,-0.2155802249908447,33.54159545898438,96.70277404785156,-2.732879638671875
182055,-0.054107666015625,0.8910064697265625,-0.06536865234375,-0.1710271388292313,0.0995050221681594,-0.2155802249908447,33.54159545898438,96.70277404785156,-2.732879638671875
182056,-0.1089630126953125,1.1192626953125,-0.081207275390625,-0.2445394396781921,-0.0135826542973518,-0.2116640508174896,33.51579284667969,96.57627868652344,-2.708816528320312
182057,-0.1292724609375,1.19598388671875,0.08111572265625,-0.2352820187807083,0.0432974062860012,-0.2251327186822891,33.37240600585938,96.5216827392578,-2.489791870117188
182058,-0.1664886474609375,1.19244384765625,0.2246246337890625,-0.1700846403837204,0.1847727745771408,-0.2495736181735992,33.32177734375,96.49752807617188,-2.30621337890625
182059,-0.1664886474609375,1.19244384765625,0.2246246337890625,-0.1700846403837204,0.1847727745771408,-0.2495736181735992,33.32177734375,96.49752807617188,-2.30621337890625
182060,-0.210113525390625,1.069229125976562,0.247711181640625,-0.037366546690464,0.2647184729576111,-0.3380257189273834,33.2845458984375,96.37060546875,-2.205856323242188
182061,-0.177337646484375,0.9434814453125,0.1722412109375,-0.0257293321192264,-0.2338556349277496,-0.2596552670001984,33.14292907714844,96.2124481201172,-2.143997192382812
182062,-0.0869293212890625,0.8515167236328125,0.11712646484375,-0.0181025713682174,-0.3554742038249969,-0.1407248973846436,33.10084533691406,96.10377502441406,-2.081161499023438
182063,-0.0869293212890625,0.8515167236328125,0.11712646484375,-0.0181025713682174,-0.3554742038249969,-0.1407248973846436,33.10084533691406,96.10377502441406,-2.081161499023438
182064,0.075714111328125,0.9214630126953124,-0.0482025146484375,0.0115429386496543,-0.4063664078712463,-0.0306734908372163,32.97262573242188,95.8864288330078,-2.10125732421875
182065,0.13458251953125,0.9826812744140624,-0.2526092529296875,0.0860371440649032,-0.5836282968521118,0.0763304606080055,32.90652465820312,95.84294128417967,-2.105194091796875
182066,0.1798095703125,1.0743408203125,-0.391204833984375,0.2005285769701004,-0.8847082257270813,0.146966814994812,32.89064025878906,95.61163330078124,-1.956558227539062
182067,0.1798095703125,1.0743408203125,-0.391204833984375,0.2005285769701004,-0.8847082257270813,0.146966814994812,32.89064025878906,95.61163330078124,-1.956558227539062
182068,0.1652374267578125,1.10894775390625,-0.1021270751953125,0.3847745656967163,-0.3764873445034027,0.1370052546262741,33.02644348144531,95.82365417480467,-1.859024047851562
182069,0.091156005859375,1.033416748046875,0.0697479248046875,0.3847745656967163,-0.3764873445034027,0.1370052546262741,33.31625366210938,95.8843994140625,-1.661453247070312
182070,0.0100860595703125,0.952362060546875,0.1559295654296875,0.3186067342758179,-0.1459779739379883,0.0696294084191322,33.48106384277344,96.0694580078125,-1.860992431640625
182071,0.0100860595703125,0.952362060546875,0.1559295654296875,0.3186067342758179,-0.1459779739379883,0.0696294084191322,33.48106384277344,96.0694580078125,-1.860992431640625
182072,-0.065704345703125,0.82147216796875,0.1219329833984375,0.0919584184885025,0.0366035513579845,-0.0905898213386535,33.53507995605469,96.2117919921875,-1.834548950195312
182073,-0.080413818359375,0.7573699951171875,0.042327880859375,0.069724753499031,0.031087877228856,-0.0828589275479316,33.6551513671875,96.18031311035156,-1.921722412109375
182074,-0.080657958984375,0.678009033203125,-0.02178955078125,0.1242652237415314,0.0210746582597494,0.0107296099886298,33.71408081054688,96.1247100830078,-2.071151733398438
182075,-0.080657958984375,0.678009033203125,-0.02178955078125,0.1242652237415314,0.0210746582597494,0.0107296099886298,33.71408081054688,96.1247100830078,-2.071151733398438
182076,-0.04071044921875,0.5974273681640625,-0.033111572265625,0.2430129200220108,0.0932569727301597,0.3326336145401001,33.79750061035156,95.92692565917967,-2.170303344726562
182077,-0.0003204345703125,0.6450042724609375,-0.0028228759765625,0.2269987910985947,0.0965233445167541,0.4153482019901276,33.88168334960938,96.15545654296876,-2.269943237304688
182078,0.011993408203125,0.6396942138671875,0.0857696533203125,0.1531003415584564,0.0585381463170051,0.4563454389572144,34.16462707519531,96.32341003417967,-2.50152587890625
182079,0.011993408203125,0.6396942138671875,0.0857696533203125,0.1531003415584564,0.0585381463170051,0.4563454389572144,34.16462707519531,96.32341003417967,-2.50152587890625
182080,0.03143310546875,0.6521759033203125,0.118408203125,0.1166595071554184,0.0051572113297879,0.4550482034683228,34.36395263671875,96.44168090820312,-2.588241577148438
182081,0.06005859375,0.6763153076171875,0.1420440673828125,0.0699441954493522,-0.0751394927501678,0.4343661069869995,34.49977111816406,96.59507751464844,-2.65814208984375
182082,0.08709716796875,0.709136962890625,0.1490478515625,0.0009922938188537,-0.1708676218986511,0.4103837907314301,34.63252258300781,96.65763854980467,-2.65863037109375
182083,0.08709716796875,0.709136962890625,0.1490478515625,0.0009922938188537,-0.1708676218986511,0.4103837907314301,34.63252258300781,96.65763854980467,-2.65863037109375
182084,0.1244964599609375,0.82904052734375,0.1048126220703125,-0.2344945222139359,-0.5335736274719238,0.3033604025840759,34.89059448242188,96.89021301269533,-2.593917846679688
182085,0.1498870849609375,0.9364776611328124,0.08624267578125,-0.3826597630977631,-0.7685232758522034,0.2288089394569397,35.10671997070312,97.03286743164062,-2.59930419921875
182086,0.2766571044921875,1.345977783203125,-0.0130462646484375,-0.4073147773742676,-0.8108696937561035,0.1167532503604889,35.48759460449219,97.01046752929688,-2.029510498046875
182087,0.2766571044921875,1.345977783203125,-0.0130462646484375,-0.4073147773742676,-0.8108696937561035,0.1167532503604889,35.48759460449219,97.01046752929688,-2.029510498046875
182088,0.2832489013671875,1.607345581054688,-0.0418701171875,-0.0864169150590896,-0.1407158374786377,0.0511646494269371,35.56367492675781,96.91354370117188,-1.761703491210938
182089,0.1374359130859375,1.681961059570312,-0.08270263671875,0.2322960942983627,0.3189055621623993,-0.108164019882679,35.62921142578125,96.98687744140624,-1.541061401367188
182090,-0.051910400390625,1.542953491210938,0.0911407470703125,0.3332836925983429,0.2299455851316452,-0.2452321201562881,35.56068420410156,97.06552124023438,-1.517852783203125
182091,-0.051910400390625,1.542953491210938,0.0911407470703125,0.3332836925983429,0.2299455851316452,-0.2452321201562881,35.56068420410156,97.06552124023438,-1.517852783203125
182092,-0.2496490478515625,1.3831787109375,0.1573028564453125,0.3392121493816376,0.4094354510307312,-0.4431308209896088,35.31187438964844,97.05696105957033,-1.853424072265625
182093,-0.26953125,1.264877319335938,0.013427734375,0.3173510730266571,0.3359966576099396,-0.4184651672840118,35.08320617675781,97.01115417480467,-1.955810546875
182094,-0.2704010009765625,1.144943237304688,-0.0649871826171875,0.2440544813871384,0.2657837271690369,-0.2735652327537537,34.80543518066406,97.07928466796876,-2.274002075195312
182095,-0.2704010009765625,1.144943237304688,-0.0649871826171875,0.2440544813871384,0.2657837271690369,-0.2735652327537537,34.80543518066406,97.07928466796876,-2.274002075195312
182096,-0.1435394287109375,1.15240478515625,-0.3506011962890625,0.0783741697669029,0.2071694284677505,0.051155861467123,34.41439819335938,96.9420166015625,-2.603515625
182097,-0.004974365234375,1.261474609375,-0.5493316650390625,0.1674270778894424,0.1350989639759064,0.1599981933832169,34.39093017578125,97.0012664794922,-2.818878173828125
182098,0.093017578125,1.304534912109375,-0.6058349609375,0.3286175727844238,0.0714864358305931,0.2844463884830475,34.46702575683594,96.94320678710938,-2.858871459960938
182099,0.093017578125,1.304534912109375,-0.6058349609375,0.3286175727844238,0.0714864358305931,0.2844463884830475,34.46702575683594,96.94320678710938,-2.858871459960938
182100,0.1997528076171875,1.224349975585938,-0.34283447265625,0.3714896738529205,0.1823471784591675,0.4398647248744965,34.63359069824219,97.07844543457033,-3.123809814453125
182101,0.232086181640625,1.105026245117188,-0.240020751953125,0.2715097963809967,0.2674961388111115,0.4231959879398346,34.71847534179688,97.14151000976562,-3.234481811523438
182102,0.227203369140625,0.981964111328125,-0.207672119140625,0.136995404958725,0.2396346926689148,0.375827968120575,34.9378662109375,97.18258666992188,-3.366256713867188
182103,0.227203369140625,0.981964111328125,-0.207672119140625,0.136995404958725,0.2396346926689148,0.375827968120575,34.9378662109375,97.18258666992188,-3.366256713867188
182104,0.15374755859375,0.814666748046875,-0.20648193359375,-0.221504420042038,-0.2720126211643219,0.2040311545133591,35.25286865234375,97.20445251464844,-3.688140869140625
182105,0.13323974609375,0.7597198486328125,-0.1554718017578125,-0.3257775604724884,-0.4190859496593475,0.1440586447715759,35.455322265625,97.04640197753906,-3.639389038085938
182106,0.1327667236328125,0.7386474609375,-0.1145172119140625,-0.3495571911334991,-0.3283863961696625,0.1141441464424133,35.60784912109375,97.06549072265624,-3.541030883789062
182107,0.1327667236328125,0.7386474609375,-0.1145172119140625,-0.3495571911334991,-0.3283863961696625,0.1141441464424133,35.60784912109375,97.06549072265624,-3.541030883789062
182108,0.1670684814453125,0.8384246826171875,-0.1507110595703125,-0.1942094266414642,-0.1424980312585831,0.1935002207756042,35.90748596191406,96.91632080078124,-3.203170776367188
182109,0.1702880859375,0.9759979248046876,-0.139617919921875,-0.0186647642403841,-0.0325709916651248,0.2636377513408661,36.070556640625,96.85186767578124,-3.094390869140625
182110,0.12860107421875,1.100540161132812,-0.12066650390625,0.2155394852161407,0.223479688167572,0.2856759428977966,36.15376281738281,96.8446044921875,-2.909591674804688
182111,0.12860107421875,1.100540161132812,-0.12066650390625,0.2155394852161407,0.223479688167572,0.2856759428977966,36.15376281738281,96.8446044921875,-2.909591674804688
182112,0.0212554931640625,1.06103515625,-0.0912628173828125,0.5801523327827454,0.4577049612998962,0.3116638958454132,36.32931518554688,97.03878784179688,-3.149505615234375
182113,0.046356201171875,1.011444091796875,-0.0180816650390625,0.5374400019645691,0.3951169550418854,0.3419948816299438,36.40449523925781,97.17799377441406,-3.253631591796875
182114,0.0586395263671875,0.8909149169921875,0.1533203125,0.1454940885305405,0.3595691025257111,0.3764562010765076,36.68330383300781,97.45217895507812,-3.82958984375
182115,0.0586395263671875,0.8909149169921875,0.1533203125,0.1454940885305405,0.3595691025257111,0.3764562010765076,36.68330383300781,97.45217895507812,-3.82958984375
182116,0.0453643798828125,0.87255859375,0.227081298828125,-0.0926921218633651,0.4927082359790802,0.3950980603694916,36.88404846191406,97.56182861328124,-4.024200439453125
182117,0.0357513427734375,0.87353515625,0.2776031494140625,-0.2974817454814911,0.6581400632858276,0.3995862901210785,37.03648376464844,97.51455688476562,-4.141159057617188
182118,0.0110931396484375,0.9028472900390624,0.3080596923828125,-0.4167855083942413,0.7654976844787598,0.3823750615119934,37.24812316894531,97.54612731933594,-4.240859985351562
182119,0.0110931396484375,0.9028472900390624,0.3080596923828125,-0.4167855083942413,0.7654976844787598,0.3823750615119934,37.24812316894531,97.54612731933594,-4.240859985351562
182120,-0.087921142578125,0.9550933837890624,0.3201751708984375,-0.2546085715293884,0.4527685344219208,0.209674134850502,37.77003479003906,97.5860595703125,-4.10870361328125
182121,-0.1245574951171875,0.956329345703125,0.3458404541015625,-0.2546085715293884,0.4527685344219208,0.209674134850502,37.88688659667969,97.52537536621094,-3.968673706054688
182122,-0.129547119140625,0.9251708984375,0.358184814453125,-0.1570617854595184,0.2471248358488083,0.1558228880167007,38.02236938476562,97.44830322265624,-3.7073974609375
182123,-0.129547119140625,0.9251708984375,0.358184814453125,-0.1570617854595184,0.2471248358488083,0.1558228880167007,38.02236938476562,97.44830322265624,-3.7073974609375
182124,-0.06842041015625,0.826385498046875,0.403717041015625,-0.1393488347530365,0.0065998458303511,0.0117301596328616,38.14112854003906,97.3489990234375,-3.551376342773438
182125,-0.036529541015625,0.757354736328125,0.3495941162109375,-0.1994728893041611,0.0368032865226268,-0.0616921260952949,38.20130920410156,97.2180633544922,-3.204299926757812
182126,-0.013427734375,0.6648406982421875,0.2390289306640625,-0.2130331844091415,-0.1124213486909866,-0.1851131319999695,38.10696411132812,97.28337097167967,-3.22412109375
182127,0.019683837890625,0.588043212890625,0.0941009521484375,-0.2130331844091415,-0.1124213486909866,-0.1851131319999695,38.07354736328125,97.27438354492188,-3.331390380859375
182128,0.069488525390625,0.5355072021484375,-0.0609283447265625,-0.1344169229269028,-0.3933049440383911,-0.2058727443218231,37.8951416015625,97.33021545410156,-3.345840454101562
182129,0.13885498046875,0.5135650634765625,-0.2639007568359375,0.053015548735857,-0.8638095855712891,-0.1841306835412979,37.86050415039062,97.16273498535156,-3.14849853515625
182130,0.2121734619140625,0.51708984375,-0.3876800537109375,0.418009489774704,-1.374568462371826,-0.1026701852679253,37.80599975585938,97.12852478027344,-3.027069091796875
182131,0.2121734619140625,0.51708984375,-0.3876800537109375,0.418009489774704,-1.374568462371826,-0.1026701852679253,37.80599975585938,97.12852478027344,-3.027069091796875
182132,0.1864013671875,0.532440185546875,-0.1037750244140625,1.20163881778717,-0.7610110640525818,-0.0847652181982994,37.70259094238281,97.33624267578124,-3.109588623046875
182133,0.172515869140625,0.5401763916015625,-0.2955780029296875,1.265624403953552,0.1031226590275764,-0.0997955724596977,37.66091918945312,97.54922485351562,-3.379959106445312
182134,0.1139678955078125,0.5931243896484375,-0.5912017822265625,1.166324734687805,0.1423816382884979,-0.1251461952924728,37.59147644042969,97.83575439453124,-3.823684692382812
182135,0.1139678955078125,0.5931243896484375,-0.5912017822265625,1.166324734687805,0.1423816382884979,-0.1251461952924728,37.59147644042969,97.83575439453124,-3.823684692382812
