time_idx,accelerometerAccelerationX(G),accelerometerAccelerationY(G),accelerometerAccelerationZ(G),gyroRotationX(rad/s),gyroRotationY(rad/s),gyroRotationZ(rad/s),magnetometerX(µT),magnetometerY(µT),magnetometerZ(µT)
74989,-0.1595458984375,1.072662353515625,-0.3264312744140625,-0.7494039535522461,0.3539122641086578,-0.3884420096874237,41.82440185546875,88.36817932128906,-4.633438110351562
74990,-0.13348388671875,1.145004272460938,-0.4552154541015625,-0.7942238450050354,0.2131769955158234,-0.4491623640060425,41.42568969726562,88.19218444824219,-4.3826904296875
74991,-0.1043853759765625,1.172515869140625,-0.5751495361328125,-0.7663624286651611,-0.0237498041242361,-0.4632065296173096,40.94160461425781,88.0811767578125,-3.97552490234375
74992,-0.0743865966796875,1.198074340820312,-0.63519287109375,-0.6143377423286438,-0.129243478178978,-0.3799044489860535,40.51275634765625,87.71957397460938,-3.562744140625
74993,-0.0508270263671875,1.2354736328125,-0.6576080322265625,-0.3605640530586243,-0.0443821102380752,-0.211781233549118,40.21684265136719,87.38636779785156,-3.124343872070312
74994,-0.035888671875,1.282821655273438,-0.6703338623046875,-0.0816250890493392,0.1311236619949341,-0.0394006706774234,39.98297119140625,87.06858825683594,-2.796951293945312
74995,-0.01123046875,1.338150024414062,-0.717315673828125,0.1921241730451584,0.2863342761993408,0.1157431080937386,39.87541198730469,86.90193176269531,-2.3653564453125
74996,0.0324554443359375,1.408645629882812,-0.7594451904296875,0.4476118683815002,0.4089334309101105,0.2652644217014313,39.7645263671875,86.71430969238281,-2.173553466796875
74997,0.0757904052734375,1.4842529296875,-0.77880859375,0.6456298828125,0.5436648726463318,0.3667897284030914,39.76347351074219,86.7059326171875,-2.32208251953125
74998,0.120361328125,1.515350341796875,-0.74725341796875,0.7736826539039612,0.6157811880111694,0.4088085293769836,39.72938537597656,86.91694641113281,-2.681503295898438
74999,0.0040283203125,1.397552490234375,-0.6622161865234375,0.9951620101928712,0.6862265467643738,0.380530834197998,39.79946899414062,87.28054809570312,-3.550216674804688
75000,0.0040283203125,1.397552490234375,-0.6622161865234375,0.9951620101928712,0.6862265467643738,0.380530834197998,39.79946899414062,87.28054809570312,-3.550216674804688
75001,-0.1029510498046875,1.293014526367188,-0.65997314453125,1.113002419471741,0.8255394697189331,0.4095723330974579,39.82278442382812,87.56698608398438,-4.02587890625
75002,-0.134307861328125,1.210418701171875,-0.664581298828125,1.120132207870483,0.9324645400047302,0.4362364411354065,39.95046997070312,87.6661376953125,-4.433029174804688
75003,-0.148101806640625,1.155776977539062,-0.6627044677734375,0.9793806672096252,0.884427547454834,0.4353900849819183,40.146728515625,87.92190551757812,-4.951919555664062
75004,-0.180145263671875,1.091278076171875,-0.426727294921875,0.3680813610553741,0.5741873979568481,0.3503404259681702,40.33030700683594,88.21685791015625,-6.16705322265625
75005,-0.180145263671875,1.091278076171875,-0.426727294921875,0.3680813610553741,0.5741873979568481,0.3503404259681702,40.33030700683594,88.21685791015625,-6.16705322265625
75006,-0.19384765625,1.0802001953125,-0.2956695556640625,0.0140375215560197,0.4434189796447754,0.3569658398628235,40.45668029785156,88.41912841796875,-6.674087524414062
75007,-0.2026824951171875,1.144454956054688,-0.0873260498046875,-0.2892850637435913,0.1571051925420761,0.5581000447273254,40.82331848144531,88.53126525878906,-7.223220825195312
75008,-0.2026824951171875,1.144454956054688,-0.0873260498046875,-0.2892850637435913,0.1571051925420761,0.5581000447273254,40.82331848144531,88.53126525878906,-7.223220825195312
75009,-0.1921539306640625,1.218673706054688,-0.043243408203125,-0.253075122833252,-0.0754260495305061,0.6799058318138123,41.08978271484375,88.66583251953125,-7.347137451171875
75010,-0.18023681640625,1.297271728515625,0.0976715087890625,-0.1243246123194695,-0.2258176803588867,0.7723380327224731,41.379150390625,88.78469848632812,-7.27825927734375
75011,-0.1764068603515625,1.346542358398438,0.2604827880859375,0.1060944795608521,-0.1441909968852997,0.8357606530189514,41.90748596191406,88.96624755859375,-7.332183837890625
75012,-0.1696624755859375,1.352508544921875,0.3158416748046875,0.4015032351016998,-0.0277844928205013,0.9092079997062684,42.29299926757812,89.31495666503906,-7.514266967773438
75013,-0.1300048828125,1.323837280273438,0.2706451416015625,0.7260879874229431,-0.0784346237778663,0.889880359172821,42.8087158203125,89.61422729492188,-7.465240478515625
75014,-0.0609588623046875,1.217636108398438,0.2264862060546875,1.006861805915833,-0.231926441192627,0.8101834058761597,43.29081726074219,89.94007873535156,-7.450515747070312
75015,0.054443359375,0.8703460693359375,0.2167205810546875,1.215395927429199,-0.6020578742027283,0.6179039478302002,44.369873046875,90.44834899902344,-7.97674560546875
75016,0.054443359375,0.8703460693359375,0.2167205810546875,1.215395927429199,-0.6020578742027283,0.6179039478302002,44.369873046875,90.44834899902344,-7.97674560546875
75017,0.0926361083984375,0.701263427734375,0.295806884765625,1.136399269104004,-0.5472822785377502,0.5497859120368958,44.72853088378906,90.72122192382812,-8.37060546875
75018,0.134918212890625,0.51513671875,0.2975006103515625,0.9891619086265564,-0.3132162392139435,0.5389833450317383,45.13006591796875,90.70001220703124,-8.6656494140625
75019,0.16168212890625,0.347625732421875,0.2155303955078125,0.8314846754074097,-0.1568396836519241,0.5840528011322021,45.44125366210938,90.63406372070312,-8.76678466796875
75020,0.1600799560546875,0.2402191162109375,0.164031982421875,0.6908066868782043,-0.1044108271598816,0.6330575942993164,45.69378662109375,90.61734008789062,-9.120956420898438
75021,0.1414031982421875,0.2071685791015625,0.134124755859375,0.5371230840682983,-0.1338792443275452,0.6496936082839966,46.02255249023438,90.71145629882812,-9.657516479492188
75022,0.0705108642578125,0.308380126953125,0.16156005859375,0.3061500787734985,-0.1537046134471893,0.5413386225700378,46.3475341796875,90.69259643554688,-10.22267150878906
75023,-0.044342041015625,0.54248046875,0.2263336181640625,-0.0458729490637779,-0.0897527858614921,0.2694562375545502,46.74971008300781,90.79466247558594,-10.51350402832031
75024,-0.146484375,0.7301483154296875,0.2625274658203125,-0.387443333864212,0.0642889738082885,-0.0149930641055107,46.97586059570312,90.8483428955078,-10.62667846679688
75025,-0.210723876953125,0.8319549560546875,0.263092041015625,-0.6375804543495178,0.1615508198738098,-0.3134567141532898,47.05450439453125,90.98001098632812,-10.70585632324219
75026,-0.2769317626953125,0.8886871337890625,0.3321533203125,-0.7798305749893188,0.2988242506980896,-0.5801387429237366,47.14537048339844,91.0120849609375,-10.50570678710938
75027,-0.3486175537109375,0.87982177734375,0.3864593505859375,-0.8496269583702087,0.4779529869556427,-0.751289963722229,47.07443237304688,90.96282958984376,-10.25328063964844
75028,-0.4279327392578125,0.836639404296875,0.4177703857421875,-0.85992032289505,0.6353111863136292,-0.7714064121246338,46.91319274902344,90.95285034179688,-9.930770874023438
75029,-0.5057220458984375,0.79595947265625,0.4204254150390625,-0.8168253302574158,0.6784176230430603,-0.6627382636070251,46.63385009765625,90.7943878173828,-9.65997314453125
75030,-0.5254974365234375,0.80780029296875,0.3846588134765625,-0.7747348546981812,0.5902507901191711,-0.5486689805984497,46.34468078613281,90.89607238769533,-9.583908081054688
75031,-0.489410400390625,0.8798675537109375,0.296417236328125,-0.7768925428390503,0.330440491437912,-0.5416214466094971,46.06947326660156,90.83055114746094,-9.381607055664062
75032,-0.376861572265625,0.915679931640625,0.198699951171875,-0.8521649241447449,-0.4053208529949188,-0.6636067628860474,45.43778991699219,90.50747680664062,-8.7476806640625
75033,-0.376861572265625,0.915679931640625,0.198699951171875,-0.8521649241447449,-0.4053208529949188,-0.6636067628860474,45.43778991699219,90.50747680664062,-8.7476806640625
75034,-0.312286376953125,0.8910064697265625,0.211456298828125,-0.8564744591712952,-0.5635483264923096,-0.6907930970191956,45.19476318359375,90.32415771484376,-8.446365356445312
75035,-0.28533935546875,0.8715362548828125,0.2398529052734375,-0.851629912853241,-0.4564783275127411,-0.6767835021018982,44.82870483398438,89.99479675292969,-8.130477905273438
75036,-0.242828369140625,0.8285675048828125,0.101715087890625,-0.8227282166481018,0.1832435876131058,-0.5868752002716064,44.035400390625,89.51309204101562,-7.25738525390625
75037,-0.242828369140625,0.8285675048828125,0.101715087890625,-0.8227282166481018,0.1832435876131058,-0.5868752002716064,44.035400390625,89.51309204101562,-7.25738525390625
75038,-0.232177734375,0.7957305908203125,0.031951904296875,-0.8123940825462341,0.3048200905323029,-0.5631296634674072,43.71286010742188,89.124755859375,-6.929916381835938
75039,-0.2087860107421875,0.779083251953125,-0.0145721435546875,-0.9504622220993042,0.051088485866785,-0.5367907285690308,43.06982421875,88.59819030761719,-6.112075805664062
75040,-0.2087860107421875,0.779083251953125,-0.0145721435546875,-0.9504622220993042,0.051088485866785,-0.5367907285690308,43.06982421875,88.59819030761719,-6.112075805664062
75041,-0.18841552734375,0.8103485107421875,-0.068115234375,-1.057921767234802,-0.1867011785507202,-0.5198487639427185,42.75637817382812,88.47653198242188,-5.61578369140625
75042,-0.161376953125,0.8675537109375,-0.1171722412109375,-1.122468113899231,-0.45361328125,-0.4966180324554443,42.45726013183594,88.31741333007812,-5.23101806640625
75043,-0.12347412109375,0.9306640625,-0.15087890625,-1.156687259674072,-0.6513724327087402,-0.4517216384410858,42.09786987304688,88.07585144042969,-4.785873413085938
75044,-0.0830078125,0.998565673828125,-0.1815185546875,-1.144076108932495,-0.7374207973480225,-0.4358808994293213,41.79116821289062,87.80085754394531,-4.283798217773438
75045,-0.028839111328125,1.072921752929688,-0.229095458984375,-1.093207955360413,-0.7756677865982056,-0.4126283228397369,41.49685668945312,87.55076599121094,-3.70721435546875
75046,0.0147552490234375,1.177230834960938,-0.2779541015625,-1.002696633338928,-0.7793077826499939,-0.3929912149906158,41.20098876953125,87.29119873046875,-3.077896118164062
75047,0.027435302734375,1.301177978515625,-0.33294677734375,-0.8348746299743652,-0.7329261898994446,-0.3906013071537018,40.95672607421875,86.96455383300781,-2.488388061523438
75048,0.0225677490234375,1.396209716796875,-0.386474609375,-0.5842897891998291,-0.6535397171974182,-0.3652916848659515,40.66360473632812,86.77468872070312,-1.903823852539062
75049,0.012939453125,1.433303833007812,-0.4592742919921875,-0.3008032441139221,-0.530502200126648,-0.3064251840114594,40.50111389160156,86.53086853027344,-1.279464721679688
75050,0.002166748046875,1.446792602539062,-0.5523681640625,0.0131024857982993,-0.4696367383003235,-0.2041403502225876,40.33753967285156,86.42025756835938,-0.8636016845703125
75051,-0.00518798828125,1.42926025390625,-0.6558074951171875,0.3843748271465302,-0.421442836523056,-0.0956876426935195,40.27824401855469,86.19039916992188,-0.4739532470703125
75052,0.007720947265625,1.380844116210938,-0.7291412353515625,0.7908656001091003,-0.3461715281009674,0.0651382580399513,40.23289489746094,86.1009521484375,-0.0326995849609375
75053,0.026275634765625,1.346328735351562,-0.7738800048828125,1.123695015907288,-0.1651703119277954,0.243839830160141,40.27742004394531,86.07879638671875,-0.0749053955078125
75054,0.054412841796875,1.31744384765625,-0.801513671875,1.24373984336853,0.0026937874499708,0.3775070905685425,40.25349426269531,86.23176574707031,-0.1876678466796875
75055,0.095733642578125,1.283645629882812,-0.758392333984375,1.112380862236023,0.0315483398735523,0.4373501837253571,40.40174865722656,86.27549743652344,-0.55364990234375
75056,0.1056060791015625,1.246673583984375,-0.6492919921875,0.8735194802284241,0.047262854874134,0.3918287456035614,40.56974792480469,86.5989990234375,-1.048675537109375
75057,0.0995330810546875,1.1990966796875,-0.5560455322265625,0.7260879874229431,0.1402005106210709,0.3879463970661163,40.71894836425781,86.9071044921875,-1.549652099609375
75058,0.08087158203125,1.20306396484375,-0.481475830078125,0.6720409989356995,0.3339718580245972,0.4079430103302002,40.96481323242188,87.07762145996094,-2.099807739257812
75059,0.0650634765625,1.25140380859375,-0.4120025634765625,0.6215266585350037,0.5264459848403931,0.4276320338249207,41.10145568847656,87.33329772949219,-2.425811767578125
75060,0.0149688720703125,1.422576904296875,-0.2262725830078125,0.3088880777359009,0.6364814043045044,0.2934798300266266,41.65374755859375,87.58511352539062,-2.9351806640625
75061,0.0149688720703125,1.422576904296875,-0.2262725830078125,0.3088880777359009,0.6364814043045044,0.2934798300266266,41.65374755859375,87.58511352539062,-2.9351806640625
75062,-0.0282745361328125,1.510971069335938,-0.1153564453125,0.1158991754055023,0.4790784418582916,0.1537980884313583,41.7969970703125,87.59223937988281,-3.497955322265625
75063,-0.0752105712890625,1.6085205078125,0.00323486328125,0.0444950312376022,0.2343565821647644,0.0215084869414567,42.01274108886719,87.7073974609375,-4.0093994140625
75064,-0.118194580078125,1.683395385742188,0.1163330078125,0.0894870087504386,0.0586763620376586,-0.0685401782393455,42.07969665527344,87.85195922851562,-4.316055297851562
75065,-0.1837615966796875,1.717758178710938,0.199951171875,0.2277383506298065,0.0575067028403282,-0.0859820172190666,42.22525024414062,87.9071044921875,-4.567352294921875
75066,-0.2292022705078125,1.667510986328125,0.1906585693359375,0.456002950668335,0.1556886583566666,-0.0146995838731527,42.21272277832031,88.04835510253906,-4.745407104492188
75067,-0.2460174560546875,1.4200439453125,-0.014404296875,0.9740517139434814,-0.1294029951095581,0.2801211476325989,42.5318603515625,88.40644836425781,-5.125030517578125
75068,-0.2460174560546875,1.4200439453125,-0.014404296875,0.9740517139434814,-0.1294029951095581,0.2801211476325989,42.5318603515625,88.40644836425781,-5.125030517578125
75069,-0.24835205078125,1.276840209960938,-0.0800628662109375,1.091577291488647,-0.4443204700946808,0.3408031165599823,42.78857421875,88.83604431152344,-5.52874755859375
75070,-0.249603271484375,1.141860961914062,-0.0926971435546875,1.175190925598145,-0.7595087885856628,0.3954109847545624,43.0831298828125,89.13383483886719,-5.829483032226562
75071,-0.2525787353515625,1.015090942382812,-0.057342529296875,1.214617967605591,-1.016786098480225,0.4454120993614197,43.43701171875,89.31114196777344,-6.022506713867188
75072,-0.2582550048828125,0.892669677734375,-0.008148193359375,1.266330122947693,-1.249003648757935,0.4505482614040375,43.79373168945312,89.60795593261719,-6.431228637695312
75073,-0.266632080078125,0.7798004150390625,0.0848541259765625,1.341748714447021,-1.351842880249023,0.3795672953128815,44.09465026855469,89.90736389160156,-6.880111694335938
75074,-0.2415618896484375,0.6827850341796875,0.1981201171875,1.414790153503418,-1.283009052276611,0.2778523862361908,44.51010131835938,90.19879150390624,-7.227859497070312
75075,-0.2123870849609375,0.6089630126953125,0.31524658203125,1.4286128282547,-0.9701794385910034,0.1530633121728897,44.92033386230469,90.4892578125,-7.599685668945312
75076,-0.2002716064453125,0.5410308837890625,0.382354736328125,1.330806136131287,-0.4765937030315399,0.0442795790731906,45.34635925292969,90.79031372070312,-7.941787719726562
75077,-0.1965179443359375,0.46356201171875,0.3593292236328125,1.165605425834656,-0.0095703359693288,-0.0386033169925212,45.71598815917969,90.92593383789062,-8.523651123046875
75078,-0.192352294921875,0.3798675537109375,0.3255615234375,0.987456440925598,0.3098678588867188,-0.0551926828920841,45.98843383789062,91.1635284423828,-8.958389282226562
75079,-0.1837921142578125,0.3065948486328125,0.3023223876953125,0.8307406306266785,0.496682733297348,-0.0482572764158248,46.14089965820312,91.22756958007812,-9.30584716796875
75080,-0.1676483154296875,0.2506866455078125,0.270050048828125,0.695919394493103,0.5596228241920471,-0.0393700413405895,46.19461059570312,91.36007690429688,-9.948760986328123
75081,-0.14508056640625,0.2228546142578125,0.2502899169921875,0.5511417388916016,0.5380282998085022,-0.0399207845330238,46.26104736328125,91.43955993652344,-10.42420959472656
75082,-0.1192169189453125,0.2133026123046875,0.2352447509765625,0.3673186302185059,0.4559145271778107,-0.0241945516318082,46.42463684082031,91.4224090576172,-10.83250427246094
75083,-0.111114501953125,0.3611907958984375,0.258575439453125,-0.1239509731531143,0.2376663535833359,0.0754849016666412,46.40130615234375,91.17596435546876,-11.34963989257812
75084,-0.111114501953125,0.3611907958984375,0.258575439453125,-0.1239509731531143,0.2376663535833359,0.0754849016666412,46.40130615234375,91.17596435546876,-11.34963989257812
75085,-0.16552734375,0.5364837646484375,0.2912445068359375,-0.3693466186523438,0.2065305411815643,0.0696773454546928,46.35321044921875,91.18318176269533,-11.60047912597656
75086,-0.23858642578125,0.6815948486328125,0.2888336181640625,-0.5863646864891052,0.1682739555835724,-0.0234443396329879,46.3529052734375,91.07722473144533,-11.65760803222656
75087,-0.270416259765625,0.7932281494140625,0.277008056640625,-0.7690860033035278,0.0482855066657066,-0.1118596866726875,46.39503479003906,91.10960388183594,-11.64067077636719
75088,-0.2838897705078125,0.86572265625,0.32244873046875,-0.9342507719993592,-0.0922074243426322,-0.2066730111837387,46.35807800292969,91.03318786621094,-11.35145568847656
75089,-0.2698516845703125,0.919952392578125,0.382720947265625,-1.107436895370483,-0.1642336845397949,-0.2638018131256104,46.22645568847656,91.05198669433594,-11.12939453125
75090,-0.2367706298828125,0.9599761962890624,0.4282073974609375,-1.275107145309448,-0.1785777360200882,-0.3056358098983765,46.10162353515625,91.13613891601562,-10.85903930664062
75091,-0.1829681396484375,0.9905853271484376,0.4605712890625,-1.431872010231018,-0.1459492146968842,-0.3236632943153381,45.84785461425781,91.24281311035156,-10.53997802734375
75092,-0.13006591796875,1.013763427734375,0.4669036865234375,-1.544913291931152,-0.0667414814233779,-0.3125514984130859,45.74826049804688,91.0701904296875,-9.817764282226562
75093,-0.1263275146484375,1.063766479492188,0.447418212890625,-1.59958827495575,0.0211753267794847,-0.3099914193153381,45.54942321777344,90.89544677734376,-9.184677124023438
75094,-0.155181884765625,1.082290649414062,0.38714599609375,-1.590891718864441,0.0890577062964439,-0.3506336510181427,45.35008239746094,90.75856018066406,-8.605224609375
75095,-0.1856842041015625,1.057418823242188,0.321807861328125,-1.55342161655426,0.0908883586525917,-0.3840829432010651,45.105712890625,90.48658752441406,-7.8133544921875
75096,-0.2229156494140625,1.059478759765625,0.251617431640625,-1.504980564117432,0.0462119691073894,-0.4499623775482178,44.76737976074219,90.130126953125,-7.187774658203125
75097,-0.2561187744140625,1.093734741210938,0.152435302734375,-1.44569993019104,-0.0264840722084045,-0.5451828837394714,44.51795959472656,89.74072265625,-6.51605224609375
75098,-0.270904541015625,1.125,0.045257568359375,-1.365016579627991,-0.0347923338413238,-0.6361104249954224,44.02815246582031,89.41299438476562,-5.985504150390625
75099,-0.1923828125,1.110366821289062,-0.0914154052734375,-1.110154151916504,0.1848968863487244,-0.6673327684402466,43.20458984375,88.53790283203125,-4.747146606445312
75100,-0.1923828125,1.110366821289062,-0.0914154052734375,-1.110154151916504,0.1848968863487244,-0.6673327684402466,43.20458984375,88.53790283203125,-4.747146606445312
75101,-0.1377105712890625,1.126617431640625,-0.1672210693359375,-1.018571496009827,0.1960629820823669,-0.6451544761657715,42.78009033203125,88.13044738769531,-4.086380004882812
75102,-0.095306396484375,1.168777465820312,-0.2541656494140625,-0.9932326078414916,0.1041458398103714,-0.5928646326065063,42.48887634277344,87.76243591308594,-3.483627319335938
75103,-0.057861328125,1.200149536132812,-0.3230743408203125,-0.9425230622291564,0.0214070212095975,-0.5562030673027039,42.11685180664062,87.35771179199219,-2.82696533203125
75104,-0.023529052734375,1.20794677734375,-0.3740081787109375,-0.8180810213088989,-0.0222166217863559,-0.5025265216827393,41.26692199707031,86.78326416015625,-1.990509033203125
75105,-0.00592041015625,1.209701538085938,-0.3929901123046875,-0.6496906876564026,-0.034204576164484,-0.3982096910476685,40.87396240234375,86.48104858398438,-1.607894897460938
75106,-0.0283203125,1.207077026367188,-0.396820068359375,-0.5110233426094055,0.0214807912707328,-0.2657890617847443,40.50790405273438,86.20872497558594,-1.169036865234375
75107,-0.06231689453125,1.20721435546875,-0.440460205078125,-0.3891059458255768,0.0613935850560665,-0.1278357207775116,40.22447204589844,86.05416870117188,-0.7625274658203125
75108,-0.079498291015625,1.218490600585938,-0.51678466796875,-0.2359206527471542,0.0560536831617355,0.005542304366827,40.05734252929688,85.88308715820312,-0.5465545654296875
75109,-0.071563720703125,1.242950439453125,-0.5706329345703125,-0.0224264785647392,0.108891598880291,0.1392441689968109,40.01156616210938,85.85888671875,-0.2772979736328125
75110,-0.02703857421875,1.298553466796875,-0.6062164306640625,0.2548293471336365,0.2694940567016602,0.2822751104831696,39.89495849609375,85.74002075195312,-0.1809234619140625
75111,0.016357421875,1.41583251953125,-0.613189697265625,0.7053978443145752,0.7649621367454529,0.4365639984607697,40.02085876464844,85.86001586914062,-0.3280792236328125
75112,0.016357421875,1.41583251953125,-0.613189697265625,0.7053978443145752,0.7649621367454529,0.4365639984607697,40.02085876464844,85.86001586914062,-0.3280792236328125
75113,-0.0086517333984375,1.437362670898438,-0.56793212890625,0.804409384727478,0.845581591129303,0.4101403951644897,40.11524963378906,85.98245239257812,-0.55596923828125
75114,-0.0609588623046875,1.416748046875,-0.509429931640625,0.8846248984336853,0.8653569221496582,0.3934085369110107,40.18009948730469,86.15853881835938,-0.8451385498046875
75115,-0.1307830810546875,1.371978759765625,-0.4598388671875,0.9936030507087708,0.980659246444702,0.3978144824504852,40.2366943359375,86.34330749511719,-1.316085815429688
75116,-0.1919097900390625,1.228775024414062,-0.417572021484375,1.049722790718079,1.072953224182129,0.3732888996601105,40.26559448242188,86.63909912109375,-2.193206787109375
75117,-0.1919097900390625,1.228775024414062,-0.417572021484375,1.049722790718079,1.072953224182129,0.3732888996601105,40.26559448242188,86.63909912109375,-2.193206787109375
75118,-0.2205352783203125,1.145339965820312,-0.373291015625,0.9495737552642822,0.9169588685035706,0.325692355632782,40.43490600585938,86.909912109375,-2.701629638671875
75119,-0.2553558349609375,1.118667602539062,-0.3260498046875,0.7930177450180054,0.724679708480835,0.2794726490974426,40.54206848144531,87.07310485839844,-3.1875
75120,-0.2657470703125,1.132232666015625,-0.258392333984375,0.6056584715843201,0.5007389783859253,0.2793917059898376,40.53594970703125,87.20132446289062,-3.750946044921875
75121,-0.2570037841796875,1.161453247070312,-0.116058349609375,0.4474968016147614,0.387150913476944,0.3652022182941437,40.61807250976562,87.3453369140625,-4.456085205078125
75122,-0.23492431640625,1.196258544921875,-0.01385498046875,0.3632458448410034,0.3410941958427429,0.5161474943161011,40.76582336425781,87.6282958984375,-5.050506591796875
75123,-0.22161865234375,1.22186279296875,0.064117431640625,0.4073467254638672,0.2769588828086853,0.6747656464576721,41.0721435546875,87.61451721191406,-5.287521362304688
75124,-0.2100982666015625,1.25726318359375,0.1310882568359375,0.5828729867935181,0.2558642625808716,0.793200671672821,41.45989990234375,87.94198608398438,-5.420684814453125
75125,-0.2050018310546875,1.278244018554688,0.1781005859375,0.7902618646621704,0.1723613888025284,0.8859319686889648,41.73611450195312,88.31723022460938,-5.821060180664062
75126,-0.18792724609375,1.258621215820312,0.221923828125,0.9331647157669068,0.0578393302857875,0.949141561985016,42.164794921875,88.79914855957031,-6.170196533203125
75127,-0.06463623046875,1.029632568359375,0.221160888671875,1.030193567276001,-0.3791143000125885,0.7420682311058044,43.162841796875,89.64175415039062,-7.013931274414062
75128,-0.06463623046875,1.029632568359375,0.221160888671875,1.030193567276001,-0.3791143000125885,0.7420682311058044,43.162841796875,89.64175415039062,-7.013931274414062
75129,-0.0241851806640625,0.8669891357421875,0.2286376953125,0.9858356714248656,-0.5393609404563904,0.5855398774147034,43.60296630859375,89.93058776855469,-7.374481201171875
75130,0.0100250244140625,0.701446533203125,0.204864501953125,0.8836584091186523,-0.6307483911514282,0.4932240843772888,44.02723693847656,90.2283935546875,-7.730514526367188
75131,0.0875396728515625,0.5051116943359375,0.169189453125,0.691199779510498,-0.7306193113327026,0.4773859977722168,44.66777038574219,90.39036560058594,-8.419418334960938
75132,0.0875396728515625,0.5051116943359375,0.169189453125,0.691199779510498,-0.7306193113327026,0.4773859977722168,44.66777038574219,90.39036560058594,-8.419418334960938
75133,0.135498046875,0.48651123046875,0.174652099609375,0.6008783578872681,-0.7084804773330688,0.5088326334953308,44.90211486816406,90.36123657226562,-8.727142333984375
75134,0.180572509765625,0.5001983642578125,0.175079345703125,0.5185073614120483,-0.6511926651000977,0.5539135336875916,45.09754943847656,90.48924255371094,-8.89996337890625
75135,0.1880035400390625,0.5705718994140625,0.1812591552734375,0.447638213634491,-0.5477064847946167,0.5593040585517883,45.34844970703125,90.50042724609376,-9.088333129882812
75136,0.111724853515625,0.6679534912109375,0.1838836669921875,0.3516877293586731,-0.3710252046585083,0.4368284642696381,45.51609802246094,90.55014038085938,-9.166015625
75137,-0.0770263671875,0.69818115234375,0.161407470703125,0.2130598127841949,-0.1796264797449112,0.3154772520065308,45.77865600585938,90.6300048828125,-9.3890380859375
75138,-0.2105560302734375,0.74127197265625,0.1208953857421875,0.0403045453131198,-0.0699551180005073,0.1787300705909729,46.03924560546875,90.73724365234376,-9.535140991210938
75139,-0.3404541015625,0.8006744384765625,0.1503448486328125,-0.3472042977809906,0.1082473769783974,-0.1484158337116241,46.29339599609375,90.70285034179688,-9.58966064453125
75140,-0.3404541015625,0.8006744384765625,0.1503448486328125,-0.3472042977809906,0.1082473769783974,-0.1484158337116241,46.29339599609375,90.70285034179688,-9.58966064453125
75141,-0.370269775390625,0.8024444580078125,0.1646881103515625,-0.5048069953918457,0.2623762190341949,-0.2314132452011108,46.28672790527344,90.65733337402344,-9.608352661132812
75142,-0.3796539306640625,0.8178253173828125,0.160491943359375,-0.6233589053153992,0.3659441769123077,-0.2887409925460815,46.20979309082031,90.62020874023438,-9.451675415039062
75143,-0.3663330078125,0.8211669921875,0.1679229736328125,-0.6950741410255432,0.3775243759155273,-0.3293265104293823,46.06532287597656,90.58692932128906,-9.169113159179688
75144,-0.344207763671875,0.81256103515625,0.1865386962890625,-0.7031954526901245,0.3305819034576416,-0.3617704510688782,45.87699890136719,90.65513610839844,-8.953323364257812
75145,-0.3123321533203125,0.79547119140625,0.1944122314453125,-0.6578471064567566,0.2523603439331055,-0.3816983699798584,45.826171875,90.59303283691406,-8.6480712890625
75146,-0.27545166015625,0.8086395263671875,0.196685791015625,-0.5883854627609253,0.191857323050499,-0.3988254070281982,45.74473571777344,90.5546875,-8.438278198242188
75147,-0.2436370849609375,0.8273773193359375,0.1878204345703125,-0.546549916267395,0.1743419766426086,-0.4263404011726379,45.52117919921875,90.41134643554688,-8.096160888671875
75148,-0.2319793701171875,0.83135986328125,0.1693878173828125,-0.5601040720939636,0.1602778285741806,-0.463545024394989,45.25933837890625,90.33253479003906,-7.829513549804688
75149,-0.2277069091796875,0.80572509765625,0.1597900390625,-0.6228638291358948,0.1676909923553467,-0.4840484261512756,44.97793579101562,90.2496337890625,-7.719345092773438
75150,-0.226165771484375,0.777984619140625,0.1490478515625,-0.7011767625808716,0.2123005390167236,-0.4872418344020844,44.73251342773438,90.04385375976562,-7.47833251953125
75151,-0.2295074462890625,0.770721435546875,0.120208740234375,-0.7701113224029541,0.305516242980957,-0.484950453042984,44.49838256835938,89.85942077636719,-7.236846923828125
75152,-0.240447998046875,0.7825164794921875,0.0703277587890625,-0.8198466897010803,0.3637257516384125,-0.4825530648231506,44.21463012695312,89.54751586914062,-6.9447021484375
75153,-0.24993896484375,0.8145599365234375,0.0196990966796875,-0.8377593755722046,0.3753658831119537,-0.5055944919586182,43.92219543457031,89.28225708007812,-6.610565185546875
75154,-0.23553466796875,0.8346405029296875,-0.025848388671875,-0.8427906036376953,0.2836519479751587,-0.5364434719085693,43.66485595703125,89.00347900390625,-6.172012329101562
75155,-0.15985107421875,0.8845367431640625,-0.118438720703125,-0.876427412033081,-0.0178434457629919,-0.5397870540618896,43.04231262207031,88.43948364257812,-5.166519165039062
75156,-0.15985107421875,0.8845367431640625,-0.118438720703125,-0.876427412033081,-0.0178434457629919,-0.5397870540618896,43.04231262207031,88.43948364257812,-5.166519165039062
75157,-0.1079864501953125,0.932952880859375,-0.2068023681640625,-0.8989638686180115,-0.2603223919868469,-0.501349925994873,42.62356567382812,88.2823486328125,-4.872909545898438
75158,-0.0647125244140625,0.9960784912109376,-0.2131805419921875,-0.9196401238441468,-0.4361291229724884,-0.4394849538803101,42.27728271484375,87.99592590332031,-4.566024780273438
75159,-0.0294952392578125,1.054611206054688,-0.1864013671875,-0.9409480690956116,-0.4338196218013763,-0.3733112514019012,41.99934387207031,87.80613708496094,-4.076248168945312
75160,-0.010833740234375,1.134750366210938,-0.218170166015625,-0.9059980511665344,-0.3445509970188141,-0.3428654670715332,41.68278503417969,87.57266235351562,-3.558837890625
75161,0.0206146240234375,1.193161010742188,-0.2900848388671875,-0.7958577275276184,-0.2979184985160828,-0.3377364873886108,41.48306274414062,87.31459045410156,-3.008316040039062
75162,0.030487060546875,1.242813110351562,-0.3499755859375,-0.6209090948104858,-0.261216938495636,-0.3258036673069,41.25178527832031,87.23316955566406,-2.444107055664062
75163,0.0085906982421875,1.303131103515625,-0.4738311767578125,-0.1527293622493744,-0.2920824587345123,-0.2358894944190979,40.80776977539062,86.69979858398438,-1.646865844726562
75164,0.0085906982421875,1.303131103515625,-0.4738311767578125,-0.1527293622493744,-0.2920824587345123,-0.2358894944190979,40.80776977539062,86.69979858398438,-1.646865844726562
75165,-0.005584716796875,1.302520751953125,-0.54876708984375,0.1209826171398163,-0.417924553155899,-0.1535384207963943,40.66627502441406,86.486083984375,-1.423690795898438
75166,0.0143585205078125,1.280517578125,-0.62347412109375,0.4037708938121796,-0.5022125244140625,-0.0474593937397003,40.55331420898438,86.44998168945312,-1.162017822265625
75167,0.1244049072265625,1.230758666992188,-0.74169921875,0.8976408243179321,-0.4028782248497009,0.2147676944732666,40.56971740722656,86.47610473632812,-1.202072143554688
75168,0.1244049072265625,1.230758666992188,-0.74169921875,0.8976408243179321,-0.4028782248497009,0.2147676944732666,40.56971740722656,86.47610473632812,-1.202072143554688
75169,0.1642608642578125,1.261566162109375,-0.71954345703125,1.021843194961548,-0.2120968103408813,0.2881742715835571,40.68083190917969,86.52432250976562,-1.330657958984375
75170,0.172821044921875,1.290237426757812,-0.652435302734375,1.005942821502686,-0.055496547371149,0.3192320466041565,40.74955749511719,86.67800903320312,-1.615997314453125
75171,0.1331024169921875,1.275344848632812,-0.5845489501953125,0.8976983428001404,-0.0395066626369953,0.3264236450195312,40.90827941894531,86.87712097167969,-2.148651123046875
75172,0.055999755859375,1.225753784179688,-0.49639892578125,0.8240826725959778,-0.0450870506465435,0.3622612655162811,40.97746276855469,87.19386291503906,-2.74298095703125
75173,0.027496337890625,1.195297241210938,-0.434844970703125,0.809421181678772,0.0482056103646755,0.4342779517173767,41.31866455078125,87.41517639160156,-3.162399291992188
75174,0.0246734619140625,1.20904541015625,-0.412506103515625,0.7926880121231079,0.1623039543628693,0.4724413156509399,41.5263671875,87.53498840332031,-3.468017578125
75175,0.01171875,1.262161254882812,-0.384674072265625,0.7095659971237183,0.1981647461652756,0.4390551149845123,41.75262451171875,87.72059631347656,-4.040176391601562
75176,-0.01214599609375,1.347076416015625,-0.3393096923828125,0.5478042364120483,0.1312562972307205,0.3426644206047058,42.01666259765625,87.86904907226562,-4.538772583007812
75177,-0.037261962890625,1.437026977539062,-0.23541259765625,0.3528496623039246,-0.0329683348536491,0.219948336482048,42.22015380859375,87.97262573242188,-4.98284912109375
75178,-0.0656890869140625,1.535079956054688,-0.0693359375,0.2515358328819275,-0.1645718961954117,0.0793590024113655,42.45988464355469,88.07963562011719,-5.389862060546875
75179,-0.0907745361328125,1.63079833984375,0.0503997802734375,0.317359060049057,-0.2048652619123459,-0.0329241268336772,42.71316528320312,88.30244445800781,-5.631362915039062
75180,-0.1234893798828125,1.712203979492188,0.115234375,0.5449152588844299,-0.1631921231746674,-0.0781733617186546,42.93864440917969,88.49681091308594,-5.856781005859375
75181,-0.1442413330078125,1.736923217773438,0.1289825439453125,0.8309512734413147,-0.0982096567749977,-0.0829034075140953,43.12014770507812,88.78849792480469,-6.107437133789062
75182,-0.13946533203125,1.652191162109375,0.08074951171875,1.09113597869873,-0.1903443783521652,-0.0144407246261835,43.32023620605469,89.07859802246094,-6.332412719726562
75183,-0.13494873046875,1.453964233398438,0.0239410400390625,1.297554612159729,-0.4216495156288147,0.11419527977705,43.56341552734375,89.42839050292969,-6.63629150390625
75184,-0.131622314453125,1.238265991210938,0.0027618408203125,1.405651330947876,-0.684035062789917,0.1980092227458954,43.71728515625,89.78352355957031,-7.166534423828125
75185,-0.1422882080078125,1.069046020507812,0.0324859619140625,1.395831108093262,-0.9135830402374268,0.2816638946533203,43.90911865234375,90.05508422851562,-7.670700073242188
75186,-0.1607513427734375,0.9465484619140624,0.09930419921875,1.32406747341156,-1.045356750488281,0.3412454724311829,44.18663024902344,90.29559326171876,-8.232009887695312
75187,-0.186065673828125,0.8612060546875,0.133087158203125,1.233829259872437,-1.076527953147888,0.3317358493804932,44.39073181152344,90.63963317871094,-8.592987060546875
75188,-0.2175445556640625,0.781219482421875,0.1344757080078125,1.165651202201843,-1.075558662414551,0.2716093957424164,44.78746032714844,90.80482482910156,-9.00860595703125
75189,-0.24169921875,0.6963348388671875,0.151641845703125,1.133340358734131,-0.9876319766044616,0.1846151202917099,45.08755493164062,91.08277893066406,-9.531082153320312
75190,-0.2438201904296875,0.6242218017578125,0.185028076171875,1.090357542037964,-0.7933788299560547,0.0746103227138519,45.246337890625,91.388916015625,-10.02308654785156
75191,-0.2382659912109375,0.5606689453125,0.1770172119140625,1.015976548194885,-0.5149959325790405,-0.0202224478125572,45.4678955078125,91.57740783691406,-10.63093566894531
75192,-0.2250518798828125,0.50537109375,0.118743896484375,0.911255955696106,-0.3367932140827179,-0.0907418876886367,45.61241149902344,91.7478485107422,-11.07281494140625
75193,-0.2248687744140625,0.4714202880859375,0.0909576416015625,0.7901226282119751,-0.2169269919395447,-0.1297952830791473,45.75175476074219,91.674560546875,-11.41409301757812
75194,-0.2146759033203125,0.420379638671875,0.07952880859375,0.6525391936302185,-0.1514702141284943,-0.1401749551296234,45.70173645019531,91.72146606445312,-11.91099548339844
75195,-0.205291748046875,0.400634765625,0.0914154052734375,0.5033848285675049,-0.0822874158620834,-0.120354637503624,45.79898071289062,91.66104125976562,-12.19380187988281
75196,-0.1813201904296875,0.38525390625,0.1216278076171875,0.3346799910068512,0.0233782939612865,-0.0809662193059921,45.74472045898438,91.6434326171875,-12.46037292480469
75197,-0.1521453857421875,0.39202880859375,0.1567535400390625,0.1524670422077179,0.1408860087394714,-0.0289719961583614,45.64727783203125,91.66232299804688,-12.70957946777344
75198,-0.138580322265625,0.436248779296875,0.190093994140625,-0.0389721654355526,0.2388397455215454,0.0513047315180301,45.69772338867188,91.6427001953125,-12.81143188476562
75199,-0.18682861328125,0.62701416015625,0.235260009765625,-0.4554088115692139,0.3563077747821808,0.091849498450756,45.77349853515625,91.510986328125,-12.89888000488281
75200,-0.18682861328125,0.62701416015625,0.235260009765625,-0.4554088115692139,0.3563077747821808,0.091849498450756,45.77349853515625,91.510986328125,-12.89888000488281
75201,-0.2301788330078125,0.7506256103515625,0.2382049560546875,-0.6520925760269165,0.3254465460777283,0.0639643371105194,45.86149597167969,91.59371948242188,-12.79878234863281
75202,-0.2415313720703125,0.8372955322265625,0.2483367919921875,-0.8187339901924133,0.242980420589447,0.0353561267256736,45.86956787109375,91.62020874023438,-12.72065734863281
75203,-0.2195281982421875,0.876739501953125,0.2594757080078125,-0.9561851024627686,0.1647167801856995,0.0022905848454684,45.9591064453125,91.60125732421876,-12.47402954101562
75204,-0.1747589111328125,0.89569091796875,0.26373291015625,-1.053258895874023,0.1321098357439041,-0.026183133944869,45.99053955078125,91.50636291503906,-12.04454040527344
75205,-0.1392669677734375,0.9227142333984376,0.271697998046875,-1.108779668807983,0.130975067615509,-0.0610814616084098,45.9644775390625,91.45858764648438,-11.698486328125
75206,-0.125885009765625,0.9550628662109376,0.28973388671875,-1.125614285469055,0.1628035604953766,-0.1115046888589859,45.80935668945312,91.35809326171876,-11.2852783203125
75207,-0.1324615478515625,0.9843902587890624,0.30712890625,-1.137722611427307,0.2159549295902252,-0.1948403269052505,45.70884704589844,91.40611267089844,-10.89683532714844
75208,-0.1524200439453125,1.001480102539062,0.3092498779296875,-1.174607753753662,0.2537571787834167,-0.2890552282333374,45.56597900390625,91.23146057128906,-10.5025634765625
75209,-0.1681060791015625,1.016632080078125,0.28692626953125,-1.229310631752014,0.2324649393558502,-0.3759486079216003,45.41908264160156,91.03623962402344,-10.05661010742188
75210,-0.1850128173828125,1.034820556640625,0.25689697265625,-1.259557247161865,0.1735451519489288,-0.4303343296051025,45.22685241699219,90.79161071777344,-9.531936645507812
75211,-0.2062530517578125,1.066909790039062,0.2186431884765625,-1.256975293159485,0.1764357537031174,-0.4766123592853546,45.02662658691406,90.62997436523438,-9.030929565429688
75212,-0.2062530517578125,1.066909790039062,0.2186431884765625,-1.256975293159485,0.1764357537031174,-0.4766123592853546,45.02662658691406,90.62997436523438,-9.030929565429688
75213,-0.2578277587890625,1.108139038085938,-0.0004730224609375,-1.117271423339844,0.1661269217729568,-0.5065255165100098,44.48175048828125,89.91618347167969,-7.819473266601562
75214,-0.2801971435546875,1.069717407226562,-0.0992279052734375,-0.9942320585250854,0.2144142985343933,-0.4693954586982727,44.27572631835938,89.58444213867188,-7.374221801757812
75215,-0.271087646484375,1.032394409179688,-0.193817138671875,-0.8510836958885193,0.2701787650585175,-0.4152336716651917,43.88441467285156,89.32920837402344,-6.77191162109375
75216,-0.23516845703125,1.008941650390625,-0.268096923828125,-0.7185272574424744,0.3088835477828979,-0.3584782481193542,43.53541564941406,89.01823425292969,-6.307083129882812
75217,-0.176910400390625,1.002182006835938,-0.348724365234375,-0.6321929097175598,0.2942217886447906,-0.3127198219299316,43.16920471191406,88.70185852050781,-5.838592529296875
75218,-0.1145782470703125,1.032669067382812,-0.43280029296875,-0.5859073996543884,0.2126933634281158,-0.2941655814647675,42.86109924316406,88.34220886230469,-5.212570190429688
75219,-0.051971435546875,1.060104370117188,-0.48419189453125,-0.5837297439575195,0.0778431296348571,-0.2709137797355652,42.50999450683594,88.17013549804688,-4.698638916015625
75220,-0.011871337890625,1.097854614257812,-0.5562744140625,-0.5344551205635071,-0.1264519542455673,-0.222281277179718,41.82623291015625,87.75433349609375,-3.926773071289062
75221,-0.011871337890625,1.097854614257812,-0.5562744140625,-0.5344551205635071,-0.1264519542455673,-0.222281277179718,41.82623291015625,87.75433349609375,-3.926773071289062
75222,-0.0212249755859375,1.136444091796875,-0.58587646484375,-0.4028707444667816,-0.1283566355705261,-0.1631974428892136,41.64999389648438,87.47541809082031,-3.838699340820312
75223,-0.0234832763671875,1.19134521484375,-0.608428955078125,-0.1951353996992111,-0.0326386354863643,-0.0663007274270057,41.37297058105469,87.429931640625,-3.745635986328125
75224,-0.013641357421875,1.26654052734375,-0.639251708984375,0.046398390084505,0.1646613776683807,0.0392629839479923,41.17782592773438,87.35848999023438,-3.50286865234375
75225,0.035247802734375,1.345428466796875,-0.6816864013671875,0.2863942086696625,0.2950497567653656,0.1454288363456726,41.09628295898438,87.27290344238281,-3.323150634765625
75226,0.07672119140625,1.41961669921875,-0.6746826171875,0.4892240166664124,0.4223121106624603,0.2473251074552536,41.08316040039062,87.20498657226562,-3.251266479492188
75227,0.0867462158203125,1.45648193359375,-0.6591796875,0.6681386232376099,0.5273815393447876,0.2828695178031921,41.05610656738281,87.29768371582031,-3.319778442382812
75228,0.0564422607421875,1.435012817382812,-0.630096435546875,0.8163877725601196,0.5555473566055298,0.2901202440261841,41.0911865234375,87.336181640625,-3.603240966796875
75229,-0.0479278564453125,1.374664306640625,-0.6125640869140625,0.9313303232192992,0.6032456755638123,0.2631685137748718,41.12312316894531,87.48764038085938,-3.8455810546875
75230,-0.1432342529296875,1.26983642578125,-0.6044158935546875,0.9957529902458192,0.6570782661437988,0.2521486282348633,41.19522094726562,87.67826843261719,-4.254714965820312
75231,-0.22528076171875,1.073379516601562,-0.532318115234375,0.8621126413345337,0.636735737323761,0.2184170186519623,41.37565612792969,88.01649475097656,-5.21051025390625
75232,-0.22528076171875,1.073379516601562,-0.532318115234375,0.8621126413345337,0.636735737323761,0.2184170186519623,41.37565612792969,88.01649475097656,-5.21051025390625
75233,-0.2598114013671875,1.00958251953125,-0.4616241455078125,0.6399509310722351,0.5119956731796265,0.2011131346225739,41.42356872558594,88.18684387207031,-5.826202392578125
75234,-0.28826904296875,0.9930267333984376,-0.36151123046875,0.3825673460960388,0.3699455559253693,0.2003304362297058,41.47108459472656,88.26448059082031,-6.162689208984375
75235,-0.2908782958984375,1.0130615234375,-0.2274169921875,0.1937513649463654,0.2619692981243134,0.258036881685257,41.53715515136719,88.41944885253906,-6.581451416015625
75236,-0.255889892578125,1.0653076171875,-0.077178955078125,0.1320179551839828,0.2099662870168686,0.3634306788444519,41.67692565917969,88.66938781738281,-7.061508178710938
75237,-0.2017364501953125,1.139297485351562,0.0276336669921875,0.231397807598114,0.2074088454246521,0.4925492405891418,41.85691833496094,88.76811218261719,-7.276931762695312
75238,-0.134033203125,1.208602905273438,0.0720672607421875,0.4347626566886902,0.2106834650039673,0.6195476651191711,42.01023864746094,88.94059753417969,-7.413681030273438
75239,-0.0557098388671875,1.229400634765625,0.063140869140625,0.6397152543067932,0.2148851454257965,0.7574924826622009,42.27626037597656,88.91737365722656,-7.393753051757812
75240,-0.00030517578125,1.20318603515625,0.02227783203125,0.7806451916694641,0.1396598964929581,0.8658719658851624,42.5958251953125,89.08589172363281,-7.617721557617188
75241,0.0179443359375,1.15692138671875,0.0092315673828125,0.8281171321868896,-0.0013206616276875,0.91155606508255,42.88102722167969,89.26852416992188,-7.94586181640625
75242,0.0136260986328125,1.0938720703125,0.034088134765625,0.8267037868499756,-0.1282551735639572,0.8943978548049927,43.21180725097656,89.41416931152344,-8.199310302734375
75243,0.015533447265625,1.016708374023438,0.0688018798828125,0.8021100163459778,-0.1701493561267853,0.8302007913589478,43.63336181640625,89.58273315429688,-8.558425903320312
75244,0.029937744140625,0.92694091796875,0.0894317626953125,0.7504073977470398,-0.1611313670873642,0.7642022967338562,43.94941711425781,89.89036560058594,-9.019821166992188
75245,0.0427398681640625,0.8541717529296875,0.1078643798828125,0.6707887649536133,-0.0739288181066513,0.6874257922172546,44.28939819335938,90.1639404296875,-9.4107666015625
75246,0.0539093017578125,0.793975830078125,0.1170196533203125,0.5552775859832764,0.098304197192192,0.6130871176719666,44.62577819824219,90.29924011230467,-9.680328369140623
75247,0.0696258544921875,0.7502899169921875,0.1328277587890625,0.3981010317802429,0.3723296225070953,0.5544847846031189,44.94465637207031,90.51583862304688,-9.988876342773438
75248,0.0845184326171875,0.7112579345703125,0.1041107177734375,0.2581402063369751,0.6102918386459351,0.5150052905082703,45.26739501953125,90.70631408691406,-10.30696105957031
75249,0.0824432373046875,0.6849212646484375,0.0754852294921875,0.1665943115949631,0.6840627193450928,0.4935588538646698,45.41726684570312,90.71638488769533,-10.55099487304688
75250,0.0705108642578125,0.6635894775390625,0.077789306640625,0.1057469323277473,0.6597208976745605,0.4533887803554535,45.63058471679688,90.83847045898438,-10.59024047851562
75251,-0.0388946533203125,0.670989990234375,0.219207763671875,-0.0578073747456073,0.6804967522621155,0.2254903763532639,46.18658447265625,90.89314270019533,-10.55825805664062
75252,-0.0388946533203125,0.670989990234375,0.219207763671875,-0.0578073747456073,0.6804967522621155,0.2254903763532639,46.18658447265625,90.89314270019533,-10.55825805664062
75253,-0.1245269775390625,0.739959716796875,0.2504730224609375,-0.1538763791322708,0.7787847518920898,0.0253040250390768,46.52262878417969,90.9949188232422,-10.51364135742188
75254,-0.1819305419921875,0.8406829833984375,0.2450714111328125,-0.2391270995140076,0.7430033087730408,-0.2456308007240295,46.72392272949219,90.99034118652344,-10.54571533203125
75255,-0.2374267578125,0.8694000244140625,0.242767333984375,-0.3104004859924316,0.5766052603721619,-0.4850684106349945,46.88078308105469,91.11354064941406,-10.61663818359375
75256,-0.314727783203125,0.8542938232421875,0.248809814453125,-0.4142605662345886,0.3952676951885223,-0.6416670680046082,46.96424865722656,91.215576171875,-10.58209228515625
75257,-0.3849029541015625,0.8180389404296875,0.237762451171875,-0.521003246307373,0.2415031641721725,-0.7077632546424866,46.89828491210938,91.2503662109375,-10.55526733398438
75258,-0.43389892578125,0.7585601806640625,0.1956024169921875,-0.584587574005127,0.0986975505948066,-0.7202265858650208,46.70716857910156,91.42845153808594,-10.51651000976562
75259,-0.444244384765625,0.706817626953125,0.1511383056640625,-0.5972021222114563,-0.0675105974078178,-0.7058295607566833,46.48294067382812,91.23358154296876,-10.47149658203125
75260,-0.4091339111328125,0.7193756103515625,0.1286773681640625,-0.5927450656890869,-0.2109902650117874,-0.7042271494865417,45.83729553222656,90.88827514648438,-10.12266540527344
75261,-0.353515625,0.7615814208984375,0.09600830078125,-0.6031729578971863,-0.2993494272232056,-0.7561201453208923,45.52532958984375,90.70022583007812,-9.84136962890625
75262,-0.3296661376953125,0.7747650146484375,0.0898895263671875,-0.6234033703804016,-0.3152913749217987,-0.791553795337677,45.08757019042969,90.50997924804688,-9.721267700195312
75263,-0.304473876953125,0.806793212890625,0.0819244384765625,-0.7320305109024048,0.144144132733345,-0.7509437799453735,44.27140808105469,90.01107788085938,-9.027618408203123
75264,-0.304473876953125,0.806793212890625,0.0819244384765625,-0.7320305109024048,0.144144132733345,-0.7509437799453735,44.27140808105469,90.01107788085938,-9.027618408203123
75265,-0.2921600341796875,0.8421478271484375,0.0630035400390625,-0.7628465294837952,0.3628309369087219,-0.707653820514679,43.75730895996094,89.64201354980469,-8.73583984375
75266,-0.287872314453125,0.881561279296875,0.035675048828125,-0.7914214134216309,0.5139946341514587,-0.6884556412696838,43.32456970214844,89.36640930175781,-8.487136840820312
75267,-0.2521514892578125,0.9098663330078124,-0.0907745361328125,-0.924180030822754,0.3040906488895416,-0.6452756524085999,42.557861328125,88.890869140625,-7.613067626953125
75268,-0.2521514892578125,0.9098663330078124,-0.0907745361328125,-0.924180030822754,0.3040906488895416,-0.6452756524085999,42.557861328125,88.890869140625,-7.613067626953125
75269,-0.2106475830078125,0.9284210205078124,-0.172393798828125,-0.9790488481521606,0.0226685609668493,-0.6184866428375244,42.09811401367188,88.65364074707031,-7.046218872070312
75270,-0.1429901123046875,0.947845458984375,-0.240386962890625,-0.9796794652938844,-0.2691473066806793,-0.5584179759025574,41.72135925292969,88.41595458984375,-6.555191040039062
75271,0.0192413330078125,0.989715576171875,-0.178924560546875,-0.9568204879760742,-0.3944530487060547,-0.381324976682663,40.95268249511719,87.8514404296875,-5.69970703125
75272,0.0192413330078125,0.989715576171875,-0.178924560546875,-0.9568204879760742,-0.3944530487060547,-0.381324976682663,40.95268249511719,87.8514404296875,-5.69970703125
75273,0.0540771484375,1.0565185546875,-0.1583709716796875,-0.9835421442985536,-0.2442630082368851,-0.3567432165145874,40.535400390625,87.73390197753906,-5.145370483398438
75274,0.0752716064453125,1.129776000976562,-0.2139892578125,-0.9779177904129028,-0.1819841861724854,-0.402241438627243,40.29946899414062,87.56085205078125,-4.487213134765625
75275,0.0392608642578125,1.173233032226562,-0.37103271484375,-0.7926086783409119,-0.4364678561687469,-0.4721960425376892,39.77426147460938,87.21781921386719,-3.529266357421875
75276,0.0392608642578125,1.173233032226562,-0.37103271484375,-0.7926086783409119,-0.4364678561687469,-0.4721960425376892,39.77426147460938,87.21781921386719,-3.529266357421875
75277,0.0109710693359375,1.15606689453125,-0.447723388671875,-0.5453740954399109,-0.5902574062347412,-0.394066333770752,39.52182006835938,87.02586364746094,-3.085220336914062
75278,0.0201416015625,1.142868041992188,-0.529296875,-0.204539030790329,-0.6802054047584534,-0.2678756415843964,39.34510803222656,86.74638366699219,-2.554702758789062
75279,0.05181884765625,1.13995361328125,-0.600128173828125,0.1878111809492111,-0.6946810483932495,-0.1125438585877419,39.29939270019531,86.63536071777344,-2.14306640625
75280,0.085662841796875,1.143692016601562,-0.65118408203125,0.5724848508834839,-0.5801424980163574,0.058771438896656,39.22866821289062,86.69917297363281,-2.132522583007812
75281,0.1156158447265625,1.166000366210938,-0.685272216796875,0.8767712116241455,-0.3688643276691437,0.2158492058515549,39.21113586425781,86.67398071289062,-2.227310180664062
75282,0.15277099609375,1.2010498046875,-0.6943359375,1.02071750164032,-0.1872441917657852,0.3059199750423431,39.35784912109375,86.65194702148438,-2.42315673828125
75283,0.1715087890625,1.246795654296875,-0.6291351318359375,0.9768157601356506,-0.0863466039299964,0.3597882688045502,39.4754638671875,86.70257568359375,-2.517868041992188
75284,0.14215087890625,1.306076049804688,-0.552398681640625,0.8155003786087036,0.0137568246573209,0.3062419593334198,39.63604736328125,86.91773986816406,-2.889663696289062
75285,0.0844573974609375,1.332672119140625,-0.5057525634765625,0.6821979880332947,0.0515484102070331,0.2599706053733826,39.82640075683594,87.14083862304688,-3.339508056640625
75286,0.021575927734375,1.34613037109375,-0.4566497802734375,0.6498762965202332,0.1378643959760666,0.2721468210220337,40.00675964355469,87.23373413085938,-3.674636840820312
75287,-0.036346435546875,1.453887939453125,-0.3637847900390625,0.6036658883094788,0.3975273966789246,0.2937221527099609,40.31343078613281,87.56196594238281,-4.701217651367188
75288,-0.036346435546875,1.453887939453125,-0.3637847900390625,0.6036658883094788,0.3975273966789246,0.2937221527099609,40.31343078613281,87.56196594238281,-4.701217651367188
75289,-0.0809173583984375,1.5462646484375,-0.289398193359375,0.4572431743144989,0.4222766757011414,0.2164143323898315,40.56047058105469,87.71347045898438,-5.100234985351562
75290,-0.1253509521484375,1.621124267578125,-0.194183349609375,0.247580498456955,0.3691543340682983,0.042904857546091,40.69673156738281,87.87443542480469,-5.470855712890625
75291,-0.2339630126953125,1.638351440429688,-0.0047149658203125,0.1223687902092934,0.2484596073627472,-0.2919407784938812,40.82794189453125,88.03878784179688,-6.152084350585938
75292,-0.2339630126953125,1.638351440429688,-0.0047149658203125,0.1223687902092934,0.2484596073627472,-0.2919407784938812,40.82794189453125,88.03878784179688,-6.152084350585938
75293,-0.3243408203125,1.620208740234375,0.00250244140625,0.2590235769748688,0.163149505853653,-0.3284519016742706,40.89976501464844,88.31147766113281,-6.349044799804688
75294,-0.37109375,1.544448852539062,0.00152587890625,0.4211943745613098,0.101678155362606,-0.2393153756856918,40.91383361816406,88.44894409179688,-6.477005004882812
75295,-0.30718994140625,1.336898803710938,-0.0741729736328125,0.8230576515197754,-0.345828503370285,0.0499885976314544,41.07853698730469,89.004638671875,-6.8951416015625
75296,-0.30718994140625,1.336898803710938,-0.0741729736328125,0.8230576515197754,-0.345828503370285,0.0499885976314544,41.07853698730469,89.004638671875,-6.8951416015625
75297,-0.286712646484375,1.200607299804688,-0.0048828125,1.019057750701904,-0.7128552198410034,0.1682454645633698,41.220458984375,89.31436157226562,-7.201324462890625
75298,-0.2584228515625,1.067459106445312,0.108642578125,1.089088559150696,-0.9010552763938904,0.2355004101991653,41.42597961425781,89.673583984375,-7.384323120117188
75299,-0.2624053955078125,0.8358612060546875,0.2278594970703125,0.9209541082382202,-0.7117841243743896,0.2382221519947052,41.97285461425781,90.10543823242188,-7.895416259765625
75300,-0.2849273681640625,0.7148284912109375,0.1913909912109375,0.8525295257568359,-0.5076432228088379,0.2086802423000336,42.20498657226562,90.4394989013672,-8.391372680664062
75301,-0.2849273681640625,0.7148284912109375,0.1913909912109375,0.8525295257568359,-0.5076432228088379,0.2086802423000336,42.20498657226562,90.4394989013672,-8.391372680664062
75302,-0.3126220703125,0.6232147216796875,0.1669158935546875,0.8327928185462952,-0.2945424318313599,0.1561651080846786,42.50428771972656,90.5611572265625,-8.55145263671875
75303,-0.317535400390625,0.5283660888671875,0.1337890625,0.8071444630622864,-0.0605416409671306,0.109524093568325,42.66496276855469,90.70223999023438,-9.002105712890625
75304,-0.309356689453125,0.4266815185546875,0.0814056396484375,0.7619788646697998,0.1235823929309845,0.0665947422385215,42.82591247558594,90.7002410888672,-9.3697509765625
75305,-0.30072021484375,0.331451416015625,0.046539306640625,0.7170995473861694,0.2665866911411285,0.0523303151130676,42.83721923828125,90.75814819335938,-9.696243286132812
75306,-0.28057861328125,0.2526702880859375,0.049468994140625,0.6486847996711731,0.3943875133991241,0.04774621874094,42.99333190917969,90.80825805664062,-9.907470703125
75307,-0.2354736328125,0.1959381103515625,0.063568115234375,0.5441282987594604,0.5217846035957336,0.0601890385150909,43.00558471679688,90.84002685546876,-10.33720397949219
75308,-0.17169189453125,0.1883392333984375,0.0915679931640625,0.3827292621135712,0.6032658815383911,0.0876821801066398,43.12007141113281,90.80227661132812,-10.56973266601562
75309,-0.097503662109375,0.2368011474609375,0.151885986328125,0.1618626713752747,0.6166328191757202,0.1289795488119125,43.13670349121094,90.78919982910156,-10.88581848144531
75310,-0.0575714111328125,0.3372955322265625,0.2494964599609375,-0.0971947237849235,0.62642902135849,0.1914487928152084,43.17121887207031,90.72346496582033,-11.04608154296875
75311,-0.132415771484375,0.667327880859375,0.410736083984375,-0.673201322555542,0.7764917612075806,0.1973303854465485,43.3016357421875,91.10881042480467,-11.51602172851562
75312,-0.132415771484375,0.667327880859375,0.410736083984375,-0.673201322555542,0.7764917612075806,0.1973303854465485,43.3016357421875,91.10881042480467,-11.51602172851562
75313,-0.1999969482421875,0.8248138427734375,0.428955078125,-0.9218263030052184,0.7274288535118103,0.0946732461452484,43.42935180664062,91.09263610839844,-11.39122009277344
75314,-0.235626220703125,0.9129486083984376,0.455108642578125,-1.122167944908142,0.5777645111083984,-0.00605123443529,43.50668334960938,90.95294189453124,-11.123779296875
75315,-0.21453857421875,0.955230712890625,0.480316162109375,-1.255125164985657,0.3787997663021088,-0.0849926546216011,43.55645751953125,90.97720336914062,-10.87596130371094
75316,-0.21453857421875,0.955230712890625,0.480316162109375,-1.255125164985657,0.3787997663021088,-0.0849926546216011,43.55645751953125,90.97720336914062,-10.87596130371094
75317,-0.1228485107421875,1.013351440429688,0.477996826171875,-1.408084392547607,-0.1134930029511452,-0.2095636129379272,43.54635620117188,90.61029052734376,-9.775711059570312
75318,-0.0748748779296875,1.03472900390625,0.4713134765625,-1.459642052650452,-0.3184123337268829,-0.256537526845932,43.39837646484375,90.45217895507812,-9.179061889648438
75319,-0.0831451416015625,1.074234008789062,0.4790802001953125,-1.483959197998047,-0.4036997854709625,-0.3103477358818054,43.18521118164062,90.35153198242188,-8.600738525390625
75320,-0.1270294189453125,1.109359741210938,0.4389495849609375,-1.498620629310608,-0.3486860692501068,-0.3991862833499908,43.00633239746094,90.16867065429688,-8.061065673828125
75321,-0.1889801025390625,1.126556396484375,0.3109283447265625,-1.510564923286438,-0.3082326650619507,-0.4817543923854828,42.68260192871094,89.80992126464844,-7.505599975585938
75322,-0.2499237060546875,1.159637451171875,0.1014556884765625,-1.461066603660583,-0.3186578750610352,-0.5344085693359375,42.39079284667969,89.34877014160156,-6.943756103515625
75323,-0.3505401611328125,1.060379028320312,-0.185638427734375,-1.093064665794373,-0.175324946641922,-0.4904032647609711,41.77537536621094,88.5389404296875,-5.504043579101562
75324,-0.3505401611328125,1.060379028320312,-0.185638427734375,-1.093064665794373,-0.175324946641922,-0.4904032647609711,41.77537536621094,88.5389404296875,-5.504043579101562
75325,-0.280853271484375,0.9837188720703124,-0.2159881591796875,-0.8797422647476196,-0.1348201334476471,-0.4201402962207794,41.45303344726562,88.31291198730469,-5.055801391601562
75326,-0.2201080322265625,0.9870147705078124,-0.237060546875,-0.7381078600883484,-0.0768329948186874,-0.3821050226688385,41.17178344726562,88.14088439941406,-4.481307983398438
75327,-0.089202880859375,1.085250854492188,-0.3383941650390625,-0.6438450217247009,0.0629017353057861,-0.3433608114719391,40.73777770996094,87.74311828613281,-3.396591186523438
75328,-0.089202880859375,1.085250854492188,-0.3383941650390625,-0.6438450217247009,0.0629017353057861,-0.3433608114719391,40.73777770996094,87.74311828613281,-3.396591186523438
75329,-0.0502471923828125,1.139404296875,-0.34613037109375,-0.6416122317314148,0.1652416884899139,-0.3319116234779358,40.42364501953125,87.65634155273438,-3.1290283203125
75330,-0.0611572265625,1.177398681640625,-0.35894775390625,-0.645342230796814,0.2104650884866714,-0.3003441095352173,40.16719055175781,87.42790222167969,-2.855316162109375
75331,-0.134124755859375,1.198837280273438,-0.4073028564453125,-0.5120574235916138,0.0078331558033823,-0.1789934486150742,39.62535095214844,86.9376220703125,-2.222457885742188
75332,-0.134124755859375,1.198837280273438,-0.4073028564453125,-0.5120574235916138,0.0078331558033823,-0.1789934486150742,39.62535095214844,86.9376220703125,-2.222457885742188
75333,-0.1361236572265625,1.192245483398438,-0.451507568359375,-0.3152216076850891,-0.095283105969429,-0.0689119547605514,39.45204162597656,86.74510192871094,-1.833282470703125
75334,-0.0915985107421875,1.16961669921875,-0.4973297119140625,-0.0345039144158363,-0.0794069394469261,0.0609413795173168,39.367919921875,86.64871215820312,-1.699920654296875
75335,-0.0071258544921875,1.146774291992188,-0.522369384765625,0.2613064348697662,0.0635888278484344,0.2220035046339035,39.30097961425781,86.50025939941406,-1.5220947265625
75336,0.05816650390625,1.151870727539062,-0.5374298095703125,0.507114052772522,0.2923431694507599,0.359685480594635,39.24288940429688,86.59257507324219,-1.624343872070312
75337,0.09515380859375,1.188186645507812,-0.5160064697265625,0.6415845155715942,0.4728908538818359,0.4543107748031616,39.22772216796875,86.60783386230469,-1.640213012695312
75338,0.1058807373046875,1.238327026367188,-0.4643402099609375,0.6599941849708557,0.5880675315856934,0.4918232560157776,39.30734252929688,86.66944885253906,-1.826416015625
75339,0.08123779296875,1.2642822265625,-0.4142913818359375,0.627407431602478,0.6515101194381714,0.4901345670223236,39.49601745605469,86.80632019042969,-1.994552612304688
75340,0.0024871826171875,1.25616455078125,-0.3881378173828125,0.6187082529067993,0.6583116054534912,0.4606131613254547,39.62123107910156,86.87083435058594,-2.138381958007812
75341,-0.09197998046875,1.232513427734375,-0.34100341796875,0.6390071511268616,0.6601504683494568,0.4338201582431793,39.79115295410156,87.08154296875,-2.513031005859375
75342,-0.1754913330078125,1.205841064453125,-0.2863616943359375,0.6326456069946289,0.7189751863479614,0.3915241062641144,39.89439392089844,87.23464965820312,-2.9892578125
75343,-0.247955322265625,1.22198486328125,-0.2301025390625,0.5707747936248779,0.7965024709701538,0.3425829112529755,39.93745422363281,87.48411560058594,-3.560775756835938
75344,-0.306732177734375,1.2471923828125,-0.18670654296875,0.4460006356239319,0.8130888938903809,0.285083144903183,40.12681579589844,87.64814758300781,-3.808609008789062
75345,-0.3428802490234375,1.28253173828125,-0.1572113037109375,0.2553595900535583,0.6945827603340149,0.2284360975027084,40.23707580566406,87.89349365234375,-4.355377197265625
75346,-0.337310791015625,1.302642822265625,-0.0835723876953125,0.0334879197180271,0.4509488046169281,0.225646436214447,40.20475769042969,88.01580810546875,-4.554885864257812
75347,-0.29595947265625,1.302215576171875,0.0348052978515625,-0.0990719869732856,0.2461434602737427,0.324762374162674,40.33758544921875,88.09562683105469,-4.765045166015625
75348,-0.245452880859375,1.284027099609375,0.1049957275390625,-0.0733202844858169,0.1077914461493492,0.5076104998588562,40.41969299316406,88.146728515625,-4.818756103515625
75349,-0.1911773681640625,1.281082153320312,0.1216888427734375,0.1251057237386703,-0.057880874723196,0.7231401205062866,40.59977722167969,88.19342041015625,-4.8642578125
75350,-0.135040283203125,1.25787353515625,0.14068603515625,0.4181594252586365,-0.3017121851444244,0.9065126180648804,40.83758544921875,88.431640625,-5.132522583007812
75351,-0.102752685546875,1.19921875,0.1960296630859375,0.7183828949928284,-0.5281386375427246,1.033879041671753,41.249267578125,88.69575500488281,-5.151702880859375
75352,-0.082611083984375,1.107696533203125,0.2484130859375,0.9589707255363464,-0.6215602159500122,1.014297962188721,41.71063232421875,89.15443420410156,-5.620223999023438
75353,-0.0420989990234375,0.97882080078125,0.2430419921875,1.055225372314453,-0.6576175689697266,0.9048838019371032,42.21040344238281,89.36924743652344,-5.696685791015625
75354,0.0349884033203125,0.8495025634765625,0.2259368896484375,0.9839722514152528,-0.7006550431251526,0.8047963380813599,42.78451538085938,89.51902770996094,-6.011581420898438
75355,0.1070709228515625,0.736846923828125,0.2242889404296875,0.8107905983924866,-0.6868614554405212,0.7092104554176331,43.30818176269531,89.76019287109375,-6.423873901367188
75356,0.1745452880859375,0.652069091796875,0.234527587890625,0.6425296664237976,-0.611711859703064,0.6315039396286011,43.7659912109375,89.89540100097656,-6.657852172851562
75357,0.2231292724609375,0.6115570068359375,0.2350921630859375,0.5145573616027832,-0.4115917980670929,0.5933035612106323,44.11785888671875,90.0072021484375,-7.159027099609375
75358,0.260894775390625,0.5912933349609375,0.1914520263671875,0.429548442363739,-0.1756304055452347,0.5681694149971008,44.45610046386719,90.07261657714844,-7.272613525390625
75359,0.273712158203125,0.580596923828125,0.1425628662109375,0.3774482309818268,0.0425341427326202,0.5413950681686401,44.62287902832031,90.13162231445312,-7.383056640625
75360,0.2462615966796875,0.6056671142578125,0.126007080078125,0.3511044979095459,0.2932420074939728,0.4686353802680969,44.85169982910156,90.14680480957033,-7.404220581054688
75361,0.167327880859375,0.615203857421875,0.1190185546875,0.2922744750976562,0.5159744024276733,0.3426007628440857,45.04927062988281,90.21023559570312,-7.6251220703125
75362,0.0420684814453125,0.6084442138671875,0.128204345703125,0.1898064166307449,0.6422311663627625,0.2630486786365509,45.25093078613281,90.16481018066406,-7.808456420898438
75363,-0.0552520751953125,0.628662109375,0.154876708984375,0.0405522212386131,0.6903381943702698,0.150613471865654,45.41755676269531,90.04753112792969,-7.757766723632812
75364,-0.118560791015625,0.6582183837890625,0.1624298095703125,-0.1257190406322479,0.680306613445282,0.0029273466207087,45.52474975585938,89.99972534179688,-7.819091796875
75365,-0.170196533203125,0.6954193115234375,0.1432647705078125,-0.2640433609485626,0.5977901816368103,-0.1452591866254807,45.57131958007812,90.2151336669922,-8.146652221679688
75366,-0.20391845703125,0.7221832275390625,0.127685546875,-0.3663707971572876,0.4704503417015076,-0.2685233354568481,45.61131286621094,90.29164123535156,-8.25799560546875
75367,-0.225494384765625,0.73760986328125,0.15582275390625,-0.4508622586727142,0.3556356132030487,-0.3567700982093811,45.66056823730469,90.28683471679688,-8.182220458984375
75368,-0.243377685546875,0.7471466064453125,0.1999359130859375,-0.5365859270095825,0.3379410207271576,-0.4274149835109711,45.49838256835938,90.2509307861328,-8.103973388671875
75369,-0.2569732666015625,0.750152587890625,0.2107696533203125,-0.5997816920280457,0.3609890937805176,-0.4806073606014252,45.33468627929688,90.22178649902344,-8.057235717773438
75370,-0.271697998046875,0.764862060546875,0.1782684326171875,-0.6214584708213806,0.3315225541591644,-0.5220309495925903,45.13035583496094,90.1943359375,-7.8258056640625
75371,-0.2798614501953125,0.7880706787109375,0.130462646484375,-0.5958561897277832,0.1938823908567429,-0.5503352880477905,44.96963500976562,90.08270263671876,-7.623519897460938
75372,-0.275054931640625,0.7990875244140625,0.1207275390625,-0.5445194840431213,0.0387039855122566,-0.5676807165145874,44.66854858398438,89.93405151367188,-7.628646850585938
75373,-0.253173828125,0.8318023681640625,0.1607513427734375,-0.5039888620376587,-0.0115772942081093,-0.5938519239425659,44.37226867675781,89.70188903808594,-7.201919555664062
75374,-0.22296142578125,0.846893310546875,0.218353271484375,-0.5101152062416077,0.1193306520581245,-0.6045021414756775,44.01986694335938,89.597900390625,-6.975372314453125
75375,-0.2049102783203125,0.855010986328125,0.2444000244140625,-0.5544163584709167,0.3924777805805206,-0.5923045873641968,43.72932434082031,89.35258483886719,-6.757675170898438
75376,-0.20709228515625,0.875946044921875,0.2225341796875,-0.6186946630477905,0.5890533924102783,-0.596171498298645,43.33714294433594,89.02207946777344,-6.715560913085938
75377,-0.2239837646484375,0.8899078369140625,0.1771087646484375,-0.6613883376121521,0.6145670413970947,-0.6160890460014343,42.99995422363281,88.87612915039062,-6.509658813476562
75378,-0.2484588623046875,0.8913421630859375,0.121795654296875,-0.6881238222122192,0.488946259021759,-0.6227890253067017,42.66107177734375,88.71388244628906,-6.199462890625
75379,-0.2705230712890625,0.90911865234375,0.0377960205078125,-0.7051720023155212,0.2749045491218567,-0.6194248795509338,42.31155395507812,88.39997863769531,-5.832672119140625
75380,-0.2582244873046875,0.9209747314453124,-0.0592193603515625,-0.6960877180099487,0.0085516767576336,-0.5841252207756042,42.02264404296875,88.05943298339844,-5.36785888671875
75381,-0.21905517578125,0.928680419921875,-0.1012115478515625,-0.699724018573761,-0.2239761054515839,-0.5070171356201172,41.60502624511719,87.78279113769531,-4.991668701171875
75382,-0.1516265869140625,0.9490966796875,-0.0965423583984375,-0.733582079410553,-0.308249443769455,-0.4235976040363312,41.23526000976562,87.6807861328125,-4.895767211914062
75383,-0.0835723876953125,1.007583618164062,-0.0980377197265625,-0.7725334763526917,-0.2733828127384186,-0.3750103712081909,40.89573669433594,87.50674438476562,-4.55621337890625
75384,-0.0236663818359375,1.07867431640625,-0.10797119140625,-0.8053960800170898,-0.2303104400634766,-0.366832047700882,40.52169799804688,87.26536560058594,-4.141693115234375
75385,0.0159759521484375,1.141036987304688,-0.1311798095703125,-0.8300873041152954,-0.2456510365009308,-0.3702374398708344,40.24787902832031,87.2066650390625,-3.85284423828125
75386,0.0101776123046875,1.213714599609375,-0.1422271728515625,-0.8085940480232239,-0.2845824658870697,-0.3823905289173126,39.89837646484375,87.09080505371094,-3.480026245117188
75387,-0.0193328857421875,1.280181884765625,-0.1945037841796875,-0.7141801714897156,-0.3607222437858582,-0.3662059605121613,39.63287353515625,86.83172607421875,-2.972869873046875
75388,-0.04669189453125,1.340972900390625,-0.2761993408203125,-0.4944954812526703,-0.4497349262237549,-0.341717928647995,39.51727294921875,86.76220703125,-2.702926635742188
75389,-0.059844970703125,1.376266479492188,-0.364959716796875,-0.1598152369260788,-0.5369651913642883,-0.2652702927589417,39.24324035644531,86.52729797363281,-2.246627807617188
75390,-0.0539703369140625,1.377212524414062,-0.4634552001953125,0.2171690613031387,-0.5336575508117676,-0.1736737936735153,39.1844482421875,86.341552734375,-1.82470703125
75391,0.0588531494140625,1.364456176757812,-0.631988525390625,0.8400859236717224,-0.3301203846931458,0.0097650131210684,38.93180847167969,86.14511108398438,-1.619873046875
75392,0.0588531494140625,1.364456176757812,-0.631988525390625,0.8400859236717224,-0.3301203846931458,0.0097650131210684,38.93180847167969,86.14511108398438,-1.619873046875
75393,0.1050262451171875,1.4146728515625,-0.657928466796875,0.9916075468063354,-0.1794983893632889,0.066343069076538,39.0093994140625,86.06031799316406,-1.76171875
75394,0.13818359375,1.45074462890625,-0.600067138671875,0.9984717965126038,-0.0798607468605041,0.0943019986152648,38.98976135253906,86.19677734375,-1.83026123046875
75395,0.0867919921875,1.440353393554688,-0.470916748046875,0.8310455083847046,-0.0638839080929756,0.1301761120557785,39.162841796875,86.49720764160156,-2.542083740234375
75396,0.0867919921875,1.440353393554688,-0.470916748046875,0.8310455083847046,-0.0638839080929756,0.1301761120557785,39.162841796875,86.49720764160156,-2.542083740234375
75397,0.0417633056640625,1.41168212890625,-0.4107513427734375,0.7968772053718567,0.0028985845856368,0.1854348331689835,39.20744323730469,86.59909057617188,-3.015655517578125
75398,0.0065460205078125,1.410507202148438,-0.3403472900390625,0.7450898885726929,0.1259957551956177,0.2470816969871521,39.34776306152344,86.84109497070312,-3.503738403320312
75399,-0.0140533447265625,1.439239501953125,-0.261566162109375,0.6384118795394897,0.2353912144899368,0.2613517045974731,39.49453735351562,87.0841064453125,-3.826873779296875
75400,-0.0140533447265625,1.439239501953125,-0.261566162109375,0.6384118795394897,0.2353912144899368,0.2613517045974731,39.49453735351562,87.0841064453125,-3.826873779296875
75401,-0.08154296875,1.4910888671875,-0.0661468505859375,0.4145625531673431,0.2950771749019623,0.1080132871866226,39.81056213378906,87.478759765625,-4.681243896484375
75402,-0.1324462890625,1.517135620117188,-0.0228424072265625,0.384194552898407,0.1955311447381973,-0.0417272076010704,39.93925476074219,87.7060546875,-5.0560302734375
75403,-0.234375,1.519256591796875,0.0441436767578125,0.5205385088920593,-0.178181454539299,-0.2612334787845612,40.30586242675781,87.88514709472656,-5.60552978515625
75404,-0.234375,1.519256591796875,0.0441436767578125,0.5205385088920593,-0.178181454539299,-0.2612334787845612,40.30586242675781,87.88514709472656,-5.60552978515625
75405,-0.2559661865234375,1.457809448242188,0.0353851318359375,0.6857969760894775,-0.2058604806661606,-0.2759005427360535,40.34642028808594,88.14909362792969,-5.973541259765625
75406,-0.2563323974609375,1.361434936523438,-0.05926513671875,0.876284122467041,-0.250378429889679,-0.2320263087749481,40.52545166015625,88.16731262207031,-6.289031982421875
75407,-0.23687744140625,1.25146484375,-0.1417388916015625,1.011392116546631,-0.3816962242126465,-0.1607121825218201,40.52346801757812,88.27864074707031,-6.625732421875
75408,-0.2200164794921875,1.152374267578125,-0.1654815673828125,1.052451729774475,-0.5467722415924072,-0.0696563124656677,40.59501647949219,88.47819519042969,-6.956985473632812
75409,-0.2167510986328125,1.075408935546875,-0.1497955322265625,1.063674807548523,-0.7312324047088623,0.0297656189650297,40.59352111816406,88.70237731933594,-7.333816528320312
75410,-0.1998291015625,1.007919311523438,-0.08599853515625,1.082417011260986,-0.8794860243797302,0.0914260521531105,40.72352600097656,88.71554565429688,-7.7022705078125
75411,-0.1695709228515625,0.8353424072265625,0.04412841796875,1.039250612258911,-0.8954325318336487,0.165050745010376,41.27561950683594,89.76953125,-8.313766479492188
75412,-0.1695709228515625,0.8353424072265625,0.04412841796875,1.039250612258911,-0.8954325318336487,0.165050745010376,41.27561950683594,89.76953125,-8.313766479492188
75413,-0.159576416015625,0.743133544921875,0.0506439208984375,1.039095997810364,-0.8580172061920166,0.1363581120967865,41.27561950683594,89.76953125,-8.313766479492188
75414,-0.1607666015625,0.6818695068359375,0.10333251953125,1.078433275222778,-0.7463133335113525,0.0765746682882309,41.59071350097656,90.29963684082033,-9.10791015625
75415,-0.1600341796875,0.573211669921875,0.224090576171875,1.01405394077301,-0.1466187387704849,-0.0820312201976776,41.97114562988281,90.50970458984376,-9.77105712890625
75416,-0.1600341796875,0.573211669921875,0.224090576171875,1.01405394077301,-0.1466187387704849,-0.0820312201976776,41.97114562988281,90.50970458984376,-9.77105712890625
75417,-0.16925048828125,0.4746856689453125,0.21533203125,0.8902156352996826,0.2000667750835419,-0.1329942643642426,42.1085205078125,90.61338806152344,-10.15107727050781
75418,-0.1782989501953125,0.3714141845703125,0.152130126953125,0.7696501016616821,0.3672893345355988,-0.1499205231666565,42.17274475097656,90.55441284179688,-10.49234008789062
75419,-0.205963134765625,0.1915740966796875,0.076934814453125,0.6057460904121399,0.3608660399913788,-0.1363740861415863,42.24520874023438,90.64968872070312,-11.42330932617188
75420,-0.2136383056640625,0.1347198486328125,0.0711822509765625,0.5547375082969666,0.2762960493564606,-0.0939882770180702,42.30439758300781,90.67349243164062,-11.88996887207031
75421,-0.2136383056640625,0.1347198486328125,0.0711822509765625,0.5547375082969666,0.2762960493564606,-0.0939882770180702,42.30439758300781,90.67349243164062,-11.88996887207031
75422,-0.20257568359375,0.117584228515625,0.1129150390625,0.4774169027805328,0.2446033507585526,-0.0406259894371032,42.20761108398438,90.65223693847656,-12.28268432617188
75423,-0.1428375244140625,0.3554840087890625,0.2227020263671875,0.0747634544968605,0.298566997051239,0.121163971722126,42.21559143066406,90.6932373046875,-12.66493225097656
75424,-0.1428375244140625,0.3554840087890625,0.2227020263671875,0.0747634544968605,0.298566997051239,0.121163971722126,42.21559143066406,90.6932373046875,-12.66493225097656
75425,-0.1639404296875,0.5597686767578125,0.2459259033203125,-0.2144105583429337,0.3420849144458771,0.1489705741405487,42.246337890625,90.6041259765625,-12.80107116699219
75426,-0.2046051025390625,0.695159912109375,0.2480316162109375,-0.5040879249572754,0.3036602735519409,0.0972828790545463,42.26499938964844,90.59709167480467,-12.86381530761719
75427,-0.24676513671875,0.8290252685546875,0.3453826904296875,-0.9326435327529908,0.2299575656652451,-0.0200922191143035,42.24803161621094,90.50228881835938,-12.60317993164062
75428,-0.24676513671875,0.8290252685546875,0.3453826904296875,-0.9326435327529908,0.2299575656652451,-0.0200922191143035,42.24803161621094,90.50228881835938,-12.60317993164062
75429,-0.2432708740234375,0.8757476806640625,0.3953704833984375,-1.06053626537323,0.2591085135936737,-0.0619134344160556,42.23171997070312,90.55419921875,-12.18534851074219
75430,-0.2332305908203125,0.9225006103515624,0.3986358642578125,-1.160662889480591,0.2583207786083221,-0.1085626929998398,42.0791015625,90.41847229003906,-11.70475769042969
75431,-0.22796630859375,0.9659271240234376,0.3859100341796875,-1.264297127723694,0.0332290604710578,-0.2299927175045013,41.82640075683594,90.19752502441406,-10.83370971679688
75432,-0.22796630859375,0.9659271240234376,0.3859100341796875,-1.264297127723694,0.0332290604710578,-0.2299927175045013,41.82640075683594,90.19752502441406,-10.83370971679688
75433,-0.2481842041015625,0.99005126953125,0.407379150390625,-1.293675780296326,-0.0485986955463886,-0.2873534858226776,41.66172790527344,89.98834228515625,-10.41883850097656
75434,-0.2599945068359375,1.018692016601562,0.3947296142578125,-1.333025574684143,-0.0997724011540412,-0.3436431288719177,41.5372314453125,89.84205627441406,-10.06521606445312
75435,-0.276580810546875,1.0823974609375,0.236541748046875,-1.342557549476624,-0.2068378627300262,-0.3948895335197449,41.113037109375,89.2803955078125,-8.9005126953125
75436,-0.276580810546875,1.0823974609375,0.236541748046875,-1.342557549476624,-0.2068378627300262,-0.3948895335197449,41.113037109375,89.2803955078125,-8.9005126953125
75437,-0.3052978515625,1.1368408203125,0.0944976806640625,-1.227179884910583,-0.2110115736722946,-0.3882564008235931,40.83242797851562,88.96185302734375,-8.1951904296875
75438,-0.3125,1.119964599609375,-0.0646820068359375,-1.047065734863281,-0.243636354804039,-0.386247307062149,40.52375793457031,88.63848876953125,-7.43402099609375
75439,-0.2063751220703125,1.063812255859375,-0.2122955322265625,-0.7276126146316528,-0.2081542611122131,-0.3516158163547516,39.93544006347656,88.05966186523438,-6.413787841796875
75440,-0.2063751220703125,1.063812255859375,-0.2122955322265625,-0.7276126146316528,-0.2081542611122131,-0.3516158163547516,39.93544006347656,88.05966186523438,-6.413787841796875
75441,-0.1161956787109375,1.067352294921875,-0.252166748046875,-0.6474472284317017,-0.0915128737688064,-0.3551599681377411,39.63699340820312,87.75743103027344,-5.879531860351562
75442,-0.043365478515625,1.113876342773438,-0.30584716796875,-0.6060382723808289,-0.0068901302292943,-0.3682206273078918,39.40452575683594,87.58551025390625,-5.35546875
75443,-0.0045928955078125,1.279022216796875,-0.4323272705078125,-0.6190190315246582,-0.1861666738986969,-0.3763288855552673,38.87960815429688,87.10774230957031,-4.414535522460938
75444,-0.0045928955078125,1.279022216796875,-0.4323272705078125,-0.6190190315246582,-0.1861666738986969,-0.3763288855552673,38.87960815429688,87.10774230957031,-4.414535522460938
75445,-0.044158935546875,1.333343505859375,-0.4261932373046875,-0.6064419746398926,-0.2726206183433533,-0.3561258912086487,38.56997680664062,86.99497985839844,-4.19183349609375
75446,-0.0785064697265625,1.333984375,-0.4478302001953125,-0.478821188211441,-0.2871164679527283,-0.2407851815223694,38.35577392578125,86.89437866210938,-3.90948486328125
75447,-0.0761260986328125,1.3082275390625,-0.613800048828125,0.3430564105510712,0.0565924383699894,0.2331208735704422,37.95376586914062,86.60205078125,-3.169326782226562
75448,-0.0761260986328125,1.3082275390625,-0.613800048828125,0.3430564105510712,0.0565924383699894,0.2331208735704422,37.95376586914062,86.60205078125,-3.169326782226562
75449,-0.0761260986328125,1.3082275390625,-0.613800048828125,0.3430564105510712,0.0565924383699894,0.2331208735704422,37.95376586914062,86.60205078125,-3.169326782226562
75450,-0.0447235107421875,1.336456298828125,-0.67425537109375,0.5758696794509888,0.2411889135837555,0.3795369267463684,37.89997863769531,86.57102966308594,-3.173934936523438
75451,0.0243072509765625,1.462142944335938,-0.6674346923828125,0.7849624752998352,0.5034325122833252,0.4929591119289398,38.20088195800781,86.90615844726562,-3.31939697265625
75452,0.0243072509765625,1.462142944335938,-0.6674346923828125,0.7849624752998352,0.5034325122833252,0.4929591119289398,38.20088195800781,86.90615844726562,-3.31939697265625
75453,-0.0063018798828125,1.481704711914062,-0.61383056640625,0.8041225671768188,0.61971116065979,0.4573971033096313,38.35166931152344,87.10026550292969,-3.556961059570312
75454,-0.0948944091796875,1.453140258789062,-0.57403564453125,0.8541237115859985,0.7211411595344543,0.4148088991641998,38.49951171875,87.27973937988281,-3.911468505859375
75455,-0.2299957275390625,1.333816528320312,-0.5107421875,0.9343003034591676,0.975068211555481,0.3535833656787872,38.71913146972656,87.77684020996094,-4.822250366210938
75456,-0.2299957275390625,1.333816528320312,-0.5107421875,0.9343003034591676,0.975068211555481,0.3535833656787872,38.71913146972656,87.77684020996094,-4.822250366210938
75457,-0.25836181640625,1.260330200195312,-0.4363555908203125,0.8940899968147278,0.9708175659179688,0.2755681872367859,38.89268493652344,87.83157348632812,-5.431365966796875
75458,-0.2887725830078125,1.191986083984375,-0.3351593017578125,0.7709348201751709,0.9112114906311036,0.1882665753364563,38.86636352539062,88.04351806640625,-5.925308227539062
75459,-0.3334197998046875,1.152572631835938,-0.18524169921875,0.3629190921783447,0.5739194750785828,0.137070506811142,39.043212890625,88.21818542480469,-7.04718017578125
75460,-0.3334197998046875,1.152572631835938,-0.18524169921875,0.3629190921783447,0.5739194750785828,0.137070506811142,39.043212890625,88.21818542480469,-7.04718017578125
75461,-0.302398681640625,1.175369262695312,-0.05999755859375,0.1729033291339874,0.3896780014038086,0.2325147390365601,39.10060119628906,88.28834533691406,-7.505126953125
75462,-0.2554931640625,1.192611694335938,0.0536956787109375,0.0914212614297866,0.3093639612197876,0.3619539439678192,39.23110961914062,88.38740539550781,-7.790939331054688
75463,-0.22589111328125,1.211563110351562,0.1071319580078125,0.1508827209472656,0.2848871350288391,0.5286499857902527,39.36033630371094,88.42361450195312,-8.058380126953125
75464,-0.1846466064453125,1.25299072265625,0.1412506103515625,0.3110848963260651,0.3179417550563812,0.7026598453521729,39.48139953613281,88.55174255371094,-8.17236328125
75465,-0.116973876953125,1.265304565429688,0.1702117919921875,0.469864696264267,0.3892428278923035,0.8197790384292603,39.75633239746094,88.76210021972656,-8.426910400390625
75466,-0.06689453125,1.200820922851562,0.1885833740234375,0.5862653255462646,0.4188864827156067,0.842971682548523,40.14077758789062,89.02401733398438,-8.447967529296875
75467,-0.0360107421875,1.105438232421875,0.1768341064453125,0.698671281337738,0.4086820483207703,0.7962633371353149,40.47601318359375,89.33021545410156,-8.659042358398438
75468,-0.0360107421875,1.105438232421875,0.1768341064453125,0.698671281337738,0.4086820483207703,0.7962633371353149,40.47601318359375,89.33021545410156,-8.659042358398438
75469,0.0258331298828125,0.7756195068359375,0.163360595703125,0.8596345782279968,0.1920365542173386,0.5411916375160217,41.30291748046875,89.80982971191406,-9.040283203125
75470,0.0614471435546875,0.590301513671875,0.1719818115234375,0.8105725049972534,0.1022912189364433,0.4594520032405853,41.69461059570312,89.95494079589844,-9.283218383789062
75471,0.1130828857421875,0.40606689453125,0.203582763671875,0.5997382998466492,0.1514851301908493,0.4507975280284882,42.05781555175781,90.234130859375,-10.21658325195312
75472,0.1130828857421875,0.40606689453125,0.203582763671875,0.5997382998466492,0.1514851301908493,0.4507975280284882,42.05781555175781,90.234130859375,-10.21658325195312
75473,0.1394500732421875,0.396209716796875,0.1851043701171875,0.4623860120773315,0.2137367874383926,0.4657059013843536,42.26156616210938,90.22428894042967,-10.48652648925781
75474,0.13970947265625,0.4491119384765625,0.1554412841796875,0.3140431344509125,0.254859447479248,0.4404695332050323,42.45964050292969,90.2720184326172,-10.692626953125
75475,0.003448486328125,0.6101531982421875,0.0501708984375,0.1127886027097702,0.1964949518442154,0.2145229578018188,42.82806396484375,90.26905822753906,-11.01885986328125
75476,0.003448486328125,0.6101531982421875,0.0501708984375,0.1127886027097702,0.1964949518442154,0.2145229578018188,42.82806396484375,90.26905822753906,-11.01885986328125
75477,-0.035400390625,0.621673583984375,-0.02093505859375,0.0725397169589996,0.0857308804988861,0.1362779438495636,42.93901062011719,90.20011901855467,-11.18144226074219
75478,-0.061004638671875,0.64776611328125,-0.03363037109375,0.0144492471590638,0.0090723242610692,0.0620905347168445,43.00460815429688,90.1702117919922,-11.22537231445312
75479,-0.1416473388671875,0.700836181640625,-0.0023040771484375,-0.2249188721179962,0.0601837113499641,-0.0881588906049728,42.96183776855469,90.06045532226562,-11.41902160644531
75480,-0.1416473388671875,0.700836181640625,-0.0023040771484375,-0.2249188721179962,0.0601837113499641,-0.0881588906049728,42.96183776855469,90.06045532226562,-11.41902160644531
75481,-0.1732330322265625,0.713165283203125,0.029205322265625,-0.3147643208503723,0.0821760967373848,-0.1742455661296844,42.89939880371094,90.0962371826172,-11.35980224609375
75482,-0.1878814697265625,0.718963623046875,0.0542449951171875,-0.3927129209041595,0.1235019639134407,-0.2621365487575531,42.84333801269531,90.11004638671876,-11.27874755859375
75483,-0.2145538330078125,0.7330169677734375,0.0512847900390625,-0.4987927675247192,0.1197759360074997,-0.4186470508575439,42.62139892578125,90.03865051269531,-10.99064636230469
75484,-0.2145538330078125,0.7330169677734375,0.0512847900390625,-0.4987927675247192,0.1197759360074997,-0.4186470508575439,42.62139892578125,90.03865051269531,-10.99064636230469
75485,-0.225341796875,0.7578582763671875,0.066986083984375,-0.523324191570282,0.1030507534742355,-0.4716857671737671,42.44013977050781,90.09156799316406,-10.90245056152344
75486,-0.23095703125,0.789886474609375,0.0906219482421875,-0.5373569130897522,0.122730977833271,-0.5018553733825684,42.29627990722656,89.88607788085938,-10.62619018554688
75487,-0.23388671875,0.829559326171875,0.124114990234375,-0.608346700668335,0.2319866269826889,-0.5239114165306091,41.86424255371094,89.37171936035156,-10.24887084960938
75488,-0.23388671875,0.829559326171875,0.124114990234375,-0.608346700668335,0.2319866269826889,-0.5239114165306091,41.86424255371094,89.37171936035156,-10.24887084960938
75489,-0.230010986328125,0.8395843505859375,0.138214111328125,-0.6988433003425598,0.3034408390522003,-0.5237335562705994,41.602294921875,89.27095031738281,-9.999343872070312
75490,-0.234954833984375,0.853851318359375,0.143035888671875,-0.8102563619613647,0.3971462845802307,-0.5274174809455872,41.29017639160156,89.10452270507812,-9.756820678710938
75491,-0.2600860595703125,0.8497772216796875,0.1245880126953125,-0.9870396852493286,0.4614850580692291,-0.5529356002807617,40.78074645996094,88.90281677246094,-9.227981567382812
75492,-0.2600860595703125,0.8497772216796875,0.1245880126953125,-0.9870396852493286,0.4614850580692291,-0.5529356002807617,40.78074645996094,88.90281677246094,-9.227981567382812
75493,-0.2764434814453125,0.854156494140625,0.103759765625,-1.031619906425476,0.4128733277320862,-0.5618388056755066,40.39054870605469,88.84721374511719,-8.915451049804688
75494,-0.2768707275390625,0.8765411376953125,0.049713134765625,-1.070167064666748,0.2790122032165527,-0.5775395035743713,40.10115051269531,88.70997619628906,-8.500732421875
75495,-0.2275390625,0.9358367919921876,-0.0875701904296875,-1.109670758247375,-0.1752983182668686,-0.6220456957817078,39.44696044921875,88.26002502441406,-7.587844848632812
75496,-0.2275390625,0.9358367919921876,-0.0875701904296875,-1.109670758247375,-0.1752983182668686,-0.6220456957817078,39.44696044921875,88.26002502441406,-7.587844848632812
75497,-0.1783905029296875,0.93939208984375,-0.1147308349609375,-1.118140459060669,-0.3750718832015991,-0.5980599522590637,39.17906188964844,87.99006652832031,-7.016433715820312
75498,-0.1332550048828125,0.9849395751953124,-0.08392333984375,-1.143945693969727,-0.4052188694477081,-0.5443048477172852,38.8272705078125,87.80418395996094,-6.417343139648438
75499,-0.1026611328125,1.0736083984375,-0.108062744140625,-1.165441632270813,-0.348557710647583,-0.5316010117530823,38.51316833496094,87.50141906738281,-5.814529418945312
75500,-0.07940673828125,1.152847290039062,-0.167022705078125,-1.157626032829285,-0.3788109719753265,-0.5374003648757935,38.16720581054688,87.50946044921875,-5.488739013671875
75501,-0.0847930908203125,1.256134033203125,-0.2195587158203125,-1.091261982917786,-0.4468368887901306,-0.5418422222137451,37.75535583496094,87.22367858886719,-4.770477294921875
75502,-0.0989532470703125,1.354232788085938,-0.268951416015625,-0.9412383437156676,-0.4653477072715759,-0.5101066827774048,37.49305725097656,87.06930541992188,-4.051605224609375
75503,-0.0911865234375,1.495086669921875,-0.394805908203125,-0.3649801015853882,-0.4677120745182037,-0.3620215952396393,36.84925842285156,86.58216857910156,-2.854522705078125
75504,-0.0571746826171875,1.47125244140625,-0.4718780517578125,-0.0314838886260986,-0.4639996290206909,-0.2471117824316025,36.70832824707031,86.42658996582031,-2.49212646484375
75505,-0.0571746826171875,1.47125244140625,-0.4718780517578125,-0.0314838886260986,-0.4639996290206909,-0.2471117824316025,36.70832824707031,86.42658996582031,-2.49212646484375
75506,-0.0201416015625,1.402694702148438,-0.5719451904296875,0.2898485958576202,-0.535563051700592,-0.1305124759674072,36.56697082519531,86.15182495117188,-2.17047119140625
75507,0.048553466796875,1.31610107421875,-0.6895599365234375,0.8491398692131042,-0.4463284909725189,0.1314805299043655,36.4686279296875,86.08953857421875,-1.768630981445312
75508,0.048553466796875,1.31610107421875,-0.6895599365234375,0.8491398692131042,-0.4463284909725189,0.1314805299043655,36.4686279296875,86.08953857421875,-1.768630981445312
75509,0.068572998046875,1.315338134765625,-0.6819915771484375,0.9767897129058838,-0.2728115618228912,0.2108999788761139,36.55717468261719,86.14979553222656,-1.92510986328125
75510,0.0668487548828125,1.31488037109375,-0.6214752197265625,0.9730865359306335,-0.1088886633515358,0.2334809303283691,36.66885375976562,86.31510925292969,-2.33551025390625
75511,-0.0133209228515625,1.306442260742188,-0.4679107666015625,0.8061348795890808,0.1299119293689728,0.2585026621818542,36.90681457519531,86.75860595703125,-3.166107177734375
75512,-0.0133209228515625,1.306442260742188,-0.4679107666015625,0.8061348795890808,0.1299119293689728,0.2585026621818542,36.90681457519531,86.75860595703125,-3.166107177734375
75513,-0.040313720703125,1.2930908203125,-0.42230224609375,0.7635402679443359,0.2524812519550323,0.2936132550239563,37.07235717773438,86.99693298339844,-3.567764282226562
75514,-0.050384521484375,1.29766845703125,-0.3461456298828125,0.7328822016716003,0.3903033137321472,0.3265101909637451,37.26246643066406,87.0550537109375,-3.853775024414062
75515,-0.086273193359375,1.334671020507812,-0.1958465576171875,0.5896126627922058,0.5288230776786804,0.2619141638278961,37.53654479980469,87.3858642578125,-4.720703125
75516,-0.1287689208984375,1.37310791015625,-0.1565399169921875,0.4557121396064758,0.3461459577083588,0.1613023430109024,37.74615478515625,87.5526123046875,-5.1395263671875
75517,-0.1287689208984375,1.37310791015625,-0.1565399169921875,0.4557121396064758,0.3461459577083588,0.1613023430109024,37.74615478515625,87.5526123046875,-5.1395263671875
75518,-0.1636199951171875,1.428314208984375,-0.0634307861328125,0.3140218555927277,0.1269741952419281,0.0664866119623184,37.90908813476562,87.57577514648438,-5.452255249023438
75519,-0.216339111328125,1.509506225585938,0.1084747314453125,0.2718671858310699,0.1260154545307159,0.0019702066201716,38.36941528320312,87.82052612304688,-6.0809326171875
75520,-0.216339111328125,1.509506225585938,0.1084747314453125,0.2718671858310699,0.1260154545307159,0.0019702066201716,38.36941528320312,87.82052612304688,-6.0809326171875
75521,-0.2281646728515625,1.527938842773438,0.0944366455078125,0.466683030128479,0.2109513878822327,0.0367508232593536,38.51339721679688,88.09132385253906,-6.59344482421875
75522,-0.240020751953125,1.494155883789062,0.0403289794921875,0.7707776427268982,0.1619681268930435,0.0992019474506378,38.56375122070312,88.3721923828125,-6.84344482421875
75523,-0.2202301025390625,1.223556518554688,0.00213623046875,1.331058859825134,-0.2676591277122498,0.2178433835506439,38.83319091796875,88.93333435058594,-7.340133666992188
75524,-0.2202301025390625,1.223556518554688,0.00213623046875,1.331058859825134,-0.2676591277122498,0.2178433835506439,38.83319091796875,88.93333435058594,-7.340133666992188
75525,-0.171844482421875,1.028076171875,0.052642822265625,1.337135910987854,-0.4498827457427979,0.2297176122665405,39.06686401367188,89.21249389648438,-7.825576782226562
75526,-0.1492919921875,0.87060546875,0.0880584716796875,1.23333466053009,-0.5576502084732056,0.2488646805286407,39.24441528320312,89.4666748046875,-8.243316650390625
75527,-0.1417388916015625,0.6728515625,0.12982177734375,1.038205623626709,-0.6501143574714661,0.2036079913377762,39.72140502929688,89.99394226074219,-9.1497802734375
75528,-0.1417388916015625,0.6728515625,0.12982177734375,1.038205623626709,-0.6501143574714661,0.2036079913377762,39.72140502929688,89.99394226074219,-9.1497802734375
75529,-0.169281005859375,0.5926361083984375,0.142333984375,0.974920928478241,-0.5656029582023621,0.1353556960821152,39.96867370605469,90.16102600097656,-9.633804321289062
75530,-0.192596435546875,0.521942138671875,0.1533203125,0.9002310037612915,-0.4106343984603882,0.0406456962227821,40.20266723632812,90.33998107910156,-9.899459838867188
75531,-0.259918212890625,0.4036865234375,0.1329193115234375,0.7140470147132874,-0.0348972640931606,-0.1092788204550743,40.42024230957031,90.432373046875,-10.64471435546875
75532,-0.259918212890625,0.4036865234375,0.1329193115234375,0.7140470147132874,-0.0348972640931606,-0.1092788204550743,40.42024230957031,90.432373046875,-10.64471435546875
75533,-0.2835235595703125,0.3594818115234375,0.1134033203125,0.6106340885162354,0.0750231146812439,-0.1424096077680588,40.52552795410156,90.48207092285156,-10.90879821777344
75534,-0.2962188720703125,0.3281097412109375,0.079345703125,0.5075095295906067,0.1156352534890175,-0.1602418720722198,40.52101135253906,90.44940185546876,-11.28053283691406
75535,-0.21099853515625,0.2863311767578125,0.0319671630859375,0.2935570478439331,-0.0208070110529661,-0.1245334073901176,40.57060241699219,90.47528076171876,-11.8787841796875
75536,-0.21099853515625,0.2863311767578125,0.0319671630859375,0.2935570478439331,-0.0208070110529661,-0.1245334073901176,40.57060241699219,90.47528076171876,-11.8787841796875
75537,-0.1306304931640625,0.3135833740234375,0.0934600830078125,0.1151132732629776,0.0095197353512048,-0.0656394660472869,40.50967407226562,90.41935729980467,-12.11064147949219
75538,-0.0694122314453125,0.3709869384765625,0.1445465087890625,-0.1013846769928932,0.1351173371076584,0.016645023599267,40.42997741699219,90.44589233398438,-12.22721862792969
75539,-0.098846435546875,0.5325164794921875,0.214935302734375,-0.4797463715076447,0.3144434094429016,0.1482581794261932,40.36958312988281,90.28933715820312,-12.09147644042969
75540,-0.1425933837890625,0.6522369384765625,0.250274658203125,-0.6465824842453003,0.3877037763595581,0.1533077955245972,40.3681640625,90.30459594726562,-12.07447814941406
75541,-0.1425933837890625,0.6522369384765625,0.250274658203125,-0.6465824842453003,0.3877037763595581,0.1533077955245972,40.3681640625,90.30459594726562,-12.07447814941406
75542,-0.1801300048828125,0.7711334228515625,0.2699432373046875,-0.837948203086853,0.4148701727390289,0.1169255524873734,40.32948303222656,90.28392028808594,-11.99186706542969
75543,-0.2034759521484375,0.8685760498046875,0.283843994140625,-1.029301404953003,0.3867125511169434,0.0531505681574344,40.39851379394531,90.2799072265625,-11.89224243164062
75544,-0.2099151611328125,0.94219970703125,0.2987518310546875,-1.153827905654907,0.3092824816703796,-0.0168516840785741,40.38525390625,90.22576904296876,-11.59019470214844
75545,-0.194732666015625,0.9973907470703124,0.324188232421875,-1.208646059036255,0.24981489777565,-0.0771168917417526,40.47886657714844,90.2283172607422,-11.37261962890625
75546,-0.1704254150390625,1.050628662109375,0.33477783203125,-1.236212491989136,0.2233808934688568,-0.1404090374708176,40.36752319335938,90.23858642578124,-11.00895690917969
75547,-0.1525726318359375,1.07952880859375,0.344696044921875,-1.300606369972229,0.2696003317832947,-0.2626542747020721,40.13327026367188,89.86058044433594,-10.05464172363281
75548,-0.1525726318359375,1.07952880859375,0.344696044921875,-1.300606369972229,0.2696003317832947,-0.2626542747020721,40.13327026367188,89.86058044433594,-10.05464172363281
75549,-0.1658172607421875,1.089614868164062,0.3110504150390625,-1.343810796737671,0.2854189574718475,-0.3096143007278442,39.99617004394531,89.63365173339844,-9.628616333007812
75550,-0.1988525390625,1.116836547851562,0.2455596923828125,-1.365971803665161,0.2014785259962082,-0.3539074659347534,39.7662353515625,89.45770263671875,-9.008270263671877
75551,-0.241607666015625,1.145156860351562,0.0748291015625,-1.239055395126343,-0.1929391026496887,-0.4861598014831543,39.30326843261719,89.00843811035156,-7.845291137695312
75552,-0.241607666015625,1.145156860351562,0.0748291015625,-1.239055395126343,-0.1929391026496887,-0.4861598014831543,39.30326843261719,89.00843811035156,-7.845291137695312
75553,-0.2389373779296875,1.114486694335938,-0.0191802978515625,-1.111994862556458,-0.3242092430591583,-0.5318343043327332,39.01275634765625,88.74099731445312,-7.226806640625
75554,-0.21612548828125,1.0888671875,-0.128173828125,-0.9757587909698486,-0.3436399102210999,-0.5499355792999268,38.75544738769531,88.35665893554688,-6.585708618164062
75555,-0.107269287109375,1.136520385742188,-0.3272247314453125,-0.7452235817909241,-0.1896546185016632,-0.5727927088737488,38.13232421875,87.71902465820312,-5.654006958007812
75556,-0.107269287109375,1.136520385742188,-0.3272247314453125,-0.7452235817909241,-0.1896546185016632,-0.5727927088737488,38.13232421875,87.71902465820312,-5.654006958007812
75557,-0.0467376708984375,1.180221557617188,-0.35986328125,-0.675002932548523,-0.1026347652077675,-0.5459602475166321,37.81613159179688,87.43572998046875,-5.109375
75558,-0.0228118896484375,1.258880615234375,-0.35369873046875,-0.6409160494804382,-0.0222826693207025,-0.5142409801483154,37.47981262207031,87.15998840332031,-4.634613037109375
75559,-0.1013031005859375,1.332489013671875,-0.327972412109375,-0.5459672212600708,0.0192727632820606,-0.39252969622612,36.77365112304688,86.71044921875,-3.632781982421875
75560,-0.1013031005859375,1.332489013671875,-0.327972412109375,-0.5459672212600708,0.0192727632820606,-0.39252969622612,36.77365112304688,86.71044921875,-3.632781982421875
75561,-0.156494140625,1.328201293945312,-0.341888427734375,-0.4237797558307648,-0.0164293069392442,-0.2619032561779022,36.45346069335938,86.5211181640625,-3.218048095703125
75562,-0.19482421875,1.289474487304688,-0.385894775390625,-0.2396626621484756,-0.0420936569571495,-0.1142898201942444,36.17880249023438,86.50955200195312,-3.033355712890625
75563,-0.173797607421875,1.167572021484375,-0.487823486328125,0.2521089315414429,0.171348050236702,0.1784009039402008,35.8001708984375,86.22879028320312,-2.698394775390625
75564,-0.173797607421875,1.167572021484375,-0.487823486328125,0.2521089315414429,0.171348050236702,0.1784009039402008,35.8001708984375,86.22879028320312,-2.698394775390625
75565,-0.1335296630859375,1.168075561523438,-0.5157318115234375,0.4492893815040588,0.3959763646125793,0.3043159544467926,35.85540771484375,86.14898681640625,-2.476654052734375
75566,-0.1014404296875,1.207077026367188,-0.5233917236328125,0.5902124047279358,0.5819142460823059,0.3945156335830688,35.89994812011719,86.12117004394531,-2.414718627929688
75567,-0.08746337890625,1.331268310546875,-0.4771575927734375,0.6721501350402832,0.8277480006217957,0.4115750193595886,35.98030090332031,86.29573059082031,-2.688369750976562
75568,-0.08746337890625,1.331268310546875,-0.4771575927734375,0.6721501350402832,0.8277480006217957,0.4115750193595886,35.98030090332031,86.29573059082031,-2.688369750976562
75569,-0.1347808837890625,1.352096557617188,-0.455413818359375,0.7099601030349731,0.9079789519309998,0.3814168572425842,36.09439086914062,86.40927124023438,-2.969512939453125
75570,-0.198974609375,1.344345092773438,-0.4120025634765625,0.751435399055481,0.9896429181098938,0.3628754019737244,36.28128051757812,86.56062316894531,-3.37353515625
75571,-0.27972412109375,1.256973266601562,-0.34844970703125,0.7874844670295715,1.077692627906799,0.2852495908737183,36.49800109863281,86.79434204101562,-3.907516479492188
75572,-0.310638427734375,1.209701538085938,-0.2794342041015625,0.73470139503479,1.076593279838562,0.2415737360715866,36.47689819335938,86.91151428222656,-4.354110717773438
75573,-0.310638427734375,1.209701538085938,-0.2794342041015625,0.73470139503479,1.076593279838562,0.2415737360715866,36.47689819335938,86.91151428222656,-4.354110717773438
75574,-0.34429931640625,1.206390380859375,-0.2108306884765625,0.6308037638664246,1.056580901145935,0.2049587368965149,36.5877685546875,86.97624206542969,-4.831192016601562
75575,-0.3159027099609375,1.221481323242188,-0.077545166015625,0.282802402973175,0.856417179107666,0.2696208357810974,36.64370727539062,87.14071655273438,-5.79681396484375
75576,-0.3159027099609375,1.221481323242188,-0.077545166015625,0.282802402973175,0.856417179107666,0.2696208357810974,36.64370727539062,87.14071655273438,-5.79681396484375
75577,-0.267425537109375,1.224807739257812,-0.0121612548828125,0.205400288105011,0.7086072564125061,0.4032015204429626,36.65110778808594,87.25456237792969,-6.530731201171875
75578,-0.212066650390625,1.23468017578125,0.0400238037109375,0.2538833916187286,0.5835614204406738,0.5601645112037659,36.69703674316406,87.51190185546875,-7.06103515625
75579,-0.0864410400390625,1.25335693359375,0.073699951171875,0.5238283276557922,0.3648898303508759,0.8005416989326477,36.9879150390625,87.9757080078125,-7.820098876953125
75580,-0.0864410400390625,1.25335693359375,0.073699951171875,0.5238283276557922,0.3648898303508759,0.8005416989326477,36.9879150390625,87.9757080078125,-7.820098876953125
75581,-0.050201416015625,1.209014892578125,0.1000823974609375,0.6080681085586548,0.2939962148666382,0.8296883702278137,37.37162780761719,88.09671020507812,-7.97998046875
75582,-0.01202392578125,1.143905639648438,0.1073760986328125,0.6676614284515381,0.2583596408367157,0.7845425009727478,37.69137573242188,88.38247680664062,-8.204208374023438
75583,0.0697174072265625,0.8225250244140625,0.12481689453125,0.7626672983169556,0.1567976027727127,0.5168032050132751,38.36360168457031,88.86477661132812,-8.73956298828125
75584,0.0697174072265625,0.8225250244140625,0.12481689453125,0.7626672983169556,0.1567976027727127,0.5168032050132751,38.36360168457031,88.86477661132812,-8.73956298828125
75585,0.09503173828125,0.656494140625,0.1547088623046875,0.7741156816482544,0.1487687081098557,0.3880934119224548,38.67953491210938,89.09866333007812,-9.071792602539062
75586,0.132171630859375,0.5063629150390625,0.15911865234375,0.7591180801391602,0.1541416347026825,0.3473963141441345,38.93780517578125,89.16661071777344,-9.240966796875
75587,0.19158935546875,0.33245849609375,0.1733856201171875,0.6457111239433289,0.0640413016080856,0.4752427041530609,39.30642700195312,89.5462646484375,-9.876007080078123
75588,0.19158935546875,0.33245849609375,0.1733856201171875,0.6457111239433289,0.0640413016080856,0.4752427041530609,39.30642700195312,89.5462646484375,-9.876007080078123
75589,0.1986541748046875,0.330291748046875,0.184661865234375,0.5183342099189758,0.0632548704743385,0.5304700136184692,39.60673522949219,89.55967712402344,-10.09854125976562
75590,0.1804962158203125,0.390899658203125,0.168701171875,0.3555972576141357,0.0363478884100914,0.5036807060241699,39.76710510253906,89.53538513183594,-10.32203674316406
75591,0.015838623046875,0.5430755615234375,0.1603240966796875,-0.019496202468872,-0.1280959099531174,0.1784720122814178,40.18408203125,89.71009826660156,-10.95591735839844
75592,0.015838623046875,0.5430755615234375,0.1603240966796875,-0.019496202468872,-0.1280959099531174,0.1784720122814178,40.18408203125,89.71009826660156,-10.95591735839844
75593,-0.0771484375,0.5665435791015625,0.1376800537109375,-0.1647426038980484,-0.1944400519132614,0.0421599708497524,40.33711242675781,89.81744384765625,-10.95606994628906
75594,-0.1264495849609375,0.61456298828125,0.0977783203125,-0.3061271607875824,-0.2868613302707672,-0.1062121912837029,40.45240783691406,89.74363708496094,-10.95550537109375
75595,-0.224578857421875,0.6840667724609375,0.117584228515625,-0.5896915197372437,-0.3598162233829498,-0.3889991343021393,40.47177124023438,89.69602966308594,-10.66551208496094
75596,-0.224578857421875,0.6840667724609375,0.117584228515625,-0.5896915197372437,-0.3598162233829498,-0.3889991343021393,40.47177124023438,89.69602966308594,-10.66551208496094
75597,-0.2703857421875,0.7020416259765625,0.13079833984375,-0.6789728999137878,-0.2510026693344116,-0.4862942695617676,40.32632446289062,89.50247192382812,-10.27822875976562
75598,-0.3087310791015625,0.7347259521484375,0.108856201171875,-0.7140917778015137,-0.1542614698410034,-0.5357379913330078,40.15791320800781,89.33399963378906,-10.05140686035156
75599,-0.325531005859375,0.789947509765625,0.0897979736328125,-0.6855255961418152,-0.1337045282125473,-0.5721231698989868,39.93994140625,89.33091735839844,-10.01040649414062
75600,-0.3250579833984375,0.825775146484375,0.1264801025390625,-0.61544269323349,-0.0966469123959541,-0.5778145790100098,39.66973876953125,89.20463562011719,-9.780181884765623
75601,-0.31536865234375,0.87933349609375,0.161865234375,-0.5397108793258667,-0.0046011433005332,-0.5720062255859375,39.47874450683594,89.07112121582031,-9.463150024414062
75602,-0.2978057861328125,0.919830322265625,0.1715087890625,-0.4969359934329987,0.0997135415673255,-0.5577503442764282,39.14968872070312,88.92732238769531,-9.297119140625
75603,-0.288848876953125,0.9263763427734376,0.1829986572265625,-0.5185081362724304,0.2310374826192856,-0.5436782240867615,38.82171630859375,88.73629760742188,-9.019989013671877
75604,-0.284515380859375,0.9029541015625,0.18121337890625,-0.597142219543457,0.3588351309299469,-0.5287581086158752,38.59381103515625,88.65972900390625,-8.876068115234375
75605,-0.290924072265625,0.84625244140625,0.180755615234375,-0.680010199546814,0.4396138489246368,-0.5152137875556946,38.31831359863281,88.40312194824219,-8.581817626953125
75606,-0.3049163818359375,0.81646728515625,0.16845703125,-0.7435170412063599,0.458693265914917,-0.5010247826576233,38.07853698730469,88.16807556152344,-8.237228393554688
75607,-0.32684326171875,0.8433837890625,0.058929443359375,-0.8128740191459656,0.2162590622901917,-0.5389183163642883,37.50303649902344,87.90586853027344,-7.795989990234375
75608,-0.32684326171875,0.8433837890625,0.058929443359375,-0.8128740191459656,0.2162590622901917,-0.5389183163642883,37.50303649902344,87.90586853027344,-7.795989990234375
75609,-0.3115386962890625,0.8758087158203125,-0.0381622314453125,-0.8469395637512207,-0.0383524484932422,-0.566064715385437,37.29371643066406,87.87887573242188,-7.489578247070312
75610,-0.272979736328125,0.9127197265625,-0.1190185546875,-0.8887706398963928,-0.3279483020305634,-0.568228542804718,37.08694458007812,87.57974243164062,-7.072967529296875
75611,-0.2154998779296875,0.9604339599609376,-0.142578125,-0.9156355261802672,-0.5428633093833923,-0.5356841683387756,36.70292663574219,87.42579650878906,-6.788360595703125
75612,-0.14776611328125,1.008026123046875,-0.1414031982421875,-0.9393941164016724,-0.6088630557060242,-0.4882189333438873,36.45095825195312,87.06263732910156,-6.09429931640625
75613,-0.0888671875,1.087478637695312,-0.136932373046875,-0.9651042819023132,-0.5637879967689514,-0.4571326673030853,36.21994018554688,86.71365356445312,-5.248580932617188
75614,-0.0535888671875,1.160308837890625,-0.1525726318359375,-0.9828811287879944,-0.5099335312843323,-0.4621069133281708,35.96736145019531,86.440185546875,-4.6146240234375
75615,-0.0638427734375,1.310440063476562,-0.2083740234375,-0.9495836496353148,-0.5359832644462585,-0.4509570598602295,35.54203796386719,86.10354614257812,-3.28131103515625
75616,-0.1002655029296875,1.384140014648438,-0.2507476806640625,-0.8044030070304871,-0.5857276320457458,-0.3845878839492798,35.356689453125,85.90573120117188,-2.616439819335938
75617,-0.1002655029296875,1.384140014648438,-0.2507476806640625,-0.8044030070304871,-0.5857276320457458,-0.3845878839492798,35.356689453125,85.90573120117188,-2.616439819335938
75618,-0.1219635009765625,1.464645385742188,-0.3187255859375,-0.5410917401313782,-0.6238649487495422,-0.2878725230693817,35.12771606445312,85.6832275390625,-1.875381469726562
75619,-0.09429931640625,1.462371826171875,-0.4791259765625,0.1911795437335968,-0.6105781197547913,-0.0710688531398773,34.79911804199219,85.69302368164062,-1.689544677734375
75620,-0.09429931640625,1.462371826171875,-0.4791259765625,0.1911795437335968,-0.6105781197547913,-0.0710688531398773,34.79911804199219,85.69302368164062,-1.689544677734375
75621,-0.04815673828125,1.401580810546875,-0.5767669677734375,0.5402613878250122,-0.5915256142616272,0.0402470231056213,34.63796997070312,85.72198486328125,-1.728302001953125
75622,-0.010223388671875,1.357711791992188,-0.6319732666015625,0.8162857890129089,-0.5002471208572388,0.1339114606380463,34.68893432617188,85.60493469238281,-1.797210693359375
75623,0.031890869140625,1.325164794921875,-0.5987701416015625,1.019914507865906,-0.2274738997220993,0.2309663742780685,34.96235656738281,85.8787841796875,-2.109832763671875
75624,0.031890869140625,1.325164794921875,-0.5987701416015625,1.019914507865906,-0.2274738997220993,0.2309663742780685,34.96235656738281,85.8787841796875,-2.109832763671875
75625,0.00347900390625,1.30169677734375,-0.541107177734375,0.98149973154068,-0.1403696238994598,0.2341951876878738,35.072998046875,86.06095886230469,-2.611236572265625
75626,-0.0449066162109375,1.281829833984375,-0.485015869140625,0.9264463782310486,-0.0581922009587287,0.2383385300636292,35.23751831054688,86.20468139648438,-2.960723876953125
75627,-0.12896728515625,1.280624389648438,-0.3464813232421875,0.8532522916793823,0.3358371257781982,0.2950204610824585,35.59788513183594,86.49273681640625,-3.863418579101562
75628,-0.12896728515625,1.280624389648438,-0.3464813232421875,0.8532522916793823,0.3358371257781982,0.2950204610824585,35.59788513183594,86.49273681640625,-3.863418579101562
75629,-0.1483154296875,1.288436889648438,-0.2495269775390625,0.7419736981391907,0.4928390085697174,0.3048544526100159,35.81465148925781,86.75300598144531,-4.3577880859375
75630,-0.173370361328125,1.30792236328125,-0.1375885009765625,0.5803549885749817,0.5984240174293518,0.2707380056381226,35.91978454589844,86.89530944824219,-4.799484252929688
75631,-0.2217254638671875,1.36248779296875,0.008514404296875,0.2798212766647339,0.468624472618103,0.1119827255606651,36.09703063964844,87.12684631347656,-5.8736572265625
75632,-0.2217254638671875,1.36248779296875,0.008514404296875,0.2798212766647339,0.468624472618103,0.1119827255606651,36.09703063964844,87.12684631347656,-5.8736572265625
75633,-0.241455078125,1.400177001953125,0.0807037353515625,0.2136755287647247,0.3224137425422668,0.0450281947851181,36.24369812011719,87.16319274902344,-6.3704833984375
75634,-0.26141357421875,1.439590454101562,0.1382598876953125,0.2269697636365891,0.2593199908733368,0.0075079835951328,36.42192077636719,87.34527587890625,-6.65142822265625
75635,-0.2686004638671875,1.423934936523438,0.1392364501953125,0.5333038568496704,0.3410249650478363,0.0604284554719924,36.61050415039062,87.52593994140625,-7.20111083984375
75636,-0.2686004638671875,1.423934936523438,0.1392364501953125,0.5333038568496704,0.3410249650478363,0.0604284554719924,36.61050415039062,87.52593994140625,-7.20111083984375
75637,-0.2389373779296875,1.3355712890625,0.08026123046875,0.7552021741867065,0.2563737332820892,0.117232084274292,36.64775085449219,87.68653869628906,-7.4383544921875
75638,-0.2039794921875,1.209136962890625,0.02655029296875,0.9089810848236084,0.0855042487382888,0.1204079017043114,36.91470336914062,87.98048400878906,-7.668212890625
75639,-0.1702117919921875,1.070297241210938,0.001129150390625,0.9866513609886168,-0.1244955882430077,0.0912430956959724,37.045654296875,88.17202758789062,-7.873764038085938
75640,-0.1540374755859375,0.9394989013671876,0.0127716064453125,0.9763960838317872,-0.2889077067375183,0.113130547106266,37.12400817871094,88.29817199707031,-8.182159423828125
75641,-0.1406402587890625,0.8259429931640625,0.030731201171875,0.8929994702339172,-0.3926820456981659,0.1220593303442001,37.18594360351562,88.51786804199219,-8.554977416992188
75642,-0.1259918212890625,0.74224853515625,0.0223236083984375,0.8119277954101562,-0.4649080336093903,0.0996200665831565,37.22798156738281,88.73344421386719,-8.8648681640625
75643,-0.133697509765625,0.617401123046875,0.07916259765625,0.8179371953010559,-0.4576165676116943,0.0074051856063306,37.41958618164062,89.05111694335938,-9.603302001953123
75644,-0.133697509765625,0.617401123046875,0.07916259765625,0.8179371953010559,-0.4576165676116943,0.0074051856063306,37.41958618164062,89.05111694335938,-9.603302001953123
75645,-0.1449737548828125,0.57073974609375,0.1076812744140625,0.8450295329093933,-0.281613290309906,-0.0452015660703182,37.480224609375,89.12091064453125,-9.8028564453125
75646,-0.161224365234375,0.5196990966796875,0.09173583984375,0.8206080794334412,-0.1141020730137825,-0.1096926778554916,37.53004455566406,89.18751525878906,-10.09829711914062
75647,-0.1799163818359375,0.424713134765625,0.056060791015625,0.6725464463233948,0.0378456488251686,-0.171156570315361,37.63717651367188,89.19059753417969,-10.56243896484375
75648,-0.1799163818359375,0.424713134765625,0.056060791015625,0.6725464463233948,0.0378456488251686,-0.171156570315361,37.63717651367188,89.19059753417969,-10.56243896484375
75649,-0.1698455810546875,0.3778839111328125,0.0078582763671875,0.5975220203399658,-0.0116167087107896,-0.1693448126316071,37.61848449707031,89.24345397949219,-10.77153015136719
75650,-0.147003173828125,0.3404693603515625,-0.030792236328125,0.530941903591156,-0.1568561941385269,-0.1504547446966171,37.59486389160156,89.23928833007812,-11.12123107910156
75651,-0.0743408203125,0.3368682861328125,0.0578460693359375,0.246137335896492,-0.2756337225437164,-0.0310942698270082,37.34953308105469,89.37417602539062,-12.44514465332031
75652,-0.0743408203125,0.3368682861328125,0.0578460693359375,0.246137335896492,-0.2756337225437164,-0.0310942698270082,37.34953308105469,89.37417602539062,-12.44514465332031
75653,-0.0621795654296875,0.414703369140625,0.110870361328125,0.0117003321647644,-0.1796911954879761,0.0705998688936233,37.38511657714844,89.24424743652344,-12.64338684082031
75654,-0.09161376953125,0.53448486328125,0.1492767333984375,-0.1963937431573868,-0.0791424885392189,0.1420847028493881,37.48193359375,89.2886962890625,-12.6131591796875
75655,-0.1750335693359375,0.74395751953125,0.280242919921875,-0.549694836139679,0.1020547300577164,0.1397648304700851,37.49668884277344,89.37252807617188,-12.69258117675781
75656,-0.1750335693359375,0.74395751953125,0.280242919921875,-0.549694836139679,0.1020547300577164,0.1397648304700851,37.49668884277344,89.37252807617188,-12.69258117675781
75657,-0.2161712646484375,0.8403778076171875,0.350189208984375,-0.7201288938522339,0.2836908400058746,0.1010509803891182,37.614990234375,89.28694152832031,-12.64485168457031
75658,-0.2526397705078125,0.9310302734375,0.3895263671875,-0.8656642436981201,0.4519384205341339,0.0302923917770385,37.693603515625,89.30412292480469,-12.430908203125
75659,-0.328460693359375,1.006195068359375,0.4031524658203125,-1.049793004989624,0.465749055147171,-0.1306195259094238,37.81048583984375,89.35598754882812,-11.93159484863281
75660,-0.328460693359375,1.006195068359375,0.4031524658203125,-1.049793004989624,0.465749055147171,-0.1306195259094238,37.81048583984375,89.35598754882812,-11.93159484863281
75661,-0.349456787109375,1.003524780273438,0.425384521484375,-1.095564007759094,0.3314130902290344,-0.1646797657012939,37.81651306152344,89.25074768066406,-11.7242431640625
75662,-0.3433074951171875,0.993988037109375,0.427398681640625,-1.150447487831116,0.1678944677114487,-0.1841629147529602,37.705322265625,89.19705200195312,-11.34474182128906
75663,-0.3140411376953125,0.98272705078125,0.4063720703125,-1.22145402431488,-0.0082406196743249,-0.2045134603977203,37.60549926757812,88.96005249023438,-10.96733093261719
75664,-0.2851715087890625,0.976959228515625,0.366485595703125,-1.301067590713501,-0.1697394996881485,-0.2323221862316132,37.41178894042969,88.80235290527344,-10.54437255859375
75665,-0.2587432861328125,0.990447998046875,0.295806884765625,-1.35649037361145,-0.2887239456176758,-0.2416480481624603,37.3519287109375,88.6229248046875,-10.03785705566406
75666,-0.251617431640625,1.024810791015625,0.1974945068359375,-1.346489191055298,-0.3181766271591187,-0.2655275464057922,37.25375366210938,88.26318359375,-9.317657470703123
75667,-0.24957275390625,1.023406982421875,-0.0563507080078125,-1.194204330444336,-0.2467706352472305,-0.3412172496318817,36.73236083984375,87.59576416015625,-7.959487915039062
75668,-0.24957275390625,1.023406982421875,-0.0563507080078125,-1.194204330444336,-0.2467706352472305,-0.3412172496318817,36.73236083984375,87.59576416015625,-7.959487915039062
75669,-0.235321044921875,1.023788452148438,-0.1595458984375,-1.117483735084534,-0.1555192917585373,-0.3842107951641083,36.50436401367188,87.23214721679688,-7.327377319335938
75670,-0.2093658447265625,1.074996948242188,-0.24072265625,-1.060444593429565,-0.0652650222182273,-0.4570322632789612,36.18594360351562,86.90480041503906,-6.669815063476562
75671,-0.093658447265625,1.228271484375,-0.320556640625,-0.947040319442749,0.0330844484269619,-0.5433823466300964,35.43159484863281,86.48994445800781,-5.611419677734375
75672,-0.0430908203125,1.337051391601562,-0.3147735595703125,-0.8496090769767761,0.0641656666994094,-0.5557793378829956,35.12188720703125,86.31443786621094,-5.253494262695312
75673,-0.0430908203125,1.337051391601562,-0.3147735595703125,-0.8496090769767761,0.0641656666994094,-0.5557793378829956,35.12188720703125,86.31443786621094,-5.253494262695312
75674,-0.018524169921875,1.432174682617188,-0.3038330078125,-0.7566267251968384,0.0588867515325546,-0.5537683963775635,34.83543395996094,86.01240539550781,-4.69091796875
75675,-0.01458740234375,1.4051513671875,-0.317108154296875,-0.4951037466526031,-0.1646299660205841,-0.3416398763656616,34.15571594238281,85.49261474609375,-4.018875122070312
75676,-0.01458740234375,1.4051513671875,-0.317108154296875,-0.4951037466526031,-0.1646299660205841,-0.3416398763656616,34.15571594238281,85.49261474609375,-4.018875122070312
75677,-0.02825927734375,1.315887451171875,-0.3350982666015625,-0.2341102361679077,-0.1994747519493103,-0.1398287415504456,33.84585571289062,85.24142456054688,-3.478759765625
75678,-0.0583038330078125,1.219390869140625,-0.3801422119140625,0.0821193680167198,-0.1464331150054932,0.0613126270473003,33.70326232910156,84.99360656738281,-3.188934326171875
75679,-0.0624237060546875,1.095703125,-0.526214599609375,0.6213737726211548,0.173177108168602,0.3967145979404449,33.66200256347656,84.83489990234375,-3.014129638671875
75680,-0.0624237060546875,1.095703125,-0.526214599609375,0.6213737726211548,0.173177108168602,0.3967145979404449,33.66200256347656,84.83489990234375,-3.014129638671875
