time_idx,accelerometerAccelerationX(G),accelerometerAccelerationY(G),accelerometerAccelerationZ(G),gyroRotationX(rad/s),gyroRotationY(rad/s),gyroRotationZ(rad/s),magnetometerX(µT),magnetometerY(µT),magnetometerZ(µT)
243538,-0.1350555419921875,0.5506134033203125,-0.2179107666015625,1.553955316543579,0.7587777376174927,0.5252278447151184,64.530517578125,98.87986755371094,-30.0552978515625
243539,-0.1350555419921875,0.5506134033203125,-0.2179107666015625,1.553955316543579,0.7587777376174927,0.5252278447151184,64.530517578125,98.87986755371094,-30.0552978515625
243540,0.066864013671875,0.4489898681640625,0.20562744140625,1.44261646270752,0.916411817073822,0.423988550901413,65.47444152832031,97.99990844726562,-31.44384765625
243541,0.156036376953125,0.405731201171875,0.47393798828125,1.393026828765869,1.471640706062317,0.4166757762432098,65.8922119140625,97.64488220214844,-31.983154296875
243542,0.192413330078125,0.3409271240234375,0.4935302734375,1.139934182167053,2.295313119888306,0.5763053894042969,66.22477722167969,97.49072265625,-32.57545471191406
243543,0.192413330078125,0.3409271240234375,0.4935302734375,1.139934182167053,2.295313119888306,0.5763053894042969,66.22477722167969,97.49072265625,-32.57545471191406
243544,0.140411376953125,0.16729736328125,0.204803466796875,0.9894639253616332,2.137567758560181,0.592429518699646,67.46000671386719,96.63734436035156,-32.89517211914062
243545,0.0865478515625,0.0665435791015625,0.142547607421875,0.8969734311103821,1.792699933052063,0.5253130197525024,68.21302795410156,96.3039093017578,-32.92056274414062
243546,0.0503997802734375,-0.0244598388671875,0.13287353515625,0.8504876494407654,1.443763017654419,0.4140951931476593,68.98197937011719,95.9501953125,-32.85568237304688
243547,0.032684326171875,-0.092742919921875,0.1392974853515625,0.7919710874557495,1.241651177406311,0.2908488810062408,69.722412109375,95.64100646972656,-32.69793701171875
243548,0.0300750732421875,-0.1371002197265625,0.1568756103515625,0.6768796443939209,1.174385070800781,0.1895297169685364,70.14517211914062,95.57456970214844,-32.669189453125
243549,0.0300750732421875,-0.1371002197265625,0.1568756103515625,0.6768796443939209,1.174385070800781,0.1895297169685364,70.14517211914062,95.57456970214844,-32.669189453125
243550,0.023284912109375,-0.1216888427734375,0.130889892578125,0.0570350550115108,1.420746326446533,0.0014636733103543,71.01039123535156,95.17366027832033,-32.64939880371094
243551,0.023284912109375,-0.1216888427734375,0.130889892578125,0.0570350550115108,1.420746326446533,0.0014636733103543,71.01039123535156,95.17366027832033,-32.64939880371094
243552,0.0144195556640625,-0.1038055419921875,0.016845703125,-0.1339165270328522,1.347687363624573,-0.0480423606932163,71.64308166503906,95.0334930419922,-32.0518798828125
243553,0.0113983154296875,-0.10675048828125,-0.0146331787109375,-0.2809251546859741,1.166523933410645,-0.0995654687285423,71.84440612792969,95.1051788330078,-31.4322509765625
243554,0.0085296630859375,-0.1078338623046875,-0.01348876953125,-0.3975937068462372,0.974471926689148,-0.157563254237175,72.11296081542969,95.2165069580078,-30.86038208007812
243555,0.0085296630859375,-0.1078338623046875,-0.01348876953125,-0.3975937068462372,0.974471926689148,-0.157563254237175,72.11296081542969,95.2165069580078,-30.86038208007812
243556,0.0086669921875,-0.1143341064453125,-0.1246185302734375,-0.4597196578979492,0.1493639200925827,-0.3341321647167206,72.51998901367188,95.223876953125,-29.468505859375
243557,0.007843017578125,-0.10076904296875,-0.11883544921875,-0.4597196578979492,0.1493639200925827,-0.3341321647167206,72.63290405273438,95.2693328857422,-28.86677551269531
243558,0.009307861328125,0.0154876708984375,0.001861572265625,-0.54581618309021,-0.0091317128390073,-0.4656321406364441,72.49322509765625,95.3566436767578,-28.3831787109375
243559,0.0054931640625,0.136383056640625,0.172607421875,-0.7656409740447998,0.1558369994163513,-0.6149992346763611,72.27554321289062,95.56285095214844,-28.08094787597656
243560,-0.0133056640625,0.16180419921875,0.316436767578125,-1.108085870742798,0.5236805081367493,-0.7262810468673706,72.0733642578125,95.891357421875,-27.783203125
243561,-0.031402587890625,0.31304931640625,0.4894256591796875,-1.577420353889465,1.008026957511902,-0.884202778339386,71.78097534179688,96.1778564453125,-27.44155883789062
243562,-0.0278778076171875,0.6837310791015625,0.814208984375,-2.287379026412964,1.662889719009399,-1.300320029258728,71.3265380859375,96.6514129638672,-26.91670227050781
243563,-0.0278778076171875,0.6837310791015625,0.814208984375,-2.287379026412964,1.662889719009399,-1.300320029258728,71.3265380859375,96.6514129638672,-26.91670227050781
243564,-0.3463287353515625,4.4117431640625,1.205673217773438,-2.495815515518188,3.58503246307373,-2.138744354248047,70.45773315429688,97.7384796142578,-25.76216125488281
243565,-0.69281005859375,6.040496826171875,0.7358245849609375,-1.703771352767944,2.135536909103394,-1.133942604064941,69.9202880859375,98.48046875,-25.06918334960938
243566,-1.322052001953125,6.7515869140625,0.6804046630859375,-0.2710112631320953,-0.4556199908256531,-0.3809715807437897,69.52128601074219,99.27082824707033,-24.37164306640625
243567,-1.322052001953125,6.7515869140625,0.6804046630859375,-0.2710112631320953,-0.4556199908256531,-0.3809715807437897,69.52128601074219,99.27082824707033,-24.37164306640625
243568,-0.0684814453125,2.870941162109375,-0.12298583984375,0.1852881014347076,-4.448625087738037,-0.4022867381572723,69.37873840332031,99.86833190917967,-23.76454162597656
243569,-0.0684814453125,2.870941162109375,-0.12298583984375,0.1852881014347076,-4.448625087738037,-0.4022867381572723,69.37873840332031,99.86833190917967,-23.76454162597656
243570,0.246673583984375,1.70306396484375,0.0329742431640625,-0.6113648414611816,-4.07481575012207,0.4826646447181702,68.76641845703125,99.80502319335938,-24.10150146484375
243571,0.8509521484375,1.282989501953125,-0.1833953857421875,-0.3241905868053436,-2.401798009872437,1.162086606025696,66.97769165039062,99.86491394042967,-24.81930541992188
243572,0.8040618896484375,1.795135498046875,-0.807769775390625,0.2901452779769897,-0.4712119996547699,1.118113040924072,66.20222473144531,100.0116729736328,-24.716552734375
243573,0.4843292236328125,2.02667236328125,-0.854278564453125,1.400972127914429,-0.4033916592597961,0.2797299027442932,66.2276611328125,100.1374969482422,-24.55508422851562
243574,0.282073974609375,1.588348388671875,-0.2382659912109375,1.903470635414124,-0.4863858819007874,-0.0434715785086154,66.42572021484375,99.94874572753906,-24.57888793945312
243575,0.282073974609375,1.588348388671875,-0.2382659912109375,1.903470635414124,-0.4863858819007874,-0.0434715785086154,66.42572021484375,99.94874572753906,-24.57888793945312
243576,0.0761871337890625,1.110733032226562,-0.0063323974609375,1.303934574127197,-0.306899756193161,0.2022433876991272,66.92721557617188,99.35557556152344,-26.33709716796875
243577,0.0761871337890625,1.110733032226562,-0.0063323974609375,1.303934574127197,-0.306899756193161,0.2022433876991272,66.92721557617188,99.35557556152344,-26.33709716796875
243578,0.053497314453125,0.915985107421875,-0.06890869140625,0.7905406951904297,-0.4689837396144867,0.3661305904388428,67.09268188476562,98.89808654785156,-27.12617492675781
243579,-0.07330322265625,0.65008544921875,-0.1927947998046875,0.8967204093933105,-0.5563274025917053,0.3301917612552643,67.58668518066406,98.41184997558594,-28.44355773925781
243580,-0.122772216796875,0.5425567626953125,-0.1536407470703125,1.111517906188965,-0.5634055733680725,0.2326630651950836,67.77452087402344,98.2738037109375,-28.90927124023438
243581,-0.122772216796875,0.5425567626953125,-0.1536407470703125,1.111517906188965,-0.5634055733680725,0.2326630651950836,67.77452087402344,98.2738037109375,-28.90927124023438
243582,-0.1563568115234375,0.4412994384765625,-0.066375732421875,1.319183468818665,-0.3850083947181702,0.0831247121095657,67.77964782714844,98.0964813232422,-29.34274291992188
243583,-0.2292022705078125,0.1808929443359375,-0.109039306640625,1.321708202362061,0.3261552155017853,-0.2337392568588257,67.87934875488281,97.84275817871094,-30.509765625
243584,-0.2781524658203125,-0.0308074951171875,-0.1872711181640625,0.9070199131965636,0.909839391708374,-0.2721401751041412,67.81373596191406,97.63761901855467,-31.12570190429688
243585,-0.26416015625,-0.136566162109375,-0.189178466796875,0.4554333090782166,1.48578155040741,-0.1832068413496017,67.83573913574219,97.49789428710938,-31.6962890625
243586,-0.2115631103515625,-0.10394287109375,-0.0838623046875,0.3127235472202301,1.761339902877808,-0.0650461092591285,67.73057556152344,97.46669006347656,-31.98829650878906
243587,-0.16064453125,-0.0478057861328125,0.0578765869140625,0.4075469970703125,1.912051320075989,0.0024157534353435,67.90231323242188,97.54330444335938,-32.10206604003906
243588,-0.106597900390625,-0.0195465087890625,0.14678955078125,0.4857549965381622,2.062424182891846,0.0228717606514692,68.16757202148438,97.44244384765624,-31.87586975097656
243589,-0.0598297119140625,-0.01239013671875,0.1742706298828125,0.4374668300151825,2.164525985717773,0.0096936402842402,68.65853881835938,97.3500518798828,-31.63407897949219
243590,-0.034027099609375,-0.025390625,0.1641845703125,0.283736377954483,2.146057367324829,-0.034347053617239,69.14973449707031,97.25567626953124,-31.588134765625
243591,-0.0340118408203125,-0.0454559326171875,0.130645751953125,0.1150213927030563,1.995980143547058,-0.0901717022061348,69.62452697753906,96.99314880371094,-31.40199279785156
243592,-0.0507354736328125,-0.06121826171875,0.10455322265625,-0.0122782373800873,1.768913626670837,-0.1532649248838425,69.99635314941406,96.87295532226562,-31.0489501953125
243593,-0.068572998046875,-0.07440185546875,0.0923614501953125,-0.0911118015646934,1.533785820007324,-0.2212293297052383,70.38179016113281,96.75886535644533,-30.72477722167969
243594,-0.0821075439453125,-0.0885162353515625,0.0882720947265625,-0.1843978017568588,1.223760604858398,-0.2944931387901306,70.64157104492188,96.57356262207033,-30.31642150878906
243595,-0.0821075439453125,-0.0885162353515625,0.0882720947265625,-0.1843978017568588,1.223760604858398,-0.2944931387901306,70.64157104492188,96.57356262207033,-30.31642150878906
243596,-0.098388671875,-0.108306884765625,0.1056365966796875,-0.2268469929695129,1.160946488380432,-0.3216310143470764,71.12001037597656,96.64166259765624,-29.75254821777344
243597,-0.098388671875,-0.108306884765625,0.1056365966796875,-0.2268469929695129,1.160946488380432,-0.3216310143470764,71.12001037597656,96.64166259765624,-29.75254821777344
243598,-0.1078948974609375,-0.1060791015625,0.1052703857421875,-0.4670222997665405,0.9694822430610656,-0.4263667464256287,71.13587951660156,96.77845764160156,-28.96907043457031
243599,-0.100433349609375,-0.0997161865234375,0.1128997802734375,-0.4670222997665405,0.9694822430610656,-0.4263667464256287,71.11177062988281,96.9313507080078,-28.48834228515625
243600,-0.08642578125,-0.0930328369140625,0.1300048828125,-0.5916827321052551,0.8964762091636658,-0.4893095195293427,71.18353271484375,97.07725524902344,-28.1209716796875
243601,-0.068115234375,-0.07611083984375,0.15020751953125,-0.7327243089675903,0.8176674246788025,-0.5758750438690186,71.05558776855469,97.11764526367188,-27.45068359375
243602,-0.025604248046875,-0.0164642333984375,0.1790771484375,-0.9109611511230468,0.6804890632629395,-0.6814789772033691,70.98416137695312,97.31932067871094,-27.06483459472656
243603,0.01263427734375,0.1112060546875,0.2652435302734375,-1.118096470832825,0.5037877559661865,-0.6974259614944458,70.72259521484375,97.50123596191406,-26.49249267578125
243604,0.0220947265625,0.2213592529296875,0.431121826171875,-1.414440512657166,0.4500848650932312,-0.7024089694023132,70.51481628417969,97.74171447753906,-25.99044799804688
243605,0.021453857421875,0.3385162353515625,0.6425018310546875,-1.778276324272156,0.6718803644180298,-0.7680961489677429,70.1129150390625,97.92152404785156,-25.3448486328125
243606,-0.012481689453125,0.5965118408203125,0.912567138671875,-2.044851541519165,1.232747435569763,-0.8574409484863281,69.81831359863281,98.17999267578124,-24.82464599609375
243607,-0.0377960205078125,1.624069213867188,1.242294311523438,-2.081542253494263,2.144149541854858,-0.67074054479599,69.33958435058594,98.49884033203124,-24.238037109375
243608,-0.095703125,2.918807983398438,1.568939208984375,-1.858339190483093,2.822587966918945,-0.1109257191419601,68.95907592773438,98.91813659667967,-23.60855102539062
243609,-0.095703125,2.918807983398438,1.568939208984375,-1.858339190483093,2.822587966918945,-0.1109257191419601,68.95907592773438,98.91813659667967,-23.60855102539062
243610,0.082733154296875,5.214675903320312,2.081924438476562,-1.140199422836304,4.681715488433838,1.807124137878418,68.68991088867188,99.27577209472656,-22.681396484375
243611,-2.123153686523438,7.665542602539062,1.372970581054688,0.2417439222335815,5.679111003875732,2.193841218948364,68.7916259765625,99.72439575195312,-21.70640563964844
243612,0.2977294921875,1.826004028320312,-0.39190673828125,1.922352194786072,3.810506582260132,2.4621422290802,70.63929748535156,99.9957275390625,-19.39453125
243613,0.2977294921875,1.826004028320312,-0.39190673828125,1.922352194786072,3.810506582260132,2.4621422290802,70.63929748535156,99.9957275390625,-19.39453125
243614,0.15106201171875,1.5064697265625,-1.353057861328125,-0.3347010314464569,-5.367285251617432,-0.1739848405122757,72.83335876464844,98.77420043945312,-17.35749816894531
243615,0.0701141357421875,1.590896606445312,-0.7764129638671875,-0.3347010314464569,-5.367285251617432,-0.1739848405122757,73.6787109375,98.11976623535156,-17.36866760253906
243616,0.048797607421875,1.486541748046875,-0.1222381591796875,-1.133902072906494,-6.250013828277588,-1.353444576263428,74.026123046875,97.79698181152344,-17.82179260253906
243617,0.45208740234375,1.332595825195312,-0.130584716796875,-2.064139127731323,-6.981217384338379,-1.811358571052551,73.79014587402344,97.75096130371094,-18.65040588378906
243618,1.001739501953125,1.800994873046875,-0.3427276611328125,-2.782269954681396,-7.430695533752441,-1.022462129592896,72.95512390136719,97.84515380859376,-19.66474914550781
243619,1.714187622070312,2.734405517578125,-1.284011840820312,-2.588988542556763,-2.938065528869629,0.5964628458023071,71.67105102539062,97.91781616210938,-20.44679260253906
243620,1.191207885742188,2.722518920898438,-1.953598022460938,0.875683069229126,-0.675739586353302,1.542576909065247,70.29200744628906,98.05191040039062,-20.78633117675781
243621,1.191207885742188,2.722518920898438,-1.953598022460938,0.875683069229126,-0.675739586353302,1.542576909065247,70.29200744628906,98.05191040039062,-20.78633117675781
243622,0.193450927734375,1.138870239257812,-0.263275146484375,3.177643299102783,1.651153683662415,1.26123046875,70.02127075195312,97.77009582519533,-20.65101623535156
243623,-0.0028228759765625,0.9700164794921876,-0.619842529296875,2.307376861572266,0.8871703147888184,1.091180682182312,70.89582824707031,97.30809020996094,-21.34486389160156
243624,-0.1318359375,0.8721466064453125,-0.4457244873046875,1.381215453147888,-0.2656082510948181,0.8276712894439697,71.80677795410156,96.53048706054688,-22.38961791992188
243625,-0.1318359375,0.8721466064453125,-0.4457244873046875,1.381215453147888,-0.2656082510948181,0.8276712894439697,71.80677795410156,96.53048706054688,-22.38961791992188
243626,-0.10992431640625,0.62017822265625,-0.005126953125,0.736873209476471,-1.107695460319519,0.3599994480609894,73.40457153320312,95.36677551269533,-24.33558654785156
243627,-0.0999755859375,0.4394683837890625,-0.01495361328125,0.7995661497116089,-1.245229125022888,0.3848187923431396,73.80218505859375,95.06735229492188,-25.09844970703125
243628,-0.1044464111328125,0.332763671875,0.1343841552734375,0.9973700642585754,-1.026851534843445,0.4907849133014679,73.99000549316406,94.88223266601562,-25.65345764160156
243629,-0.0813446044921875,0.3170166015625,0.394989013671875,1.562848329544067,0.5327978730201721,0.5682849884033203,74.11215209960938,94.64796447753906,-26.24830627441406
243630,-0.028564453125,0.3369598388671875,0.5195159912109375,1.562848329544067,0.5327978730201721,0.5682849884033203,74.23388671875,94.53187561035156,-26.91941833496094
243631,-0.028564453125,0.3369598388671875,0.5195159912109375,1.562848329544067,0.5327978730201721,0.5682849884033203,74.23388671875,94.53187561035156,-26.91941833496094
243632,-0.031097412109375,0.2720184326171875,0.4239044189453125,1.410909652709961,1.545346617698669,0.3636855483055115,75.13150024414062,93.74513244628906,-28.66734313964844
243633,-0.05517578125,0.1728363037109375,0.3308563232421875,1.108436703681946,1.662652492523193,0.2163288444280624,75.630615234375,93.39152526855467,-28.96206665039062
243634,-0.0730438232421875,0.0687408447265625,0.2365570068359375,0.8358168601989746,1.569190382957458,0.0727756693959236,76.119384765625,93.02394104003906,-29.07931518554688
243635,-0.0730438232421875,0.0687408447265625,0.2365570068359375,0.8358168601989746,1.569190382957458,0.0727756693959236,76.119384765625,93.02394104003906,-29.07931518554688
243636,-0.092620849609375,-0.09423828125,0.116455078125,0.5486758947372437,0.9225181937217712,-0.1445430666208267,76.97268676757812,92.6007080078125,-28.88864135742188
243637,-0.088897705078125,-0.1178436279296875,0.09442138671875,0.5182615518569946,0.5310367345809937,-0.2164390981197357,77.25405883789062,92.50389099121094,-28.66641235351562
243638,-0.0847625732421875,-0.1302032470703125,0.09979248046875,0.5197725892066956,0.1922935396432877,-0.2821784317493439,77.44718933105469,92.34580993652344,-28.48983764648438
243639,-0.0847625732421875,-0.1302032470703125,0.09979248046875,0.5197725892066956,0.1922935396432877,-0.2821784317493439,77.44718933105469,92.34580993652344,-28.48983764648438
243640,-0.090850830078125,-0.1510772705078125,0.11407470703125,0.6081882119178772,-0.3240547776222229,-0.3961294889450073,77.38810729980469,92.3578643798828,-28.50697326660156
243641,-0.1009674072265625,-0.1687774658203125,0.1585693359375,0.6532691717147827,-0.4600605368614197,-0.4524146020412445,77.30580139160156,92.43011474609376,-28.60153198242188
243642,-0.12030029296875,-0.1954345703125,0.2295379638671875,0.6161422729492188,-0.4045581221580505,-0.5175802707672119,77.04530334472656,92.50010681152344,-28.86402893066406
243643,-0.12030029296875,-0.1954345703125,0.2295379638671875,0.6161422729492188,-0.4045581221580505,-0.5175802707672119,77.04530334472656,92.50010681152344,-28.86402893066406
243644,-0.119354248046875,-0.248779296875,0.25830078125,0.1754605025053024,0.0821430757641792,-0.5720856189727783,76.73397827148438,92.4384765625,-28.97380065917969
243645,-0.055511474609375,-0.2355499267578125,0.21881103515625,-0.0828871577978134,0.2641972899436951,-0.5744382739067078,76.51826477050781,92.4642333984375,-28.83511352539062
243646,0.0032806396484375,-0.2075347900390625,0.1627197265625,-0.3064568638801575,0.3566305637359619,-0.5772953033447266,76.30484008789062,92.5575714111328,-28.50129699707031
243647,0.0032806396484375,-0.2075347900390625,0.1627197265625,-0.3064568638801575,0.3566305637359619,-0.5772953033447266,76.30484008789062,92.5575714111328,-28.50129699707031
243648,0.0664520263671875,-0.1756744384765625,0.052947998046875,-0.7337445616722107,0.3223828375339508,-0.6108884215354919,75.89224243164062,92.52059936523438,-27.69087219238281
243649,0.0887908935546875,-0.14532470703125,0.0048675537109375,-0.938681960105896,0.2762318551540375,-0.6573323607444763,75.55252075195312,92.70523071289062,-27.1356201171875
243650,0.1096343994140625,-0.11529541015625,-0.0218048095703125,-1.10973072052002,0.2316974103450775,-0.7322704792022705,75.22406005859375,92.8535614013672,-26.67008972167969
243651,0.1096343994140625,-0.11529541015625,-0.0218048095703125,-1.10973072052002,0.2316974103450775,-0.7322704792022705,75.22406005859375,92.8535614013672,-26.67008972167969
243652,0.1519775390625,-0.010955810546875,-0.1051788330078125,-1.341279745101929,0.1528729051351547,-0.9462368488311768,74.23904418945312,93.51954650878906,-25.43632507324219
243653,0.1519775390625,-0.010955810546875,-0.1051788330078125,-1.341279745101929,0.1528729051351547,-0.9462368488311768,74.23904418945312,93.51954650878906,-25.43632507324219
243654,0.2472686767578125,0.1430816650390625,-0.8527069091796875,-1.142820239067078,-0.9209301471710204,-1.010458707809448,73.60002136230469,93.88352966308594,-24.89332580566406
243655,0.3613739013671875,0.5992584228515625,-0.390716552734375,0.2445120066404343,-4.892630577087402,-1.269295573234558,71.71037292480469,94.8113250732422,-24.49978637695312
243656,0.519744873046875,1.421478271484375,0.8625640869140625,0.443594217300415,-4.265951156616211,-1.662739515304565,70.37765502929688,95.29795837402344,-25.11717224121094
243657,0.9932098388671876,3.800186157226562,1.2188720703125,-0.4011924266815186,-0.5281178951263428,-2.521124362945557,68.78652954101562,95.70606994628906,-26.14678955078125
243658,1.611038208007812,7.818359375,-0.7491912841796875,0.8448300361633301,-0.97320294380188,-5.334434032440186,66.81027221679688,96.31591796875,-26.9078369140625
243659,1.611038208007812,7.818359375,-0.7491912841796875,0.8448300361633301,-0.97320294380188,-5.334434032440186,66.81027221679688,96.31591796875,-26.9078369140625
243660,-0.146453857421875,7.128326416015625,0.320068359375,-0.5555865168571472,0.4220151603221893,-6.473978519439697,61.30194091796875,98.11810302734376,-29.03224182128906
243661,-1.688201904296875,3.373626708984375,-0.4199371337890625,-1.431707382202148,1.448623776435852,-5.18962574005127,58.05668640136719,99.135986328125,-30.39033508300781
243662,-3.135086059570312,0.2512664794921875,-0.6855621337890625,-1.630589365959167,1.856750845909119,-1.287357091903687,55.54629516601562,100.2272338867188,-31.20793151855469
243663,-2.364410400390625,0.49774169921875,-1.215316772460938,-1.053975820541382,2.100395202636719,1.30779504776001,54.4595947265625,100.9257202148438,-31.13917541503906
243664,-0.8459625244140625,1.252334594726562,-1.262313842773438,0.5081306099891663,-0.5441280007362366,1.178491950035095,54.89329528808594,100.9976196289062,-30.26991271972656
243665,-0.8459625244140625,1.252334594726562,-1.262313842773438,0.5081306099891663,-0.5441280007362366,1.178491950035095,54.89329528808594,100.9976196289062,-30.26991271972656
243666,0.172515869140625,1.285736083984375,-0.5281829833984375,1.193352341651917,-1.777276515960693,0.5318979620933533,56.93998718261719,100.0684661865234,-30.2147216796875
243667,0.172515869140625,1.285736083984375,-0.5281829833984375,1.193352341651917,-1.777276515960693,0.5318979620933533,56.93998718261719,100.0684661865234,-30.2147216796875
243668,0.32305908203125,0.852020263671875,-0.48291015625,0.4330712556838989,-1.455566167831421,0.9033162593841552,56.87489318847656,99.76617431640624,-30.98388671875
243669,0.32305908203125,0.852020263671875,-0.48291015625,0.4330712556838989,-1.455566167831421,0.9033162593841552,56.87489318847656,99.76617431640624,-30.98388671875
243670,0.1173858642578125,0.5307464599609375,-0.3701019287109375,1.65105676651001,0.0234826896339654,0.8824712038040161,56.96908569335938,99.4927215576172,-31.51290893554688
243671,0.0343780517578125,0.5775604248046875,-0.0225830078125,1.603686094284058,0.7891311049461365,0.8226664066314697,57.17971801757812,99.31761169433594,-31.81887817382812
243672,0.0233612060546875,0.52203369140625,-0.0933380126953125,1.603686094284058,0.7891311049461365,0.8226664066314697,57.57138061523438,99.05892944335938,-32.2713623046875
243673,-0.047271728515625,0.5217742919921875,-0.0165252685546875,1.277665376663208,1.028500080108643,0.7452118396759033,58.05854797363281,98.69093322753906,-33.17816162109375
243674,-0.0992279052734375,0.4494476318359375,0.1789398193359375,0.6128982901573181,1.344472885131836,0.6055394411087036,58.55409240722656,98.29972839355467,-33.99766540527344
243675,-0.0992279052734375,0.4494476318359375,0.1789398193359375,0.6128982901573181,1.344472885131836,0.6055394411087036,58.55409240722656,98.29972839355467,-33.99766540527344
243676,-0.136138916015625,0.1868438720703125,0.1641387939453125,-0.1598756909370422,1.535661220550537,0.3851183950901031,59.81752014160156,97.8515167236328,-34.64189147949219
243677,-0.146636962890625,0.09228515625,0.2176513671875,-0.1758096367120743,1.695925951004028,0.2966993153095245,60.39057922363281,97.86216735839844,-34.57366943359375
243678,-0.15753173828125,-0.0067901611328125,0.1538543701171875,-0.0170697979629039,1.730646729469299,0.2251010239124298,60.92127990722656,97.92454528808594,-34.38682556152344
243679,-0.15753173828125,-0.0067901611328125,0.1538543701171875,-0.0170697979629039,1.730646729469299,0.2251010239124298,60.92127990722656,97.92454528808594,-34.38682556152344
243680,-0.2017822265625,-0.122711181640625,0.1429290771484375,0.4857531189918518,1.282623887062073,0.2112983912229538,62.04644775390625,97.74453735351562,-33.80453491210938
243681,-0.221435546875,-0.1459808349609375,0.1857757568359375,0.6085618734359741,1.251573801040649,0.2560000717639923,62.43653869628906,97.47247314453124,-33.67144775390625
243682,-0.2191619873046875,-0.1667633056640625,0.1250152587890625,0.5815350413322449,1.25588047504425,0.3026932775974274,62.89376831054688,97.4621124267578,-33.72386169433594
243683,-0.2191619873046875,-0.1667633056640625,0.1250152587890625,0.5815350413322449,1.25588047504425,0.3026932775974274,62.89376831054688,97.4621124267578,-33.72386169433594
243684,-0.1549835205078125,-0.2025604248046875,-0.07037353515625,0.2588059902191162,0.9315596222877502,0.369701623916626,63.68338012695312,97.27561950683594,-33.92478942871094
243685,-0.105621337890625,-0.2061004638671875,-0.096343994140625,-0.0439589358866214,0.7543326616287231,0.4040865004062653,64.11213684082031,97.05386352539062,-34.0479736328125
243686,-0.0484466552734375,-0.1797332763671875,-0.091400146484375,-0.5420901775360107,0.4727765917778015,0.4243635237216949,64.451171875,96.8909912109375,-34.06210327148438
243687,-0.0020904541015625,-0.1356964111328125,-0.0594940185546875,-0.5420901775360107,0.4727765917778015,0.4243635237216949,64.78878784179688,96.82102966308594,-33.89212036132812
243688,0.0260772705078125,-0.0926971435546875,0.0076751708984375,-0.6144242882728577,0.4109933972358704,0.3762524724006653,65.1563720703125,96.9766845703125,-33.48722839355469
243689,0.0356292724609375,-0.0640106201171875,0.028656005859375,-0.6103565692901611,0.3562843501567841,0.2972426116466522,65.51353454589844,97.00442504882812,-33.02134704589844
243690,0.04229736328125,-0.053955078125,0.0288238525390625,-0.590043842792511,0.3118207454681396,0.201085701584816,65.88044738769531,97.02281188964844,-32.46334838867188
243691,0.04229736328125,-0.053955078125,0.0288238525390625,-0.590043842792511,0.3118207454681396,0.201085701584816,65.88044738769531,97.02281188964844,-32.46334838867188
243692,0.060943603515625,-0.0562286376953125,-0.03076171875,-0.589449942111969,-0.2882056832313538,-0.0114127108827233,66.31134033203125,97.09861755371094,-31.19729614257812
243693,0.0806884765625,-0.062408447265625,-0.0604248046875,-0.589449942111969,-0.2882056832313538,-0.0114127108827233,66.48213195800781,97.21633911132812,-30.74270629882812
243694,0.1032562255859375,-0.0572967529296875,-0.0464019775390625,-0.6488011479377747,-0.634570300579071,-0.0484112091362476,66.49154663085938,97.12086486816406,-30.18841552734375
243695,0.1032562255859375,-0.0572967529296875,-0.0464019775390625,-0.6488011479377747,-0.634570300579071,-0.0484112091362476,66.49154663085938,97.12086486816406,-30.18841552734375
243696,0.162628173828125,0.0464935302734375,0.145050048828125,-0.8991468548774719,-1.103371620178223,-0.1155106201767921,66.19430541992188,97.50047302246094,-29.455322265625
243697,0.1602020263671875,0.10491943359375,0.3446502685546875,-1.054046869277954,-0.9251155853271484,-0.175343856215477,66.01651000976562,97.55426025390624,-29.339599609375
243698,0.168212890625,0.1945648193359375,0.6096954345703125,-1.236543536186218,-0.2249186038970947,-0.2623218894004822,65.5870361328125,97.67022705078124,-29.03472900390625
243699,0.168212890625,0.1945648193359375,0.6096954345703125,-1.236543536186218,-0.2249186038970947,-0.2623218894004822,65.5870361328125,97.67022705078124,-29.03472900390625
243700,0.2456512451171875,0.7292938232421875,0.7969818115234375,-1.898735523223877,1.440012454986572,-0.5078445672988892,64.77546691894531,97.99667358398438,-28.26324462890625
243701,0.349273681640625,2.037322998046875,1.016357421875,-2.441713333129883,1.628222823143005,-0.5315192937850952,64.390625,98.39328002929688,-27.5863037109375
243702,0.195953369140625,3.635406494140625,1.562255859375,-2.962679862976074,1.805483937263489,-0.0866270363330841,64.13923645019531,98.71058654785156,-26.84327697753906
243703,0.195953369140625,3.635406494140625,1.562255859375,-2.962679862976074,1.805483937263489,-0.0866270363330841,64.13923645019531,98.71058654785156,-26.84327697753906
243704,-1.47509765625,6.62274169921875,1.321380615234375,-1.987328290939331,1.728296995162964,-1.922980666160583,64.08132934570312,99.71298217773438,-24.614990234375
243705,-1.514114379882812,6.354141235351562,0.16082763671875,-0.6230292320251465,-0.253966748714447,-3.341389417648315,64.12513732910156,100.0872192382812,-23.41043090820312
243706,-0.8857574462890625,4.011154174804688,-0.9874114990234376,0.7522100806236267,-3.261650800704956,-3.246453046798706,63.48551940917969,100.6251068115234,-22.72093200683594
243707,-0.8857574462890625,4.011154174804688,-0.9874114990234376,0.7522100806236267,-3.261650800704956,-3.246453046798706,63.48551940917969,100.6251068115234,-22.72093200683594
243708,-0.8261260986328125,0.7139434814453125,-0.4603424072265625,0.0590159147977829,-5.526355266571045,-2.454748630523682,59.51490783691406,102.2593383789062,-24.20866394042969
243709,-0.8261260986328125,0.7139434814453125,-0.4603424072265625,0.0590159147977829,-5.526355266571045,-2.454748630523682,59.51490783691406,102.2593383789062,-24.20866394042969
243710,0.0169677734375,1.869537353515625,-1.150588989257812,1.070546507835388,0.6693634390830994,0.6444532871246338,54.61874389648438,103.4763031005859,-25.81204223632812
243711,-0.0512847900390625,2.011398315429688,-0.25732421875,1.070546507835388,0.6693634390830994,0.6444532871246338,54.45436096191406,103.4527893066406,-25.01838684082031
243712,-0.0996856689453125,1.73748779296875,-0.3101959228515625,1.543481349945068,0.8855074644088745,0.5643059611320496,55.24214172363281,103.0490875244141,-24.28446960449219
243713,-0.254669189453125,1.322998046875,-0.5830230712890625,1.206529378890991,0.6113691329956055,0.7163962125778198,56.00059509277344,102.7010803222656,-24.54255676269531
243714,-0.2888336181640625,1.061065673828125,-0.624237060546875,0.8099242448806763,0.2859768867492676,0.9058545231819152,56.67367553710938,102.4003448486328,-25.14601135253906
243715,-0.2888336181640625,1.061065673828125,-0.624237060546875,0.8099242448806763,0.2859768867492676,0.9058545231819152,56.67367553710938,102.4003448486328,-25.14601135253906
243716,-0.305328369140625,0.829833984375,-0.5129241943359375,1.106208682060242,-0.0371937081217765,1.111802935600281,57.99880981445312,101.7885589599609,-26.1085205078125
243717,-0.3000946044921875,0.708709716796875,-0.3814239501953125,1.106208682060242,-0.0371937081217765,1.111802935600281,58.72421264648438,101.4722900390625,-26.44525146484375
243718,-0.3002471923828125,0.6235504150390625,-0.3619232177734375,1.190444707870483,0.1256226450204849,1.11766242980957,59.44873046875,101.1446533203125,-26.85256958007812
243719,-0.3002471923828125,0.6235504150390625,-0.3619232177734375,1.190444707870483,0.1256226450204849,1.11766242980957,59.44873046875,101.1446533203125,-26.85256958007812
243720,-0.230316162109375,0.53277587890625,-0.37091064453125,1.082493424415588,0.0997849181294441,0.9084423184394836,60.5396728515625,100.3531799316406,-27.75601196289062
243721,-0.230316162109375,0.53277587890625,-0.37091064453125,1.082493424415588,0.0997849181294441,0.9084423184394836,60.5396728515625,100.3531799316406,-27.75601196289062
243722,-0.1426239013671875,0.5094451904296875,0.033111572265625,1.056063413619995,0.5379074215888977,0.5926183462142944,61.45606994628906,99.97257995605467,-28.69198608398438
243723,-0.076629638671875,0.5008087158203125,0.2492218017578125,1.162181377410889,0.9564913511276244,0.4967692792415619,61.86264038085938,99.79635620117188,-29.23660278320312
243724,-0.0261688232421875,0.49530029296875,0.3999176025390625,1.204434037208557,1.303244233131409,0.4268642365932465,62.2576904296875,99.6040496826172,-29.67132568359375
243725,-0.0261688232421875,0.49530029296875,0.3999176025390625,1.204434037208557,1.303244233131409,0.4268642365932465,62.2576904296875,99.6040496826172,-29.67132568359375
243726,0.001190185546875,0.4476470947265625,0.4521331787109375,1.167359590530396,1.583114504814148,0.3653012812137604,62.71463012695312,99.40614318847656,-30.02470397949219
243727,0.024017333984375,0.3606719970703125,0.40850830078125,1.051350712776184,1.697108149528503,0.3332259058952332,63.17642211914062,99.19247436523438,-30.49667358398438
243728,0.0657958984375,0.157928466796875,0.19671630859375,0.7700069546699524,1.34786069393158,0.2974609732627869,64.21458435058594,98.57351684570312,-30.95289611816406
243729,0.0864410400390625,0.0546417236328125,0.12213134765625,0.6685839295387268,0.9473838806152344,0.287739098072052,64.67568969726562,98.11083984375,-31.07023620605469
243730,0.106689453125,-0.0283203125,0.120269775390625,0.5584574341773987,0.3431270122528076,0.26940056681633,65.05126953125,97.96720886230467,-31.21824645996094
243731,0.106689453125,-0.0283203125,0.120269775390625,0.5584574341773987,0.3431270122528076,0.26940056681633,65.05126953125,97.96720886230467,-31.21824645996094
243732,0.11944580078125,-0.1322021484375,0.150665283203125,0.5271013379096985,0.2391960769891739,0.2559399008750916,65.81657409667969,97.75480651855467,-31.13592529296875
243733,0.1028594970703125,-0.1281280517578125,0.1637420654296875,0.4721584916114807,0.2588395476341248,0.2401319146156311,65.92462158203125,97.53738403320312,-31.0140380859375
243734,0.0864410400390625,-0.111053466796875,0.1721954345703125,0.4201038181781769,0.3613257110118866,0.2276832312345505,66.09669494628906,97.46563720703124,-31.0648193359375
243735,0.0748291015625,-0.111419677734375,0.1864166259765625,0.3571527898311615,0.5509350299835205,0.2160729169845581,66.25889587402344,97.27296447753906,-30.7998046875
243736,0.0703887939453125,-0.122894287109375,0.190155029296875,0.2025467157363892,0.7777005434036255,0.2201507389545441,66.48152160644531,97.12947082519533,-30.65768432617188
243737,0.0666351318359375,-0.125091552734375,0.153839111328125,-0.0331166759133338,0.9167295694351196,0.2196410149335861,66.68229675292969,96.93928527832033,-30.34950256347656
243738,0.063629150390625,-0.118316650390625,0.1048583984375,-0.3085620999336243,0.9171793460845948,0.2194135785102844,66.92329406738281,96.66456604003906,-29.80859375
243739,0.063629150390625,-0.118316650390625,0.1048583984375,-0.3085620999336243,0.9171793460845948,0.2194135785102844,66.92329406738281,96.66456604003906,-29.80859375
243740,0.0799560546875,-0.149139404296875,-0.166168212890625,-0.7395270466804504,0.4030419886112213,0.1999786347150803,67.47987365722656,96.45144653320312,-28.64533996582031
243741,0.0799560546875,-0.149139404296875,-0.166168212890625,-0.7395270466804504,0.4030419886112213,0.1999786347150803,67.47987365722656,96.45144653320312,-28.64533996582031
243742,0.127288818359375,-0.2092742919921875,-0.4961090087890625,-0.4234420657157898,-1.926328301429749,0.3734857141971588,67.80157470703125,96.39059448242188,-27.99311828613281
243743,0.2695465087890625,-0.143218994140625,-0.3509521484375,-0.1654595285654068,-2.805018901824951,0.5081990361213684,67.94952392578125,96.33030700683594,-26.94694519042969
243744,0.27899169921875,0.0545806884765625,-0.0658721923828125,-0.0731573030352592,-2.883596658706665,0.5660296082496643,67.78797912597656,96.22499084472656,-26.80447387695312
243745,0.229156494140625,0.2691802978515625,0.16094970703125,-0.2063979059457779,-2.021195888519287,0.4900410771369934,67.51873779296875,96.21397399902344,-27.02133178710938
243746,0.1577911376953125,0.4071044921875,0.35125732421875,-0.6464639902114868,-0.1243525743484497,0.3971952795982361,67.14530944824219,96.30397033691406,-27.47172546386719
243747,0.1338653564453125,0.4661102294921875,0.5022735595703125,-1.194755792617798,1.612085700035095,0.2346801459789276,66.86625671386719,96.27044677734376,-27.52947998046875
243748,0.1442413330078125,1.073745727539062,0.8221282958984375,-1.828940272331238,3.001476526260376,-0.2473413497209549,66.6827392578125,96.32374572753906,-27.48123168945312
243749,0.1442413330078125,1.073745727539062,0.8221282958984375,-1.828940272331238,3.001476526260376,-0.2473413497209549,66.6827392578125,96.32374572753906,-27.48123168945312
243750,0.300994873046875,2.287628173828125,1.262115478515625,-2.883584499359131,4.570873737335205,-1.406698226928711,66.77157592773438,96.61495971679688,-26.93989562988281
243751,0.40216064453125,5.587326049804688,-0.44708251953125,-2.804376840591431,3.844447612762451,-3.147426605224609,66.70628356933594,97.07656860351562,-26.11170959472656
243752,-0.1500091552734375,7.57598876953125,0.94976806640625,-0.6378116011619568,-5.644975662231445,-6.18291711807251,65.13754272460938,98.60914611816406,-24.16667175292969
243753,-0.1500091552734375,7.57598876953125,0.94976806640625,-0.6378116011619568,-5.644975662231445,-6.18291711807251,65.13754272460938,98.60914611816406,-24.16667175292969
243754,-0.8050994873046875,5.09130859375,1.665725708007812,-0.9807745814323424,-4.921684265136719,-5.587827682495117,62.75822448730469,99.61862182617188,-24.42190551757812
243755,-0.9917144775390624,2.330032348632812,0.7642822265625,0.4298600256443024,-1.168776750564575,-1.302000761032104,59.68768310546875,100.6294555664062,-25.45759582519531
243756,-1.51934814453125,0.28228759765625,-1.4781494140625,1.155855536460876,1.262709021568298,0.9222662448883056,53.81135559082031,102.6990203857422,-26.85710144042969
243757,-0.501373291015625,1.563262939453125,-2.221084594726562,2.209465265274048,-0.2343224883079529,1.487662792205811,52.38018798828125,103.1280975341797,-27.05343627929688
243758,-0.159637451171875,1.97381591796875,-0.8125,1.931723594665527,-1.183545589447021,1.386403560638428,52.456787109375,103.0439758300781,-27.15753173828125
243759,-0.063201904296875,1.771026611328125,-0.27947998046875,1.361386895179749,-1.359372735023499,1.084724187850952,53.43443298339844,102.4598541259766,-27.86204528808594
243760,0.0302581787109375,1.364822387695312,-0.229461669921875,0.95167076587677,-1.562375664710999,0.9842928647994996,54.41099548339844,101.8437194824219,-28.73057556152344
243761,0.0302581787109375,1.364822387695312,-0.229461669921875,0.95167076587677,-1.562375664710999,0.9842928647994996,54.41099548339844,101.8437194824219,-28.73057556152344
243762,-0.0557708740234375,0.8048095703125,-0.21649169921875,0.9538596272468568,-1.092172503471375,1.107779145240784,55.63653564453125,101.0290985107422,-29.9794921875
243763,-0.0799713134765625,0.4745941162109375,-0.390106201171875,0.9538596272468568,-1.092172503471375,1.107779145240784,55.99278259277344,100.8156280517578,-30.3626708984375
243764,-0.060577392578125,0.3012847900390625,-0.4424285888671875,1.261671781539917,-1.317458271980286,1.173457980155945,56.39344787597656,100.4677734375,-30.73550415039062
243765,-0.0777740478515625,0.3213348388671875,-0.057525634765625,1.403239250183105,-0.897792637348175,1.050025820732117,56.80477905273438,100.2514343261719,-31.19923400878906
243766,-0.05389404296875,0.277862548828125,0.1163330078125,1.066174745559692,0.6881384253501892,0.7206290364265442,57.13841247558594,99.8872528076172,-31.81800842285156
243767,-0.0434417724609375,0.2383880615234375,0.1340484619140625,0.7594512701034546,1.228599309921265,0.5956236720085144,57.55538940429688,99.68798828125,-32.45028686523438
243768,-0.0538330078125,0.1640167236328125,0.1492462158203125,0.7594512701034546,1.228599309921265,0.5956236720085144,57.92202758789062,99.26097106933594,-32.98060607910156
243769,-0.0538330078125,0.1640167236328125,0.1492462158203125,0.7594512701034546,1.228599309921265,0.5956236720085144,57.92202758789062,99.26097106933594,-32.98060607910156
243770,-0.083099365234375,0.0130157470703125,-0.027679443359375,0.2352505922317505,1.440177083015442,0.4682992994785309,58.9781494140625,98.85562133789062,-33.70819091796875
243771,-0.1142578125,-0.023284912109375,-0.04730224609375,0.1883299648761749,1.245940446853638,0.4120714366436005,59.49873352050781,98.634765625,-33.78138732910156
243772,-0.128753662109375,-0.044830322265625,0.0484619140625,0.2008598744869232,1.16577935218811,0.3444492518901825,60.0885009765625,98.45402526855467,-33.81632995605469
243773,-0.128753662109375,-0.044830322265625,0.0484619140625,0.2008598744869232,1.16577935218811,0.3444492518901825,60.0885009765625,98.45402526855467,-33.81632995605469
243774,-0.141845703125,-0.0296173095703125,0.2373046875,0.0399090647697448,1.776266694068909,0.0653124302625656,61.03732299804688,98.34814453125,-33.71427917480469
243775,-0.138031005859375,-0.048919677734375,0.2245025634765625,0.0399090647697448,1.776266694068909,0.0653124302625656,61.44410705566406,98.2742156982422,-33.76380920410156
243776,-0.1374969482421875,-0.0788726806640625,0.1988677978515625,-0.067895159125328,1.843361020088196,-0.0046240463852882,61.91061401367188,98.20542907714844,-33.812744140625
243777,-0.1388092041015625,-0.119964599609375,0.1725006103515625,-0.1754804700613022,1.796740531921387,-0.0327781848609447,62.46430969238281,98.07444763183594,-33.49847412109375
243778,-0.1336517333984375,-0.1636199951171875,0.133544921875,-0.2704245746135712,1.641964554786682,-0.0342874005436897,63.07998657226562,98.00210571289062,-33.32933044433594
243779,-0.1216278076171875,-0.1879119873046875,0.09796142578125,-0.3429142236709595,1.406569600105286,-0.0105146924033761,63.51069641113281,97.8756866455078,-32.94467163085938
243780,-0.097015380859375,-0.1890716552734375,0.078887939453125,-0.3833045065402985,1.13956606388092,0.0070597738958895,63.94297790527344,97.90390014648438,-32.65017700195312
243781,-0.097015380859375,-0.1890716552734375,0.078887939453125,-0.3833045065402985,1.13956606388092,0.0070597738958895,63.94297790527344,97.90390014648438,-32.65017700195312
243782,-0.06915283203125,-0.1739959716796875,0.070587158203125,-0.4150358140468597,0.8802732825279236,0.0105168232694268,64.36212158203125,97.92153930664062,-32.14610290527344
243783,-0.01123046875,-0.1329803466796875,0.0705718994140625,-0.5101913809776306,0.461048036813736,-0.0360730476677417,64.83212280273438,98.08830261230467,-31.39710998535156
243784,0.011810302734375,-0.1112213134765625,0.0782928466796875,-0.5912119150161743,0.3016314804553986,-0.070249930024147,64.9375,98.1735382080078,-31.02969360351562
243785,0.011810302734375,-0.1112213134765625,0.0782928466796875,-0.5912119150161743,0.3016314804553986,-0.070249930024147,64.9375,98.1735382080078,-31.02969360351562
243786,0.0372467041015625,-0.0895538330078125,0.08575439453125,-0.8690525889396667,-0.1456911563873291,-0.1695850342512131,65.04843139648438,98.24781799316406,-30.66567993164062
243787,0.097564697265625,-0.0426483154296875,0.113128662109375,-1.0459223985672,-0.4689232707023621,-0.2073097825050354,64.90840148925781,98.28443908691406,-29.738525390625
243788,0.1226348876953125,0.008270263671875,0.16241455078125,-1.240298867225647,-0.8118060827255249,-0.2295610159635544,64.74253845214844,98.3061065673828,-28.99777221679688
243789,0.1327667236328125,0.0838165283203125,0.2542572021484375,-1.455408692359924,-1.104208588600159,-0.2345363348722458,64.62062072753906,98.48098754882812,-28.55912780761719
243790,0.1621246337890625,0.2606964111328125,0.456329345703125,-1.73945140838623,-1.185587644577026,-0.2278411537408829,64.36198425292969,98.44757080078124,-28.02543640136719
243791,0.2158660888671875,0.6129608154296875,0.8068695068359375,-2.166015386581421,-0.8039832711219788,-0.3464040160179138,63.93377685546875,98.58610534667967,-27.455078125
243792,0.2529144287109375,0.9477081298828124,1.243621826171875,-2.856513023376465,0.1407904028892517,-0.5011507272720337,62.71571350097656,99.15805053710938,-25.99159240722656
243793,0.2529144287109375,0.9477081298828124,1.243621826171875,-2.856513023376465,0.1407904028892517,-0.5011507272720337,62.71571350097656,99.15805053710938,-25.99159240722656
243794,-0.3556671142578125,5.14739990234375,0.8989410400390625,-3.048915863037109,1.415561437606812,-1.457548022270203,61.47454833984375,100.2917022705078,-23.65277099609375
243795,-0.8409423828125,7.55145263671875,0.5370941162109375,-0.7723736763000488,-0.1535133868455887,-3.249908685684204,60.82951354980469,100.8849487304688,-22.35398864746094
243796,-1.2547607421875,6.731048583984375,1.140243530273438,1.095534443855286,-0.2483807802200317,-3.870474815368652,59.53907775878906,101.5377655029297,-22.04653930664062
243797,-1.588973999023438,3.171859741210938,0.756805419921875,1.758203983306885,0.4888415932655334,-3.768138647079468,57.7667236328125,102.09619140625,-22.92268371582031
243798,-1.945404052734375,0.2685699462890625,0.1914215087890625,1.440730690956116,1.171611905097961,-2.035170555114746,56.17597961425781,102.4826965332031,-24.37635803222656
243799,-1.530044555664062,0.0760345458984375,-1.3466796875,0.2836447656154633,2.543751239776611,0.2135482281446457,55.08827209472656,102.5370025634766,-25.57875061035156
243800,-0.550933837890625,1.2947998046875,-3.421340942382812,-1.003332138061523,-2.122700452804565,1.185791611671448,54.62324523925781,102.4482879638672,-26.0198974609375
243801,-0.29681396484375,1.926651000976562,-0.8659210205078125,-1.115687370300293,-3.141433477401733,1.342628121376038,54.60821533203125,102.4728393554688,-25.76048278808594
243802,-0.116943359375,2.005523681640625,-0.060302734375,-0.2019163519144058,-1.847909450531006,1.32270872592926,54.61004638671875,102.526611328125,-25.21864318847656
243803,0.0921173095703125,1.867507934570312,-0.4027099609375,0.61298006772995,-0.4234071969985962,1.314522504806519,54.78561401367188,102.4658050537109,-24.54962158203125
243804,0.2676544189453125,1.626327514648438,-0.7946319580078125,0.6875400543212891,0.0045489454641938,1.27368175983429,55.28315734863281,102.1492004394531,-24.29888916015625
243805,0.348480224609375,1.445648193359375,-0.6156005859375,0.3633638322353363,0.0085732480511069,1.208317160606384,56.0291748046875,101.9245300292969,-24.49211120605469
243806,0.3543548583984375,1.391006469726562,-0.3263092041015625,0.2365251928567886,0.0550757683813571,1.2485271692276,56.86228942871094,101.6348419189453,-24.69764709472656
243807,0.313140869140625,1.384063720703125,-0.2200164794921875,0.4206449687480927,0.1325420588254929,1.324318051338196,57.6278076171875,101.2532806396484,-24.65397644042969
243808,0.2559051513671875,1.30291748046875,-0.24237060546875,0.7956398725509644,0.0054179350845515,1.305904507637024,58.44622802734375,101.0005645751953,-24.69654846191406
243809,0.2287139892578125,1.140655517578125,-0.2566375732421875,1.077495574951172,-0.2906264960765839,1.229613423347473,59.17973327636719,100.9027099609375,-24.97357177734375
243810,0.196868896484375,0.9671783447265624,-0.196533203125,1.162658333778381,-0.4866231679916382,1.128346681594849,59.8890380859375,100.6277008056641,-25.44534301757812
243811,0.150054931640625,0.8022613525390625,-0.1260986328125,1.130871653556824,-0.448186844587326,0.9642483592033386,60.60739135742188,100.3923950195312,-25.84754943847656
243812,0.0949554443359375,0.670135498046875,-0.055206298828125,1.108083009719849,-0.267333447933197,0.7586246132850647,61.12336730957031,100.1037750244141,-26.41978454589844
243813,0.0949554443359375,0.670135498046875,-0.055206298828125,1.108083009719849,-0.267333447933197,0.7586246132850647,61.12336730957031,100.1037750244141,-26.41978454589844
243814,0.006805419921875,0.541015625,0.2003173828125,1.357787847518921,0.2345808148384094,0.4070798754692078,61.89181518554688,99.90191650390624,-27.52383422851562
243815,-0.025054931640625,0.4708709716796875,0.280029296875,1.404735207557678,0.5268750190734863,0.311716616153717,62.23504638671875,99.76814270019533,-27.9287109375
243816,-0.0544891357421875,0.38482666015625,0.29046630859375,1.275279760360718,0.7775024175643921,0.2203613966703415,62.58216857910156,99.52456665039062,-28.56198120117188
243817,-0.0544891357421875,0.38482666015625,0.29046630859375,1.275279760360718,0.7775024175643921,0.2203613966703415,62.58216857910156,99.52456665039062,-28.56198120117188
243818,-0.0673370361328125,0.2697601318359375,0.20452880859375,1.002629280090332,0.7918078303337097,0.1264815032482147,62.99969482421875,99.31918334960938,-29.10664367675781
243819,-0.03021240234375,0.0313262939453125,0.009246826171875,0.5540698766708374,-0.0315081253647804,-0.0052030179649591,63.76530456542969,98.98045349121094,-29.926025390625
243820,-0.01080322265625,-0.03851318359375,0.0743560791015625,0.4833232462406158,-0.4038936793804169,-0.0403218567371368,63.9627685546875,98.93229675292967,-30.12368774414062
243821,-0.003997802734375,-0.07818603515625,0.159088134765625,0.4174734055995941,-0.4933319389820099,-0.0988008752465248,64.07305908203125,98.89572143554688,-30.30853271484375
243822,-0.0010528564453125,-0.1022796630859375,0.1873321533203125,0.3036778569221497,-0.4022691547870636,-0.16981540620327,64.04290771484375,98.87030029296876,-30.39723205566406
243823,-0.00860595703125,-0.1137542724609375,0.1790008544921875,0.1342065334320068,-0.2749463319778442,-0.2219209522008896,64.07249450683594,98.9290771484375,-30.52635192871094
243824,-0.0226898193359375,-0.1266632080078125,0.1602630615234375,-0.0412094891071319,-0.1670084297657013,-0.2449253350496292,63.99676513671875,98.9972686767578,-30.5631103515625
243825,-0.0409088134765625,-0.153411865234375,0.149322509765625,-0.1689306944608688,-0.0781310200691223,-0.2423351407051086,63.87924194335938,98.94401550292967,-30.36190795898438
243826,-0.062286376953125,-0.1907501220703125,0.1761322021484375,-0.2950457632541656,0.0714182555675506,-0.2190540581941605,63.78199768066406,98.9312744140625,-30.13247680664062
243827,-0.062286376953125,-0.1907501220703125,0.1761322021484375,-0.2950457632541656,0.0714182555675506,-0.2190540581941605,63.78199768066406,98.9312744140625,-30.13247680664062
243828,-0.1097869873046875,-0.2492218017578125,0.1419219970703125,-0.5659792423248291,0.4697736203670502,-0.1138192415237427,63.83421325683594,99.06097412109376,-29.55561828613281
243829,-0.12445068359375,-0.2522735595703125,0.1326751708984375,-0.715124785900116,0.6365178823471069,-0.0575224161148071,64.00584411621094,99.0802764892578,-29.18049621582031
243830,-0.1346588134765625,-0.2383270263671875,0.1240386962890625,-0.944572389125824,0.9039447903633118,-0.0123376259580254,64.18580627441406,99.25741577148438,-28.7325439453125
243831,-0.1346588134765625,-0.2383270263671875,0.1240386962890625,-0.944572389125824,0.9039447903633118,-0.0123376259580254,64.18580627441406,99.25741577148438,-28.7325439453125
243832,-0.12518310546875,-0.03857421875,0.0302886962890625,-1.246045351028442,0.6513234376907349,-0.144952654838562,64.58180236816406,99.6154327392578,-27.270751953125
243833,-0.1394805908203125,0.07244873046875,0.0393218994140625,-1.385987877845764,0.124538466334343,-0.0864893496036529,64.66294860839844,99.8365478515625,-26.46846008300781
243834,-0.151397705078125,0.139312744140625,0.127532958984375,-1.593387961387634,-0.6002088785171509,-0.0148417968302965,64.57196044921875,100.112548828125,-25.64427185058594
243835,-0.151397705078125,0.139312744140625,0.127532958984375,-1.593387961387634,-0.6002088785171509,-0.0148417968302965,64.57196044921875,100.112548828125,-25.64427185058594
243836,-0.38275146484375,0.767120361328125,1.011978149414062,-1.654721617698669,-1.21635377407074,0.0192088484764099,64.09516906738281,100.6804351806641,-24.42747497558594
243837,-0.8654022216796875,1.961380004882812,1.738510131835938,-1.53930926322937,0.2842511534690857,0.0737107023596763,63.75267028808594,101.0767669677734,-24.3685302734375
243838,-1.183853149414062,4.7823486328125,2.025558471679688,-0.9091520309448242,3.583595275878906,0.0498128309845924,63.46748352050781,101.5287017822266,-24.46836853027344
243839,-1.183853149414062,4.7823486328125,2.025558471679688,-0.9091520309448242,3.583595275878906,0.0498128309845924,63.46748352050781,101.5287017822266,-24.46836853027344
243840,-0.91766357421875,7.84942626953125,0.0801544189453125,0.4256969690322876,3.277303695678711,2.803572177886963,64.3857421875,102.3604125976562,-24.85185241699219
243841,-0.455078125,4.6881103515625,-1.943557739257812,0.4414048194885254,-0.4865797758102417,1.014508605003357,66.00846862792969,102.2884368896484,-24.51475524902344
243842,0.210418701171875,1.777328491210938,-2.267929077148438,-1.44926130771637,-8.807863235473633,-0.5231713056564331,67.62237548828125,101.6013793945312,-23.75532531738281
243843,0.210418701171875,1.777328491210938,-2.267929077148438,-1.44926130771637,-8.807863235473633,-0.5231713056564331,67.62237548828125,101.6013793945312,-23.75532531738281
243844,0.5165252685546875,0.8265838623046875,0.5456695556640625,-1.741619944572449,-7.415417194366455,-0.6177992820739746,67.23751831054688,100.6654968261719,-23.7342529296875
243845,1.269088745117188,1.44744873046875,-0.1747283935546875,-2.161112070083618,-2.640192985534668,0.0251980312168598,65.82279968261719,100.5967864990234,-24.07130432128906
243846,1.542388916015625,1.969451904296875,-1.784988403320312,-0.8160071969032288,-1.026504755020142,1.179455399513245,64.88246154785156,100.5070037841797,-24.00691223144531
243847,1.542388916015625,1.969451904296875,-1.784988403320312,-0.8160071969032288,-1.026504755020142,1.179455399513245,64.88246154785156,100.5070037841797,-24.00691223144531
243848,0.2835235595703125,1.402053833007812,-0.1221771240234375,3.021142482757568,-0.7684471607208252,0.5342333316802979,65.2054443359375,100.1094360351562,-23.39065551757812
243849,0.181488037109375,1.043594360351562,-0.2681884765625,3.034683465957642,-0.7268685102462769,0.5725268721580505,65.90771484375,99.60711669921876,-24.38812255859375
243850,0.181488037109375,1.043594360351562,-0.2681884765625,3.034683465957642,-0.7268685102462769,0.5725268721580505,65.90771484375,99.60711669921876,-24.38812255859375
243851,0.0442352294921875,0.9273223876953124,-0.095184326171875,2.291391849517822,-0.814799964427948,0.675973653793335,66.35588073730469,99.28947448730467,-25.9725341796875
243852,0.017303466796875,0.5140533447265625,0.0682220458984375,0.960272252559662,-0.6612453460693359,0.8344296216964722,67.10908508300781,98.36387634277344,-28.60379028320312
243853,0.017303466796875,0.5140533447265625,0.0682220458984375,0.960272252559662,-0.6612453460693359,0.8344296216964722,67.10908508300781,98.36387634277344,-28.60379028320312
243854,0.0933380126953125,0.190948486328125,0.235321044921875,0.8764460682868958,-0.7212748527526855,0.8934503197669983,67.81272888183594,97.71217346191406,-29.84751892089844
243855,0.0598602294921875,0.1519622802734375,0.4477996826171875,1.135514855384827,-0.23192298412323,0.8314085006713867,68.18589782714844,97.41795349121094,-30.06448364257812
243856,0.010772705078125,0.1162567138671875,0.5366973876953125,1.328059315681458,0.499336302280426,0.721849799156189,68.57595825195312,97.26026916503906,-30.40116882324219
243857,-0.0536956787109375,0.07049560546875,0.4807281494140625,1.341269612312317,1.150025963783264,0.5877149105072021,68.89228820800781,96.87718200683594,-30.90580749511719
243858,-0.1178741455078125,0.0196685791015625,0.3425750732421875,0.9724695086479188,1.430336117744446,0.2710573375225067,69.50144958496094,96.55828857421876,-31.34223937988281
243859,-0.1178741455078125,0.0196685791015625,0.3425750732421875,0.9724695086479188,1.430336117744446,0.2710573375225067,69.50144958496094,96.55828857421876,-31.34223937988281
243860,-0.1820068359375,-0.081298828125,0.033721923828125,0.7470523715019226,1.015134453773499,0.1521506458520889,70.69538879394531,95.79139709472656,-31.69911193847656
243861,-0.20208740234375,-0.0988616943359375,0.0035858154296875,0.5244888067245483,0.4993354976177216,0.0342879332602024,71.077880859375,95.58595275878906,-31.89805603027344
243862,-0.2584381103515625,-0.122283935546875,0.0609130859375,0.3131728172302246,0.1920762360095978,-0.0674474835395813,71.25634765625,95.41896057128906,-32.01687622070312
243863,-0.2584381103515625,-0.122283935546875,0.0609130859375,0.3131728172302246,0.1920762360095978,-0.0674474835395813,71.25634765625,95.41896057128906,-32.01687622070312
243864,-0.3270111083984375,-0.24371337890625,0.11322021484375,-0.0287363063544035,0.1540167331695557,-0.0743048563599586,71.5626220703125,95.5328369140625,-32.5205078125
243865,-0.362579345703125,-0.3106231689453125,0.1463775634765625,-0.1464642733335495,0.4076519310474396,0.0021358551457524,71.61665344238281,95.68331909179688,-32.47640991210938
243866,-0.38250732421875,-0.368194580078125,0.1837615966796875,-0.3655417561531067,1.317668676376343,0.1015692353248596,71.60287475585938,95.8916473388672,-32.39736938476562
243867,-0.38250732421875,-0.368194580078125,0.1837615966796875,-0.3655417561531067,1.317668676376343,0.1015692353248596,71.60287475585938,95.8916473388672,-32.39736938476562
243868,-0.2501220703125,-0.3554840087890625,-0.0812835693359375,-0.511893630027771,1.908826231956482,0.1422724574804306,71.71897888183594,96.1959228515625,-32.09246826171875
243869,-0.12664794921875,-0.3263397216796875,-0.2706146240234375,-0.5147560238838196,1.231587052345276,0.1330118477344513,72.06468200683594,96.42770385742188,-31.51528930664062
243870,-0.028472900390625,-0.18328857421875,-0.0554046630859375,-0.4489405155181885,0.7425572276115417,-0.0444010198116302,73.19367980957031,96.59855651855467,-29.51536560058594
243871,0.0107574462890625,-0.126312255859375,-0.022735595703125,-0.3983995616436005,0.5019667148590088,-0.1473806649446487,73.46348571777344,96.55963134765624,-28.46711730957031
243872,0.039520263671875,-0.0919952392578125,-0.0081939697265625,-0.3983995616436005,0.5019667148590088,-0.1473806649446487,73.77621459960938,96.44172668457033,-27.87705993652344
243873,0.039520263671875,-0.0919952392578125,-0.0081939697265625,-0.3983995616436005,0.5019667148590088,-0.1473806649446487,73.77621459960938,96.44172668457033,-27.87705993652344
243874,0.08477783203125,-0.0387725830078125,0.0641937255859375,-0.4528028964996338,-0.0791872292757034,-0.2974987924098969,73.73173522949219,96.4129638671875,-27.60427856445312
243875,0.1077728271484375,0.013336181640625,0.2031402587890625,-0.682622492313385,-0.4430557191371918,-0.3049676418304443,73.40560913085938,96.4709014892578,-27.52757263183594
243876,0.1331939697265625,0.1302032470703125,0.489715576171875,-1.068408250808716,-0.645255982875824,-0.2960177958011627,72.89808654785156,96.64028930664062,-27.4539794921875
243877,0.161346435546875,0.343658447265625,0.9144439697265624,-1.437951683998108,-0.4449947774410248,-0.3738052845001221,72.31526184082031,96.7341766357422,-27.60989379882812
243878,0.1826019287109375,0.7764892578125,1.37274169921875,-1.680556893348694,0.2446734011173248,-0.5862427353858948,71.59616088867188,96.97769165039062,-27.70051574707031
243879,0.230255126953125,1.620254516601562,1.807266235351562,-1.999017477035522,0.7986111640930176,-0.987174928188324,70.90422058105469,97.33956909179688,-27.5941162109375
243880,0.2044830322265625,4.22064208984375,2.527084350585938,-2.426127195358276,1.658821821212769,-1.058410286903381,70.30665588378906,97.69183349609376,-27.05831909179688
243881,0.0161285400390625,7.5421142578125,3.06219482421875,-2.382261991500854,3.890056371688843,0.0884992405772209,69.704833984375,98.16096496582033,-26.24296569824219
243882,-0.9064178466796876,8.088882446289062,2.099227905273438,-1.889588713645935,6.586140155792236,0.9953551292419434,69.41397094726562,98.6568603515625,-25.42559814453125
243883,-0.9064178466796876,8.088882446289062,2.099227905273438,-1.889588713645935,6.586140155792236,0.9953551292419434,69.41397094726562,98.6568603515625,-25.42559814453125
243884,-0.0077056884765625,2.670700073242188,-2.986038208007812,1.79172945022583,0.1476901173591614,-0.2297279983758926,70.85928344726562,99.308349609375,-23.19056701660156
243885,0.53936767578125,0.831390380859375,-4.137802124023438,2.725857019424438,-9.109992027282717,0.2392698377370834,71.55738830566406,99.16423034667967,-21.98524475097656
243886,0.61273193359375,0.785247802734375,-0.5374298095703125,1.508914828300476,-11.74590396881104,-0.2547720968723297,71.03739929199219,99.16574096679688,-22.09172058105469
243887,0.6375732421875,0.6026153564453125,1.313278198242188,-2.182838916778564,-1.684665083885193,-0.7508186101913452,69.701416015625,99.0902099609375,-23.88165283203125
243888,0.902801513671875,0.8350677490234375,-1.201095581054688,-2.095160961151123,2.092012882232666,0.6646669507026672,67.98577880859375,99.15618896484376,-25.81776428222656
243889,0.902801513671875,0.8350677490234375,-1.201095581054688,-2.095160961151123,2.092012882232666,0.6646669507026672,67.98577880859375,99.15618896484376,-25.81776428222656
243890,0.29376220703125,1.46978759765625,-0.1433258056640625,2.215976476669312,0.9891523718833924,0.7229318618774414,67.65997314453125,98.67544555664062,-24.95974731445312
243891,0.2647857666015625,1.102737426757812,-0.3011016845703125,2.215976476669312,0.9891523718833924,0.7229318618774414,68.471923828125,98.33119201660156,-24.597900390625
243892,0.1536712646484375,0.910003662109375,-0.754241943359375,1.288657784461975,0.5149022340774536,0.7235177159309387,69.10755920410156,98.03274536132812,-25.18672180175781
243893,0.1219635009765625,0.8733978271484375,-0.5523834228515625,0.5595123171806335,-0.2540567815303802,0.753527820110321,69.68574523925781,97.44758605957033,-25.98951721191406
243894,0.19354248046875,0.7705535888671875,-0.453765869140625,0.4066636264324188,-0.7512947916984558,0.8508676886558533,70.19851684570312,97.04475402832033,-26.6060791015625
243895,0.3280181884765625,0.67132568359375,-0.4713287353515625,0.628303587436676,-1.050040483474731,0.9014357924461364,70.55430603027344,96.93479919433594,-27.05328369140625
243896,0.4062652587890625,0.613250732421875,-0.26470947265625,0.9509945511817932,-0.0139009021222591,0.6908314228057861,70.71316528320312,96.62660217285156,-27.29585266113281
243897,0.4062652587890625,0.613250732421875,-0.26470947265625,0.9509945511817932,-0.0139009021222591,0.6908314228057861,70.71316528320312,96.62660217285156,-27.29585266113281
243898,0.3239288330078125,0.590850830078125,0.2111968994140625,1.05910325050354,0.6370291709899902,0.7013447880744934,71.37110900878906,96.14295959472656,-28.20501708984375
243899,0.24298095703125,0.5823516845703125,0.24462890625,1.171260356903076,0.9607497453689576,0.7176758646965027,71.66798400878906,95.95606994628906,-28.59255981445312
243900,0.1724853515625,0.5088653564453125,0.2035675048828125,1.242822647094727,0.9745249152183532,0.6500834822654724,72.12681579589844,95.578369140625,-28.708984375
243901,0.1724853515625,0.5088653564453125,0.2035675048828125,1.242822647094727,0.9745249152183532,0.6500834822654724,72.12681579589844,95.578369140625,-28.708984375
243902,0.05206298828125,0.270904541015625,0.1942138671875,0.9824212193489076,0.4871835112571716,0.1943668127059937,73.24049377441406,94.61790466308594,-29.2919921875
243903,0.0254669189453125,0.1484832763671875,0.2951812744140625,0.9824212193489076,0.4871835112571716,0.1943668127059937,73.73912048339844,94.19668579101562,-29.54457092285156
243904,0.004241943359375,0.0398712158203125,0.2595977783203125,0.6650347113609314,0.6063442230224609,0.0728835314512252,74.18267822265625,93.78433227539062,-29.77091979980469
243905,-0.01055908203125,-0.0633544921875,0.1109771728515625,0.2380386590957642,0.3019574582576752,-0.0733924582600593,74.463623046875,93.525390625,-29.96192932128906
243906,-0.0216827392578125,-0.124664306640625,0.034210205078125,0.2380386590957642,0.3019574582576752,-0.0733924582600593,74.76988220214844,93.3888702392578,-30.21134948730469
243907,-0.0216827392578125,-0.124664306640625,0.034210205078125,0.2380386590957642,0.3019574582576752,-0.0733924582600593,74.76988220214844,93.3888702392578,-30.21134948730469
243908,-0.0309600830078125,-0.126312255859375,0.0059814453125,0.1378766447305679,-0.0405309163033962,-0.1210159063339233,75.15042114257812,93.39045715332033,-30.19989013671875
243909,-0.0309600830078125,-0.126312255859375,0.0059814453125,0.1378766447305679,-0.0405309163033962,-0.1210159063339233,75.15042114257812,93.39045715332033,-30.19989013671875
243910,-0.044158935546875,-0.0884246826171875,0.075927734375,0.1406101137399673,-0.0647715404629707,-0.2067166864871979,75.2034912109375,93.4205322265625,-30.0611572265625
243911,-0.050323486328125,-0.0899200439453125,0.08673095703125,0.0848190188407897,0.0443320460617542,-0.2782918214797974,75.10737609863281,93.39955139160156,-29.90396118164062
243912,-0.0580902099609375,-0.09527587890625,0.0668792724609375,-0.0003680488734971,0.1382015496492386,-0.3508128821849823,75.08273315429688,93.42919921875,-29.75032043457031
243913,-0.0580902099609375,-0.09527587890625,0.0668792724609375,-0.0003680488734971,0.1382015496492386,-0.3508128821849823,75.08273315429688,93.42919921875,-29.75032043457031
243914,-0.06781005859375,-0.1080780029296875,0.0299835205078125,-0.2726562917232513,0.3066688477993011,-0.5185896158218384,75.07513427734375,93.60411071777344,-29.467041015625
243915,-0.06781005859375,-0.1080780029296875,0.0299835205078125,-0.2726562917232513,0.3066688477993011,-0.5185896158218384,75.07513427734375,93.60411071777344,-29.467041015625
243916,-0.020843505859375,-0.157012939453125,-0.2279205322265625,-0.5355499982833862,0.2294028252363205,-0.6196286082267761,75.1181640625,94.10995483398438,-28.78829956054688
243917,-0.020843505859375,-0.157012939453125,-0.2279205322265625,-0.5355499982833862,0.2294028252363205,-0.6196286082267761,75.1181640625,94.10995483398438,-28.78829956054688
243918,0.0456390380859375,-0.1787872314453125,-0.397247314453125,-0.5470662713050842,-0.4556934833526611,-0.5844176411628723,75.05747985839844,94.38002014160156,-28.27412414550781
243919,0.09588623046875,-0.105377197265625,-0.20550537109375,-0.7692660689353943,-0.9809072017669678,-0.5197832584381104,74.88699340820312,94.53067016601562,-27.84439086914062
243920,0.0457916259765625,0.1141357421875,0.294281005859375,-1.04159688949585,-0.6501644253730774,-0.5226288437843323,74.09111022949219,94.94900512695312,-27.33039855957031
243921,0.0410003662109375,0.23736572265625,0.588592529296875,-1.349616289138794,0.046370692551136,-0.6112905144691467,73.51191711425781,95.21629333496094,-27.21707153320312
243922,0.0557708740234375,0.805938720703125,1.162017822265625,-1.886502861976624,1.323682188987732,-0.9451947212219238,72.858154296875,95.59927368164062,-27.0543212890625
243923,0.0557708740234375,0.805938720703125,1.162017822265625,-1.886502861976624,1.323682188987732,-0.9451947212219238,72.858154296875,95.59927368164062,-27.0543212890625
243924,0.28582763671875,5.659530639648438,1.50396728515625,-2.439773559570312,4.26427698135376,-1.930980563163757,71.44287109375,96.5074462890625,-25.96394348144531
243925,-0.02447509765625,8.187362670898438,0.3624725341796875,-1.559863209724426,1.577510952949524,-0.5006734728813171,70.80839538574219,97.4373779296875,-25.27964782714844
243926,-0.8813018798828125,7.827789306640625,-0.159271240234375,-0.3996853530406952,-3.106266498565674,-0.4597614705562592,70.27999877929688,98.3364715576172,-24.99542236328125
243927,-0.8813018798828125,7.827789306640625,-0.159271240234375,-0.3996853530406952,-3.106266498565674,-0.4597614705562592,70.27999877929688,98.3364715576172,-24.99542236328125
243928,0.395782470703125,2.519515991210938,-0.018402099609375,0.3515308797359467,-6.550621032714844,-0.3241589069366455,70.20196533203125,98.72096252441406,-24.8221435546875
243929,0.395782470703125,2.519515991210938,-0.018402099609375,0.3515308797359467,-6.550621032714844,-0.3241589069366455,70.20196533203125,98.72096252441406,-24.8221435546875
243930,0.4499969482421875,0.4238739013671875,-0.707427978515625,0.3397658169269562,-0.2728365957736969,0.5554267168045044,68.64729309082031,98.59194946289062,-26.07609558105469
243931,0.4712677001953125,0.5803680419921875,-2.178543090820312,0.3397658169269562,-0.2728365957736969,0.5554267168045044,67.72581481933594,98.73811340332033,-26.74830627441406
243932,0.2957916259765625,1.244232177734375,-1.003265380859375,1.71526825428009,-0.8113535642623901,0.2218335866928101,67.23408508300781,98.85208129882812,-27.20361328125
243933,0.2957916259765625,1.244232177734375,-1.003265380859375,1.71526825428009,-0.8113535642623901,0.2218335866928101,67.23408508300781,98.85208129882812,-27.20361328125
243934,0.0896759033203125,1.001129150390625,-0.26318359375,1.037100195884705,-1.217932820320129,0.2216264009475708,67.88133239746094,98.01795959472656,-27.93962097167969
243935,0.021820068359375,0.7760467529296875,-0.2626190185546875,1.037100195884705,-1.217932820320129,0.2216264009475708,68.15943908691406,97.3744659423828,-28.89549255371094
243936,-0.0007781982421875,0.6385955810546875,-0.307830810546875,0.678504467010498,-0.9624629616737366,0.3300615251064301,68.28208923339844,96.9080047607422,-29.76347351074219
243937,0.081634521484375,0.4289703369140625,-0.3717193603515625,1.066948056221008,0.1224569380283356,0.7876397371292114,68.4208984375,96.48307800292967,-31.44854736328125
243938,0.081634521484375,0.4289703369140625,-0.3717193603515625,1.066948056221008,0.1224569380283356,0.7876397371292114,68.4208984375,96.48307800292967,-31.44854736328125
243939,0.0655059814453125,0.4292449951171875,-0.1290283203125,0.9340978860855104,0.7060285210609436,0.724459171295166,68.46372985839844,96.33370971679688,-31.96089172363281
243940,0.02606201171875,0.4542694091796875,0.0971527099609375,0.9340978860855104,0.7060285210609436,0.724459171295166,68.61105346679688,96.08029174804688,-32.40185546875
243941,-0.0101776123046875,0.390228271484375,0.127960205078125,0.68171226978302,1.11348569393158,0.606331467628479,68.88320922851562,95.69815063476562,-32.74546813964844
243942,-0.0558319091796875,0.306304931640625,0.1337127685546875,0.4343546330928802,1.314337611198425,0.4766640067100525,69.38836669921875,95.53781127929688,-33.08837890625
243943,-0.0558319091796875,0.306304931640625,0.1337127685546875,0.4343546330928802,1.314337611198425,0.4766640067100525,69.38836669921875,95.53781127929688,-33.08837890625
243944,-0.118194580078125,0.164276123046875,0.276214599609375,0.1442503929138184,1.834869980812073,0.1914519816637039,70.39016723632812,94.8056640625,-33.26747131347656
243945,-0.121368408203125,0.09283447265625,0.304718017578125,0.067734308540821,2.187606811523438,0.0651611611247062,70.96675109863281,94.5828857421875,-32.89273071289062
243946,-0.124298095703125,0.038604736328125,0.2920074462890625,0.0128960907459259,2.510928392410278,-0.04652089625597,71.56138610839844,94.52206420898438,-32.68588256835938
243947,-0.124298095703125,0.038604736328125,0.2920074462890625,0.0128960907459259,2.510928392410278,-0.04652089625597,71.56138610839844,94.52206420898438,-32.68588256835938
243948,-0.1441802978515625,-0.0399932861328125,0.1503143310546875,0.0485646054148674,2.704463720321655,-0.2389396131038666,72.50370788574219,94.3832550048828,-31.89140319824219
243949,-0.1441802978515625,-0.0399932861328125,0.1503143310546875,0.0485646054148674,2.704463720321655,-0.2389396131038666,72.50370788574219,94.3832550048828,-31.89140319824219
243950,-0.1501922607421875,-0.0824127197265625,0.0393524169921875,0.1550468355417252,2.440099000930786,-0.2784393429756165,73.09428405761719,94.28253173828124,-31.29647827148438
243951,-0.171966552734375,-0.137481689453125,-0.0457916259765625,0.4074303507804871,1.515836119651794,-0.2967334091663361,74.08293151855469,94.274658203125,-30.22964477539062
243952,-0.1753387451171875,-0.15374755859375,-0.01275634765625,0.4384796023368835,1.192732095718384,-0.3019776940345764,74.3955078125,94.26950073242188,-29.82646179199219
243953,-0.098846435546875,-0.1446990966796875,0.0042266845703125,0.276717871427536,0.8015931248664856,-0.3328565061092377,74.81898498535156,94.4774932861328,-29.29682922363281
243954,-0.098846435546875,-0.1446990966796875,0.0042266845703125,0.276717871427536,0.8015931248664856,-0.3328565061092377,74.81898498535156,94.4774932861328,-29.29682922363281
243955,-0.0529022216796875,-0.1295928955078125,0.00665283203125,0.0980746373534202,0.6113584637641907,-0.3690139949321747,74.8756103515625,94.54916381835938,-29.14643859863281
243956,-0.016448974609375,-0.1231536865234375,0.0230560302734375,-0.1322355270385742,0.3877996504306793,-0.4056550860404968,74.77134704589844,94.62107849121094,-28.83137512207031
243957,0.0125732421875,-0.12017822265625,0.0431060791015625,-0.3792823255062103,0.1508686095476151,-0.4375195503234863,74.73297119140625,94.6940460205078,-28.50613403320312
243958,0.0426025390625,-0.111297607421875,0.04974365234375,-0.6347092986106873,-0.1821394413709641,-0.4645351767539978,74.58268737792969,94.84098815917967,-28.10018920898438
243959,0.0789337158203125,-0.107269287109375,0.0946807861328125,-0.9068870544433594,-0.6151659488677979,-0.4975690245628357,74.26850891113281,94.83317565917967,-27.681884765625
243960,0.1345672607421875,-0.0912628173828125,0.22216796875,-1.207244515419006,-1.01133120059967,-0.5251564383506775,73.91026306152344,94.82369995117188,-27.14030456542969
243961,0.1345672607421875,-0.0912628173828125,0.22216796875,-1.207244515419006,-1.01133120059967,-0.5251564383506775,73.91026306152344,94.82369995117188,-27.14030456542969
243962,0.257293701171875,0.1617584228515625,0.7624664306640625,-2.041569471359253,0.1462972909212112,-0.7861291766166687,72.70172119140625,95.40077209472656,-26.42080688476562
243963,0.2718353271484375,0.3831024169921875,1.086456298828125,-2.041569471359253,0.1462972909212112,-0.7861291766166687,71.895751953125,95.81271362304688,-25.93820190429688
243964,0.3173370361328125,0.9654693603515624,1.380477905273438,-2.296757459640503,1.483922123908997,-1.133350491523743,71.17295837402344,96.36216735839844,-25.4407958984375
243965,0.3995513916015625,1.53369140625,1.6641845703125,-2.640613317489624,2.489609241485596,-1.520445227622986,70.4788818359375,96.92393493652344,-24.61944580078125
243966,0.2839508056640625,2.41448974609375,1.629974365234375,-2.958004951477051,2.954003095626831,-1.493960380554199,69.82826232910156,97.51397705078124,-23.40693664550781
243967,0.2839508056640625,2.41448974609375,1.629974365234375,-2.958004951477051,2.954003095626831,-1.493960380554199,69.82826232910156,97.51397705078124,-23.40693664550781
243968,-0.8759765625,8.127395629882812,0.1064453125,0.9241957068443298,-1.418012142181396,-1.964627742767334,68.62226867675781,98.98770141601562,-21.32771301269531
243969,-0.8759765625,8.127395629882812,0.1064453125,0.9241957068443298,-1.418012142181396,-1.964627742767334,68.62226867675781,98.98770141601562,-21.32771301269531
243970,-0.6908416748046875,3.018096923828125,-0.053558349609375,1.663169145584106,-4.110141277313232,-3.123092651367188,66.16587829589844,100.3618774414062,-23.69097900390625
243971,-1.404876708984375,0.3922576904296875,-0.80218505859375,-0.0180503726005554,-0.4128144681453705,-0.8315696716308594,64.20732116699219,100.7754516601562,-25.5518798828125
243972,-0.5467376708984375,0.51800537109375,-3.147781372070312,-1.029929399490356,-0.0024839304387569,1.265968203544617,62.65084838867188,101.2350311279297,-26.49325561523438
243973,0.0797882080078125,1.529129028320312,-1.370590209960938,0.1461809128522873,-1.846897125244141,1.89960777759552,62.16583251953125,101.6074829101562,-26.33222961425781
243974,0.1882476806640625,1.815414428710938,0.25372314453125,1.109752058982849,-0.8076694011688232,1.954047322273254,62.77735900878906,101.4929962158203,-25.85110473632812
243975,0.1882476806640625,1.815414428710938,0.25372314453125,1.109752058982849,-0.8076694011688232,1.954047322273254,62.77735900878906,101.4929962158203,-25.85110473632812
243976,0.6332244873046875,1.572006225585938,-0.6935882568359375,1.52339494228363,-0.2019190043210983,1.931103587150574,64.54975891113281,100.1163787841797,-25.97671508789062
243977,0.6332244873046875,1.572006225585938,-0.6935882568359375,1.52339494228363,-0.2019190043210983,1.931103587150574,64.54975891113281,100.1163787841797,-25.97671508789062
243978,0.646209716796875,1.361419677734375,-0.907073974609375,1.147869348526001,-0.6532483696937561,1.634276986122131,65.63336181640625,99.37637329101562,-26.33624267578125
243979,0.3444976806640625,0.8058013916015625,-0.296600341796875,0.9232175350189208,-0.130123108625412,0.9244590997695924,67.31813049316406,98.3525390625,-27.19009399414062
243980,0.2396240234375,0.6261138916015625,-0.212493896484375,0.964885115623474,0.2837323844432831,0.9065222144126892,67.8560791015625,98.00103759765624,-27.50828552246094
243981,0.2396240234375,0.6261138916015625,-0.212493896484375,0.964885115623474,0.2837323844432831,0.9065222144126892,67.8560791015625,98.00103759765624,-27.50828552246094
243982,0.10040283203125,0.4108734130859375,-0.1424407958984375,0.7553718090057373,0.4295814633369446,0.8233433961868286,68.98275756835938,97.21263122558594,-28.19717407226562
243983,0.1241912841796875,0.371185302734375,-0.082794189453125,0.8281525373458862,0.1398396641016006,0.7012885808944702,69.53657531738281,96.84828186035156,-28.33206176757812
243984,0.10888671875,0.3296356201171875,0.1332855224609375,1.00634491443634,0.0947552695870399,0.5293213725090027,70.15559387207031,96.39933776855467,-28.54377746582031
243985,0.0849609375,0.251922607421875,0.2629241943359375,1.178733229637146,0.3501859605312347,0.4046220481395721,70.50709533691406,96.10581970214844,-28.91804504394531
243986,0.0653839111328125,0.18450927734375,0.2828521728515625,1.212293028831482,0.6636813282966614,0.3317001760005951,70.75273132324219,95.892578125,-29.24745178222656
243987,0.0653839111328125,0.18450927734375,0.2828521728515625,1.212293028831482,0.6636813282966614,0.3317001760005951,70.75273132324219,95.892578125,-29.24745178222656
243988,0.0201263427734375,0.0670166015625,0.3205108642578125,0.6749371886253357,1.345341920852661,0.2181259393692017,71.29222106933594,95.38560485839844,-30.08729553222656
243989,0.0086517333984375,-0.018890380859375,0.1962432861328125,0.2900688350200653,1.515541315078735,0.1447910070419312,71.75181579589844,95.19329833984376,-30.17207336425781
243990,-0.00299072265625,-0.1011505126953125,0.022735595703125,0.0413431786000728,1.289777159690857,0.0916705280542373,72.22998046875,95.15505981445312,-30.01861572265625
243991,-0.01702880859375,-0.1172027587890625,0.0148468017578125,-0.0548488683998584,0.9038361310958862,0.0229356754571199,72.62586975097656,95.0433349609375,-29.74571228027344
243992,-0.028228759765625,-0.1098480224609375,0.0799407958984375,-0.0410544909536838,0.6224638223648071,-0.057820688933134,72.96829223632812,94.91130065917967,-29.25282287597656
243993,-0.028228759765625,-0.1098480224609375,0.0799407958984375,-0.0410544909536838,0.6224638223648071,-0.057820688933134,72.96829223632812,94.91130065917967,-29.25282287597656
243994,-0.041595458984375,-0.112457275390625,0.0683746337890625,0.0642389059066772,0.1908407956361771,-0.2298787385225296,73.476806640625,94.91250610351562,-28.52023315429688
243995,-0.043853759765625,-0.1168060302734375,0.058197021484375,0.097832553088665,-0.0527761280536651,-0.30058753490448,73.56991577148438,94.88458251953124,-28.29313659667969
243996,-0.042694091796875,-0.1153717041015625,0.0666046142578125,0.0764569565653801,-0.2501262128353119,-0.370600700378418,73.51312255859375,94.85408020019533,-28.14031982421875
243997,-0.042694091796875,-0.1153717041015625,0.0666046142578125,0.0764569565653801,-0.2501262128353119,-0.370600700378418,73.51312255859375,94.85408020019533,-28.14031982421875
243998,-0.02874755859375,-0.1063079833984375,0.0994873046875,-0.2488612234592438,-0.4358353614807129,-0.5124366879463196,73.28672790527344,94.83792114257812,-27.93672180175781
243999,-0.0178680419921875,-0.1057586669921875,0.1255035400390625,-0.5057784914970398,-0.4239366352558136,-0.5804298520088196,73.10377502441406,95.04270935058594,-27.8475341796875
244000,0.0039825439453125,-0.104827880859375,0.16326904296875,-0.8386909365653992,-0.3228126764297485,-0.6361039876937866,72.80451965332031,95.15509033203124,-27.47219848632812
244001,0.0039825439453125,-0.104827880859375,0.16326904296875,-0.8386909365653992,-0.3228126764297485,-0.6361039876937866,72.80451965332031,95.15509033203124,-27.47219848632812
244002,0.028472900390625,-0.0108795166015625,0.19573974609375,-1.565767526626587,0.0461278147995472,-0.7207821607589722,72.52935791015625,95.33113098144533,-27.16665649414062
244003,-0.003997802734375,0.117279052734375,0.2258453369140625,-1.565767526626587,0.0461278147995472,-0.7207821607589722,72.2213134765625,95.68331909179688,-26.70915222167969
244004,-0.061370849609375,0.4427032470703125,0.5391998291015625,-2.067031145095825,0.2954577505588531,-0.9681799411773682,71.39483642578125,96.48097229003906,-25.62074279785156
244005,-0.077117919921875,0.8016357421875,0.9592132568359376,-2.202575922012329,0.6258830428123474,-1.30256462097168,70.87850952148438,96.95939636230467,-25.04130554199219
244006,-0.2766265869140625,2.689285278320312,1.15753173828125,-0.8005552887916565,0.7997843027114868,-1.191964268684387,70.1861572265625,97.54754638671876,-24.61140441894531
244007,-0.2766265869140625,2.689285278320312,1.15753173828125,-0.8005552887916565,0.7997843027114868,-1.191964268684387,70.1861572265625,97.54754638671876,-24.61140441894531
244008,-0.7169189453125,7.451766967773438,0.45849609375,0.0913157984614372,-1.237153053283691,-0.2859268188476562,68.99549865722656,99.1500244140625,-24.49407958984375
244009,-0.7169189453125,7.451766967773438,0.45849609375,0.0913157984614372,-1.237153053283691,-0.2859268188476562,68.99549865722656,99.1500244140625,-24.49407958984375
244010,-0.05157470703125,3.63531494140625,-0.79443359375,0.2016870528459549,-4.241686820983887,0.0332282595336437,68.21646118164062,99.8564453125,-25.67987060546875
244011,-0.05157470703125,3.63531494140625,-0.79443359375,0.2016870528459549,-4.241686820983887,0.0332282595336437,68.21646118164062,99.8564453125,-25.67987060546875
244012,0.605133056640625,1.331390380859375,-0.9025421142578124,-0.1892958879470825,-2.298712730407715,1.251083612442017,66.92990112304688,99.75352478027344,-26.62495422363281
244013,0.6584014892578125,1.521347045898438,-0.876922607421875,0.7803205847740173,-0.6012243032455444,1.214311718940735,66.68141174316406,99.63784790039062,-26.67630004882812
244014,0.614990234375,1.738327026367188,-0.9013214111328124,1.740613341331482,-0.76631098985672,0.889435887336731,67.04203796386719,99.27615356445312,-26.71177673339844
244015,0.6098175048828125,1.542984008789062,-0.6769866943359375,1.831486701965332,-1.53079080581665,0.5522703528404236,67.79808044433594,98.70347595214844,-27.15846252441406
244016,0.5578765869140625,1.190277099609375,-0.3241119384765625,1.388339638710022,-1.740123510360718,0.3191662728786469,68.29823303222656,97.905517578125,-27.89274597167969
244017,0.5210723876953125,0.8609161376953125,-0.1303558349609375,1.004967212677002,-1.238741993904114,0.3288029134273529,68.58493041992188,97.3953857421875,-28.70445251464844
244018,0.5120391845703125,0.6183319091796875,-0.1971588134765625,0.9270690083503724,-0.6583586931228638,0.5385436415672302,68.82121276855469,97.06228637695312,-29.71749877929688
244019,0.4969482421875,0.4170074462890625,-0.3701324462890625,1.024615287780762,-0.3797105848789215,0.8047199249267578,68.925537109375,96.76116943359376,-30.31658935546875
244020,0.43450927734375,0.2550811767578125,-0.4258575439453125,1.230002760887146,-0.536842405796051,1.021547317504883,69.0616455078125,96.66650390625,-30.77497863769531
244021,0.43450927734375,0.2550811767578125,-0.4258575439453125,1.230002760887146,-0.536842405796051,1.021547317504883,69.0616455078125,96.66650390625,-30.77497863769531
244022,0.304290771484375,0.2167816162109375,-0.1269989013671875,1.479576945304871,-0.5576694011688232,1.067731022834778,69.35755920410156,96.40711975097656,-31.1727294921875
244023,0.036285400390625,0.2286224365234375,0.4463653564453125,1.521248698234558,0.5973219871520996,0.7405425310134888,70.1414794921875,95.3220672607422,-32.14234924316406
244024,-0.0790252685546875,0.1921234130859375,0.4752349853515625,1.312889695167542,1.387059211730957,0.562775731086731,70.56671142578125,94.862548828125,-32.79318237304688
244025,-0.1712799072265625,0.1806488037109375,0.3390960693359375,0.9993378520011902,1.811994075775146,0.3575669229030609,71.04978942871094,94.42184448242188,-33.34286499023438
244026,-0.2600250244140625,0.185791015625,0.2263031005859375,0.3978640139102936,1.588897585868835,-0.2682229280471802,71.60325622558594,94.15594482421876,-33.66049194335938
244027,-0.2600250244140625,0.185791015625,0.2263031005859375,0.3978640139102936,1.588897585868835,-0.2682229280471802,71.60325622558594,94.15594482421876,-33.66049194335938
244028,-0.3567962646484375,0.1190948486328125,0.2275390625,0.2511762976646423,1.367570996284485,-0.5600824952125549,72.77162170410156,93.5495147705078,-33.53948974609375
244029,-0.38739013671875,0.057830810546875,0.2003173828125,0.2279053330421448,1.195951342582703,-0.7706745862960815,73.12417602539062,93.60797119140624,-33.54997253417969
244030,-0.45465087890625,-0.057159423828125,0.1347808837890625,0.286765456199646,1.080095291137695,-0.8537098169326782,73.36824035644531,93.75251770019533,-33.50434875488281
244031,-0.45465087890625,-0.057159423828125,0.1347808837890625,0.286765456199646,1.080095291137695,-0.8537098169326782,73.36824035644531,93.75251770019533,-33.50434875488281
244032,-0.4940643310546875,-0.3854522705078125,-0.0468292236328125,0.3330139219760895,0.7956220507621765,-0.3607288897037506,73.30441284179688,94.17869567871094,-33.52024841308594
244033,-0.4033203125,-0.4195404052734375,-0.097412109375,0.2458057701587677,0.6344373822212219,-0.0126920929178595,73.272705078125,94.42463684082033,-33.49441528320312
244034,-0.2758636474609375,-0.34613037109375,0.0054168701171875,-0.1069914326071739,0.967519998550415,0.2044063955545425,73.23046875,94.65541076660156,-33.59129333496094
244035,-0.2758636474609375,-0.34613037109375,0.0054168701171875,-0.1069914326071739,0.967519998550415,0.2044063955545425,73.23046875,94.65541076660156,-33.59129333496094
244036,-0.0624542236328125,-0.1462554931640625,-0.0134429931640625,-0.7046796083450317,1.494884490966797,0.1201493069529533,73.66487121582031,94.7315673828125,-33.35174560546875
244037,-0.0624542236328125,-0.1462554931640625,-0.0134429931640625,-0.7046796083450317,1.494884490966797,0.1201493069529533,73.66487121582031,94.7315673828125,-33.35174560546875
244038,-0.0130462646484375,-0.1114959716796875,-0.0338134765625,-0.7867989540100098,1.207494258880615,-0.0199231076985597,73.94033813476562,94.75495910644533,-32.65242004394531
244039,0.02569580078125,-0.0861053466796875,-0.0489044189453125,-0.8959920406341553,0.7794427871704102,-0.1496592611074448,74.36477661132812,94.73712158203124,-32.07791137695312
244040,0.0894012451171875,-0.055755615234375,0.019439697265625,-1.15036952495575,-0.4138445854187012,-0.3589096963405609,74.48677062988281,95.03514099121094,-30.61402893066406
244041,0.135711669921875,-0.028228759765625,0.13958740234375,-1.329500317573547,-1.0449458360672,-0.4505504071712494,74.36845397949219,95.16363525390624,-30.01983642578125
244042,0.1900787353515625,0.062347412109375,0.3972015380859375,-1.57275128364563,-1.451486945152283,-0.5457509160041809,73.88961791992188,95.29719543457033,-29.38211059570312
244043,0.1900787353515625,0.062347412109375,0.3972015380859375,-1.57275128364563,-1.451486945152283,-0.5457509160041809,73.88961791992188,95.29719543457033,-29.38211059570312
244044,0.2337646484375,0.6266021728515625,1.210418701171875,-2.674320220947266,1.304926037788391,-1.307142019271851,72.50079345703125,95.87181091308594,-28.48123168945312
244045,0.2337646484375,0.6266021728515625,1.210418701171875,-2.674320220947266,1.304926037788391,-1.307142019271851,72.50079345703125,95.87181091308594,-28.48123168945312
244046,0.240509033203125,1.023117065429688,1.543441772460938,-2.674320220947266,1.304926037788391,-1.307142019271851,71.77865600585938,96.37965393066406,-28.10838317871094
244047,0.2043304443359375,1.675308227539062,1.831588745117188,-2.842648029327393,3.66987419128418,-1.394678592681885,70.995849609375,96.8045654296875,-27.17413330078125
244048,-0.5228118896484375,6.807098388671875,1.253692626953125,-1.150947093963623,3.080342769622803,-0.9678547978401184,69.88278198242188,97.96353149414062,-24.23616027832031
244049,-0.5228118896484375,6.807098388671875,1.253692626953125,-1.150947093963623,3.080342769622803,-0.9678547978401184,69.88278198242188,97.96353149414062,-24.23616027832031
244050,-1.237594604492188,8.051727294921875,0.18719482421875,1.104780435562134,1.615900993347168,-0.9669908285140992,69.73114013671875,98.57627868652344,-22.8077392578125
244051,-0.974639892578125,5.302001953125,-0.6560821533203125,2.497136354446411,-0.2811893224716187,-1.58723258972168,69.56315612792969,99.18377685546876,-22.54180908203125
244052,-0.3675079345703125,0.2268524169921875,-0.9777374267578124,-0.1069293767213821,-4.495876789093018,-1.179620862007141,68.66593933105469,99.67098999023438,-24.44612121582031
244053,0.0095062255859375,0.13604736328125,-1.349136352539062,-2.326719999313354,-3.073115587234497,0.1601172387599945,67.34944152832031,99.73020935058594,-25.55470275878906
244054,0.365234375,1.19744873046875,-1.457687377929688,-1.047209024429321,-4.143383979797363,1.308491230010986,66.12452697753906,99.98121643066406,-26.06370544433594
244055,0.373809814453125,2.030670166015625,-0.038604736328125,0.8058179616928101,-2.20219612121582,1.283613562583923,65.43360900878906,100.0998840332031,-25.66384887695312
244056,0.6252899169921875,1.959243774414062,-0.282501220703125,1.725022912025452,0.5779845118522644,1.095733642578125,65.30393981933594,100.0675811767578,-25.19435119628906
244057,0.6252899169921875,1.959243774414062,-0.282501220703125,1.725022912025452,0.5779845118522644,1.095733642578125,65.30393981933594,100.0675811767578,-25.19435119628906
244058,0.6060028076171875,1.599685668945312,-1.088272094726562,1.747275710105896,0.6218121647834778,0.9731691479682922,65.50846862792969,99.7437744140625,-25.42250061035156
244059,0.38104248046875,1.198196411132812,-1.002243041992188,1.147573709487915,-0.4121585190296173,0.7050625681877136,66.00277709960938,99.18693542480467,-25.93341064453125
244060,0.22576904296875,0.837677001953125,-0.4166717529296875,0.603277325630188,-0.9226399064064026,0.6188051700592041,67.1795654296875,98.30633544921876,-27.06195068359375
244061,0.22576904296875,0.837677001953125,-0.4166717529296875,0.603277325630188,-0.9226399064064026,0.6188051700592041,67.1795654296875,98.30633544921876,-27.06195068359375
244062,0.3270416259765625,0.8390045166015625,-0.385498046875,0.6703365445137024,-0.7922518253326416,0.7402903437614441,67.51004028320312,98.05332946777344,-27.56242370605469
244063,0.3781280517578125,0.833709716796875,-0.32623291015625,1.04600977897644,-0.7010555863380432,0.7119849324226379,67.78358459472656,97.85523986816406,-28.1104736328125
244064,0.2506256103515625,0.7740631103515625,-0.1099853515625,1.232696533203125,-0.6533114910125732,0.5611245632171631,68.34989929199219,97.27890014648438,-28.91563415527344
244065,0.2506256103515625,0.7740631103515625,-0.1099853515625,1.232696533203125,-0.6533114910125732,0.5611245632171631,68.34989929199219,97.27890014648438,-28.91563415527344
244066,0.15313720703125,0.681671142578125,-0.07025146484375,1.364524960517883,-0.6199386119842529,0.3864172101020813,68.60739135742188,97.00022888183594,-29.37672424316406
244067,0.048675537109375,0.5489654541015625,-0.0654144287109375,1.431963324546814,-0.5723591446876526,0.2237899452447891,68.78291320800781,96.7147216796875,-30.01771545410156
244068,-0.0608978271484375,0.2967529296875,-0.0105743408203125,1.404529571533203,-0.3193883895874023,0.0520967580378055,69.11021423339844,96.328125,-31.27685546875
244069,-0.0608978271484375,0.2967529296875,-0.0105743408203125,1.404529571533203,-0.3193883895874023,0.0520967580378055,69.11021423339844,96.328125,-31.27685546875
244070,-0.04693603515625,0.1052703857421875,0.069427490234375,0.8088589906692505,0.1923619955778122,0.0048544099554419,69.24673461914062,95.72828674316406,-32.56788635253906
244071,-0.0177459716796875,-0.0262451171875,-0.0350341796875,0.4747273623943329,0.1200699508190155,0.0124987475574016,69.34663391113281,95.55941772460938,-33.10737609863281
244072,0.0136260986328125,-0.1394500732421875,-0.0764007568359375,0.3037457764148712,-0.115391843020916,0.0587328225374221,69.51748657226562,95.34825134277344,-33.24459838867188
244073,0.0136260986328125,-0.1394500732421875,-0.0764007568359375,0.3037457764148712,-0.115391843020916,0.0587328225374221,69.51748657226562,95.34825134277344,-33.24459838867188
244074,0.02423095703125,-0.1704864501953125,0.085113525390625,0.2441620677709579,-0.0198594592511653,0.0842099487781524,69.77412414550781,95.15965270996094,-33.87709045410156
244075,0.02423095703125,-0.1704864501953125,0.085113525390625,0.2441620677709579,-0.0198594592511653,0.0842099487781524,69.77412414550781,95.15965270996094,-33.87709045410156
244076,0.023590087890625,-0.18487548828125,0.0433197021484375,0.2591178417205811,0.2101154178380966,0.0959904417395591,69.92976379394531,95.20646667480467,-34.07130432128906
244077,0.00823974609375,-0.1626739501953125,-0.044281005859375,0.3110718727111816,0.4139268696308136,0.0803811252117157,70.34083557128906,94.9237060546875,-33.91294860839844
244078,0.00823974609375,-0.1626739501953125,-0.044281005859375,0.3110718727111816,0.4139268696308136,0.0803811252117157,70.34083557128906,94.9237060546875,-33.91294860839844
244079,7.62939453125e-05,-0.1626434326171875,-0.01898193359375,-0.0952586084604263,0.4546071887016296,-0.0149744218215346,70.81065368652344,94.60452270507812,-33.34208679199219
244080,0.0048065185546875,-0.1459808349609375,-0.0057830810546875,-0.0952586084604263,0.4546071887016296,-0.0149744218215346,71.00355529785156,94.54385375976562,-32.97518920898438
244081,0.0048065185546875,-0.1459808349609375,-0.0057830810546875,-0.0952586084604263,0.4546071887016296,-0.0149744218215346,71.00355529785156,94.54385375976562,-32.97518920898438
244082,0.004486083984375,-0.1149749755859375,0.1280517578125,-0.6360065340995789,0.4229778945446014,-0.1440090984106064,71.61764526367188,94.15528869628906,-32.19540405273438
244083,0.0031585693359375,-0.0815582275390625,0.2082061767578125,-0.9985426664352416,0.5095942616462708,-0.2449165433645248,71.8724365234375,94.134521484375,-31.49386596679688
244084,-0.026275634765625,0.09466552734375,0.3231048583984375,-1.807283639907837,1.060394287109375,-0.6345255374908447,72.01663208007812,94.12335205078124,-30.98033142089844
244085,-0.026275634765625,0.09466552734375,0.3231048583984375,-1.807283639907837,1.060394287109375,-0.6345255374908447,72.01663208007812,94.12335205078124,-30.98033142089844
244086,-0.0429534912109375,0.217529296875,0.460662841796875,-1.807283639907837,1.060394287109375,-0.6345255374908447,71.99681091308594,94.4185028076172,-30.607666015625
244087,-0.1427001953125,0.70709228515625,1.04510498046875,-2.659626483917236,2.216071367263794,-1.256635665893555,71.67620849609375,95.17974853515624,-28.97808837890625
244088,-0.240509033203125,1.249984741210938,1.27728271484375,-2.726094245910645,2.782410383224487,-1.862495064735413,71.42169189453125,95.7969207763672,-27.87435913085938
244089,-0.240509033203125,1.249984741210938,1.27728271484375,-2.726094245910645,2.782410383224487,-1.862495064735413,71.42169189453125,95.7969207763672,-27.87435913085938
244090,-1.253158569335938,7.038497924804688,1.193695068359375,-0.3099426925182343,1.907684087753296,-1.420944213867188,70.46408081054688,97.81483459472656,-26.057861328125
244091,-1.426666259765625,8.030136108398438,0.910491943359375,1.229523181915283,1.929215431213379,1.249839901924133,70.05892944335938,98.77874755859376,-25.795654296875
244092,-1.426666259765625,8.030136108398438,0.910491943359375,1.229523181915283,1.929215431213379,1.249839901924133,70.05892944335938,98.77874755859376,-25.795654296875
244093,-0.728759765625,5.45733642578125,-1.070831298828125,1.72403359413147,0.496007889509201,0.6747499108314514,69.9517822265625,99.50233459472656,-26.19895935058594
244094,0.19647216796875,1.2113037109375,0.1454315185546875,-3.102017641067505,-6.446980953216553,-0.4765652120113373,70.96847534179688,99.06721496582033,-26.66026306152344
244095,0.4957122802734375,1.028564453125,0.4733734130859375,-3.423258066177368,-4.780396461486816,-0.2386802136898041,70.6650390625,98.60986328125,-26.71438598632812
244096,1.149993896484375,1.103713989257812,-0.349365234375,-2.080999851226807,-2.374127149581909,0.4703022539615631,69.56721496582031,98.65402221679688,-26.56024169921875
244097,1.149993896484375,1.103713989257812,-0.349365234375,-2.080999851226807,-2.374127149581909,0.4703022539615631,69.56721496582031,98.65402221679688,-26.56024169921875
244098,1.24774169921875,1.639923095703125,-1.862533569335938,0.9060353636741638,-1.563876390457153,1.074519753456116,68.53636169433594,98.8965301513672,-25.80409240722656
244099,0.496734619140625,1.885360717773438,-0.6822357177734375,2.851531267166138,-1.347648501396179,0.4976369440555573,67.85569763183594,99.07723999023438,-24.99478149414062
244100,0.0161590576171875,1.058822631835938,-0.157867431640625,1.815348744392395,-1.209870100021362,0.1603025943040848,68.27540588378906,98.32041931152344,-25.92733764648438
244101,0.0161590576171875,1.058822631835938,-0.157867431640625,1.815348744392395,-1.209870100021362,0.1603025943040848,68.27540588378906,98.32041931152344,-25.92733764648438
244102,0.0239410400390625,0.8271331787109375,-0.13201904296875,0.8879093527793884,-0.8712528944015503,0.2583519220352173,68.42268371582031,97.9130401611328,-27.38041687011719
244103,0.0516815185546875,0.610992431640625,-0.2565460205078125,0.4502779543399811,-0.5534589290618896,0.4437835812568665,68.55046081542969,97.47906494140624,-28.75666809082031
244104,0.040985107421875,0.360809326171875,-0.37396240234375,1.060380697250366,-0.7075949907302856,0.7409316301345825,68.75856018066406,96.89247131347656,-30.04527282714844
244105,0.040985107421875,0.360809326171875,-0.37396240234375,1.060380697250366,-0.7075949907302856,0.7409316301345825,68.75856018066406,96.89247131347656,-30.04527282714844
244106,0.0041351318359375,0.3187713623046875,-0.1493377685546875,1.438772797584534,-0.5290494561195374,0.7125988006591797,68.86883544921875,96.6356201171875,-30.302978515625
244107,-0.044158935546875,0.272125244140625,0.0083465576171875,1.363690853118896,0.4041328132152557,0.551935613155365,69.05836486816406,96.3715362548828,-30.7906494140625
244108,-0.159759521484375,0.1197509765625,-0.0245513916015625,1.091523170471191,0.6410143375396729,0.4662508070468903,69.37307739257812,95.74235534667967,-31.86703491210938
244109,-0.204345703125,0.063232421875,0.058380126953125,0.8186258673667908,0.8250395655632019,0.3901160657405853,69.65957641601562,95.4311065673828,-32.49365234375
244110,-0.204345703125,0.063232421875,0.058380126953125,0.8186258673667908,0.8250395655632019,0.3901160657405853,69.65957641601562,95.4311065673828,-32.49365234375
244111,-0.2188568115234375,0.0339813232421875,0.2040557861328125,0.4749910235404968,1.598019361495972,0.200730174779892,69.97608947753906,95.15817260742188,-32.96351623535156
244112,-0.212799072265625,-0.0343780517578125,0.1993865966796875,0.3434497714042664,1.908558368682861,0.099537506699562,70.7657470703125,94.7310791015625,-33.26185607910156
244113,-0.212799072265625,-0.0343780517578125,0.1993865966796875,0.3434497714042664,1.908558368682861,0.099537506699562,70.7657470703125,94.7310791015625,-33.26185607910156
244114,-0.206787109375,-0.12835693359375,-0.0083770751953125,0.1340038776397705,1.828792214393616,-0.1147492155432701,71.45115661621094,94.51409912109376,-33.06137084960938
244115,-0.191131591796875,-0.157073974609375,-0.0691986083984375,0.1071019545197487,1.513758301734924,-0.1926349550485611,71.89793395996094,94.53021240234376,-32.82308959960938
244116,-0.16119384765625,-0.163299560546875,-0.057647705078125,0.1235424429178238,1.207930445671082,-0.2625261545181274,72.2581787109375,94.5556640625,-32.51416015625
244117,-0.16119384765625,-0.163299560546875,-0.057647705078125,0.1235424429178238,1.207930445671082,-0.2625261545181274,72.2581787109375,94.5556640625,-32.51416015625
244118,-0.12384033203125,-0.15185546875,-0.012237548828125,0.1383323073387146,1.046872138977051,-0.3293645679950714,72.550048828125,94.58404541015624,-32.17744445800781
244119,-0.0396575927734375,-0.122283935546875,0.011962890625,-0.0886880606412887,0.8917064666748047,-0.5123759508132935,72.82359313964844,95.10049438476562,-31.61639404296875
244120,0.0102691650390625,-0.1214447021484375,-0.0381011962890625,-0.0886880606412887,0.8917064666748047,-0.5123759508132935,72.77851867675781,95.15545654296876,-31.24618530273438
244121,0.0102691650390625,-0.1214447021484375,-0.0381011962890625,-0.0886880606412887,0.8917064666748047,-0.5123759508132935,72.77851867675781,95.15545654296876,-31.24618530273438
244122,0.05511474609375,-0.1281585693359375,-0.105010986328125,-0.2045360952615738,0.6517642140388489,-0.5306558609008789,72.66299438476562,95.3247528076172,-31.13778686523438
244123,0.1200714111328125,-0.120330810546875,-0.098388671875,-0.3945499658584595,-0.0959414392709732,-0.5081010460853577,72.24456787109375,95.6914520263672,-30.13145446777344
244124,0.153411865234375,-0.091064453125,0.0667877197265625,-0.5139658451080322,-0.430856317281723,-0.5098832249641418,71.99751281738281,95.7170867919922,-29.61492919921875
244125,0.153411865234375,-0.091064453125,0.0667877197265625,-0.5139658451080322,-0.430856317281723,-0.5098832249641418,71.99751281738281,95.7170867919922,-29.61492919921875
244126,0.1919708251953125,-0.0028839111328125,0.3910064697265625,-0.7575321793556213,-0.3711743354797363,-0.5567077398300171,71.548828125,95.93402099609376,-29.32872009277344
244127,0.211212158203125,0.1343231201171875,0.689453125,-1.058255553245544,0.2414008975028992,-0.640031635761261,71.15008544921875,96.0223388671875,-29.06356811523438
244128,0.278961181640625,0.6852874755859375,1.0272216796875,-1.918574571609497,2.529299259185791,-0.9277976751327516,70.01847839355469,96.56497192382812,-28.21467590332031
244129,0.278961181640625,0.6852874755859375,1.0272216796875,-1.918574571609497,2.529299259185791,-0.9277976751327516,70.01847839355469,96.56497192382812,-28.21467590332031
244130,0.3937530517578125,2.933822631835938,1.447723388671875,-2.842856884002686,3.353270530700684,-0.8690107464790344,69.19827270507812,97.33506774902344,-25.92955017089844
244131,0.02532958984375,4.695831298828125,1.914505004882812,-2.638736248016357,3.213830947875977,-0.1771239191293716,69.203857421875,97.8878936767578,-24.60447692871094
244132,-0.772003173828125,6.1983642578125,1.79150390625,-1.731279969215393,2.604695796966553,-0.1795750856399536,69.29531860351562,98.18849182128906,-23.36767578125
244133,-0.772003173828125,6.1983642578125,1.79150390625,-1.731279969215393,2.604695796966553,-0.1795750856399536,69.29531860351562,98.18849182128906,-23.36767578125
244134,-1.189453125,6.094482421875,1.036590576171875,-0.942421853542328,1.1198810338974,-0.8537386059761047,69.58049011230469,98.48649597167967,-22.32563781738281
244135,-0.702667236328125,4.009780883789062,0.067138671875,-0.7207674980163574,-0.6553815603256226,-1.459504961967468,69.66166687011719,98.59757995605467,-21.45494079589844
244136,0.301971435546875,1.068344116210938,-1.917724609375,-0.6695660948753357,-6.443037986755371,-0.7548897862434387,68.19232177734375,99.34686279296876,-20.96257019042969
244137,0.301971435546875,1.068344116210938,-1.917724609375,-0.6695660948753357,-6.443037986755371,-0.7548897862434387,68.19232177734375,99.34686279296876,-20.96257019042969
244138,0.605712890625,1.039810180664062,-0.995452880859375,-0.3594407141208649,-8.442337989807129,-0.0907589346170425,66.84831237792969,99.83717346191406,-21.30662536621094
244139,0.4251708984375,1.984756469726562,-0.829803466796875,0.2345046550035477,1.304066300392151,0.4828878343105316,64.45036315917969,101.0008697509766,-22.41021728515625
244140,0.10662841796875,1.95941162109375,-0.897918701171875,1.463232040405273,1.186513900756836,0.2369342446327209,64.46022033691406,100.9417724609375,-22.36154174804688
244141,0.10662841796875,1.95941162109375,-0.897918701171875,1.463232040405273,1.186513900756836,0.2369342446327209,64.46022033691406,100.9417724609375,-22.36154174804688
244142,-0.0128631591796875,1.665512084960938,-0.4188385009765625,1.711017847061157,0.5630604028701782,0.1271148025989532,65.13864135742188,100.6266632080078,-22.53079223632812
244143,-0.2604827880859375,1.136184692382812,-0.5489501953125,0.926939845085144,-1.040812611579895,0.1516537070274353,66.10554504394531,99.61882019042967,-23.83837890625
244144,-0.241363525390625,0.8474273681640625,-0.605621337890625,0.726338803768158,-1.277549028396606,0.3659670650959015,66.3531494140625,99.328125,-24.581787109375
244145,-0.241363525390625,0.8474273681640625,-0.605621337890625,0.726338803768158,-1.277549028396606,0.3659670650959015,66.3531494140625,99.328125,-24.581787109375
244146,-0.162506103515625,0.707672119140625,-0.4377593994140625,1.519684910774231,-0.3052800297737122,0.6919283866882324,66.52638244628906,99.02169799804688,-25.69297790527344
244147,-0.1026153564453125,0.6541290283203125,-0.3333740234375,1.519684910774231,-0.3052800297737122,0.6919283866882324,66.75546264648438,98.79507446289062,-26.29452514648438
244148,-0.091094970703125,0.5826873779296875,-0.1586456298828125,1.608452916145325,0.11991947889328,0.6253427267074585,66.98095703125,98.45245361328124,-26.94190979003906
244149,-0.091094970703125,0.5826873779296875,-0.1586456298828125,1.608452916145325,0.11991947889328,0.6253427267074585,66.98095703125,98.45245361328124,-26.94190979003906
244150,-0.110137939453125,0.59271240234375,0.3248443603515625,1.542052268981934,0.6385157704353333,0.4873030781745911,67.783203125,97.7317352294922,-28.28047180175781
244151,-0.0361480712890625,0.522613525390625,0.38873291015625,1.402884006500244,1.099154233932495,0.3339689075946808,68.27659606933594,97.3108367919922,-28.85531616210938
244152,-0.018829345703125,0.396392822265625,0.330841064453125,1.000851631164551,1.265900015830994,0.1234457716345787,68.72425842285156,96.7584228515625,-29.29292297363281
244153,0.0014801025390625,0.069488525390625,0.05877685546875,0.857829749584198,0.9207293391227722,0.066021628677845,69.571044921875,96.1878662109375,-29.90013122558594
244154,0.0014801025390625,0.069488525390625,0.05877685546875,0.857829749584198,0.9207293391227722,0.066021628677845,69.571044921875,96.1878662109375,-29.90013122558594
244155,0.0115966796875,-0.062774658203125,0.025299072265625,0.8060091733932495,0.5260449051856995,0.0222046375274658,69.85134887695312,95.9535675048828,-29.98115539550781
244156,0.02825927734375,-0.1530609130859375,0.0046234130859375,0.8228358030319214,0.1855983585119247,9.614011651137844e-05,70.00297546386719,95.6807861328125,-30.09724426269531
244157,0.02825927734375,-0.1530609130859375,0.0046234130859375,0.8228358030319214,0.1855983585119247,9.614011651137844e-05,70.00297546386719,95.6807861328125,-30.09724426269531
244158,0.04217529296875,-0.1908111572265625,-0.0103302001953125,0.8614940047264099,-0.0397077314555645,-0.0070608388632535,70.08297729492188,95.52912902832033,-30.22940063476562
244159,0.0491485595703125,-0.18609619140625,-0.03057861328125,0.9063056707382202,-0.1904849857091904,0.0160234402865171,70.0830078125,95.49070739746094,-30.39155578613281
244160,0.043853759765625,-0.13250732421875,-0.0082550048828125,0.9870524406433104,-0.231025755405426,0.0444076769053936,69.82608032226562,95.30427551269533,-30.89639282226562
244161,0.043853759765625,-0.13250732421875,-0.0082550048828125,0.9870524406433104,-0.231025755405426,0.0444076769053936,69.82608032226562,95.30427551269533,-30.89639282226562
244162,0.0342864990234375,-0.122039794921875,0.117218017578125,0.664531409740448,0.6701743602752686,-0.0289461631327867,69.73390197753906,95.219482421875,-31.61386108398438
244163,0.0359039306640625,-0.123382568359375,0.1531982421875,0.664531409740448,0.6701743602752686,-0.0289461631327867,69.77239990234375,95.12882995605467,-31.70249938964844
244164,0.0457611083984375,-0.1214447021484375,0.1109619140625,0.3805872797966003,0.9901052117347716,-0.0557250492274761,69.83683776855469,94.85580444335938,-31.84262084960938
244165,0.0457611083984375,-0.1214447021484375,0.1109619140625,0.3805872797966003,0.9901052117347716,-0.0557250492274761,69.83683776855469,94.85580444335938,-31.84262084960938
244166,0.057830810546875,-0.122955322265625,0.0457000732421875,0.063629575073719,1.080153107643127,-0.0747602581977844,70.07058715820312,94.69017028808594,-31.64532470703125
244167,0.074615478515625,-0.12725830078125,-0.02471923828125,-0.6310309767723083,0.4515568017959595,-0.1183663234114647,70.34529113769531,94.53498840332033,-31.32981872558594
244168,0.1574859619140625,-0.0233306884765625,0.03717041015625,-1.360249757766724,0.030969101935625,-0.2597956359386444,70.78263854980469,94.35870361328124,-30.41072082519531
244169,0.1369781494140625,0.1530303955078125,0.2773284912109375,-1.690927505493164,0.537521481513977,-0.4338241517543793,70.76393127441406,94.3917236328125,-29.68515014648438
244170,0.1369781494140625,0.1530303955078125,0.2773284912109375,-1.690927505493164,0.537521481513977,-0.4338241517543793,70.76393127441406,94.3917236328125,-29.68515014648438
244171,0.062835693359375,0.4949951171875,0.8045806884765625,-2.700121641159058,2.476015329360962,-1.374231576919556,70.49797058105469,95.07061767578124,-28.38818359375
244172,0.0973052978515625,1.09344482421875,1.30670166015625,-2.700121641159058,2.476015329360962,-1.374231576919556,70.32009887695312,95.5230712890625,-27.48477172851562
244173,0.0973052978515625,1.09344482421875,1.30670166015625,-2.700121641159058,2.476015329360962,-1.374231576919556,70.32009887695312,95.5230712890625,-27.48477172851562
244174,-0.0762176513671875,6.131057739257812,0.625518798828125,-0.6995879411697388,-1.490687131881714,-2.250764608383179,69.45957946777344,97.24496459960938,-25.67608642578125
244175,-0.0762176513671875,6.131057739257812,0.625518798828125,-0.6995879411697388,-1.490687131881714,-2.250764608383179,69.45957946777344,97.24496459960938,-25.67608642578125
244176,-1.11383056640625,7.292388916015625,0.24365234375,1.048084378242493,-3.928683996200562,-2.105233192443848,67.643310546875,99.62580871582033,-24.90652465820312
244177,-1.11383056640625,7.292388916015625,0.24365234375,1.048084378242493,-3.928683996200562,-2.105233192443848,67.643310546875,99.62580871582033,-24.90652465820312
244178,-0.6233062744140625,3.621627807617188,0.065765380859375,1.511902928352356,-4.399813175201416,-2.354680776596069,66.67326354980469,100.5274658203125,-25.977783203125
244179,-0.0601348876953125,0.073577880859375,-1.184539794921875,-2.131554365158081,-4.777740955352783,0.0927115604281425,63.84866333007812,101.2519073486328,-28.52174377441406
244180,0.1860198974609375,0.1990203857421875,-0.61376953125,-2.131554365158081,-4.777740955352783,0.0927115604281425,61.89593505859375,101.3809509277344,-29.08915710449219
244181,0.1860198974609375,0.1990203857421875,-0.61376953125,-2.131554365158081,-4.777740955352783,0.0927115604281425,61.89593505859375,101.3809509277344,-29.08915710449219
244182,0.2555694580078125,1.458663940429688,-1.122604370117188,-0.8218717575073242,-2.698637723922729,0.8089948296546936,60.30072021484375,101.416748046875,-29.10704040527344
244183,-0.158721923828125,1.517501831054688,-0.33599853515625,2.700559854507446,0.2988900244235992,0.3070885837078094,59.65007019042969,101.4195098876953,-28.27133178710938
244184,-0.2446441650390625,1.173858642578125,-0.6316680908203125,2.225189685821533,-0.0803307890892028,0.3887514770030975,60.04156494140625,100.8530120849609,-28.78863525390625
244185,-0.2446441650390625,1.173858642578125,-0.6316680908203125,2.225189685821533,-0.0803307890892028,0.3887514770030975,60.04156494140625,100.8530120849609,-28.78863525390625
244186,-0.1811065673828125,0.744384765625,-0.282562255859375,0.8842347264289856,-0.59683758020401,0.575778067111969,60.97622680664062,99.57701110839844,-31.12765502929688
244187,-0.1523284912109375,0.6356658935546875,-0.3021240234375,0.8472852110862732,-0.6135558485984802,0.6427704095840454,61.33828735351562,99.18450927734376,-31.81048583984375
244188,-0.1016845703125,0.539581298828125,-0.275665283203125,0.837648332118988,-0.5333967804908752,0.6184563040733337,61.56600952148438,98.85311889648438,-32.21157836914062
244189,-0.1016845703125,0.539581298828125,-0.275665283203125,0.837648332118988,-0.5333967804908752,0.6184563040733337,61.56600952148438,98.85311889648438,-32.21157836914062
244190,-0.055328369140625,0.3748016357421875,-0.3491058349609375,0.9397549629211426,-0.6582990884780884,0.6233855485916138,61.73773193359375,98.70086669921876,-32.69717407226562
244191,-0.0533447265625,0.2779083251953125,-0.1756744384765625,1.082545399665833,-0.4911151230335236,0.5981497168540955,61.91238403320312,98.5713348388672,-33.18962097167969
244192,-0.0645294189453125,0.115631103515625,-0.026092529296875,1.028266191482544,0.5226719975471497,0.4948680698871613,62.13516235351562,98.13778686523438,-34.24615478515625
244193,-0.0645294189453125,0.115631103515625,-0.026092529296875,1.028266191482544,0.5226719975471497,0.4948680698871613,62.13516235351562,98.13778686523438,-34.24615478515625
244194,-0.0877227783203125,0.0068359375,0.031158447265625,0.7372497916221619,1.031923532485962,0.4536678791046143,62.56922912597656,97.58750915527344,-35.05775451660156
244195,-0.0937347412109375,-0.0274658203125,0.0934600830078125,0.575023353099823,1.301251649856567,0.4295393824577332,62.97856140136719,97.3779296875,-35.45018005371094
244196,-0.099853515625,-0.049591064453125,0.0975494384765625,0.4336049556732178,1.518200993537903,0.3992967903614044,63.44367980957031,97.13894653320312,-35.5859375
244197,-0.099853515625,-0.049591064453125,0.0975494384765625,0.4336049556732178,1.518200993537903,0.3992967903614044,63.44367980957031,97.13894653320312,-35.5859375
244198,-0.101470947265625,-0.06268310546875,0.0996246337890625,0.3061090707778931,1.707130670547485,0.3556643724441528,63.86355590820312,97.07608032226562,-35.55889892578125
244199,-0.0978851318359375,-0.079498291015625,0.0824432373046875,0.0748087242245674,1.869482398033142,0.2514178454875946,64.42575073242188,96.97691345214844,-35.54324340820312
244200,-0.0774383544921875,-0.1235809326171875,0.020050048828125,-0.0010820423485711,1.792196869850159,0.2131700664758682,65.71745300292969,96.59713745117188,-35.23410034179688
244201,-0.0774383544921875,-0.1235809326171875,0.020050048828125,-0.0010820423485711,1.792196869850159,0.2131700664758682,65.71745300292969,96.59713745117188,-35.23410034179688
244202,-0.05181884765625,-0.140380859375,-0.0212554931640625,0.0621640384197235,1.13561475276947,0.1539362967014313,66.81155395507812,96.57658386230467,-34.60972595214844
244203,-0.03558349609375,-0.1417388916015625,-0.0203094482421875,0.0621640384197235,1.13561475276947,0.1539362967014313,67.38278198242188,96.57484436035156,-34.25804138183594
244204,-0.01287841796875,-0.1287078857421875,0.01904296875,0.0995692014694213,0.9017263650894164,0.1166701540350914,67.89971923828125,96.4766082763672,-34.01382446289062
244205,-0.01287841796875,-0.1287078857421875,0.01904296875,0.0995692014694213,0.9017263650894164,0.1166701540350914,67.89971923828125,96.4766082763672,-34.01382446289062
244206,0.02825927734375,-0.0971527099609375,0.097412109375,-0.0991827771067619,0.4500872790813446,-0.0687401816248893,68.55619812011719,96.23324584960938,-33.36982727050781
244207,0.0456390380859375,-0.088531494140625,0.1154022216796875,-0.0991827771067619,0.4500872790813446,-0.0687401816248893,68.76905822753906,96.11953735351562,-33.01792907714844
244208,0.06640625,-0.084320068359375,0.129852294921875,-0.2721364498138428,0.2923746109008789,-0.1232641413807869,68.892578125,96.17803955078124,-32.75741577148438
244209,0.100860595703125,-0.074310302734375,0.1766815185546875,-0.5343568921089172,0.0351995341479778,-0.1688643842935562,68.89942932128906,96.22479248046876,-32.433837890625
244210,0.100860595703125,-0.074310302734375,0.1766815185546875,-0.5343568921089172,0.0351995341479778,-0.1688643842935562,68.89942932128906,96.22479248046876,-32.433837890625
244211,0.1495208740234375,-0.02813720703125,0.310394287109375,-0.873226523399353,-0.223233088850975,-0.2021006345748901,68.92990112304688,96.40994262695312,-32.17999267578125
244212,0.1896820068359375,0.2876434326171875,0.86529541015625,-1.672588467597961,0.0016250609187409,-0.3056192994117737,68.30625915527344,96.4770965576172,-31.44009399414062
244213,0.1896820068359375,0.2876434326171875,0.86529541015625,-1.672588467597961,0.0016250609187409,-0.3056192994117737,68.30625915527344,96.4770965576172,-31.44009399414062
244214,0.1960296630859375,0.6700286865234375,1.141952514648438,-2.164941072463989,0.4498827457427979,-0.4462986588478088,68.01695251464844,96.70999145507812,-31.05509948730469
244215,0.059326171875,2.105941772460938,2.111679077148438,-3.323321104049683,0.9485654830932616,-0.6942930221557617,67.28706359863281,97.2177276611328,-29.58665466308594
244216,-0.166839599609375,4.433120727539062,2.726943969726562,-3.314375877380371,1.283548593521118,-0.7298278212547302,67.04977416992188,97.63577270507812,-28.44902038574219
244217,-0.166839599609375,4.433120727539062,2.726943969726562,-3.314375877380371,1.283548593521118,-0.7298278212547302,67.04977416992188,97.63577270507812,-28.44902038574219
244218,-0.853729248046875,6.21051025390625,3.11358642578125,-2.79729175567627,1.738347172737122,-0.5424669981002808,66.90322875976562,98.07102966308594,-27.25578308105469
244219,-1.222213745117188,4.957489013671875,0.464996337890625,-1.796533346176147,3.209321975708008,-1.58568286895752,67.0120849609375,98.96842956542967,-25.30461120605469
244220,-0.497283935546875,2.49493408203125,-2.629562377929688,-0.423047661781311,-0.5954551100730896,-1.80035674571991,66.87490844726562,99.39112854003906,-24.07008361816406
244221,-0.497283935546875,2.49493408203125,-2.629562377929688,-0.423047661781311,-0.5954551100730896,-1.80035674571991,66.87490844726562,99.39112854003906,-24.07008361816406
244222,0.2540435791015625,0.9499053955078124,-4.36309814453125,1.368285059928894,-9.934165954589844,-1.091132283210754,66.44219970703125,100.0689849853516,-23.16020202636719
244223,-0.2012481689453125,0.6454010009765625,-0.3352508544921875,-0.4717491567134857,-6.9852614402771,0.2802393734455109,64.95578002929688,100.7356414794922,-23.12544250488281
244224,0.3523406982421875,1.981002807617188,-0.7234039306640625,1.023515343666077,1.377503514289856,1.236589789390564,61.29862976074219,101.7732391357422,-25.20698547363281
244225,0.3467254638671875,1.960296630859375,-0.31378173828125,1.667230486869812,0.5107085108757019,0.8140289783477783,61.40652465820312,101.6007385253906,-24.88340759277344
244226,0.3467254638671875,1.960296630859375,-0.31378173828125,1.667230486869812,0.5107085108757019,0.8140289783477783,61.40652465820312,101.6007385253906,-24.88340759277344
244227,0.3093109130859375,1.528427124023438,-0.9541778564453124,1.257983803749084,-0.9940720200538636,0.5484785437583923,63.31559753417969,100.4565277099609,-24.82017517089844
244228,0.1434326171875,1.126632690429688,-0.8937835693359375,0.952792763710022,-1.258927941322327,0.4659591913223267,63.90036010742188,99.88175964355467,-25.35350036621094
244229,0.1434326171875,1.126632690429688,-0.8937835693359375,0.952792763710022,-1.258927941322327,0.4659591913223267,63.90036010742188,99.88175964355467,-25.35350036621094
