time_idx,accelerometerAccelerationX(G),accelerometerAccelerationY(G),accelerometerAccelerationZ(G),gyroRotationX(rad/s),gyroRotationY(rad/s),gyroRotationZ(rad/s),magnetometerX(µT),magnetometerY(µT),magnetometerZ(µT)
184099,0.0356903076171875,1.835006713867188,0.171875,-0.7536383867263794,0.6613630056381226,-0.8270840644836426,37.78044128417969,98.4075927734375,-5.447158813476562
184100,-0.018707275390625,1.991622924804688,0.382354736328125,-0.709222137928009,0.9687197804450988,-0.9227789044380188,37.42350769042969,98.37174987792967,-5.207687377929688
184101,-0.0931854248046875,2.191421508789062,0.485595703125,-0.5074187517166138,1.11456561088562,-0.987985908985138,36.96772766113281,98.4241180419922,-5.179290771484375
184102,-0.0931854248046875,2.191421508789062,0.485595703125,-0.5074187517166138,1.11456561088562,-0.987985908985138,36.96772766113281,98.4241180419922,-5.179290771484375
184103,-0.4110565185546875,2.404891967773438,0.4972991943359375,0.0693175569176673,0.6056739091873169,-0.7516804337501526,36.03521728515625,98.44699096679688,-5.308013916015625
184104,-0.634002685546875,2.277481079101562,0.5156402587890625,0.2642233967781067,0.3163664937019348,-0.2248283177614212,35.64883422851562,98.46620178222656,-5.49798583984375
184105,-0.6147918701171875,2.083709716796875,0.3663787841796875,0.3272204697132111,-0.2167490869760513,0.3060648441314697,35.44000244140625,98.5186004638672,-5.795654296875
184106,-0.6147918701171875,2.083709716796875,0.3663787841796875,0.3272204697132111,-0.2167490869760513,0.3060648441314697,35.44000244140625,98.5186004638672,-5.795654296875
184107,-0.175750732421875,1.758010864257812,0.525604248046875,0.0475097298622131,-1.479748964309692,0.2215891182422638,35.69869995117188,98.53825378417967,-6.015823364257812
184108,-0.0389556884765625,1.733169555664062,0.598785400390625,-0.2063880562782288,-1.335533976554871,0.1511809974908829,35.88970947265625,98.5512237548828,-5.9222412109375
184109,0.0537109375,1.800750732421875,0.542633056640625,-0.2868011295795441,-1.145095586776733,0.0576680898666381,36.03861999511719,98.65185546875,-5.620574951171875
184110,0.0537109375,1.800750732421875,0.542633056640625,-0.2868011295795441,-1.145095586776733,0.0576680898666381,36.03861999511719,98.65185546875,-5.620574951171875
184111,0.0951690673828125,1.886032104492188,0.24896240234375,-0.0539710894227027,-0.9935039281845092,-0.2083332240581512,36.27473449707031,98.64515686035156,-4.872604370117188
184112,0.0710296630859375,1.851028442382812,0.0800933837890625,0.0244419593364,-0.9858827590942384,-0.2579516470432281,36.16688537597656,98.62779235839844,-4.63189697265625
184113,0.0518035888671875,1.785736083984375,0.0782318115234375,0.0589882172644138,-0.7913798689842224,-0.2431471347808838,36.2142333984375,98.6483917236328,-4.435638427734375
184114,0.0518035888671875,1.785736083984375,0.0782318115234375,0.0589882172644138,-0.7913798689842224,-0.2431471347808838,36.2142333984375,98.6483917236328,-4.435638427734375
184115,-0.0863037109375,1.66241455078125,0.10174560546875,0.1319580376148224,-0.3872715532779694,-0.2801251411437988,36.08367919921875,98.55125427246094,-3.989166259765625
184116,-0.1446685791015625,1.602447509765625,0.1126708984375,0.1032590121030807,-0.4585265517234802,-0.3180288374423981,36.02182006835938,98.498779296875,-3.958053588867188
184117,-0.132293701171875,1.545974731445312,0.0576934814453125,0.027835626155138,-0.5288896560668945,-0.3167230784893036,36.00032043457031,98.4730224609375,-4.059371948242188
184118,-0.083770751953125,1.47772216796875,-0.06658935546875,0.0224240832030773,-0.634807825088501,-0.2613543570041656,35.94796752929688,98.24885559082033,-4.016815185546875
184119,-0.020721435546875,1.389022827148438,-0.22259521484375,0.138692632317543,-0.883831799030304,-0.1440359950065613,35.98190307617188,98.0888214111328,-3.943267822265625
184120,0.0616455078125,1.308242797851562,-0.3381500244140625,0.3265213966369629,-1.182047724723816,0.0342352017760276,36.07197570800781,97.80873107910156,-3.82720947265625
184121,0.130218505859375,1.256561279296875,-0.36785888671875,0.5076472163200378,-1.345644950866699,0.2128584682941437,36.2095947265625,97.64279174804688,-3.581695556640625
184122,0.130218505859375,1.256561279296875,-0.36785888671875,0.5076472163200378,-1.345644950866699,0.2128584682941437,36.2095947265625,97.64279174804688,-3.581695556640625
184123,0.1400909423828125,1.061279296875,-0.1589202880859375,0.6594500541687012,-1.310041666030884,0.366223007440567,36.72929382324219,97.55789184570312,-3.37701416015625
184124,0.1240692138671875,0.914764404296875,-0.0676116943359375,0.6278865337371826,-1.252116560935974,0.3686440885066986,37.06077575683594,97.48207092285156,-3.595626831054688
184125,0.1231231689453125,0.7681732177734375,-0.0729827880859375,0.5450979471206665,-1.21806013584137,0.3647148609161377,37.4095458984375,97.5010986328125,-3.811843872070312
184126,0.1231231689453125,0.7681732177734375,-0.0729827880859375,0.5450979471206665,-1.21806013584137,0.3647148609161377,37.4095458984375,97.5010986328125,-3.811843872070312
184127,0.1414947509765625,0.5039825439453125,-0.2877960205078125,0.488616019487381,-1.095253705978394,0.4285587966442108,38.01730346679688,97.5556182861328,-4.254989624023438
184128,0.14508056640625,0.395904541015625,-0.42657470703125,0.544536292552948,-1.020964384078979,0.4654337465763092,38.41790771484375,97.46751403808594,-4.25958251953125
184129,0.1414031982421875,0.3034820556640625,-0.4296722412109375,0.6116157174110413,-0.8303648233413696,0.480657696723938,38.79248046875,97.51179504394533,-4.313369750976562
184130,0.1387786865234375,0.21820068359375,-0.3634796142578125,0.681580126285553,-0.5864978432655334,0.4878956377506256,39.11404418945312,97.58834838867188,-4.397903442382812
184131,0.1204681396484375,0.159210205078125,-0.287750244140625,0.765548825263977,-0.5718203783035278,0.5083465576171875,39.37921142578125,97.74478149414062,-4.592117309570312
184132,0.090179443359375,0.1188201904296875,-0.1489410400390625,0.8392669558525085,-0.6615065932273865,0.5233476161956787,39.70695495605469,97.85302734375,-4.876144409179688
184133,0.065582275390625,0.0805816650390625,0.0002593994140625,0.8410361409187317,-0.6381096243858337,0.5187017321586609,40.0224609375,97.76296997070312,-5.1600341796875
184134,0.065582275390625,0.0805816650390625,0.0002593994140625,0.8410361409187317,-0.6381096243858337,0.5187017321586609,40.0224609375,97.76296997070312,-5.1600341796875
184135,0.0194244384765625,-0.03472900390625,0.057220458984375,0.5563905239105225,-0.2927612960338593,0.4662257730960846,40.70651245117188,97.95729064941406,-5.741897583007812
184136,0.003570556640625,-0.1048736572265625,-0.024993896484375,0.3711879253387451,-0.1794919967651367,0.4356614649295807,40.94416809082031,98.14772033691406,-5.959548950195312
184137,-0.0242919921875,-0.2102813720703125,-0.177825927734375,0.1163649559020996,-0.2369089424610138,0.3702925741672516,41.39027404785156,98.34884643554688,-6.383941650390625
184138,-0.0242919921875,-0.2102813720703125,-0.177825927734375,0.1163649559020996,-0.2369089424610138,0.3702925741672516,41.39027404785156,98.34884643554688,-6.383941650390625
184139,-0.050750732421875,-0.2298126220703125,-0.234222412109375,0.0676086023449897,-0.3428886532783508,0.3435163497924805,41.67680358886719,98.40814208984376,-6.335311889648438
184140,-0.085906982421875,-0.2441864013671875,-0.2480621337890625,0.087006002664566,-0.3520784080028534,0.291242241859436,41.80609130859375,98.52001953125,-6.311309814453125
184141,-0.1157989501953125,-0.2555694580078125,-0.2258148193359375,0.1566005349159241,-0.1866487115621567,0.1926975399255753,41.90953063964844,98.63955688476562,-6.275100708007812
184142,-0.1157989501953125,-0.2555694580078125,-0.2258148193359375,0.1566005349159241,-0.1866487115621567,0.1926975399255753,41.90953063964844,98.63955688476562,-6.275100708007812
184143,-0.1126708984375,-0.231048583984375,-0.1420440673828125,0.1998915374279022,0.2418301999568939,-0.0755794495344162,42.38667297363281,98.70426940917967,-6.22283935546875
184144,-0.0787353515625,-0.1976318359375,-0.083770751953125,0.1008720174431801,0.3658717274665833,-0.2055259943008423,42.44610595703125,98.83262634277344,-6.089599609375
184145,-0.055206298828125,-0.1708984375,-0.04071044921875,-0.2742475271224976,0.6098566651344299,-0.4077043831348419,42.33685302734375,98.82675170898438,-6.178436279296875
184146,-0.055206298828125,-0.1708984375,-0.04071044921875,-0.2742475271224976,0.6098566651344299,-0.4077043831348419,42.33685302734375,98.82675170898438,-6.178436279296875
184147,-0.0509490966796875,-0.16436767578125,-0.072021484375,-0.6636701226234436,0.7953093647956848,-0.5298007130622864,42.1483154296875,98.82875061035156,-6.043838500976562
184148,-0.0447235107421875,-0.17657470703125,-0.163726806640625,-0.6636701226234436,0.7953093647956848,-0.5298007130622864,41.88858032226562,98.92350769042967,-5.804473876953125
184149,-0.011993408203125,-0.17169189453125,-0.344390869140625,-0.8029196262359619,0.6248987317085266,-0.5015318393707275,41.67829895019531,98.88638305664062,-5.481292724609375
184150,0.0399169921875,0.0550537109375,-0.5104217529296875,-0.8553168177604675,0.2106387317180634,-0.3668781220912933,41.44874572753906,98.79119873046876,-5.169082641601562
184151,0.0642242431640625,0.278900146484375,-0.4649200439453125,-0.8595190048217773,-0.167441725730896,-0.3602727055549622,41.18952941894531,98.75523376464844,-4.79547119140625
184152,0.061309814453125,0.3442230224609375,-0.048553466796875,-0.8998759984970093,0.011240404099226,-0.3969678580760956,40.88554382324219,98.59202575683594,-4.497085571289062
184153,0.0575103759765625,0.436431884765625,0.577789306640625,-1.669010996818542,2.161659717559814,-0.7008997797966003,40.66944885253906,98.55316162109376,-4.14178466796875
184154,0.04620361328125,0.5449371337890625,0.949737548828125,-2.021608114242554,3.291105270385742,-1.06648576259613,40.23121643066406,98.42112731933594,-3.732650756835938
184155,-0.0067901611328125,2.252517700195312,1.081329345703125,-2.021608114242554,3.291105270385742,-1.06648576259613,39.66297912597656,98.30807495117188,-3.525527954101562
184156,-0.137725830078125,4.764389038085938,0.8908538818359375,-1.910520553588867,3.533952474594116,-0.9488919973373412,38.97151184082031,98.2466278076172,-3.570526123046875
184157,-0.6071624755859375,6.06298828125,0.5826873779296875,-1.381033897399902,1.556127667427063,-0.6230849027633667,38.1572265625,98.1526336669922,-3.684356689453125
184158,-0.6071624755859375,6.06298828125,0.5826873779296875,-1.381033897399902,1.556127667427063,-0.6230849027633667,38.1572265625,98.1526336669922,-3.684356689453125
184159,-0.8401947021484375,4.716567993164062,0.8088226318359375,-0.1362204253673553,-0.7758440375328064,-1.059200644493103,37.02287292480469,97.91494750976562,-3.647308349609375
184160,-0.3803253173828125,2.356719970703125,0.48492431640625,-0.4199027419090271,-0.5096805691719055,-0.8000591397285461,36.70849609375,97.80851745605467,-3.608535766601562
184161,-0.36871337890625,1.255584716796875,0.1909027099609375,-0.807475745677948,0.7637498378753662,-0.4274668991565704,36.35794067382812,97.6414794921875,-3.3077392578125
184162,-0.36871337890625,1.255584716796875,0.1909027099609375,-0.807475745677948,0.7637498378753662,-0.4274668991565704,36.35794067382812,97.6414794921875,-3.3077392578125
184163,-0.0496063232421875,1.411529541015625,-1.443710327148438,-0.3207074403762817,-0.5366107225418091,0.4312427341938019,35.85185241699219,96.9312744140625,-2.391326904296875
184164,-0.0387725830078125,1.9132080078125,-0.552886962890625,0.3125693500041962,-0.6304804682731628,0.7704639434814453,35.67967224121094,96.63665771484376,-2.10003662109375
184165,0.0992584228515625,2.032791137695312,-0.1666259765625,0.7313487529754639,0.1034526228904724,0.97707599401474,35.78204345703125,96.60096740722656,-2.002334594726562
184166,0.23480224609375,1.909194946289062,-0.25091552734375,0.7992729544639587,0.3314908444881439,0.980292022228241,35.95414733886719,96.802978515625,-2.086593627929688
184167,0.329437255859375,1.770233154296875,-0.3258056640625,0.6135699152946472,0.0365249887108802,0.9992923140525818,36.30029296875,96.94499206542967,-2.256057739257812
184168,0.390533447265625,1.723114013671875,-0.2848052978515625,0.4096138775348663,-0.3090084493160248,1.061145067214966,36.58840942382812,97.06602478027344,-2.571701049804688
184169,0.433837890625,1.692169189453125,-0.1783294677734375,0.3268481492996216,-0.6254367232322693,1.172316312789917,36.98237609863281,97.1009521484375,-2.89337158203125
184170,0.433837890625,1.692169189453125,-0.1783294677734375,0.3268481492996216,-0.6254367232322693,1.172316312789917,36.98237609863281,97.1009521484375,-2.89337158203125
184171,0.4087371826171875,1.507919311523438,0.070343017578125,0.4526606798171997,-0.599608302116394,1.107060551643372,38.063720703125,97.26100158691406,-2.895294189453125
184172,0.340423583984375,1.32427978515625,0.100067138671875,0.5985827445983887,-0.5626969337463379,0.9804310202598572,38.63565063476562,97.3572998046875,-2.845916748046875
184173,0.2311248779296875,1.155715942382812,0.0449371337890625,0.7445263862609863,-0.6837067008018494,0.7318185567855835,39.29176330566406,97.4188232421875,-2.860458374023438
184174,0.2311248779296875,1.155715942382812,0.0449371337890625,0.7445263862609863,-0.6837067008018494,0.7318185567855835,39.29176330566406,97.4188232421875,-2.860458374023438
184175,0.05303955078125,0.9109344482421876,-0.078094482421875,0.7291924357414246,-0.7904174327850342,0.6617534756660461,40.34921264648438,97.67916870117188,-3.253128051757812
184176,0.0224609375,0.7875823974609375,-0.1562957763671875,0.7041682600975037,-0.9780222177505492,0.6057807207107544,40.77391052246094,97.80235290527344,-3.43182373046875
184177,0.0034637451171875,0.647491455078125,-0.2257080078125,0.6818723082542419,-1.217957019805908,0.5618463158607483,41.22882080078125,98.04425048828124,-3.816024780273438
184178,0.0034637451171875,0.647491455078125,-0.2257080078125,0.6818723082542419,-1.217957019805908,0.5618463158607483,41.22882080078125,98.04425048828124,-3.816024780273438
184179,-0.022064208984375,0.3553009033203125,-0.26904296875,0.6349567174911499,-1.541901826858521,0.4498124420642853,42.17015075683594,98.30314636230467,-4.389907836914062
184180,-0.0377349853515625,0.2144012451171875,-0.266845703125,0.5916611552238464,-1.459358692169189,0.3873993754386902,42.53985595703125,98.47306823730467,-4.414871215820312
184181,-0.0720367431640625,0.057952880859375,-0.2794647216796875,0.4532631039619446,-0.4971309304237366,0.2701414823532104,42.96176147460938,98.42808532714844,-4.688491821289062
184182,-0.0720367431640625,0.057952880859375,-0.2794647216796875,0.4532631039619446,-0.4971309304237366,0.2701414823532104,42.96176147460938,98.42808532714844,-4.688491821289062
184183,-0.072662353515625,-0.2014923095703125,-0.41094970703125,0.5745037794113159,-0.2033645659685135,0.2839390337467194,43.65351867675781,98.61154174804688,-4.942626953125
184184,0.04156494140625,-0.2018280029296875,-0.311920166015625,0.8313938975334167,-0.2594054639339447,0.3481068313121796,43.88670349121094,98.62234497070312,-5.02923583984375
184185,0.1383209228515625,-0.13568115234375,-0.1413116455078125,1.139807343482971,-0.2552445530891418,0.3149829804897308,44.13502502441406,98.70396423339844,-5.272811889648438
184186,0.1383209228515625,-0.13568115234375,-0.1413116455078125,1.139807343482971,-0.2552445530891418,0.3149829804897308,44.13502502441406,98.70396423339844,-5.272811889648438
184187,0.17791748046875,-0.120391845703125,-0.0406036376953125,1.055256485939026,-0.2413266003131866,0.3020306825637817,44.58882141113281,98.69718933105467,-5.816146850585938
184188,0.166259765625,-0.12481689453125,-0.0085906982421875,0.8835287094116211,-0.165480300784111,0.3013811409473419,44.72245788574219,98.757568359375,-6.183380126953125
184189,0.152435302734375,-0.1343536376953125,-0.0331878662109375,0.690313458442688,-0.0780298188328743,0.3145877718925476,44.89137268066406,98.99691772460938,-6.84271240234375
184190,0.152435302734375,-0.1343536376953125,-0.0331878662109375,0.690313458442688,-0.0780298188328743,0.3145877718925476,44.89137268066406,98.99691772460938,-6.84271240234375
184191,0.1324462890625,-0.1481475830078125,-0.10040283203125,0.4316483438014984,-0.1666467785835266,0.3758798837661743,45.07905578613281,99.16659545898438,-7.341842651367188
184192,0.123992919921875,-0.14227294921875,-0.091064453125,0.4086809754371643,-0.2278030663728714,0.3929784297943115,45.23475646972656,99.28199768066406,-7.344314575195312
184193,0.114288330078125,-0.13470458984375,-0.0438995361328125,0.4459423124790192,-0.2424065172672272,0.3855937719345093,45.43048095703125,99.4397430419922,-7.274383544921875
184194,0.114288330078125,-0.13470458984375,-0.0438995361328125,0.4459423124790192,-0.2424065172672272,0.3855937719345093,45.43048095703125,99.4397430419922,-7.274383544921875
184195,0.103424072265625,-0.1171112060546875,0.15496826171875,0.5060847401618958,0.2146332114934921,0.3011321425437927,45.87846374511719,99.44392395019533,-7.19439697265625
184196,0.0965576171875,-0.1065216064453125,0.191864013671875,0.4394314289093018,0.5757495760917664,0.2362538129091263,46.14776611328125,99.36360168457033,-7.118988037109375
184197,0.091644287109375,-0.106170654296875,0.183746337890625,0.2521038949489594,0.882270097732544,0.1615742444992065,46.30464172363281,99.29679870605467,-7.121536254882812
184198,0.091644287109375,-0.106170654296875,0.183746337890625,0.2521038949489594,0.882270097732544,0.1615742444992065,46.30464172363281,99.29679870605467,-7.121536254882812
184199,0.0657501220703125,-0.0945281982421875,0.0976104736328125,-0.4673101902008057,0.938976526260376,-0.0721016228199005,46.56074523925781,99.16194152832033,-6.967086791992188
184200,0.018524169921875,-0.01629638671875,0.055267333984375,-0.9001609683036804,0.7098426818847656,-0.300812840461731,46.66001892089844,99.02542114257812,-6.801498413085938
184201,-0.044158935546875,0.1426849365234375,0.0649261474609375,-1.5035240650177,0.0623920038342475,-0.8526877164840698,46.68142700195312,98.89073181152344,-6.519241333007812
184202,-0.044158935546875,0.1426849365234375,0.0649261474609375,-1.5035240650177,0.0623920038342475,-0.8526877164840698,46.68142700195312,98.89073181152344,-6.519241333007812
184203,-0.06549072265625,0.3026275634765625,0.4085540771484375,-1.911586880683899,-0.2034103721380234,-1.104949235916138,46.3070068359375,98.9153289794922,-5.493896484375
184204,-0.06549072265625,0.3026275634765625,0.4085540771484375,-1.911586880683899,-0.2034103721380234,-1.104949235916138,46.3070068359375,98.9153289794922,-5.493896484375
184205,-0.0755157470703125,0.65771484375,0.8563995361328125,-2.391517400741577,-0.0773318037390708,-1.522197842597961,45.99772644042969,98.87750244140624,-4.810379028320312
184206,-0.083160400390625,1.156005859375,1.21246337890625,-2.644720792770386,0.7381914854049683,-2.071926593780518,45.44593811035156,98.94593811035156,-4.066390991210938
184207,0.0611572265625,6.074081420898438,1.250457763671875,-1.396041035652161,1.305963039398193,-2.492299318313599,43.5150146484375,99.367431640625,-3.100601196289062
184208,-0.7581634521484375,7.794342041015625,1.611358642578125,-0.0558158606290817,1.026468515396118,0.3978224694728851,42.09117126464844,99.58763122558594,-3.211837768554688
184209,-1.367431640625,6.328598022460938,0.878997802734375,1.344118118286133,1.557056546211243,0.0715990886092186,41.05830383300781,99.59861755371094,-3.608230590820312
184210,-1.367431640625,6.328598022460938,0.878997802734375,1.344118118286133,1.557056546211243,0.0715990886092186,41.05830383300781,99.59861755371094,-3.608230590820312
184211,-0.4073028564453125,1.44189453125,-0.105560302734375,-0.2308774292469025,-3.650161266326904,-2.392946243286133,41.23649597167969,99.48162841796876,-4.20538330078125
184212,-0.3417510986328125,0.7285308837890625,-0.0272674560546875,-1.378197550773621,-5.066190719604492,-3.083756685256958,41.01815795898438,99.13272094726562,-4.116806030273438
184213,-0.2083587646484375,0.4609832763671875,0.118408203125,-2.506567478179932,-5.722594261169434,-3.522345066070557,40.46397399902344,98.43484497070312,-3.574081420898438
184214,-0.0511627197265625,0.9632568359375,-0.1991424560546875,-3.584450960159302,-3.152811765670776,-2.789253711700439,39.53755187988281,97.69354248046876,-2.517303466796875
184215,0.7714080810546875,2.078659057617188,-3.815658569335938,-3.927643299102783,-3.611451625823975,-0.671633780002594,38.45768737792969,96.98185729980467,-0.9466705322265624
184216,1.073379516601562,2.911346435546875,-2.062286376953125,-0.3482802212238312,-2.844753980636597,1.814328789710999,37.47581481933594,96.36257934570312,0.8958740234375
184217,0.48590087890625,2.926101684570312,0.3311920166015625,2.075796127319336,-0.5538467168807983,2.210297822952271,36.90940856933594,95.72853088378906,2.774917602539062
184218,0.48590087890625,2.926101684570312,0.3311920166015625,2.075796127319336,-0.5538467168807983,2.210297822952271,36.90940856933594,95.72853088378906,2.774917602539062
184219,0.39825439453125,2.219924926757812,0.177337646484375,2.296784162521362,1.200461983680725,1.814338088035583,38.55201721191406,95.8170928955078,4.02239990234375
184220,0.36309814453125,1.886383056640625,-0.01812744140625,1.640492558479309,1.003852248191833,1.536755800247192,39.57954406738281,96.23692321777344,3.138885498046875
184221,0.3126220703125,1.5948486328125,-0.100189208984375,0.8697018623352051,-0.1077704057097435,0.8713732361793518,40.41629028320312,96.72210693359376,2.238296508789062
184222,0.3126220703125,1.5948486328125,-0.100189208984375,0.8697018623352051,-0.1077704057097435,0.8713732361793518,40.41629028320312,96.72210693359376,2.238296508789062
184223,0.196624755859375,1.06549072265625,0.16015625,0.7833693623542786,-0.3486855626106262,0.63330078125,41.82391357421875,97.27781677246094,0.7834625244140625
184224,0.152618408203125,0.808349609375,0.2248687744140625,0.8076832294464111,-0.3793228268623352,0.5644862651824951,42.39280700683594,97.33235168457033,0.5698394775390625
184225,0.0941009521484375,0.613494873046875,0.2668914794921875,1.109294176101685,-0.0128383003175258,0.5987694263458252,42.83660888671875,97.49085998535156,0.2985687255859375
184226,0.0941009521484375,0.613494873046875,0.2668914794921875,1.109294176101685,-0.0128383003175258,0.5987694263458252,42.83660888671875,97.49085998535156,0.2985687255859375
184227,0.0099639892578125,0.3089752197265625,0.23419189453125,1.271116971969604,0.2034135758876801,0.6442463397979736,43.61341857910156,97.7737274169922,-0.63470458984375
184228,-0.0447540283203125,0.2225341796875,0.1874542236328125,1.356874704360962,0.341414600610733,0.6292732954025269,44.00506591796875,98.04969787597656,-0.971282958984375
184229,-0.0916748046875,0.13177490234375,0.1398773193359375,1.337526559829712,0.3234486281871796,0.4028896689414978,44.32624816894531,98.23292541503906,-1.493118286132812
184230,-0.0916748046875,0.13177490234375,0.1398773193359375,1.337526559829712,0.3234486281871796,0.4028896689414978,44.32624816894531,98.23292541503906,-1.493118286132812
184231,-0.1925811767578125,-0.01898193359375,0.077301025390625,1.104571938514709,-0.0056237974204123,-0.0196048598736524,44.96519470214844,98.6748504638672,-2.635406494140625
184232,-0.223785400390625,-0.0493927001953125,0.068878173828125,1.104571938514709,-0.0056237974204123,-0.0196048598736524,45.16035461425781,98.92446899414062,-3.339584350585938
184233,-0.25225830078125,-0.0668487548828125,0.0672760009765625,0.9156813025474548,-0.1583816558122635,-0.2662575244903564,45.31324768066406,99.03874206542967,-3.866363525390625
184234,-0.25225830078125,-0.0668487548828125,0.0672760009765625,0.9156813025474548,-0.1583816558122635,-0.2662575244903564,45.31324768066406,99.03874206542967,-3.866363525390625
184235,-0.2595672607421875,-0.10186767578125,0.0413360595703125,0.5045390725135803,-0.2617815434932709,-0.6783923506736755,45.44181823730469,99.40908813476562,-4.794281005859375
184236,-0.2347412109375,-0.1408843994140625,0.031829833984375,0.3651225864887238,-0.1186374351382256,-0.7226194739341736,45.301513671875,99.60997009277344,-5.07086181640625
184237,-0.197601318359375,-0.170196533203125,0.0213470458984375,0.2761271893978119,0.2786369621753693,-0.4367610812187195,45.10357666015625,99.80599975585938,-5.328689575195312
184238,-0.197601318359375,-0.170196533203125,0.0213470458984375,0.2761271893978119,0.2786369621753693,-0.4367610812187195,45.10357666015625,99.80599975585938,-5.328689575195312
184239,-0.0360260009765625,-0.0970001220703125,-0.0713043212890625,0.2729854583740234,0.2551289796829224,-0.3282660245895386,44.42185974121094,100.0520172119141,-5.6719970703125
184240,0.0221710205078125,-0.035003662109375,-0.1206817626953125,0.2702919542789459,0.051746018230915,-0.2859372198581696,44.03807067871094,100.04345703125,-5.70318603515625
184241,0.0571441650390625,-0.01275634765625,-0.22186279296875,0.2228003144264221,-0.3718278706073761,-0.2633386850357056,43.83894348144531,100.051513671875,-5.695205688476562
184242,0.0571441650390625,-0.01275634765625,-0.22186279296875,0.2228003144264221,-0.3718278706073761,-0.2633386850357056,43.83894348144531,100.051513671875,-5.695205688476562
184243,0.0513458251953125,-0.0075836181640625,-0.0790252685546875,0.0579703599214553,-1.156069755554199,-0.2400203198194504,43.62149047851562,99.8695068359375,-5.953933715820312
184244,0.0361785888671875,-0.0149993896484375,0.0283203125,-0.0269658379256725,-1.184102177619934,-0.2384184300899506,43.50877380371094,99.69273376464844,-6.035568237304688
184245,0.029937744140625,-0.0217132568359375,0.0777740478515625,-0.1184968203306198,-1.098025321960449,-0.2427473962306976,43.39414978027344,99.67474365234376,-6.1224365234375
184246,0.029937744140625,-0.0217132568359375,0.0777740478515625,-0.1184968203306198,-1.098025321960449,-0.2427473962306976,43.39414978027344,99.67474365234376,-6.1224365234375
184247,0.0166473388671875,-0.052642822265625,0.1199188232421875,-0.4715344905853271,-0.8173880577087402,-0.2699220180511475,43.29408264160156,99.53372192382812,-5.826217651367188
184248,0.0041046142578125,-0.07293701171875,0.1427154541015625,-0.4715344905853271,-0.8173880577087402,-0.2699220180511475,43.32441711425781,99.3031768798828,-5.479171752929688
184249,-0.0047454833984375,-0.0930633544921875,0.173126220703125,-0.6048877835273743,-0.7100565433502197,-0.2719292640686035,43.33488464355469,99.22152709960938,-5.043014526367188
184250,-0.0047454833984375,-0.0930633544921875,0.173126220703125,-0.6048877835273743,-0.7100565433502197,-0.2719292640686035,43.33488464355469,99.22152709960938,-5.043014526367188
184251,-0.0312042236328125,-0.107086181640625,0.1725311279296875,-0.949734389781952,-0.492914617061615,-0.3000615537166595,43.31890869140625,98.4970703125,-3.5501708984375
184252,-0.0460357666015625,-0.1116485595703125,0.1413726806640625,-1.155117869377136,-0.4090841710567474,-0.3305672705173492,43.3577880859375,98.34878540039062,-2.898208618164062
184253,-0.0695343017578125,-0.1279754638671875,0.0762176513671875,-1.354834198951721,-0.327555775642395,-0.3405386805534363,43.38079833984375,98.18153381347656,-2.062667846679688
184254,-0.0695343017578125,-0.1279754638671875,0.0762176513671875,-1.354834198951721,-0.327555775642395,-0.3405386805534363,43.38079833984375,98.18153381347656,-2.062667846679688
184255,-0.0820465087890625,-0.0982666015625,-0.12176513671875,-1.667741537094116,-0.34014692902565,-0.3449355363845825,43.34408569335938,97.83663940429688,-0.12127685546875
184256,-0.05322265625,0.1229705810546875,-0.813690185546875,-1.526252508163452,-0.6556944847106934,-0.4078383445739746,43.33677673339844,97.73423767089844,0.82525634765625
184257,-0.0057830810546875,0.3253631591796875,-1.305099487304688,-0.9188571572303772,-2.433376312255859,-0.4251355826854706,43.06977844238281,97.72618103027344,1.512359619140625
184258,-0.0057830810546875,0.3253631591796875,-1.305099487304688,-0.9188571572303772,-2.433376312255859,-0.4251355826854706,43.06977844238281,97.72618103027344,1.512359619140625
184259,-0.046234130859375,0.2422943115234375,0.85247802734375,-0.901315987110138,0.0999098196625709,-0.1075733304023743,42.36831665039062,97.85548400878906,2.098724365234375
184260,0.0115814208984375,0.9360198974609376,1.280563354492188,-1.775640845298767,1.733890414237976,-0.3303092122077942,41.76504516601562,97.9082489013672,1.972625732421875
184261,0.0257415771484375,2.769561767578125,1.290023803710938,-3.060288906097412,2.854094743728638,-0.8205705285072327,41.07638549804688,97.88302612304688,1.639068603515625
184262,0.0257415771484375,2.769561767578125,1.290023803710938,-3.060288906097412,2.854094743728638,-0.8205705285072327,41.07638549804688,97.88302612304688,1.639068603515625
184263,-1.044570922851562,8.143356323242188,0.9109954833984376,-3.113208293914795,-1.594925403594971,0.6708680987358093,39.45462036132812,97.6121063232422,1.468292236328125
184264,-1.26611328125,7.395462036132812,1.412628173828125,-1.04166567325592,-2.694374561309814,-0.469074547290802,39.64553833007812,97.1501922607422,1.842727661132812
184265,-0.341705322265625,3.9349365234375,0.90142822265625,0.0634378269314765,-2.226915597915649,-0.9113728404045104,40.20602416992188,96.59727478027344,2.862991333007812
184266,-0.341705322265625,3.9349365234375,0.90142822265625,0.0634378269314765,-2.226915597915649,-0.9113728404045104,40.20602416992188,96.59727478027344,2.862991333007812
184267,-0.2348785400390625,0.540863037109375,0.143798828125,-0.2615706324577332,1.23300576210022,-0.1716271489858627,40.57786560058594,95.80900573730467,4.920745849609375
184268,-0.20428466796875,0.347991943359375,-0.880950927734375,-0.2890264689922333,2.568568706512451,0.4158233106136322,40.33065795898438,95.78363037109376,5.303314208984375
184269,-0.114044189453125,0.94415283203125,-2.2950439453125,0.6526092290878296,0.9518371820449828,0.5403764247894287,40.005615234375,95.60699462890624,5.564926147460938
184270,-0.1714935302734375,1.742813110351562,-1.323287963867188,1.018460988998413,-0.2302049696445465,0.5952268838882446,39.81944274902344,95.52818298339844,5.45001220703125
184271,-0.1381988525390625,2.002822875976562,-0.1718597412109375,0.6925302743911743,0.570771336555481,0.6887709498405457,39.83573913574219,95.65452575683594,4.969833374023438
184272,0.036712646484375,2.04925537109375,-0.0778045654296875,0.3383708596229553,1.137377977371216,0.8198536038398743,40.07273864746094,95.78611755371094,4.46832275390625
184273,0.173065185546875,1.9561767578125,-0.1303253173828125,0.1791788041591644,1.240051984786987,1.113513946533203,40.36521911621094,95.78895568847656,3.981109619140625
184274,0.173065185546875,1.9561767578125,-0.1303253173828125,0.1791788041591644,1.240051984786987,1.113513946533203,40.36521911621094,95.78895568847656,3.981109619140625
184275,0.292510986328125,1.647369384765625,-0.1147613525390625,0.3394909799098969,0.6870231032371521,1.320671439170837,41.01223754882812,95.69619750976562,3.590133666992188
184276,0.3107147216796875,1.3831787109375,0.03656005859375,0.4793530106544495,0.2875739932060242,1.301218867301941,41.56524658203125,95.67803955078124,3.530838012695312
184277,0.2846527099609375,1.1741943359375,0.182464599609375,0.604159951210022,0.1746738106012344,1.197304725646973,42.06712341308594,95.86962890625,3.304397583007812
184278,0.2846527099609375,1.1741943359375,0.182464599609375,0.604159951210022,0.1746738106012344,1.197304725646973,42.06712341308594,95.86962890625,3.304397583007812
184279,0.2254791259765625,0.7798919677734375,0.1756591796875,0.8001709580421448,0.1776019483804703,0.9399893283843994,43.27001953125,96.14598083496094,3.056411743164062
184280,0.1905670166015625,0.630218505859375,0.13238525390625,0.940310001373291,-0.0072523201815783,0.8674892783164978,43.83767700195312,96.24508666992188,2.814926147460938
184281,0.1530609130859375,0.50885009765625,0.0949249267578125,1.054421901702881,-0.3803049921989441,0.7913165092468262,44.21479797363281,96.5586395263672,2.3922119140625
184282,0.1530609130859375,0.50885009765625,0.0949249267578125,1.054421901702881,-0.3803049921989441,0.7913165092468262,44.21479797363281,96.5586395263672,2.3922119140625
184283,0.0676727294921875,0.3621368408203125,0.1464996337890625,1.146000027656555,-1.10371732711792,0.5690237879753113,45.16789245605469,96.78402709960938,1.651779174804688
184284,0.0169525146484375,0.2978973388671875,0.194122314453125,1.077516317367554,-1.171861410140991,0.4277867674827576,45.63165283203125,96.998046875,1.214691162109375
184285,-0.01995849609375,0.2276763916015625,0.162353515625,0.7234852313995361,-1.25007152557373,0.1631881296634674,45.98857116699219,97.23786926269533,0.8029327392578125
184286,-0.01995849609375,0.2276763916015625,0.162353515625,0.7234852313995361,-1.25007152557373,0.1631881296634674,45.98857116699219,97.23786926269533,0.8029327392578125
184287,-0.0431976318359375,0.046875,-0.2386016845703125,0.4214750528335571,-2.338875293731689,0.0017856494523584,46.56260681152344,97.44172668457033,0.0632171630859375
184288,-0.016082763671875,-0.049163818359375,-0.3450775146484375,0.4214750528335571,-2.338875293731689,0.0017856494523584,46.85528564453125,97.5335693359375,-0.07232666015625
184289,0.045501708984375,-0.0943603515625,-0.1948089599609375,0.406686544418335,-2.520451307296753,-0.0030333404429256,47.11015319824219,97.68450927734376,-0.205902099609375
184290,0.045501708984375,-0.0943603515625,-0.1948089599609375,0.406686544418335,-2.520451307296753,-0.0030333404429256,47.11015319824219,97.68450927734376,-0.205902099609375
184291,0.2233428955078125,-0.1079559326171875,0.032470703125,0.426932156085968,-1.125884056091309,0.082129493355751,47.58589172363281,97.9102783203125,-0.423309326171875
184292,0.28253173828125,-0.102294921875,0.089447021484375,0.4186998009681702,-0.2743071913719177,0.1686151176691055,47.81503295898438,97.93765258789062,-0.59478759765625
184293,0.2620697021484375,-0.0921173095703125,0.1446075439453125,0.4104668796062469,0.2624300122261047,0.2535672783851624,47.99348449707031,97.97740173339844,-0.7129364013671875
184294,0.2160186767578125,-0.071746826171875,0.132476806640625,0.3676312863826752,0.4370079636573792,0.3239842057228088,48.20497131347656,97.99278259277344,-0.8768463134765625
184295,0.15234375,-0.028778076171875,0.097412109375,0.2916670143604279,0.3360802829265594,0.3355111479759216,48.29426574707031,98.12882995605467,-0.95062255859375
184296,0.0753631591796875,-0.010223388671875,0.0663604736328125,0.2276158481836319,0.1738626062870026,0.2451719343662262,48.50666809082031,98.21018981933594,-1.011734008789062
184297,0.0410003662109375,-0.04266357421875,0.0172576904296875,0.1572103947401047,0.0151717625558376,0.1589915156364441,48.69343566894531,98.23501586914062,-1.081634521484375
184298,0.0410003662109375,-0.04266357421875,0.0172576904296875,0.1572103947401047,0.0151717625558376,0.1589915156364441,48.69343566894531,98.23501586914062,-1.081634521484375
184299,0.0443115234375,-0.0714111328125,-0.0509796142578125,-0.0638410300016403,-0.2341898679733276,0.1144903600215912,48.92752075195312,98.29220581054688,-1.307998657226562
184300,0.050811767578125,-0.072540283203125,-0.043670654296875,-0.1837927401065826,-0.2884728014469147,0.1034448966383934,49.04104614257812,98.31935119628906,-1.311920166015625
184301,0.05645751953125,-0.06036376953125,0.019287109375,-0.2833816409111023,-0.2181363254785538,0.0790823027491569,49.06266784667969,98.30010986328124,-1.23760986328125
184302,0.05645751953125,-0.06036376953125,0.019287109375,-0.2833816409111023,-0.2181363254785538,0.0790823027491569,49.06266784667969,98.30010986328124,-1.23760986328125
184303,0.04736328125,0.02130126953125,0.2353057861328125,-0.4595116674900055,0.4197655916213989,-0.1241459175944328,49.22285461425781,98.37127685546876,-0.9106597900390624
184304,0.04736328125,0.02130126953125,0.2353057861328125,-0.4595116674900055,0.4197655916213989,-0.1241459175944328,49.22285461425781,98.37127685546876,-0.9106597900390624
184305,0.0472869873046875,0.08587646484375,0.27154541015625,-0.5926151275634766,0.7904480695724487,-0.3066408932209015,49.17886352539062,98.42097473144533,-0.76995849609375
184306,0.023834228515625,0.1750030517578125,0.2765960693359375,-0.7714812755584717,0.99187570810318,-0.5162737369537354,49.10026550292969,98.37287902832033,-0.52239990234375
184307,-0.13037109375,0.4423828125,0.3292083740234375,-1.110094785690308,1.162030935287476,-1.126228928565979,48.64598083496094,98.19969177246094,0.314971923828125
184308,-0.2214813232421875,0.716583251953125,0.3423309326171875,-1.246302127838135,1.136082410812378,-1.607637643814087,48.18339538574219,98.07693481445312,0.7476806640625
184309,-0.302520751953125,1.13946533203125,0.31402587890625,-1.340762257575989,0.9133657217025756,-2.216216802597046,47.54786682128906,98.09408569335938,1.147918701171875
184310,-0.302520751953125,1.13946533203125,0.31402587890625,-1.340762257575989,0.9133657217025756,-2.216216802597046,47.54786682128906,98.09408569335938,1.147918701171875
184311,-0.38751220703125,2.145736694335938,0.4030303955078125,-1.018612265586853,-0.0920601487159729,-2.80158257484436,45.37612915039062,98.17689514160156,1.753829956054688
184312,-0.4721832275390625,2.556732177734375,0.5030364990234375,-0.6205934882164001,-0.4373506903648376,-2.498116731643677,44.08233642578125,98.19108581542967,1.89984130859375
184313,-0.5404052734375,2.866653442382812,0.570404052734375,-0.3028208613395691,-0.8343566656112671,-1.863182902336121,42.80842590332031,98.05802917480467,1.820098876953125
184314,-0.5404052734375,2.866653442382812,0.570404052734375,-0.3028208613395691,-0.8343566656112671,-1.863182902336121,42.80842590332031,98.05802917480467,1.820098876953125
184315,-0.4833831787109375,3.58526611328125,0.8092193603515625,-0.0352309569716453,-1.067494511604309,0.0945994779467582,41.13215637207031,97.93443298339844,1.993316650390625
184316,-0.4833831787109375,3.58526611328125,0.8092193603515625,-0.0352309569716453,-1.067494511604309,0.0945994779467582,41.13215637207031,97.93443298339844,1.993316650390625
184317,-0.5077056884765625,2.371795654296875,0.272796630859375,-1.033907532691956,-1.136362791061401,-0.4328821897506714,41.25514221191406,97.6361846923828,2.276153564453125
184318,-0.4064178466796875,2.0994873046875,-0.265289306640625,-1.656636595726013,-1.471070766448975,-0.7105042338371277,41.60665893554688,97.22702026367188,2.681808471679688
184319,-0.11639404296875,2.178070068359375,-0.7095184326171875,-1.674971222877502,-2.069057464599609,-0.5333145260810852,41.64285278320312,96.74801635742188,3.299575805664062
184320,0.2328643798828125,2.357818603515625,-0.477508544921875,-0.8532171249389648,-2.015350341796875,-0.1493647247552872,41.56867980957031,96.31544494628906,4.203628540039062
184321,0.5689849853515625,2.455093383789062,-0.1632080078125,0.426112174987793,-0.8333012461662292,0.2924643456935883,41.37603759765625,96.06838989257812,5.19012451171875
184322,0.5689849853515625,2.455093383789062,-0.1632080078125,0.426112174987793,-0.8333012461662292,0.2924643456935883,41.37603759765625,96.06838989257812,5.19012451171875
184323,0.5228424072265625,2.311599731445312,-0.3259735107421875,1.516265988349915,-0.2776603698730469,0.5311448574066162,41.58509826660156,95.93595886230467,6.062896728515625
184324,0.470306396484375,2.2059326171875,-0.16668701171875,1.125576734542847,-0.7527334094047546,0.4957011044025421,41.88656616210938,96.078857421875,5.781219482421875
184325,0.2513580322265625,1.988388061523438,-0.1199798583984375,0.7380951046943665,-0.942855179309845,0.4486928284168243,42.53987121582031,96.59014892578124,4.439971923828125
184326,0.2513580322265625,1.988388061523438,-0.1199798583984375,0.7380951046943665,-0.942855179309845,0.4486928284168243,42.53987121582031,96.59014892578124,4.439971923828125
184327,0.13348388671875,1.827239990234375,-0.1016845703125,0.9599065780639648,-0.8720054626464844,0.5588012337684631,43.10162353515625,96.55218505859376,4.165481567382812
184328,0.04266357421875,1.624969482421875,-0.0184173583984375,1.255160093307495,-0.7655860781669617,0.6542446613311768,43.59068298339844,96.63272094726562,3.955734252929688
184329,-0.0365447998046875,1.414627075195312,0.1193084716796875,1.774982213973999,-0.716914713382721,0.8452154397964478,44.07125854492188,96.69952392578124,3.5908203125
184330,-0.0365447998046875,1.414627075195312,0.1193084716796875,1.774982213973999,-0.716914713382721,0.8452154397964478,44.07125854492188,96.69952392578124,3.5908203125
184331,-0.0717926025390625,0.9592437744140624,0.2338104248046875,1.912047386169434,-0.7143425941467285,0.8697668313980103,45.18539428710938,97.08781433105467,2.419342041015625
184332,-0.044586181640625,0.763763427734375,0.2163848876953125,1.909513592720032,-0.6728074550628662,0.842735767364502,45.79414367675781,97.32704162597656,1.757705688476562
184333,-0.0014495849609375,0.580322265625,0.19903564453125,1.543053388595581,-0.4775418043136597,0.8309941291809082,46.36416625976562,97.70295715332033,0.9344482421875
184334,-0.0014495849609375,0.580322265625,0.19903564453125,1.543053388595581,-0.4775418043136597,0.8309941291809082,46.36416625976562,97.70295715332033,0.9344482421875
184335,0.057891845703125,0.2284393310546875,0.1768951416015625,1.261195302009583,-0.3249639868736267,0.8527425527572632,47.399658203125,98.07164001464844,-0.444549560546875
184336,0.0730743408203125,0.066558837890625,0.0934295654296875,1.016109943389893,-0.2568219304084778,0.8932186365127563,47.95069885253906,98.39085388183594,-1.048797607421875
184337,0.0758514404296875,-0.056243896484375,-0.051300048828125,0.8146157264709473,-0.4083395600318909,0.91266131401062,48.39527893066406,98.58831787109376,-1.589950561523438
184338,0.078521728515625,-0.114288330078125,-0.2004852294921875,0.6452721953392029,-0.8318207859992981,0.904734432697296,48.95562744140625,98.68791198730467,-1.77178955078125
184339,0.0879364013671875,-0.1396026611328125,-0.2679595947265625,0.5436249375343323,-1.414575576782227,0.9043455719947816,49.42921447753906,98.63508605957033,-2.0430908203125
184340,0.089752197265625,-0.1502532958984375,-0.2318572998046875,0.5474652051925659,-1.888900995254517,0.9000808000564575,49.96083068847656,98.6726531982422,-2.060409545898438
184341,0.09307861328125,-0.1723785400390625,-0.2194061279296875,0.666263222694397,-2.173777103424072,0.8966996669769287,50.48060607910156,98.77476501464844,-2.140533447265625
184342,0.090179443359375,-0.1997222900390625,-0.1883544921875,0.8629899024963379,-2.273749113082886,0.907594919204712,51.08358764648438,98.86480712890624,-2.365509033203125
184343,0.0659637451171875,-0.2007293701171875,-0.0570526123046875,1.02072012424469,-2.02338695526123,0.8877772688865662,51.57624816894531,99.01528930664062,-2.4759521484375
184344,0.0272674560546875,-0.1957550048828125,0.098602294921875,0.9955263733863832,-1.299913644790649,0.8085391521453857,52.23869323730469,99.23883056640624,-2.692092895507812
184345,-0.02984619140625,-0.1894073486328125,0.2277069091796875,0.7247878313064575,-0.008904811926186,0.663794219493866,52.88330078125,99.38877868652344,-2.80206298828125
184346,-0.02984619140625,-0.1894073486328125,0.2277069091796875,0.7247878313064575,-0.008904811926186,0.663794219493866,52.88330078125,99.38877868652344,-2.80206298828125
184347,-0.0789031982421875,-0.082550048828125,-0.0140228271484375,0.0154708353802561,1.387256622314453,0.3339654505252838,53.84199523925781,99.75442504882812,-3.414413452148438
184348,-0.0940704345703125,-0.0555572509765625,-0.04132080078125,-0.2169602811336517,1.259924411773682,0.1620512157678604,54.08018493652344,99.8782958984375,-3.389328002929688
184349,-0.1004486083984375,-0.0369720458984375,0.0379638671875,-0.4393438100814819,1.160184264183044,-0.1817258596420288,54.30612182617188,99.743896484375,-3.233306884765625
184350,-0.09832763671875,-0.0330657958984375,0.1098480224609375,-0.4393438100814819,1.160184264183044,-0.1817258596420288,54.43222045898438,99.57147216796876,-3.011016845703125
184351,-0.090057373046875,-0.041015625,0.1263580322265625,-0.5386562943458557,1.209096908569336,-0.3420697152614594,54.48785400390625,99.56060791015624,-2.695816040039062
184352,-0.0869903564453125,-0.05120849609375,0.1272735595703125,-0.6864364147186279,1.171082496643066,-0.4878959059715271,54.36463928222656,99.4421844482422,-2.293487548828125
184353,-0.09954833984375,-0.0594024658203125,0.1376953125,-0.8730449080467224,1.055691123008728,-0.6245307326316833,54.28619384765625,99.24160766601562,-1.845535278320312
184354,-0.09954833984375,-0.0594024658203125,0.1376953125,-0.8730449080467224,1.055691123008728,-0.6245307326316833,54.28619384765625,99.24160766601562,-1.845535278320312
184355,-0.1598358154296875,-0.0474853515625,0.127593994140625,-1.266618609428406,0.8152593970298767,-0.9630587100982666,53.72161865234375,98.94932556152344,-0.731048583984375
184356,-0.1923675537109375,-0.0261993408203125,0.0776519775390625,-1.640699982643127,0.5232506990432739,-1.408110976219177,53.24160766601562,98.9030303955078,-0.0648040771484375
184357,-0.22210693359375,0.0057525634765625,0.01837158203125,-1.746947407722473,0.1865211427211761,-1.573159098625183,52.87730407714844,98.91452026367188,0.686981201171875
184358,-0.22210693359375,0.0057525634765625,0.01837158203125,-1.746947407722473,0.1865211427211761,-1.573159098625183,52.87730407714844,98.91452026367188,0.686981201171875
184359,-0.2525482177734375,0.134185791015625,-0.676055908203125,-1.613874793052673,-0.7785759568214417,-1.626692056655884,51.69241333007812,98.62274169921876,2.45965576171875
184360,-0.17742919921875,0.21759033203125,-0.420013427734375,-1.324080586433411,-1.006784319877625,-1.657983660697937,50.98130798339844,98.58436584472656,3.3262939453125
184361,-0.0837249755859375,0.1355438232421875,-0.0409393310546875,-1.181548476219177,-0.6122838854789734,-1.608151912689209,50.23495483398438,98.42745971679688,3.883987426757812
184362,-0.0837249755859375,0.1355438232421875,-0.0409393310546875,-1.181548476219177,-0.6122838854789734,-1.608151912689209,50.23495483398438,98.42745971679688,3.883987426757812
184363,0.0443572998046875,0.1749420166015625,0.3719329833984375,-1.375112891197205,-0.3748673498630524,-1.496138572692871,48.41789245605469,98.25791931152344,4.296798706054688
184364,0.1271820068359375,0.6883392333984375,0.7127532958984375,-1.747321605682373,-0.1876495182514191,-1.427067637443542,47.345703125,98.06321716308594,4.127349853515625
184365,0.3364105224609375,2.882644653320312,1.083251953125,-2.129282236099243,0.229419082403183,-0.3695152103900909,46.32672119140625,97.77777099609376,3.629974365234375
184366,0.3364105224609375,2.882644653320312,1.083251953125,-2.129282236099243,0.229419082403183,-0.3695152103900909,46.32672119140625,97.77777099609376,3.629974365234375
184367,-0.4647064208984375,6.135940551757812,1.726837158203125,-1.949763655662537,0.7484486699104309,1.386976957321167,44.89996337890625,97.43214416503906,2.943588256835938
184368,-0.4647064208984375,6.135940551757812,1.726837158203125,-1.949763655662537,0.7484486699104309,1.386976957321167,44.89996337890625,97.43214416503906,2.943588256835938
184369,-0.2319793701171875,2.4794921875,0.2408905029296875,0.0763757303357124,1.015643358230591,-0.9956983923912048,45.9669189453125,96.6845245361328,4.691390991210938
184370,-0.2319793701171875,2.4794921875,0.2408905029296875,0.0763757303357124,1.015643358230591,-0.9956983923912048,45.9669189453125,96.6845245361328,4.691390991210938
184371,-0.2898101806640625,1.344268798828125,-0.046722412109375,-0.3719139099121094,-0.1543528139591217,-1.322067975997925,45.88304138183594,96.4638671875,5.124542236328125
184372,-0.33154296875,0.9000396728515625,-0.115447998046875,-1.060998320579529,-1.57855486869812,-1.80901312828064,45.52201843261719,96.2344207763672,5.353286743164062
184373,-0.298675537109375,1.141311645507812,-0.11962890625,-1.548095226287842,-2.465644598007202,-1.741132855415344,44.92120361328125,95.92268371582033,5.744583129882812
184374,-0.298675537109375,1.141311645507812,-0.11962890625,-1.548095226287842,-2.465644598007202,-1.741132855415344,44.92120361328125,95.92268371582033,5.744583129882812
184375,-0.6052398681640625,2.43829345703125,-0.6830291748046875,-1.717519402503967,-0.8879421353340149,0.2602102756500244,43.95046997070312,95.318115234375,6.768630981445312
184376,0.035919189453125,2.520751953125,-0.75640869140625,-0.3183257877826691,0.1062595918774605,1.063223600387573,43.73361206054688,95.04660034179688,7.523101806640625
184377,0.21514892578125,2.129623413085938,-0.1048583984375,1.379171252250671,0.4199996888637543,1.20504891872406,43.81045532226562,94.68609619140624,8.249786376953125
184378,0.21514892578125,2.129623413085938,-0.1048583984375,1.379171252250671,0.4199996888637543,1.20504891872406,43.81045532226562,94.68609619140624,8.249786376953125
184379,0.2804107666015625,1.574417114257812,0.171173095703125,1.704234838485718,1.213172912597656,1.692299365997314,44.53422546386719,94.74664306640624,8.392379760742188
184380,0.2916259765625,1.479507446289062,0.11895751953125,1.026224374771118,1.023026704788208,1.839059710502625,45.0050048828125,94.88888549804688,7.910476684570312
184381,0.307891845703125,1.4027099609375,0.1039581298828125,0.1304562836885452,-0.1512172222137451,1.593855857849121,45.53775024414062,95.0615234375,7.108932495117188
184382,0.307891845703125,1.4027099609375,0.1039581298828125,0.1304562836885452,-0.1512172222137451,1.593855857849121,45.53775024414062,95.0615234375,7.108932495117188
184383,0.325714111328125,1.131011962890625,0.1717529296875,0.147416889667511,-0.6277433037757874,1.297468423843384,46.92723083496094,95.2691650390625,6.569076538085938
184384,0.2907257080078125,0.943603515625,0.1711883544921875,0.3466170728206635,-0.877480149269104,0.9788885116577148,47.67950439453125,95.2177734375,6.68328857421875
184385,0.209564208984375,0.7467041015625,0.0923309326171875,0.5931970477104187,-0.9848713278770448,0.6883597373962402,48.43472290039062,95.14248657226562,6.904067993164062
184386,0.209564208984375,0.7467041015625,0.0923309326171875,0.5931970477104187,-0.9848713278770448,0.6883597373962402,48.43472290039062,95.14248657226562,6.904067993164062
184387,-0.0149078369140625,0.47454833984375,-0.0484466552734375,1.069777131080627,-1.278406500816345,0.2213598191738129,49.55339050292969,95.46121215820312,6.78759765625
184388,-0.078216552734375,0.3939666748046875,-0.0259246826171875,1.069777131080627,-1.278406500816345,0.2213598191738129,50.14598083496094,95.62107849121094,6.560104370117188
184389,-0.119171142578125,0.3065338134765625,0.0142822265625,1.080163478851318,-1.255106806755066,-0.1862439066171646,50.58564758300781,95.8545379638672,6.08184814453125
184390,-0.149871826171875,0.219268798828125,0.03875732421875,1.080163478851318,-1.255106806755066,-0.1862439066171646,50.98725891113281,95.93695068359376,5.5985107421875
184391,-0.16021728515625,0.1099700927734375,-0.0057830810546875,1.029371380805969,-1.209590673446655,-0.367615818977356,51.28582763671875,96.0723876953125,5.028305053710938
184392,-0.1474609375,-0.013153076171875,-0.09716796875,0.9364420175552368,-1.319416284561157,-0.4839885234832764,51.52665710449219,96.32568359375,4.523345947265625
184393,-0.1174468994140625,-0.1030426025390625,-0.07421875,0.8352797031402588,-1.411381602287292,-0.5231888890266418,51.68186950683594,96.665771484375,3.94293212890625
184394,-0.1174468994140625,-0.1030426025390625,-0.07421875,0.8352797031402588,-1.411381602287292,-0.5231888890266418,51.68186950683594,96.665771484375,3.94293212890625
184395,-0.0021820068359375,-0.14727783203125,0.129547119140625,0.6754292845726013,-0.7995067834854126,-0.4921146035194397,51.77696228027344,97.04864501953124,3.097610473632812
184396,0.0499420166015625,-0.1248321533203125,0.159088134765625,0.6030800342559814,-0.3028938174247742,-0.455177903175354,51.78160095214844,97.19171142578124,2.642166137695312
184397,0.0726470947265625,-0.10186767578125,0.144195556640625,0.5437514185905457,0.1074132770299911,-0.4220300614833832,51.69352722167969,97.36895751953124,2.344558715820312
184398,0.0860443115234375,-0.097991943359375,0.0912628173828125,0.5022740364074707,0.3313305377960205,-0.3879043161869049,51.53474426269531,97.54768371582033,2.157241821289062
184399,0.095367431640625,-0.105072021484375,0.0377960205078125,0.469037801027298,0.3349255323410034,-0.346278578042984,51.45013427734375,97.54852294921876,2.04278564453125
184400,0.09375,-0.1056976318359375,0.030548095703125,0.4211496412754059,0.1952520459890366,-0.3017745018005371,51.34719848632812,97.45303344726562,2.056198120117188
184401,0.080413818359375,-0.09698486328125,0.06402587890625,0.3716611862182617,0.0598468221724033,-0.2756483554840088,51.12535095214844,97.43670654296876,1.905059814453125
184402,0.0620269775390625,-0.0871429443359375,0.1032257080078125,0.3110585510730743,0.0130372382700443,-0.2737748324871063,50.94044494628906,97.52206420898438,1.918991088867188
184403,0.0433197021484375,-0.0788421630859375,0.1348114013671875,0.222475677728653,0.0513284355401992,-0.2832993566989899,50.84637451171875,97.47892761230467,1.945785522460938
184404,0.0433197021484375,-0.0788421630859375,0.1348114013671875,0.222475677728653,0.0513284355401992,-0.2832993566989899,50.84637451171875,97.47892761230467,1.945785522460938
184405,0.0057220458984375,-0.063690185546875,0.149169921875,-0.0228933319449424,0.2614939212799072,-0.3395703434944153,50.67018127441406,97.6094970703125,2.129531860351562
184406,-0.01556396484375,-0.0561676025390625,0.15008544921875,-0.1861139386892319,0.3241762220859528,-0.3906729519367218,50.56254577636719,97.70556640625,2.006256103515625
184407,-0.0385894775390625,-0.0498504638671875,0.1592864990234375,-0.5344040393829346,0.3149467706680298,-0.5141626596450806,50.42333984375,97.52748107910156,2.2115478515625
184408,-0.057037353515625,-0.0449371337890625,0.16650390625,-0.5344040393829346,0.3149467706680298,-0.5141626596450806,50.267333984375,97.54055786132812,2.244918823242188
184409,-0.0697021484375,-0.0413818359375,0.15966796875,-0.6658613681793213,0.2341746836900711,-0.5685585141181946,50.13676452636719,97.59054565429688,2.393157958984375
184410,-0.0697021484375,-0.0413818359375,0.15966796875,-0.6658613681793213,0.2341746836900711,-0.5685585141181946,50.13676452636719,97.59054565429688,2.393157958984375
184411,-0.0957183837890625,-0.0061798095703125,0.145599365234375,-0.8298279643058777,-0.0939097180962562,-0.6660469770431519,49.61952209472656,97.33912658691406,3.023422241210938
184412,-0.0970611572265625,0.046722412109375,0.138916015625,-0.8968559503555298,-0.3336642682552338,-0.7170041799545288,49.392822265625,97.115966796875,3.419204711914062
184413,-0.0858612060546875,0.11114501953125,0.1448974609375,-0.9841666221618652,-0.6140639781951904,-0.7816289663314819,49.16014099121094,97.0636749267578,3.73968505859375
184414,-0.0858612060546875,0.11114501953125,0.1448974609375,-0.9841666221618652,-0.6140639781951904,-0.7816289663314819,49.16014099121094,97.0636749267578,3.73968505859375
184415,-0.1126556396484375,0.2830047607421875,0.3277130126953125,-1.162450075149536,-1.006820559501648,-1.015882730484009,48.49127197265625,96.85887145996094,4.354019165039062
184416,-0.2948455810546875,1.00445556640625,0.5849761962890625,-1.126925706863403,-0.9996398687362672,-1.33929169178009,48.02679443359375,96.69831848144533,4.575912475585938
184417,-0.652099609375,2.871353149414062,1.111862182617188,-0.796039342880249,0.4795583486557007,-2.139596700668335,47.5980224609375,96.74810791015624,4.731246948242188
184418,-0.652099609375,2.871353149414062,1.111862182617188,-0.796039342880249,0.4795583486557007,-2.139596700668335,47.5980224609375,96.74810791015624,4.731246948242188
184419,-0.7255706787109375,5.873672485351562,0.6149749755859375,0.9227831959724426,4.187823295593262,-0.6997942924499512,44.86080932617188,97.33634948730467,4.133560180664062
184420,-1.12139892578125,5.790237426757812,0.20013427734375,0.5614428520202637,0.5189539790153503,-0.9284868836402892,43.65597534179688,97.75433349609376,3.43133544921875
184421,-0.93548583984375,4.887298583984375,0.94970703125,0.5182106494903564,-0.6269962787628174,-0.6658187508583069,42.83963012695312,98.04588317871094,2.854873657226562
184422,-0.93548583984375,4.887298583984375,0.94970703125,0.5182106494903564,-0.6269962787628174,-0.6658187508583069,42.83963012695312,98.04588317871094,2.854873657226562
184423,-0.570281982421875,1.851470947265625,0.707275390625,-0.3738542795181274,-2.021822929382324,-1.012919783592224,42.52378845214844,98.08688354492188,2.939682006835938
184424,-0.5880889892578125,1.144332885742188,0.605621337890625,-1.062749862670898,-2.726057767868042,-1.470680952072144,42.60255432128906,97.56852722167967,3.368194580078125
184425,-0.561981201171875,0.907073974609375,0.4980621337890625,-1.583475947380066,-3.202371835708618,-1.458386421203613,42.68455505371094,96.90440368652344,4.078353881835938
184426,-0.561981201171875,0.907073974609375,0.4980621337890625,-1.583475947380066,-3.202371835708618,-1.458386421203613,42.68455505371094,96.90440368652344,4.078353881835938
184427,-0.195587158203125,2.302322387695312,-0.479827880859375,-1.738667845726013,-1.79998767375946,-0.0800194665789604,42.9027099609375,95.3953857421875,6.135910034179688
184428,0.340057373046875,2.906661987304688,-2.3038330078125,-0.0513838268816471,-2.160352945327759,1.072836875915527,43.15170288085938,94.71649169921876,7.302627563476562
184429,0.5302276611328125,2.950057983398438,-1.335906982421875,2.147423267364502,-2.652904987335205,1.844772696495056,43.42774963378906,94.60525512695312,7.818649291992188
184430,0.5302276611328125,2.950057983398438,-1.335906982421875,2.147423267364502,-2.652904987335205,1.844772696495056,43.42774963378906,94.60525512695312,7.818649291992188
184431,0.3661956787109375,2.004425048828125,0.3260498046875,2.407837629318237,-0.0198091249912977,1.540904998779297,45.26535034179688,95.47933959960938,7.05596923828125
184432,0.3661956787109375,2.004425048828125,0.3260498046875,2.407837629318237,-0.0198091249912977,1.540904998779297,45.26535034179688,95.47933959960938,7.05596923828125
184433,0.113250732421875,1.368331909179688,0.135162353515625,0.6296862959861755,0.5407530069351196,0.5815648436546326,47.78094482421875,96.27415466308594,4.736709594726562
184434,0.113250732421875,1.368331909179688,0.135162353515625,0.6296862959861755,0.5407530069351196,0.5815648436546326,47.78094482421875,96.27415466308594,4.736709594726562
184435,0.070587158203125,1.134552001953125,0.141387939453125,0.4304626882076263,0.2049797773361206,0.3917328715324402,48.28875732421875,96.40933227539062,4.349258422851562
184436,0.0446014404296875,0.898895263671875,0.1534271240234375,0.5017853379249573,-0.0665899440646171,0.3584502935409546,48.64019775390625,96.46165466308594,4.188262939453125
184437,0.005279541015625,0.6949005126953125,0.1222991943359375,0.8070571422576904,-0.3076432943344116,0.4396812319755554,48.91799926757812,96.5767059326172,3.93865966796875
184438,0.005279541015625,0.6949005126953125,0.1222991943359375,0.8070571422576904,-0.3076432943344116,0.4396812319755554,48.91799926757812,96.5767059326172,3.93865966796875
184439,-0.0445709228515625,0.356109619140625,0.1013946533203125,1.597211122512817,-0.8121584057807922,0.7050023674964905,49.75727844238281,96.77362060546876,3.538406372070312
184440,-0.0603179931640625,0.2451019287109375,0.1206817626953125,1.837514042854309,-0.9081355333328248,0.7639583945274353,50.18600463867188,97.10710144042967,3.007034301757812
184441,-0.0688323974609375,0.151519775390625,0.1230316162109375,1.932646989822388,-0.9070215225219728,0.7698580622673035,50.68363952636719,97.4680633544922,2.187957763671875
184442,-0.0688323974609375,0.151519775390625,0.1230316162109375,1.932646989822388,-0.9070215225219728,0.7698580622673035,50.68363952636719,97.4680633544922,2.187957763671875
184443,-0.0759735107421875,0.0013275146484375,0.106353759765625,1.708961129188538,-0.710107684135437,0.6394558548927307,51.61618041992188,98.00633239746094,0.4230194091796875
184444,-0.0711822509765625,-0.0477752685546875,0.0754852294921875,1.497904539108276,-0.5991172194480896,0.5378978252410889,52.06153869628906,98.39820861816406,-0.4348602294921875
184445,-0.0663909912109375,-0.0730743408203125,0.0241851806640625,1.267504096031189,-0.519352912902832,0.4599258005619049,52.50303649902344,98.70808410644533,-1.131149291992188
184446,-0.0663909912109375,-0.0730743408203125,0.0241851806640625,1.267504096031189,-0.519352912902832,0.4599258005619049,52.50303649902344,98.70808410644533,-1.131149291992188
184447,-0.097259521484375,-0.248992919921875,-0.5622100830078125,0.8736127018928528,-1.747691988945007,0.5124260187149048,52.96769714355469,99.43707275390624,-2.267837524414062
184448,-0.147003173828125,-0.2312469482421875,-0.102508544921875,0.8207889199256897,-2.060523748397827,0.5975710153579712,53.23590087890625,99.63819885253906,-2.779083251953125
184449,-0.1407318115234375,-0.1743316650390625,0.3261566162109375,0.8860576748847961,-1.369978547096252,0.6215735673904419,53.66156005859375,99.78565979003906,-3.084991455078125
184450,-0.1407318115234375,-0.1743316650390625,0.3261566162109375,0.8860576748847961,-1.369978547096252,0.6215735673904419,53.66156005859375,99.78565979003906,-3.084991455078125
184451,-0.052337646484375,0.06414794921875,0.4418792724609375,1.055475473403931,0.1951431334018707,0.3710001707077026,54.49235534667969,99.79794311523438,-3.75506591796875
184452,-0.0344390869140625,0.0921478271484375,0.3511962890625,0.986421287059784,0.5633163452148438,0.2593218386173248,54.83212280273438,99.76052856445312,-4.12579345703125
184453,-0.0230560302734375,0.0597076416015625,0.2614288330078125,0.7539361119270325,0.630099892616272,0.2220080345869064,54.98373413085938,99.777587890625,-4.58184814453125
184454,-0.0230560302734375,0.0597076416015625,0.2614288330078125,0.7539361119270325,0.630099892616272,0.2220080345869064,54.98373413085938,99.777587890625,-4.58184814453125
184455,-0.0013885498046875,-0.0341033935546875,0.161834716796875,0.1344406306743622,0.3385218679904938,0.1236218065023422,55.17132568359375,100.0251922607422,-5.191162109375
184456,-0.0013885498046875,-0.0341033935546875,0.161834716796875,0.1344406306743622,0.3385218679904938,0.1236218065023422,55.17132568359375,100.0251922607422,-5.191162109375
184457,-0.0231475830078125,-0.0615997314453125,0.1240386962890625,-0.1399999856948853,0.1324914693832397,0.051734834909439,55.27857971191406,100.0758056640625,-5.350692749023438
184458,-0.041168212890625,-0.069580078125,0.0831298828125,-0.3625558316707611,-0.0940260961651802,-0.0398443527519702,55.30534362792969,100.0655670166016,-5.445526123046875
184459,-0.050994873046875,-0.0790252685546875,0.0433349609375,-0.6906053423881531,-0.5514416098594666,-0.2319986075162888,55.48556518554688,99.90519714355467,-4.898422241210938
184460,-0.064178466796875,-0.0885162353515625,0.055938720703125,-0.8115541338920593,-0.6954426765441895,-0.3289374113082886,55.50730895996094,99.83717346191406,-4.490692138671875
184461,-0.0796356201171875,-0.0945281982421875,0.075225830078125,-0.9228209853172302,-0.7443066239356995,-0.4297846555709839,55.42822265625,99.750732421875,-4.06500244140625
184462,-0.0796356201171875,-0.0945281982421875,0.075225830078125,-0.9228209853172302,-0.7443066239356995,-0.4297846555709839,55.42822265625,99.750732421875,-4.06500244140625
184463,-0.131195068359375,-0.112548828125,0.1019744873046875,-1.197015047073364,-0.5558621883392334,-0.6423717737197876,55.23347473144531,99.7850341796875,-3.075958251953125
184464,-0.1762237548828125,-0.1207275390625,0.105499267578125,-1.371922850608826,-0.3927190601825714,-0.7430397868156433,55.13938903808594,99.67033386230467,-2.427749633789062
184465,-0.2652130126953125,-0.1182861328125,0.1560211181640625,-1.524178981781006,0.119417205452919,-0.8837612271308899,54.951171875,99.51368713378906,-1.690933227539062
184466,-0.2652130126953125,-0.1182861328125,0.1560211181640625,-1.524178981781006,0.119417205452919,-0.8837612271308899,54.951171875,99.51368713378906,-1.690933227539062
184467,-0.2757720947265625,0.0663909912109375,-0.5203094482421875,-1.531911253929138,1.703941583633423,-1.10915195941925,54.279052734375,99.27688598632812,0.019195556640625
184468,-0.182464599609375,0.3130340576171875,-1.826675415039062,-1.073572397232056,-0.3515252768993378,-1.092910170555115,53.5657958984375,98.89588928222656,0.8914794921875
184469,-0.1161346435546875,0.385345458984375,-1.454360961914062,-0.3464684784412384,-2.900757551193237,-0.8143424391746521,52.84864807128906,98.76028442382812,1.60894775390625
184470,-0.1161346435546875,0.385345458984375,-1.454360961914062,-0.3464684784412384,-2.900757551193237,-0.8143424391746521,52.84864807128906,98.76028442382812,1.60894775390625
184471,-0.023101806640625,0.3022308349609375,0.191925048828125,-0.564568042755127,-1.992653012275696,-0.6132487654685974,51.6737060546875,98.73532104492188,2.02838134765625
184472,-0.0013427734375,0.5489501953125,0.78057861328125,-1.152131676673889,-0.07292240858078,-0.4917518794536591,51.29476928710938,98.7164306640625,2.05218505859375
184473,0.1435546875,2.542022705078125,0.6739349365234375,-1.656141877174377,1.473430395126343,-0.186027929186821,50.84982299804688,98.74539184570312,1.842361450195312
184474,0.26416015625,5.524322509765625,0.3690032958984375,-2.057419538497925,1.514221668243408,0.8626405000686646,50.3472900390625,98.74017333984376,1.680007934570312
184475,-0.1039886474609375,7.257171630859375,0.1338653564453125,-2.071724653244019,0.0795837715268135,1.495071768760681,49.98493957519531,98.7202606201172,1.784881591796875
184476,-0.5161285400390625,7.635345458984375,0.4689788818359375,-1.267782330513,-1.075914978981018,0.5763064622879028,50.06483459472656,98.55690002441406,2.201797485351562
184477,-0.3798828125,5.09552001953125,0.6991424560546875,-0.5398869514465332,-0.5465951561927795,-0.7068700790405273,50.47819519042969,98.33023071289062,2.813156127929688
184478,-0.3798828125,5.09552001953125,0.6991424560546875,-0.5398869514465332,-0.5465951561927795,-0.7068700790405273,50.47819519042969,98.33023071289062,2.813156127929688
184479,-0.345733642578125,1.690994262695312,0.19580078125,-0.2155642509460449,0.9617406725883484,-0.847379207611084,50.71580505371094,97.73590087890624,4.02099609375
184480,-0.345733642578125,1.690994262695312,0.19580078125,-0.2155642509460449,0.9617406725883484,-0.847379207611084,50.71580505371094,97.73590087890624,4.02099609375
184481,-0.731170654296875,1.157455444335938,-0.741363525390625,-0.0651489123702049,-0.3376704454421997,0.4742618501186371,50.24406433105469,97.314697265625,4.65521240234375
184482,-0.2247772216796875,1.948394775390625,-0.0529022216796875,-0.0651489123702049,-0.3376704454421997,0.4742618501186371,50.01588439941406,97.08326721191406,4.91021728515625
184483,0.0504302978515625,2.150344848632812,0.218475341796875,0.1726487427949905,-0.0139022329822182,0.4756214022636414,50.07707214355469,97.10882568359376,4.842239379882812
184484,0.1544647216796875,2.118453979492188,0.2218475341796875,0.3320956528186798,0.1589132249355316,0.529587984085083,50.28715515136719,97.0098114013672,4.654266357421875
184485,0.2193756103515625,2.0166015625,0.178924560546875,0.3933171927928925,0.0882827267050743,0.5693907737731934,50.51762390136719,96.98118591308594,4.4398193359375
184486,0.2193756103515625,2.0166015625,0.178924560546875,0.3933171927928925,0.0882827267050743,0.5693907737731934,50.51762390136719,96.98118591308594,4.4398193359375
184487,0.2355194091796875,1.568450927734375,0.1096343994140625,0.3807201683521271,-0.5472657680511475,0.6952536106109619,50.99787902832031,96.8820343017578,4.052749633789062
184488,0.2116546630859375,1.396347045898438,0.1002197265625,0.3807201683521271,-0.5472657680511475,0.6952536106109619,51.35809326171875,96.81463623046876,3.872528076171875
184489,0.157806396484375,1.290237426757812,0.08624267578125,0.4176907241344452,-0.5119024515151978,0.6878681182861328,51.76509094238281,96.842529296875,3.725112915039062
184490,0.157806396484375,1.290237426757812,0.08624267578125,0.4176907241344452,-0.5119024515151978,0.6878681182861328,51.76509094238281,96.842529296875,3.725112915039062
184491,0.026641845703125,1.000259399414062,-0.0355682373046875,0.5259189009666443,-0.2446691393852234,0.7470465302467346,52.60922241210938,97.07365417480467,3.257919311523438
184492,0.026641845703125,1.000259399414062,-0.0355682373046875,0.5259189009666443,-0.2446691393852234,0.7470465302467346,52.60922241210938,97.07365417480467,3.257919311523438
184493,-0.134429931640625,0.7450408935546875,0.0064239501953125,0.6610397100448608,0.3236984312534332,0.6773907542228699,53.49031066894531,97.41299438476562,2.741683959960938
184494,-0.182952880859375,0.6306304931640625,0.0625152587890625,0.6610397100448608,0.3236984312534332,0.6773907542228699,53.94296264648438,97.5325164794922,2.502975463867188
184495,-0.210723876953125,0.5183563232421875,0.1234588623046875,0.7409417629241943,0.3145054876804352,0.4642139971256256,54.38446044921875,97.6458740234375,2.267837524414062
184496,-0.2319488525390625,0.4045867919921875,0.1346893310546875,0.7409417629241943,0.3145054876804352,0.4642139971256256,54.75137329101562,97.55491638183594,2.030380249023438
184497,-0.2379302978515625,0.2853546142578125,0.1146087646484375,0.817036509513855,0.1538361608982086,0.3581043481826782,55.10176086425781,97.65281677246094,1.977859497070312
184498,-0.2379302978515625,0.2853546142578125,0.1146087646484375,0.817036509513855,0.1538361608982086,0.3581043481826782,55.10176086425781,97.65281677246094,1.977859497070312
184499,-0.1871490478515625,0.062652587890625,0.127838134765625,0.9104799032211304,-0.144874632358551,0.2026346027851105,55.70368957519531,97.92849731445312,1.33880615234375
184500,-0.1497955322265625,-0.0164337158203125,0.10333251953125,0.904965043067932,-0.2185528427362442,0.1471660137176514,55.88330078125,98.13996887207033,0.928070068359375
184501,-0.104949951171875,-0.07208251953125,0.0032806396484375,0.8723626136779785,-0.3067719340324402,0.1157468408346176,56.06547546386719,98.23858642578124,0.5845794677734375
184502,-0.043701171875,-0.1246185302734375,-0.23046875,0.793051540851593,-0.6650118231773376,0.1133300215005875,56.17498779296875,98.29849243164062,0.2300567626953125
184503,0.0267333984375,-0.1568603515625,-0.4852447509765625,0.6858097910881042,-1.453824400901794,0.1475191563367844,56.28744506835938,98.57484436035156,-0.0394744873046875
184504,0.0267333984375,-0.1568603515625,-0.4852447509765625,0.6858097910881042,-1.453824400901794,0.1475191563367844,56.28744506835938,98.57484436035156,-0.0394744873046875
184505,0.1331634521484375,-0.1269683837890625,-0.2969970703125,0.592284083366394,-2.987307071685791,0.2492585629224777,56.56378173828125,98.92015075683594,-0.6214599609375
184506,0.168426513671875,-0.089508056640625,-0.010955810546875,0.6336895823478699,-2.736508369445801,0.2361752539873123,56.98115539550781,98.99423217773438,-1.091110229492188
184507,0.201934814453125,-0.0536346435546875,0.1564483642578125,0.5418603420257568,-0.5811752676963806,0.0483203940093517,57.29354858398438,99.01116943359376,-1.51446533203125
184508,0.22320556640625,-0.0188751220703125,0.2622528076171875,0.5418603420257568,-0.5811752676963806,0.0483203940093517,57.57237243652344,99.0781707763672,-1.898193359375
184509,0.2250518798828125,0.0188446044921875,0.257568359375,0.3816443085670471,0.5158764123916626,-0.0256880521774292,57.73860168457031,99.1037139892578,-2.180587768554688
184510,0.2199554443359375,0.0501861572265625,0.178375244140625,0.1605926007032394,1.125325083732605,-0.0355936810374259,57.72198486328125,99.22171020507812,-2.287979125976562
184511,0.2104339599609375,0.0699615478515625,0.0849151611328125,-0.1181761771440506,1.243017673492432,0.0004559331864584,57.71733093261719,99.29656982421876,-2.2508544921875
184512,0.2104339599609375,0.0699615478515625,0.0849151611328125,-0.1181761771440506,1.243017673492432,0.0004559331864584,57.71733093261719,99.29656982421876,-2.2508544921875
184513,0.072052001953125,0.062286376953125,0.022491455078125,-0.5602158904075623,0.506574809551239,-0.0499390624463558,57.46208190917969,99.22547912597656,-1.857864379882812
184514,-0.027069091796875,0.005279541015625,0.0699462890625,-0.5602158904075623,0.506574809551239,-0.0499390624463558,57.43283081054688,99.18508911132812,-1.580551147460938
184515,-0.0390625,-0.025238037109375,0.0751800537109375,-0.532069206237793,0.4119319021701813,-0.0650852620601654,57.44810485839844,98.94775390625,-1.07696533203125
184516,-0.0390625,-0.025238037109375,0.0751800537109375,-0.532069206237793,0.4119319021701813,-0.0650852620601654,57.44810485839844,98.94775390625,-1.07696533203125
184517,-0.044769287109375,-0.0325469970703125,0.092071533203125,-0.5468782782554626,0.2117772251367569,-0.1078955754637718,57.50637817382812,98.6385498046875,-0.451904296875
184518,-0.0448150634765625,-0.0306854248046875,0.0990447998046875,-0.7357733249664307,0.1322571039199829,-0.191036269068718,57.49684143066406,98.57200622558594,-0.1482696533203125
184519,-0.0484771728515625,-0.0216217041015625,0.112701416015625,-0.8405109643936157,0.2237398773431778,-0.2421204894781113,57.44209289550781,98.5591278076172,0.0346527099609375
184520,-0.0484771728515625,-0.0216217041015625,0.112701416015625,-0.8405109643936157,0.2237398773431778,-0.2421204894781113,57.44209289550781,98.5591278076172,0.0346527099609375
184521,-0.0574798583984375,0.0300445556640625,0.1167449951171875,-0.9421699047088624,0.303162008523941,-0.2894986569881439,57.45849609375,98.52508544921876,0.998687744140625
184522,-0.050811767578125,0.0721435546875,0.10797119140625,-1.027301073074341,0.3068989515304565,-0.3473129570484161,57.35714721679688,98.39738464355467,1.435806274414062
184523,-0.0467529296875,0.108856201171875,0.104736328125,-1.100489258766174,0.1650952100753784,-0.3990429937839508,57.29866027832031,98.23851013183594,1.983932495117188
184524,-0.0558929443359375,0.1517486572265625,0.1273040771484375,-1.186811685562134,-0.1052712947130203,-0.4561693966388702,57.11643981933594,98.14662170410156,2.523849487304688
184525,-0.09869384765625,0.283843994140625,0.2079315185546875,-1.33045506477356,-0.4452334046363831,-0.5121027231216431,56.77824401855469,98.125732421875,2.7921142578125
184526,-0.09869384765625,0.283843994140625,0.2079315185546875,-1.33045506477356,-0.4452334046363831,-0.5121027231216431,56.77824401855469,98.125732421875,2.7921142578125
184527,-0.43731689453125,2.2740478515625,0.7337646484375,-1.188903570175171,0.2939972579479218,-1.878681659698486,56.16200256347656,98.31741333007812,3.065216064453125
184528,-0.483154296875,2.863357543945312,1.036514282226562,-1.188903570175171,0.2939972579479218,-1.878681659698486,55.76145935058594,98.32893371582033,3.221206665039062
184529,-0.1518096923828125,4.31512451171875,1.640289306640625,-0.6533597111701965,1.768640398979187,-0.7593370079994202,55.10789489746094,98.34805297851562,3.389923095703125
184530,-0.1518096923828125,4.31512451171875,1.640289306640625,-0.6533597111701965,1.768640398979187,-0.7593370079994202,55.10789489746094,98.34805297851562,3.389923095703125
184531,-0.9621429443359376,3.337875366210938,0.9068603515625,-0.2448214739561081,0.596472442150116,-0.2308191061019897,53.56491088867188,98.77101135253906,3.66937255859375
184532,0.4069061279296875,0.7252655029296875,0.875,0.7830814719200134,1.994182467460632,0.2273133099079132,52.88581848144531,99.35659790039062,4.093597412109375
184533,-0.322662353515625,1.485870361328125,0.4143218994140625,0.8297113180160522,0.6803635954856873,-0.5412994623184204,52.38983154296875,99.67008972167967,4.65252685546875
184534,-0.322662353515625,1.485870361328125,0.4143218994140625,0.8297113180160522,0.6803635954856873,-0.5412994623184204,52.38983154296875,99.67008972167967,4.65252685546875
184535,-0.7729034423828125,1.934341430664062,-0.0691680908203125,-0.020822724327445,-1.500883221626282,-1.729407787322998,52.09715270996094,99.51461791992188,4.384414672851562
184536,-0.4488983154296875,1.913223266601562,-0.1584930419921875,-1.098049759864807,-3.862170219421387,-2.532304525375366,51.85548400878906,99.32330322265624,3.855911254882812
184537,-0.129547119140625,2.009963989257812,-0.12420654296875,-2.156896829605103,-5.578149795532227,-2.615624666213989,51.51039123535156,99.11007690429688,3.568038940429688
184538,0.1270294189453125,2.297943115234375,-0.1249542236328125,-2.891110420227051,-6.240557670593262,-1.967857122421265,50.87599182128906,98.69596862792967,3.623519897460938
184539,0.513214111328125,2.784500122070312,-0.5637664794921875,-2.74045991897583,-6.04206371307373,-0.2658092975616455,50.67707824707031,97.98977661132812,4.46826171875
184540,1.2205810546875,3.251434326171875,-0.910430908203125,-1.025267243385315,-3.860612869262695,1.969717621803284,50.85298156738281,97.06227111816406,5.714981079101562
184541,0.8765411376953125,2.947006225585938,-0.90509033203125,1.09304940700531,-0.3418010175228119,2.659573078155518,51.30488586425781,96.59375,6.625579833984375
184542,0.4600830078125,2.137039184570312,-0.2946014404296875,2.20167875289917,0.8470335602760315,2.387896537780762,52.16590881347656,96.6424560546875,7.25054931640625
184543,0.3421630859375,1.733566284179688,0.1350555419921875,2.378899574279785,1.402374267578125,2.087457180023193,53.42109680175781,96.64028930664062,7.421401977539062
184544,0.1518707275390625,1.621124267578125,0.2665557861328125,1.907358407974243,1.693662047386169,1.473111033439636,54.69374084472656,96.60194396972656,7.047576904296875
184545,-0.0224456787109375,1.449615478515625,0.2341461181640625,1.229148745536804,1.446210145950317,0.6336581707000732,55.67596435546875,96.6571044921875,6.399017333984375
184546,-0.156463623046875,1.208709716796875,0.2212677001953125,0.7079142928123474,0.8890143036842346,-0.1285020560026169,56.42068481445312,96.70587158203124,5.770050048828125
184547,-0.2103424072265625,0.9314422607421876,0.2248382568359375,0.5013009309768677,0.3053870797157288,-0.6136152148246765,56.84681701660156,96.62542724609376,5.166595458984375
184548,-0.232452392578125,0.6725311279296875,0.2176971435546875,0.5910412073135376,-0.2470838278532028,-0.7802571654319763,57.07659912109375,96.37434387207033,4.7841796875
184549,-0.2325286865234375,0.4569549560546875,0.2061920166015625,0.898549497127533,-0.6902825832366943,-0.6877592206001282,57.07139587402344,96.40779113769533,4.604568481445312
184550,-0.2325286865234375,0.4569549560546875,0.2061920166015625,0.898549497127533,-0.6902825832366943,-0.6877592206001282,57.07139587402344,96.40779113769533,4.604568481445312
184551,-0.172088623046875,0.2026519775390625,0.196563720703125,1.458906769752502,-0.9404356479644777,-0.146704226732254,56.92657470703125,96.50552368164062,3.808746337890625
184552,-0.1450958251953125,0.13818359375,0.19403076171875,1.494019746780396,-0.6967021226882935,0.1135257631540298,56.93438720703125,96.7952117919922,3.195098876953125
184553,-0.0947418212890625,0.0719757080078125,0.177520751953125,1.145963788032532,0.0508123151957988,0.4197839498519897,57.02781677246094,97.05192565917967,2.313186645507812
184554,-0.0455474853515625,0.007110595703125,0.12255859375,1.145963788032532,0.0508123151957988,0.4197839498519897,57.07073974609375,97.44764709472656,1.668624877929688
184555,-0.0201416015625,-0.037567138671875,0.060516357421875,0.9417206645011902,0.3139392733573914,0.4960105419158936,57.21305847167969,97.79826354980467,0.9957275390625
184556,-0.001495361328125,-0.0593414306640625,-0.00146484375,0.7603554129600525,0.4371259212493896,0.5174410343170166,57.26734924316406,98.00746154785156,0.449554443359375
184557,0.003326416015625,-0.055908203125,-0.05877685546875,0.6478352546691895,0.4584929943084717,0.5004031658172607,57.47845458984375,98.159423828125,0.031951904296875
184558,0.003326416015625,-0.055908203125,-0.05877685546875,0.6478352546691895,0.4584929943084717,0.5004031658172607,57.47845458984375,98.159423828125,0.031951904296875
184559,0.131988525390625,-0.1763763427734375,-1.035171508789062,0.5504516959190369,-1.229145765304565,0.5628694891929626,57.67092895507812,98.30662536621094,-0.2525177001953125
184560,0.2171478271484375,-0.144775390625,-1.077560424804688,0.6331537365913391,-3.563056707382202,0.6994909644126892,57.90226745605469,98.3616180419922,-0.2832794189453125
184561,0.1727294921875,-0.0093841552734375,-0.2160491943359375,0.6909304857254028,-4.304911613464355,0.6917976140975952,58.12644958496094,98.43415832519533,-0.4454498291015625
184562,0.1727294921875,-0.0093841552734375,-0.2160491943359375,0.6909304857254028,-4.304911613464355,0.6917976140975952,58.12644958496094,98.43415832519533,-0.4454498291015625
184563,0.0684661865234375,0.198638916015625,0.6151885986328125,0.6483559012413025,0.4606163501739502,0.3972024917602539,59.19375610351562,98.82461547851562,-1.421844482421875
184564,0.0736236572265625,0.2310333251953125,0.35736083984375,0.6403067708015442,1.742968559265137,0.2531885802745819,59.60038757324219,98.88546752929688,-1.8502197265625
184565,0.067840576171875,0.2886962890625,0.1368560791015625,0.4578661024570465,1.939045429229736,0.0860411450266838,59.878173828125,98.91032409667967,-2.08660888671875
184566,0.067840576171875,0.2886962890625,0.1368560791015625,0.4578661024570465,1.939045429229736,0.0860411450266838,59.878173828125,98.91032409667967,-2.08660888671875
184567,0.0059051513671875,0.63397216796875,0.3491363525390625,-0.0730568990111351,1.331234097480774,-0.0645592883229255,59.84187316894531,98.76226806640624,-2.556060791015625
184568,-0.1254119873046875,1.121170043945312,0.3893280029296875,-0.0730568990111351,1.331234097480774,-0.0645592883229255,59.73048400878906,98.80329895019533,-2.708786010742188
184569,-0.3492584228515625,1.1112060546875,0.2344818115234375,-0.0137749342247843,1.094675064086914,-0.2678940296173096,59.64506530761719,98.87261962890624,-2.864532470703125
184570,-0.3492584228515625,1.1112060546875,0.2344818115234375,-0.0137749342247843,1.094675064086914,-0.2678940296173096,59.64506530761719,98.87261962890624,-2.864532470703125
184571,-0.195220947265625,0.1376190185546875,-0.08428955078125,0.1556473821401596,-0.534973680973053,-0.5946884155273438,59.3150634765625,98.8717041015625,-2.828338623046875
184572,-0.195220947265625,0.1376190185546875,-0.08428955078125,0.1556473821401596,-0.534973680973053,-0.5946884155273438,59.3150634765625,98.8717041015625,-2.828338623046875
184573,-0.1150970458984375,-0.0404815673828125,0.054718017578125,0.2982146441936493,-0.89668869972229,-0.5064471960067749,59.16795349121094,98.94123840332033,-2.756149291992188
184574,-0.08984375,-0.1257781982421875,0.1050262451171875,0.3202997148036957,-0.5223731994628906,-0.3576066195964813,58.86653137207031,99.15118408203124,-3.03887939453125
184575,-0.1008148193359375,-0.130126953125,0.0701904296875,0.1850018054246902,-0.318704217672348,-0.2832365036010742,58.6837158203125,99.2783660888672,-3.226669311523438
184576,-0.1008148193359375,-0.130126953125,0.0701904296875,0.1850018054246902,-0.318704217672348,-0.2832365036010742,58.6837158203125,99.2783660888672,-3.226669311523438
184577,-0.1208953857421875,-0.1381378173828125,0.0435028076171875,-0.2062016427516937,-0.3952032625675201,-0.2228008508682251,58.50823974609375,99.42019653320312,-3.575164794921875
184578,-0.1354522705078125,-0.1452178955078125,0.0591278076171875,-0.4327370524406433,-0.5686879754066467,-0.2363142669200897,58.49629211425781,99.46237182617188,-3.502593994140625
184579,-0.1553497314453125,-0.14990234375,0.0794219970703125,-0.666769802570343,-0.7530196905136108,-0.2752187848091125,58.47210693359375,99.33944702148438,-3.293380737304688
184580,-0.20135498046875,-0.153228759765625,0.111907958984375,-0.8996490836143494,-0.863209068775177,-0.3487358689308167,58.47384643554688,99.33216857910156,-2.920654296875
184581,-0.27801513671875,-0.1242828369140625,0.1800079345703125,-1.324511647224426,0.2530666291713715,-0.6232870221138,58.4310302734375,99.29393005371094,-2.588302612304688
184582,-0.27801513671875,-0.1242828369140625,0.1800079345703125,-1.324511647224426,0.2530666291713715,-0.6232870221138,58.4310302734375,99.29393005371094,-2.588302612304688
184583,-0.1456146240234375,0.24957275390625,-0.9352264404296876,-1.385515451431274,-0.2269830852746964,-0.5969752669334412,58.05046081542969,99.0586395263672,-1.624923706054688
184584,0.0059814453125,0.476470947265625,-1.3853759765625,-1.126099228858948,-2.43202805519104,-0.6259693503379822,57.77842712402344,98.83282470703124,-1.116424560546875
184585,0.01885986328125,0.585968017578125,-0.1847991943359375,-1.032848119735718,-1.332433223724365,-0.5093375444412231,57.43722534179688,98.57406616210938,-0.5138092041015625
184586,0.01885986328125,0.585968017578125,-0.1847991943359375,-1.032848119735718,-1.332433223724365,-0.5093375444412231,57.43722534179688,98.57406616210938,-0.5138092041015625
184587,0.0057525634765625,2.551422119140625,0.650177001953125,-1.634077072143555,-0.3198722898960114,-0.3529625833034515,56.77030944824219,98.52774047851562,0.1993560791015625
184588,-0.081878662109375,4.423110961914062,0.092376708984375,-1.634077072143555,-0.3198722898960114,-0.3529625833034515,56.39212036132812,98.74314880371094,0.3391265869140625
184589,-0.31024169921875,6.086349487304688,0.050506591796875,-1.130141735076904,-2.23730731010437,-0.2542064487934113,55.524169921875,98.91297912597656,0.9066925048828124
184590,-0.31024169921875,6.086349487304688,0.050506591796875,-1.130141735076904,-2.23730731010437,-0.2542064487934113,55.524169921875,98.91297912597656,0.9066925048828124
184591,-0.56256103515625,4.734024047851562,1.02886962890625,-0.3626612722873688,0.553204357624054,0.2600696682929993,55.46083068847656,98.84085083007812,1.779647827148438
184592,-0.286407470703125,2.377090454101562,-0.020111083984375,0.0281426887959241,1.197005152702332,0.6491710543632507,55.63282775878906,98.63848876953124,2.076736450195312
184593,-0.3964080810546875,1.432174682617188,-0.3591766357421875,0.3910069167613983,1.227605938911438,0.7418408393859863,55.91455078125,98.43524169921876,2.027633666992188
184594,-0.3964080810546875,1.432174682617188,-0.3591766357421875,0.3910069167613983,1.227605938911438,0.7418408393859863,55.91455078125,98.43524169921876,2.027633666992188
184595,-0.176727294921875,1.587005615234375,-0.28741455078125,0.2976527214050293,0.6882897019386292,0.3972677290439606,56.27204895019531,98.1226043701172,1.954254150390625
184596,-0.146240234375,1.8748779296875,-0.2711944580078125,-0.1098098531365395,0.5921077728271484,0.2175182104110718,56.45365905761719,98.03001403808594,1.845474243164062
184597,-0.098052978515625,1.866470336914062,-0.408538818359375,-0.3219311535358429,0.502850353717804,0.1994172334671021,56.59666442871094,97.91130065917967,1.733856201171875
184598,-0.0156097412109375,1.829574584960938,-0.396636962890625,-0.1906202882528305,0.3522491157054901,0.3152034878730774,56.58486938476562,97.80670166015624,1.850265502929688
184599,0.0583648681640625,1.82965087890625,-0.2278594970703125,0.0972863361239433,0.3678549826145172,0.4771231412887573,56.64350891113281,97.6403350830078,2.02447509765625
184600,0.123138427734375,1.772430419921875,-0.1117706298828125,0.3812924921512604,0.4312001466751099,0.6317649483680725,56.76469421386719,97.53042602539062,2.046524047851562
184601,0.1488037109375,1.685958862304688,-0.03216552734375,0.5581666231155396,0.4609505832195282,0.7314648628234863,56.92880249023438,97.57888793945312,1.795928955078125
184602,0.12908935546875,1.557907104492188,0.0509796142578125,0.5658668875694275,0.4952451586723328,0.7564640045166016,57.18603515625,97.57041931152344,1.543350219726562
184603,0.100128173828125,1.395553588867188,0.1098175048828125,0.4081912338733673,0.5373649001121521,0.7252320051193237,57.5079345703125,97.5881805419922,1.279571533203125
184604,0.06829833984375,1.267242431640625,0.1452178955078125,0.1776863783597946,0.575771152973175,0.6825916171073914,57.85995483398438,97.54017639160156,1.181854248046875
184605,0.0214080810546875,1.198226928710938,0.15313720703125,-0.0341481156647205,0.6223796606063843,0.5799949169158936,58.25657653808594,97.35015869140624,1.125289916992188
184606,0.0214080810546875,1.198226928710938,0.15313720703125,-0.0341481156647205,0.6223796606063843,0.5799949169158936,58.25657653808594,97.35015869140624,1.125289916992188
184607,-0.121124267578125,1.120590209960938,0.0622100830078125,-0.1384018212556839,0.4547030627727509,0.2571620345115662,58.78619384765625,97.21340942382812,1.257644653320312
184608,-0.1677703857421875,1.034591674804688,-0.0117340087890625,0.0028594359755516,0.1115044206380844,0.0929909273982048,59.04412841796875,97.17303466796876,1.397857666015625
184609,-0.1865234375,0.90814208984375,-0.04461669921875,0.2287684679031372,-0.3549434542655945,-0.0403820425271987,59.27458190917969,97.11624145507812,1.644256591796875
184610,-0.1865234375,0.90814208984375,-0.04461669921875,0.2287684679031372,-0.3549434542655945,-0.0403820425271987,59.27458190917969,97.11624145507812,1.644256591796875
184611,-0.191619873046875,0.61676025390625,0.0792999267578125,0.6030150055885315,-0.8864288926124573,-0.1067307069897652,59.50492858886719,96.79222106933594,1.193313598632812
184612,-0.195770263671875,0.4779205322265625,0.11663818359375,0.6626085638999939,-0.7821570634841919,-0.0166357010602951,59.57687377929688,96.88313293457033,0.724517822265625
184613,-0.1749114990234375,0.3751678466796875,0.0717315673828125,0.6674315929412842,-0.5929487943649292,0.0957771241664886,59.75050354003906,97.0243682861328,0.448577880859375
184614,-0.1749114990234375,0.3751678466796875,0.0717315673828125,0.6674315929412842,-0.5929487943649292,0.0957771241664886,59.75050354003906,97.0243682861328,0.448577880859375
184615,-0.0671539306640625,0.2433013916015625,-0.1736602783203125,0.7565808892250061,-0.7062886953353882,0.3098649084568024,60.10173034667969,97.05168151855467,-0.2629547119140625
184616,-0.036895751953125,0.2072296142578125,-0.2545318603515625,0.9163876175880432,-0.923863649368286,0.4312699139118195,60.38179016113281,97.06210327148438,-0.6381683349609375
184617,-0.0419769287109375,0.187652587890625,-0.3030242919921875,1.116900205612183,-1.068388819694519,0.5573564767837524,60.63433837890625,97.05010986328124,-1.000198364257812
184618,-0.0419769287109375,0.187652587890625,-0.3030242919921875,1.116900205612183,-1.068388819694519,0.5573564767837524,60.63433837890625,97.05010986328124,-1.000198364257812
184619,-0.02825927734375,0.1332855224609375,-0.24176025390625,1.405483245849609,-0.8318833708763123,0.7327573299407959,61.25604248046875,97.39346313476562,-1.98199462890625
184620,-0.003936767578125,0.07940673828125,-0.14117431640625,1.333383798599243,-0.1299489438533783,0.7163549065589905,61.63084411621094,97.53375244140624,-2.557846069335938
184621,0.041412353515625,0.0235443115234375,-0.1741790771484375,1.076940774917603,0.523543119430542,0.6558875441551208,62.0201416015625,97.5635223388672,-3.144271850585938
184622,0.041412353515625,0.0235443115234375,-0.1741790771484375,1.076940774917603,0.523543119430542,0.6558875441551208,62.0201416015625,97.5635223388672,-3.144271850585938
184623,0.08624267578125,0.045623779296875,-0.112457275390625,0.6753893494606018,0.188232496380806,0.5748931169509888,62.70872497558594,97.55792236328124,-3.806198120117188
184624,0.08624267578125,0.045623779296875,-0.112457275390625,0.6753893494606018,0.188232496380806,0.5748931169509888,62.70872497558594,97.55792236328124,-3.806198120117188
184625,0.097442626953125,0.043182373046875,0.0227203369140625,0.5786183476448059,0.0038634478114545,0.5271711349487305,62.8922119140625,97.54095458984376,-3.825424194335938
184626,0.1055145263671875,-0.022979736328125,0.1254425048828125,0.4324877560138702,0.2355131804943085,0.5417519211769104,63.15274047851562,97.78211975097656,-4.7437744140625
184627,0.084716796875,-0.0536041259765625,0.1082916259765625,0.3656389713287354,0.4481562077999115,0.5749192237854004,63.43791198730469,97.7182159423828,-4.90557861328125
184628,0.084716796875,-0.0536041259765625,0.1082916259765625,0.3656389713287354,0.4481562077999115,0.5749192237854004,63.43791198730469,97.7182159423828,-4.90557861328125
184629,0.0583038330078125,-0.064666748046875,0.076080322265625,0.2974657714366913,0.6107267737388611,0.5847028493881226,63.59675598144531,97.7493896484375,-4.952728271484375
184630,0.041595458984375,-0.059234619140625,0.0675506591796875,0.1334627121686935,0.792305588722229,0.5215287208557129,64.00662231445312,97.6353759765625,-4.8341064453125
184631,0.039154052734375,-0.0547637939453125,0.045867919921875,0.0430792942643165,0.8006452918052673,0.4595971405506134,64.17936706542969,97.60783386230467,-4.716720581054688
184632,0.0381011962890625,-0.0538330078125,0.0280303955078125,-0.0268124397844076,0.7306087017059326,0.3869762122631073,64.3729248046875,97.62564086914062,-4.492874145507812
184633,0.0378875732421875,-0.0559844970703125,0.0279388427734375,-0.1079293936491013,0.6079522967338562,0.3036312460899353,64.59294128417969,97.50978088378906,-4.10833740234375
184634,0.0378875732421875,-0.0559844970703125,0.0279388427734375,-0.1079293936491013,0.6079522967338562,0.3036312460899353,64.59294128417969,97.50978088378906,-4.10833740234375
184635,0.038970947265625,-0.069671630859375,0.0668487548828125,-0.3059351444244385,0.3374214470386505,0.1202600970864296,64.946044921875,97.44767761230467,-3.38330078125
184636,0.0383758544921875,-0.0771331787109375,0.1034393310546875,-0.4300549626350403,0.2214439660310745,0.0169150680303573,64.96647644042969,97.40647888183594,-3.104629516601562
184637,0.033905029296875,-0.0753936767578125,0.150482177734375,-0.6030147671699524,0.0969633013010025,-0.112384594976902,65.02793884277344,97.35121154785156,-2.6798095703125
184638,0.01556396484375,-0.039703369140625,0.208404541015625,-0.8322988152503967,-0.0292891785502433,-0.3021076619625092,65.03369140625,97.28733825683594,-2.322433471679688
184639,-0.021697998046875,0.120849609375,0.295501708984375,-1.080409288406372,-0.1079475060105324,-0.6565517783164978,64.97261047363281,97.17414855957033,-1.799713134765625
184640,-0.033172607421875,0.2400054931640625,0.3909454345703125,-1.33984911441803,-0.1402780115604401,-0.9705424308776855,64.75877380371094,97.21592712402344,-1.266525268554688
184641,-0.0293426513671875,0.409881591796875,0.569091796875,-2.246363878250122,0.2027525752782822,-1.812296271324158,64.49061584472656,97.30596923828124,-0.8581085205078125
184642,-0.0293426513671875,0.409881591796875,0.569091796875,-2.246363878250122,0.2027525752782822,-1.812296271324158,64.49061584472656,97.30596923828124,-0.8581085205078125
184643,-0.04364013671875,1.57403564453125,1.09600830078125,-2.69676661491394,1.14086651802063,-2.452269554138184,63.01556396484375,97.72816467285156,0.1653900146484375
184644,-0.04364013671875,1.57403564453125,1.09600830078125,-2.69676661491394,1.14086651802063,-2.452269554138184,63.01556396484375,97.72816467285156,0.1653900146484375
184645,0.0370025634765625,4.552902221679688,1.066299438476562,-2.792444229125977,-0.9498552680015564,-2.815022230148315,61.85868835449219,98.07582092285156,0.6197357177734375
184646,-1.476226806640625,5.45849609375,0.8832855224609375,-2.650407075881958,-5.229696273803711,-2.56880259513855,58.70707702636719,99.0935516357422,0.622039794921875
184647,0.740936279296875,1.988418579101562,1.627090454101562,-1.305850148200989,-5.450523376464844,-0.0357862263917923,57.45942687988281,99.18638610839844,0.780303955078125
184648,-0.2877197265625,1.7559814453125,1.562423706054688,-0.0082225101068615,-2.704246997833252,-0.2280060052871704,57.37506103515625,98.79397583007812,2.067840576171875
184649,-0.1034698486328125,1.2640380859375,0.8131256103515625,0.5865566730499268,-0.4871129393577576,-0.8723676800727844,58.04759216308594,98.31253051757812,3.128082275390625
184650,0.106903076171875,1.401138305664062,-0.08465576171875,0.798946738243103,0.2186702936887741,-0.963333547115326,58.53385925292969,97.99331665039062,3.620819091796875
184651,0.0901031494140625,2.032501220703125,-0.9120025634765624,1.269487380981445,-0.3285144865512848,-0.8619787096977234,58.34744262695312,98.111328125,3.554580688476562
184652,0.2228851318359375,2.303634643554688,-1.485397338867188,2.044662714004517,-0.4105707406997681,-0.4326097369194031,57.74656677246094,98.42276000976562,3.093170166015625
184653,0.3899688720703125,2.181411743164062,-1.525894165039062,1.257539868354797,-0.2576512396335602,0.0205167271196842,57.20991516113281,98.96762084960938,2.315048217773438
184654,0.252227783203125,1.9483642578125,-0.4727935791015625,0.3158335983753204,-0.0448670722544193,0.1740074753761292,56.97103881835938,99.4218292236328,1.421249389648438
184655,0.1384124755859375,1.863418579101562,0.057037353515625,-0.3054400682449341,0.1650350242853165,0.4013213217258453,57.11972045898438,99.594970703125,0.85589599609375
184656,0.1384124755859375,1.863418579101562,0.057037353515625,-0.3054400682449341,0.1650350242853165,0.4013213217258453,57.11972045898438,99.594970703125,0.85589599609375
184657,-0.02593994140625,1.60174560546875,0.1990966796875,-0.8933573961257935,0.5130981802940369,0.2480974197387695,58.44358825683594,98.81364440917967,1.308990478515625
184658,-0.02593994140625,1.60174560546875,0.1990966796875,-0.8933573961257935,0.5130981802940369,0.2480974197387695,58.44358825683594,98.81364440917967,1.308990478515625
184659,-0.1428070068359375,1.424514770507812,0.2227630615234375,0.1356987059116364,0.0929373949766159,-0.0979553237557411,58.86788940429688,98.29757690429688,2.099807739257812
184660,-0.2355804443359375,1.20855712890625,0.2236480712890625,0.1356987059116364,0.0929373949766159,-0.0979553237557411,59.23915100097656,97.97122192382812,2.538497924804688
184661,-0.2718353271484375,1.016159057617188,0.2164154052734375,0.551704466342926,-0.1707224696874619,-0.2168827801942825,59.40751647949219,97.6437530517578,2.724929809570312
184662,-0.2678985595703125,0.8259429931640625,0.22674560546875,0.8156940340995789,-0.3184392154216766,-0.3201188743114471,59.49325561523438,97.42994689941406,2.642364501953125
184663,-0.2539825439453125,0.6458282470703125,0.21636962890625,0.9427017569541932,-0.3002501130104065,-0.3744156658649445,59.50483703613281,97.46238708496094,2.300369262695312
184664,-0.2349395751953125,0.4931182861328125,0.17620849609375,0.9819053411483764,-0.1860700100660324,-0.3940053582191467,59.52217102050781,97.49119567871094,1.868057250976562
184665,-0.198638916015625,0.340911865234375,0.1278533935546875,0.8781952261924744,0.0679705291986465,-0.2054373174905777,59.39430236816406,97.56884765625,1.247238159179688
184666,-0.1673736572265625,0.2139892578125,0.089935302734375,0.8781952261924744,0.0679705291986465,-0.2054373174905777,59.28860473632812,97.81947326660156,0.66448974609375
184667,-0.11962890625,0.1184844970703125,0.0475311279296875,0.7885020971298218,0.2070943266153336,0.012385562993586,59.18190002441406,98.0547332763672,0.2608642578125
184668,-0.060516357421875,0.052581787109375,-0.006591796875,0.6917456984519958,0.3168908655643463,0.2290510237216949,59.08242797851562,98.105224609375,-0.0498504638671875
184669,-0.0108642578125,0.0059814453125,-0.064117431640625,0.5919442772865295,0.3370062410831451,0.3875474631786346,59.06977844238281,98.31871032714844,-0.385955810546875
184670,0.029327392578125,-0.0370330810546875,-0.118804931640625,0.5393572449684143,0.2707934081554413,0.5136276483535767,59.01734924316406,98.40467834472656,-0.6904296875
184671,0.0568695068359375,-0.0846405029296875,-0.243743896484375,0.5632665753364563,0.0916612073779106,0.61805260181427,59.12979125976562,98.43121337890624,-0.9723968505859376
184672,0.087493896484375,-0.1253814697265625,-0.4634857177734375,0.6440806984901428,-0.4492403864860535,0.7242519855499268,59.27763366699219,98.6018524169922,-1.007232666015625
184673,0.1022186279296875,-0.1234130859375,-0.476715087890625,0.7208921313285828,-1.112953424453735,0.8224096894264221,59.42916870117188,98.60166931152344,-1.105361938476562
184674,0.1022186279296875,-0.1234130859375,-0.476715087890625,0.7208921313285828,-1.112953424453735,0.8224096894264221,59.42916870117188,98.60166931152344,-1.105361938476562
184675,0.08282470703125,-0.039154052734375,-0.033111572265625,0.5615624189376831,-0.9226420521736144,0.8312641978263855,60.12776184082031,98.65963745117188,-1.551055908203125
184676,0.1019439697265625,0.0302734375,0.097808837890625,0.290542870759964,0.1456259042024612,0.7191877365112305,60.50709533691406,98.76657104492188,-1.803924560546875
184677,0.1145172119140625,0.1358795166015625,0.08544921875,-0.2093018293380737,1.135217666625977,0.493173211812973,60.84237670898438,98.7275390625,-1.979263305664062
184678,0.1145172119140625,0.1358795166015625,0.08544921875,-0.2093018293380737,1.135217666625977,0.493173211812973,60.84237670898438,98.7275390625,-1.979263305664062
184679,0.051055908203125,0.2762451171875,0.032196044921875,-0.3472024202346802,1.051075100898743,0.3177593350410461,61.21354675292969,98.86302185058594,-1.94989013671875
184680,0.0446014404296875,0.3928070068359375,0.0495452880859375,-0.3144862949848175,0.7702908515930176,0.122836172580719,61.35589599609375,98.8408203125,-1.820175170898438
184681,0.058837890625,0.77142333984375,0.1631622314453125,-0.0703226327896118,0.6794091463088989,-0.0019267969764769,61.28047180175781,98.71058654785156,-1.616867065429688
184682,0.058837890625,0.77142333984375,0.1631622314453125,-0.0703226327896118,0.6794091463088989,-0.0019267969764769,61.28047180175781,98.71058654785156,-1.616867065429688
184683,-0.09429931640625,1.248214721679688,0.1511077880859375,0.3834185004234314,0.528548538684845,0.0042298985645174,61.10884094238281,98.63775634765624,-1.5263671875
184684,-0.139251708984375,0.8861236572265625,-0.0103607177734375,0.4531930387020111,0.038827821612358,-0.0298329964280128,61.10433959960938,98.62570190429688,-1.66656494140625
184685,-0.0512542724609375,0.45428466796875,-0.0022735595703125,0.4959242641925812,-0.419242799282074,-0.0124076670035719,61.07223510742188,98.70773315429688,-1.9171142578125
184686,-0.0512542724609375,0.45428466796875,-0.0022735595703125,0.4959242641925812,-0.419242799282074,-0.0124076670035719,61.07223510742188,98.70773315429688,-1.9171142578125
184687,0.0384674072265625,0.1355438232421875,0.0762939453125,0.535202145576477,-0.4636110663414001,0.0466527231037616,61.05308532714844,98.85409545898438,-2.451400756835938
184688,0.0346527099609375,0.04351806640625,0.0605010986328125,0.4951692521572113,-0.353934109210968,0.0850547030568122,61.16935729980469,98.93540954589844,-2.64794921875
184689,-0.0204010009765625,0.00616455078125,0.0084686279296875,0.1938347220420837,-0.2965949177742004,0.0245306435972452,61.49441528320312,98.98965454101562,-3.303543090820312
184690,-0.0204010009765625,0.00616455078125,0.0084686279296875,0.1938347220420837,-0.2965949177742004,0.0245306435972452,61.49441528320312,98.98965454101562,-3.303543090820312
184691,-0.043701171875,0.00225830078125,-0.019195556640625,-0.007896538823843,-0.3272082209587097,-0.063224509358406,61.61396789550781,98.98895263671876,-3.464202880859375
184692,-0.0457000732421875,-0.0272979736328125,-0.0612335205078125,-0.1830281466245651,-0.3484520018100739,-0.1334787011146545,61.69046020507812,98.94232177734376,-3.461776733398438
184693,-0.0485076904296875,-0.05584716796875,-0.1758575439453125,-0.3171537220478058,-0.4612650871276855,-0.1663495600223541,61.75599670410156,98.93438720703124,-3.460922241210938
184694,-0.0485076904296875,-0.05584716796875,-0.1758575439453125,-0.3171537220478058,-0.4612650871276855,-0.1663495600223541,61.75599670410156,98.93438720703124,-3.460922241210938
184695,-0.0845947265625,0.005340576171875,-0.48529052734375,-0.420282244682312,-1.108840107917786,-0.2045803070068359,61.6534423828125,99.33306884765624,-3.456024169921875
184696,-0.0411376953125,0.2098388671875,-0.5017242431640625,-0.4876455664634705,-1.24957275390625,-0.202053502202034,61.56239318847656,99.44520568847656,-3.451873779296875
184697,0.0489044189453125,0.3746337890625,-0.4441986083984375,-0.7241896390914917,-0.7491759657859802,0.1114676743745804,61.49577331542969,99.43438720703124,-3.406646728515625
184698,0.0489044189453125,0.3746337890625,-0.4441986083984375,-0.7241896390914917,-0.7491759657859802,0.1114676743745804,61.49577331542969,99.43438720703124,-3.406646728515625
184699,0.3107757568359375,1.35760498046875,0.1939544677734375,-0.7951192259788513,0.0149459261447191,0.5791283249855042,61.15213012695312,99.74110412597656,-3.366485595703125
184700,0.344940185546875,1.995925903320312,0.6546173095703125,-0.8351092338562012,1.120744228363037,1.109720826148987,61.11564636230469,99.78794860839844,-3.329879760742188
184701,0.26031494140625,2.70843505859375,0.9336700439453124,-0.7406243085861206,2.003132343292236,1.362164855003357,61.22743225097656,99.848876953125,-3.124557495117188
184702,0.26031494140625,2.70843505859375,0.9336700439453124,-0.7406243085861206,2.003132343292236,1.362164855003357,61.22743225097656,99.848876953125,-3.124557495117188
184703,-0.2651214599609375,4.407302856445312,0.98516845703125,-0.221276193857193,1.158111333847046,0.5588326454162598,61.9700927734375,99.20890808105467,-2.31182861328125
184704,-0.2651214599609375,4.407302856445312,0.98516845703125,-0.221276193857193,1.158111333847046,0.5588326454162598,61.9700927734375,99.20890808105467,-2.31182861328125
184705,-0.564727783203125,4.709136962890625,1.14080810546875,0.0117221698164939,0.6331950426101685,-0.1794507205486298,62.33367919921875,98.92213439941406,-1.930328369140625
184706,-0.4723358154296875,2.814071655273438,0.61077880859375,-0.2631546556949615,0.6039841771125793,-1.120763063430786,62.44367980957031,98.87501525878906,-1.805877685546875
184707,-0.27252197265625,1.840347290039062,0.25042724609375,-0.2836247980594635,-0.1603212356567383,-0.709663987159729,62.19090270996094,98.90193176269533,-1.527481079101562
184708,-0.1719818115234375,1.299148559570312,-0.04571533203125,-0.2836247980594635,-0.1603212356567383,-0.709663987159729,61.700927734375,99.01577758789062,-1.3480224609375
184709,-0.138214111328125,1.121810913085938,-0.6906280517578125,-0.1589078903198242,-1.225607514381409,-0.211135670542717,61.28877258300781,99.12681579589844,-1.288131713867188
184710,-0.138214111328125,1.121810913085938,-0.6906280517578125,-0.1589078903198242,-1.225607514381409,-0.211135670542717,61.28877258300781,99.12681579589844,-1.288131713867188
184711,-0.13812255859375,1.54541015625,0.05743408203125,0.1206590384244919,-0.9524049758911132,0.4066777527332306,60.69699096679688,99.1444091796875,-1.264938354492188
184712,-0.0695343017578125,1.552337646484375,0.060089111328125,0.0559945590794086,0.5596446394920349,0.5344764590263367,60.80856323242188,99.2160186767578,-1.442413330078125
184713,-0.0245513916015625,1.4705810546875,-0.1341094970703125,0.1881320923566818,0.8792253136634827,0.5143264532089233,61.0091552734375,99.05551147460938,-1.589828491210938
184714,-0.0245513916015625,1.4705810546875,-0.1341094970703125,0.1881320923566818,0.8792253136634827,0.5143264532089233,61.0091552734375,99.05551147460938,-1.589828491210938
184715,0.1178436279296875,1.236648559570312,0.0550994873046875,0.1677280217409134,0.60125333070755,0.6121773719787598,61.56243896484375,98.68690490722656,-1.491775512695312
184716,0.1478271484375,1.173202514648438,0.1113128662109375,0.0570643506944179,0.4165767133235931,0.6220590472221375,61.722900390625,98.37434387207033,-1.327896118164062
184717,0.1755828857421875,1.123031616210938,0.0901947021484375,0.0570643506944179,0.4165767133235931,0.6220590472221375,61.94114685058594,98.20222473144533,-1.261993408203125
184718,0.2085418701171875,1.04376220703125,0.0384063720703125,0.0209380388259887,0.1356241405010223,0.6190014481544495,62.21731567382812,97.97613525390624,-1.014801025390625
184719,0.2158660888671875,0.9488983154296876,0.0057830810546875,0.2558418810367584,-0.2141482383012772,0.6187289953231812,62.49430847167969,97.81167602539062,-0.9407501220703124
184720,0.2158660888671875,0.9488983154296876,0.0057830810546875,0.2558418810367584,-0.2141482383012772,0.6187289953231812,62.49430847167969,97.81167602539062,-0.9407501220703124
184721,0.0904998779296875,0.873321533203125,-0.0255889892578125,0.4136863946914673,-0.1471622884273529,0.5906688570976257,63.06097412109375,97.72702026367188,-0.92901611328125
184722,0.0904998779296875,0.873321533203125,-0.0255889892578125,0.4136863946914673,-0.1471622884273529,0.5906688570976257,63.06097412109375,97.72702026367188,-0.92901611328125
184723,-0.0572662353515625,0.8094329833984375,-0.0244598388671875,0.5161104798316956,-0.1240532398223877,0.4312842786312103,63.59829711914062,97.48234558105467,-0.6997222900390625
184724,-0.050811767578125,0.7701416015625,0.009185791015625,0.5021616816520691,-0.0448875799775123,0.3399210870265961,63.89935302734375,97.51771545410156,-0.7795562744140625
184725,-0.0270538330078125,0.7216644287109375,-0.03546142578125,0.4710000157356262,-0.0002535329258535,0.2408626824617386,64.05120849609375,97.45480346679688,-1.224594116210938
184726,-0.0270538330078125,0.7216644287109375,-0.03546142578125,0.4710000157356262,-0.0002535329258535,0.2408626824617386,64.05120849609375,97.45480346679688,-1.224594116210938
184727,0.02142333984375,0.6265106201171875,-0.1358795166015625,0.4463063776493073,-0.0580017827451229,0.0661201626062393,64.37062072753906,97.6343994140625,-1.952041625976562
184728,0.0366058349609375,0.586822509765625,-0.1523590087890625,0.4617780148983002,0.0126156602054834,0.0109035139903426,64.43266296386719,97.58163452148438,-2.065750122070312
184729,0.045684814453125,0.5594940185546875,-0.1746826171875,0.4608757495880127,0.1470504403114319,-0.0296532325446605,64.44718933105469,97.75730895996094,-2.24163818359375
184730,0.048858642578125,0.5535430908203125,-0.1915130615234375,0.4609031677246094,0.30156409740448,-0.0554038695991039,64.46223449707031,97.81689453125,-2.54132080078125
184731,0.045074462890625,0.5559539794921875,-0.200775146484375,0.4801413118839264,0.3987375199794769,-0.0681340470910072,64.45230102539062,97.8582763671875,-2.794754028320312
184732,0.045074462890625,0.5559539794921875,-0.200775146484375,0.4801413118839264,0.3987375199794769,-0.0681340470910072,64.45230102539062,97.8582763671875,-2.794754028320312
184733,0.048614501953125,0.50946044921875,-0.2028961181640625,0.5240509510040283,0.3730987310409546,-0.0393620543181896,64.26400756835938,98.02482604980467,-3.211593627929688
184734,0.0634918212890625,0.4638519287109375,-0.222869873046875,0.5541585683822632,0.3182016611099243,-0.0042767701670527,64.22377014160156,98.01852416992188,-3.301300048828125
184735,0.0818328857421875,0.406585693359375,-0.250030517578125,0.593787431716919,0.2588856220245361,0.0412158779799938,64.17588806152344,98.0778350830078,-3.42572021484375
184736,0.0973358154296875,0.3486328125,-0.27044677734375,0.6518555283546448,0.1924895495176315,0.1012706980109215,64.10057067871094,98.12240600585938,-3.62823486328125
184737,0.113525390625,0.29254150390625,-0.26947021484375,0.7091614603996277,0.1308967620134354,0.1565195620059967,64.11564636230469,98.24952697753906,-3.809005737304688
184738,0.113525390625,0.29254150390625,-0.26947021484375,0.7091614603996277,0.1308967620134354,0.1565195620059967,64.11564636230469,98.24952697753906,-3.809005737304688
184739,0.133819580078125,0.21746826171875,-0.18994140625,0.7285470962524414,0.1164227500557899,0.2386013865470886,64.09501647949219,98.2585906982422,-4.197601318359375
184740,0.133819580078125,0.21746826171875,-0.18994140625,0.7285470962524414,0.1164227500557899,0.2386013865470886,64.09501647949219,98.2585906982422,-4.197601318359375
184741,0.1374053955078125,0.2677764892578125,-0.1159820556640625,0.5260014533996582,0.2893412709236145,0.2469567954540253,64.14627075195312,98.3378448486328,-4.956375122070312
184742,0.155487060546875,0.31671142578125,-0.1153411865234375,0.3425789177417755,0.324718177318573,0.2056162804365158,64.10601806640625,98.43148803710938,-5.308120727539062
184743,0.1594085693359375,0.3897552490234375,-0.0946197509765625,0.1444386690855026,0.331858366727829,0.120662234723568,64.16239929199219,98.60409545898438,-5.36651611328125
184744,0.147735595703125,0.478790283203125,-0.063446044921875,-0.0125647941604256,0.29139244556427,-0.0064059677533805,64.19361877441406,98.60142517089844,-5.613540649414062
184745,0.0824127197265625,0.5926361083984375,-0.0194244384765625,-0.0688855871558189,0.2320268452167511,-0.151490718126297,64.25021362304688,98.64100646972656,-5.680984497070312
184746,0.017913818359375,0.6869659423828125,0.016204833984375,-0.0419482477009296,0.1431928426027298,-0.266362726688385,64.17094421386719,98.67471313476562,-5.582992553710938
184747,-0.010009765625,0.7523956298828125,0.03753662109375,0.0092265214771032,0.022568691521883,-0.3524595201015472,64.15443420410156,98.5905303955078,-5.47113037109375
184748,-0.0272979736328125,0.79888916015625,0.0650177001953125,0.0365598760545253,-0.0817132368683815,-0.4284363090991974,64.07598876953125,98.5490264892578,-5.3985595703125
184749,-0.040191650390625,0.842987060546875,0.0904083251953125,-0.0490373186767101,-0.1401291489601135,-0.5416738986968994,63.92616271972656,98.63844299316406,-5.452667236328125
184750,-0.0683746337890625,0.91064453125,0.115142822265625,-0.0490373186767101,-0.1401291489601135,-0.5416738986968994,63.66285705566406,98.90237426757812,-5.412368774414062
184751,-0.1142120361328125,0.9971923828125,0.154388427734375,-0.2772718071937561,-0.0003004045574925,-0.7123668193817139,63.41755676269531,98.96218872070312,-5.423843383789062
184752,-0.17279052734375,1.10003662109375,0.218841552734375,-0.2772718071937561,-0.0003004045574925,-0.7123668193817139,63.13526916503906,98.99978637695312,-5.525787353515625
184753,-0.2257080078125,1.208831787109375,0.281829833984375,-0.4858194291591644,0.2712392210960388,-0.9420737624168396,62.94535827636719,99.21620178222656,-5.405380249023438
184754,-0.276947021484375,1.278915405273438,0.2998504638671875,-0.4858194291591644,0.2712392210960388,-0.9420737624168396,62.58016967773438,99.39938354492188,-5.370193481445312
184755,-0.3415069580078125,1.314849853515625,0.3041534423828125,-0.4997578859329224,0.2417332679033279,-1.02595055103302,62.12283325195312,99.56747436523438,-5.284194946289062
184756,-0.4083099365234375,1.318618774414062,0.3109130859375,-0.4791072010993958,0.1006800085306168,-1.093345284461975,61.75389099121094,99.69906616210938,-5.190032958984375
184757,-0.4937744140625,1.273956298828125,0.3373870849609375,-0.4794858992099762,-0.0276569277048111,-1.038411736488342,61.25218200683594,99.74122619628906,-4.989654541015625
184758,-0.6015625,1.201858520507812,0.3474884033203125,-0.5469195246696472,-0.0662288218736648,-0.733721911907196,60.37599182128906,100.030029296875,-4.6134033203125
184759,-0.5123443603515625,1.245651245117188,0.2667388916015625,-0.6362840533256531,-0.2753149271011353,-0.4310299456119537,59.9591064453125,100.0619659423828,-4.3079833984375
184760,-0.2962799072265625,1.340652465820312,0.221343994140625,-0.7103745341300964,-0.692110538482666,-0.4278932809829712,59.62399291992188,100.1412048339844,-4.098953247070312
184761,-0.1507415771484375,1.334030151367188,0.1990966796875,-0.7378737926483154,-0.9725683331489564,-0.4404554069042206,59.40682983398438,100.1120300292969,-3.863922119140625
184762,-0.0161895751953125,1.349929809570312,0.103790283203125,-0.701589822769165,-1.168646216392517,-0.4145742952823639,59.10528564453125,100.2850799560547,-3.640533447265625
184763,0.105560302734375,1.454330444335938,0.0103302001953125,-0.6277603507041931,-1.242692947387695,-0.4057741463184357,59.024169921875,100.2147216796875,-3.344467163085938
184764,0.2659912109375,1.717208862304688,-0.1524200439453125,-0.5059084296226501,-0.9609414935112,-0.4806406497955322,58.63079833984375,100.08935546875,-2.761444091796875
184765,0.2659912109375,1.717208862304688,-0.1524200439453125,-0.5059084296226501,-0.9609414935112,-0.4806406497955322,58.63079833984375,100.08935546875,-2.761444091796875
184766,0.2839202880859375,1.806808471679688,-0.16473388671875,-0.4777809381484985,-0.9664811491966248,-0.5531723499298096,58.4559326171875,100.0227203369141,-2.467681884765625
184767,0.2436676025390625,1.855758666992188,-0.0963287353515625,-0.4240295588970184,-0.9642903804779052,-0.5513465404510498,58.15866088867188,100.0732269287109,-2.21881103515625
184768,0.1761016845703125,1.939056396484375,-0.080413818359375,-0.2821760177612305,-0.9295191168785096,-0.4871440827846527,57.96170043945312,100.0539245605469,-2.075363159179688
184769,0.0789794921875,2.027084350585938,-0.1131439208984375,-0.04823037981987,-0.8373020887374878,-0.3719549179077148,57.85447692871094,100.0629272460938,-1.96710205078125
184770,-0.0399627685546875,2.058929443359375,-0.19097900390625,0.1588780581951141,-0.6675751209259033,-0.2842234671115875,57.74044799804688,100.1642761230469,-1.897201538085938
184771,-0.1148529052734375,1.955551147460938,-0.282440185546875,0.2602318525314331,-0.4835442900657654,-0.250083327293396,57.81243896484375,100.1891326904297,-1.970046997070312
184772,-0.0990447998046875,1.733551025390625,-0.3321075439453125,0.2635695934295654,-0.3675274252891541,-0.2115348875522614,57.76631164550781,100.076416015625,-1.985565185546875
184773,-0.0610504150390625,1.5975341796875,-0.3192291259765625,0.2796510756015778,-0.2753266394138336,-0.1777273863554001,57.83366394042969,100.2175140380859,-2.200485229492188
184774,-0.0409088134765625,1.47613525390625,-0.2826385498046875,0.3242568969726562,-0.2335357964038849,-0.1550385802984238,57.81611633300781,100.1732940673828,-2.35052490234375
184775,-0.030487060546875,1.327362060546875,-0.2380218505859375,0.3676722943782806,-0.214082732796669,-0.1271923035383224,57.95787048339844,100.1927795410156,-2.548187255859375
184776,-0.031280517578125,1.204452514648438,-0.2003936767578125,0.3809207081794739,-0.2216469049453735,-0.0856584459543228,57.9599609375,100.1918792724609,-2.780853271484375
184777,-0.039794921875,1.103240966796875,-0.1756134033203125,0.38935786485672,-0.2186407297849655,-0.0578454546630382,58.00582885742188,100.1453704833984,-2.976272583007812
184778,-0.039794921875,1.103240966796875,-0.1756134033203125,0.38935786485672,-0.2186407297849655,-0.0578454546630382,58.00582885742188,100.1453704833984,-2.976272583007812
184779,-0.0692291259765625,0.9052886962890624,-0.170135498046875,0.4792515337467194,-0.2115316838026047,-0.0152993276715278,58.25578308105469,100.2900085449219,-3.382736206054688
184780,-0.08807373046875,0.81781005859375,-0.167327880859375,0.5385984778404236,-0.1990699619054794,0.0072483252733945,58.43544006347656,100.37939453125,-3.689727783203125
184781,-0.10821533203125,0.7475738525390625,-0.1668243408203125,0.5924209952354431,-0.209972932934761,0.0329733975231647,58.52969360351562,100.4188842773438,-3.866714477539062
184782,-0.1273040771484375,0.6811981201171875,-0.1517791748046875,0.6272870898246765,-0.2414989024400711,0.0525700002908706,58.67340087890625,100.5055084228516,-4.101821899414062
184783,-0.14208984375,0.6172637939453125,-0.1256256103515625,0.6271176934242249,-0.2523214519023895,0.0509982034564018,58.67546081542969,100.5628814697266,-4.43951416015625
184784,-0.1461029052734375,0.5550994873046875,-0.0912322998046875,0.5679124593734741,-0.2314033955335617,0.0526959672570228,58.80610656738281,100.5774688720703,-4.864852905273438
184785,-0.1424713134765625,0.4953765869140625,-0.0611419677734375,0.4810896515846252,-0.1546383053064346,0.0550169125199317,58.95391845703125,100.5401000976562,-5.193374633789062
184786,-0.133636474609375,0.43341064453125,-0.0770721435546875,0.4205048680305481,-0.1031602099537849,0.0636854991316795,59.02920532226562,100.5550384521484,-5.5032958984375
184787,-0.121185302734375,0.4026031494140625,-0.0919036865234375,0.418380469083786,-0.1272397041320801,0.0718422308564186,59.08206176757812,100.5640106201172,-5.785568237304688
184788,-0.11090087890625,0.3942108154296875,-0.0695953369140625,0.4629681706428528,-0.1457257717847824,0.0891980528831481,59.17770385742188,100.5741424560547,-5.900177001953125
184789,-0.09600830078125,0.3921356201171875,-0.04193115234375,0.5190351605415344,-0.1523708999156952,0.1008866652846336,59.24859619140625,100.5296478271484,-6.176727294921875
