time_idx,accelerometerAccelerationX(G),accelerometerAccelerationY(G),accelerometerAccelerationZ(G),gyroRotationX(rad/s),gyroRotationY(rad/s),gyroRotationZ(rad/s),magnetometerX(µT),magnetometerY(µT),magnetometerZ(µT)
158628,-0.6581878662109375,0.8778228759765625,0.256011962890625,-1.081083297729492,0.0669364258646965,-0.1211930066347122,14.74049377441406,78.70921325683594,-40.869873046875
158629,-0.635528564453125,0.893768310546875,0.2326202392578125,-1.132660746574402,-0.0453927814960479,-0.1476895958185196,14.71395874023438,78.89494323730469,-40.62489318847656
158630,-0.6230621337890625,0.8840484619140625,0.21978759765625,-1.163352131843567,-0.1258191764354706,-0.2030393928289413,14.65965270996094,79.10870361328125,-40.27618408203125
158631,-0.6230621337890625,0.8840484619140625,0.21978759765625,-1.163352131843567,-0.1258191764354706,-0.2030393928289413,14.65965270996094,79.10870361328125,-40.27618408203125
158632,-0.61151123046875,0.8292388916015625,0.145721435546875,-1.061832666397095,-0.1009338051080704,-0.3331257700920105,14.45454406738281,79.59233093261719,-39.47157287597656
158633,-0.5969085693359375,0.79156494140625,0.08441162109375,-0.94741290807724,-0.0078107849694788,-0.360174685716629,14.21131896972656,79.72792053222656,-39.23252868652344
158634,-0.57464599609375,0.7808074951171875,-0.0146484375,-0.825768768787384,0.0650008395314216,-0.3704760670661926,13.97763061523438,80.05918884277344,-39.01432800292969
158635,-0.57464599609375,0.7808074951171875,-0.0146484375,-0.825768768787384,0.0650008395314216,-0.3704760670661926,13.97763061523438,80.05918884277344,-39.01432800292969
158636,-0.534454345703125,0.7564697265625,-0.2462615966796875,-0.7558011412620544,-0.1869309991598129,-0.2945384383201599,13.57504272460938,80.11448669433594,-38.43359375
158637,-0.544036865234375,0.77532958984375,-0.2740020751953125,-0.8187153935432434,-0.3914234340190887,-0.3003438413143158,13.38619995117188,80.13624572753906,-38.21890258789062
158638,-0.5666351318359375,0.8414764404296875,-0.3387908935546875,-0.9401293992996216,-0.3834978640079498,-0.4371158182621002,12.9453125,80.33439636230469,-37.5677490234375
158639,-0.5666351318359375,0.8414764404296875,-0.3387908935546875,-0.9401293992996216,-0.3834978640079498,-0.4371158182621002,12.9453125,80.33439636230469,-37.5677490234375
158640,-0.58917236328125,0.901763916015625,-0.4047393798828125,-0.884874165058136,-0.2243785113096237,-0.4808105528354645,12.63215637207031,80.41712951660156,-36.95797729492188
158641,-0.6231536865234375,0.9390411376953124,-0.447662353515625,-0.7519909143447876,-0.0080528669059276,-0.4254522323608398,12.28227233886719,80.33416748046875,-36.57514953613281
158642,-0.68304443359375,0.99395751953125,-0.49993896484375,-0.6020480394363403,0.1444575786590576,-0.2794026136398315,12.1484375,80.33662414550781,-36.14842224121094
158643,-0.730743408203125,1.056655883789062,-0.5737762451171875,-0.4794557988643646,0.1869243532419205,-0.1023189127445221,11.98553466796875,80.32221984863281,-35.88995361328125
158644,-0.7295074462890625,1.113037109375,-0.6807861328125,-0.3683255612850189,0.1633591055870056,0.0652959123253822,11.82984924316406,80.14759826660156,-35.61766052246094
158645,-0.66290283203125,1.208755493164062,-0.7682647705078125,-0.2566469609737396,0.1259914934635162,0.2447804510593414,11.95388793945312,79.98626708984375,-35.43299865722656
158646,-0.589874267578125,1.350692749023438,-0.7714385986328125,-0.1395890563726425,0.235527828335762,0.4131718575954437,12.01783752441406,80.02967834472656,-35.31776428222656
158647,-0.589874267578125,1.350692749023438,-0.7714385986328125,-0.1395890563726425,0.235527828335762,0.4131718575954437,12.01783752441406,80.02967834472656,-35.31776428222656
158648,-0.546051025390625,1.531265258789062,-0.6249542236328125,0.175882875919342,0.7065137028694153,0.5381913185119629,12.19754028320312,80.21839904785156,-35.08676147460938
158649,-0.553192138671875,1.534805297851562,-0.5920867919921875,0.3671676218509674,0.8151571154594421,0.5462098121643066,12.51756286621094,80.46339416503906,-35.17427062988281
158650,-0.5915985107421875,1.497650146484375,-0.6002960205078125,0.5182873606681824,0.8806317448616028,0.5760116577148438,12.84454345703125,80.4576416015625,-35.41583251953125
158651,-0.605865478515625,1.421035766601562,-0.602386474609375,0.5892390608787537,0.960632026195526,0.5983939170837402,13.07801818847656,80.70405578613281,-35.90606689453125
158652,-0.563629150390625,1.29949951171875,-0.5569915771484375,0.6053466200828552,0.9713144898414612,0.5831963419914246,13.32461547851562,80.90998840332031,-36.45399475097656
158653,-0.5058746337890625,1.154830932617188,-0.481353759765625,0.5964540839195251,0.8765504360198975,0.5645225048065186,13.78871154785156,81.24690246582031,-37.32673645019531
158654,-0.4655609130859375,0.9983978271484376,-0.4188690185546875,0.5740094780921936,0.6605086922645569,0.5465443134307861,14.11105346679688,81.38414001464844,-37.969482421875
158655,-0.4655609130859375,0.9983978271484376,-0.4188690185546875,0.5740094780921936,0.6605086922645569,0.5465443134307861,14.11105346679688,81.38414001464844,-37.969482421875
158656,-0.4652557373046875,0.78802490234375,-0.3139495849609375,0.589523196220398,0.0287043489515781,0.492645651102066,14.81736755371094,81.64009094238281,-39.03384399414062
158657,-0.4533843994140625,0.7294464111328125,-0.2335052490234375,0.5460103154182434,-0.3392520844936371,0.4799610078334808,15.03645324707031,81.7955322265625,-39.54188537597656
158658,-0.45025634765625,0.7056732177734375,-0.092529296875,0.4591473340988159,-0.5451112389564514,0.4540663063526154,15.11555480957031,81.86007690429688,-39.662353515625
158659,-0.45025634765625,0.7056732177734375,-0.092529296875,0.4591473340988159,-0.5451112389564514,0.4540663063526154,15.11555480957031,81.86007690429688,-39.662353515625
158660,-0.4361114501953125,0.6990509033203125,0.107513427734375,0.4480265080928802,-0.5803014636039734,0.4666262865066528,15.33285522460938,81.99270629882812,-39.83001708984375
158661,-0.4420013427734375,0.714447021484375,0.1613922119140625,0.525860071182251,-0.5811347961425781,0.5089753270149231,15.46774291992188,81.99415588378906,-39.72445678710938
158662,-0.46868896484375,0.745269775390625,0.193389892578125,0.6716604232788086,-0.6256915926933289,0.5579812526702881,15.65501403808594,81.97872924804688,-39.71482849121094
158663,-0.4879150390625,0.78466796875,0.203948974609375,0.8195236325263977,-0.7339853048324585,0.5942867994308472,15.75753784179688,82.01950073242188,-39.77609252929688
158664,-0.4874267578125,0.8016204833984375,0.2146759033203125,0.8859546184539795,-0.8015547394752502,0.6192339658737183,15.89607238769531,81.98924255371094,-39.73307800292969
158665,-0.4542694091796875,0.7864837646484375,0.200286865234375,0.836021363735199,-0.7617631554603577,0.6356446146965027,16.09059143066406,82.01864624023438,-39.63139343261719
158666,-0.3828277587890625,0.7364349365234375,0.13507080078125,0.7219648361206055,-0.6901057362556458,0.6519657969474792,16.22328186035156,81.91244506835938,-39.72471618652344
158667,-0.3828277587890625,0.7364349365234375,0.13507080078125,0.7219648361206055,-0.6901057362556458,0.6519657969474792,16.22328186035156,81.91244506835938,-39.72471618652344
158668,-0.2938079833984375,0.70928955078125,0.1001129150390625,0.6274969577789307,-0.3990507125854492,0.6541892886161804,16.43455505371094,81.75477600097656,-39.69686889648438
158669,-0.2750396728515625,0.6947021484375,0.0950469970703125,0.5864784121513367,-0.2273034602403641,0.6452812552452087,16.48712158203125,81.74971008300781,-39.78433227539062
158670,-0.31536865234375,0.6775054931640625,0.1315765380859375,0.4631817638874054,-0.0689750760793685,0.5735862851142883,16.81246948242188,81.90614318847656,-39.83349609375
158671,-0.31536865234375,0.6775054931640625,0.1315765380859375,0.4631817638874054,-0.0689750760793685,0.5735862851142883,16.81246948242188,81.90614318847656,-39.83349609375
158672,-0.3486328125,0.6516265869140625,0.1420440673828125,0.3346323072910309,-0.1079355180263519,0.4911529421806335,17.00253295898438,81.75523376464844,-39.92573547363281
158673,-0.38714599609375,0.6379547119140625,0.137969970703125,0.1785678863525391,-0.2060434520244598,0.3968549370765686,17.26918029785156,81.90614318847656,-40.16226196289062
158674,-0.4552154541015625,0.6415252685546875,0.1364593505859375,0.0189798157662153,-0.3059079945087433,0.2855161726474762,17.41305541992188,81.91693115234375,-40.23771667480469
158675,-0.4552154541015625,0.6415252685546875,0.1364593505859375,0.0189798157662153,-0.3059079945087433,0.2855161726474762,17.41305541992188,81.91693115234375,-40.23771667480469
158676,-0.566192626953125,0.667755126953125,0.150909423828125,-0.1746948510408401,-0.3669500350952148,0.042929358780384,17.53173828125,82.12748718261719,-40.23486328125
158677,-0.57489013671875,0.679595947265625,0.1968994140625,-0.1892974823713303,-0.250939816236496,-0.068757489323616,17.49789428710938,82.21649169921875,-39.9671630859375
158678,-0.5819244384765625,0.6862030029296875,0.2292327880859375,-0.2024401873350143,-0.0906231105327606,-0.161350816488266,17.41387939453125,82.2896728515625,-39.93159484863281
158679,-0.5819244384765625,0.6862030029296875,0.2292327880859375,-0.2024401873350143,-0.0906231105327606,-0.161350816488266,17.41387939453125,82.2896728515625,-39.93159484863281
158680,-0.5784149169921875,0.6881561279296875,0.291229248046875,-0.3368707001209259,0.0905179157853126,-0.2697566449642181,17.23600769042969,82.55978393554688,-39.69842529296875
158681,-0.5723724365234375,0.678131103515625,0.3061370849609375,-0.4311444759368896,0.1347282528877258,-0.2966545820236206,17.13058471679688,82.46810913085938,-39.70698547363281
158682,-0.57293701171875,0.6710205078125,0.2969970703125,-0.5124654173851013,0.1619942337274551,-0.3279187381267548,17.10076904296875,82.47602844238281,-39.82005310058594
158683,-0.57293701171875,0.6710205078125,0.2969970703125,-0.5124654173851013,0.1619942337274551,-0.3279187381267548,17.10076904296875,82.47602844238281,-39.82005310058594
158684,-0.5909576416015625,0.6622314453125,0.246246337890625,-0.6401235461235046,0.1629865169525146,-0.3666296601295471,16.85054016113281,82.60531616210938,-39.54290771484375
158685,-0.5939788818359375,0.6537322998046875,0.222900390625,-0.6912375688552856,0.1769385635852814,-0.3949337303638458,16.72933959960938,82.5750732421875,-39.3988037109375
158686,-0.5762786865234375,0.63092041015625,0.1618194580078125,-0.6707533597946167,0.2324076741933823,-0.476954311132431,16.48332214355469,82.74461364746094,-39.15812683105469
158687,-0.5762786865234375,0.63092041015625,0.1618194580078125,-0.6707533597946167,0.2324076741933823,-0.476954311132431,16.48332214355469,82.74461364746094,-39.15812683105469
158688,-0.547821044921875,0.622406005859375,0.131805419921875,-0.6627334952354431,0.2625163197517395,-0.5058738589286804,16.38082885742188,82.69535827636719,-38.96929931640625
158689,-0.5198822021484375,0.6154022216796875,0.077117919921875,-0.698753833770752,0.2147021740674973,-0.5214687585830688,16.25213623046875,82.81956481933594,-38.90342712402344
158690,-0.4894561767578125,0.622039794921875,0.0002899169921875,-0.7738805413246155,0.0219372566789388,-0.5109812617301941,16.099853515625,82.80589294433594,-38.70431518554688
158691,-0.4894561767578125,0.622039794921875,0.0002899169921875,-0.7738805413246155,0.0219372566789388,-0.5109812617301941,16.099853515625,82.80589294433594,-38.70431518554688
158692,-0.4409942626953125,0.69354248046875,-0.0873565673828125,-1.010674118995667,-0.5137069821357727,-0.4251113533973694,15.66424560546875,82.84613037109375,-38.384521484375
158693,-0.416046142578125,0.7310943603515625,-0.091949462890625,-1.104251503944397,-0.6918343901634216,-0.4008667171001434,15.34523010253906,82.90379333496094,-37.98286437988281
158694,-0.3961639404296875,0.788330078125,-0.063873291015625,-1.170582294464111,-0.7435545921325684,-0.3989963829517365,14.97096252441406,82.9971923828125,-37.48922729492188
158695,-0.3961639404296875,0.788330078125,-0.063873291015625,-1.170582294464111,-0.7435545921325684,-0.3989963829517365,14.97096252441406,82.9971923828125,-37.48922729492188
158696,-0.4566497802734375,0.9579925537109376,-0.0829620361328125,-1.217356443405151,-0.5397348403930664,-0.4389222264289856,14.22233581542969,83.03022766113281,-36.16244506835938
158697,-0.531585693359375,1.077102661132812,-0.167205810546875,-1.150246977806091,-0.4191069900989532,-0.4645738005638123,13.81657409667969,83.06362915039062,-35.64154052734375
158698,-0.6737213134765625,1.277175903320312,-0.2660980224609375,-0.7923612594604492,-0.1955612450838089,-0.3753496408462524,13.09501647949219,83.04609680175781,-34.38690185546875
158699,-0.6737213134765625,1.277175903320312,-0.2660980224609375,-0.7923612594604492,-0.1955612450838089,-0.3753496408462524,13.09501647949219,83.04609680175781,-34.38690185546875
158700,-0.7109832763671875,1.331787109375,-0.3261566162109375,-0.5578052401542664,-0.0282851681113243,-0.2950143218040466,12.75103759765625,83.07904052734375,-33.88381958007812
158701,-0.67535400390625,1.310226440429688,-0.4020233154296875,-0.3300026655197144,0.0030908647459,-0.2396086007356644,12.50999450683594,82.93948364257812,-33.42832946777344
158702,-0.597564697265625,1.287399291992188,-0.475189208984375,-0.0894433334469795,-0.0156037267297506,-0.1488211750984192,12.27513122558594,82.88618469238281,-33.08827209472656
158703,-0.597564697265625,1.287399291992188,-0.475189208984375,-0.0894433334469795,-0.0156037267297506,-0.1488211750984192,12.27513122558594,82.88618469238281,-33.08827209472656
158704,-0.4268798828125,1.272979736328125,-0.6432342529296875,0.4468472599983215,0.0624364800751209,0.0545663051307201,12.21524047851562,82.58334350585938,-32.71260070800781
158705,-0.3855133056640625,1.282943725585938,-0.6863861083984375,0.6648554801940918,0.1280120313167572,0.1680992543697357,12.15533447265625,82.65023803710938,-32.73390197753906
158706,-0.353424072265625,1.29913330078125,-0.6740570068359375,0.8023896813392639,0.1838657110929489,0.26091068983078,12.25076293945312,82.55841064453125,-32.767578125
158707,-0.3497772216796875,1.311187744140625,-0.64459228515625,0.8435256481170654,0.2147511839866638,0.3186070024967194,12.33503723144531,82.554931640625,-32.97857666015625
158708,-0.35430908203125,1.320236206054688,-0.5997161865234375,0.853725790977478,0.2084296345710754,0.3661366999149323,12.59130859375,82.46742248535156,-33.38261413574219
158709,-0.3571624755859375,1.318771362304688,-0.56640625,0.8458409905433655,0.200257733464241,0.4261153638362885,12.74531555175781,82.40925598144531,-33.64715576171875
158710,-0.3546142578125,1.31011962890625,-0.5353851318359375,0.8555982708930969,0.1513074934482574,0.502627968788147,12.98667907714844,82.50141906738281,-34.07974243164062
158711,-0.3546142578125,1.31011962890625,-0.5353851318359375,0.8555982708930969,0.1513074934482574,0.502627968788147,12.98667907714844,82.50141906738281,-34.07974243164062
158712,-0.3354339599609375,1.280960083007812,-0.37518310546875,0.8409761786460876,0.0654799416661262,0.5612992644309998,13.41485595703125,82.32272338867188,-34.75851440429688
158713,-0.3463592529296875,1.260299682617188,-0.2950592041015625,0.8307294249534607,0.0577232167124748,0.5090999603271484,13.70155334472656,82.52919006347656,-35.25303649902344
158714,-0.3608551025390625,1.260345458984375,-0.24029541015625,0.8286489844322205,-0.0095168063417077,0.444936990737915,13.94425964355469,82.59672546386719,-35.46983337402344
158715,-0.3608551025390625,1.260345458984375,-0.24029541015625,0.8286489844322205,-0.0095168063417077,0.444936990737915,13.94425964355469,82.59672546386719,-35.46983337402344
158716,-0.46258544921875,1.324737548828125,-0.1452789306640625,0.8513385653495789,-0.2967557609081268,0.2505477964878082,14.29298400878906,82.81626892089844,-36.20695495605469
158717,-0.52471923828125,1.351531982421875,-0.1164093017578125,0.910435438156128,-0.4843107461929321,0.0925978422164917,14.39616394042969,82.82943725585938,-36.43803405761719
158718,-0.587646484375,1.335113525390625,-0.0674285888671875,1.040783882141113,-0.6666584610939026,-0.0575820691883564,14.53523254394531,82.92927551269531,-36.72372436523438
158719,-0.6470184326171875,1.268264770507812,0.0077056884765625,1.231829166412354,-0.7109563946723938,-0.131147101521492,14.55357360839844,82.84028625488281,-36.88676452636719
158720,-0.684356689453125,1.160385131835938,-0.00054931640625,1.371164202690125,-0.711687445640564,-0.1422972232103348,14.62022399902344,82.68547058105469,-37.12553405761719
158721,-0.6848602294921875,1.046173095703125,-0.0246124267578125,1.459738492965698,-0.8065553903579712,-0.0945512726902961,14.68545532226562,82.29220581054688,-37.15928649902344
158722,-0.67120361328125,0.9365234375,-0.001953125,1.529767870903015,-0.9899169206619264,-0.0424057804048061,14.64572143554688,82.07846069335938,-37.43174743652344
158723,-0.67120361328125,0.9365234375,-0.001953125,1.529767870903015,-0.9899169206619264,-0.0424057804048061,14.64572143554688,82.07846069335938,-37.43174743652344
158724,-0.572906494140625,0.72125244140625,0.09478759765625,1.715583086013794,-1.143407464027405,0.0591991394758224,14.60696411132812,81.48431396484375,-37.79290771484375
158725,-0.5174560546875,0.6295166015625,0.12646484375,1.695569396018982,-1.072100520133972,0.110292948782444,14.51405334472656,81.16178894042969,-37.89323425292969
158726,-0.4560699462890625,0.563629150390625,0.1730804443359375,1.550301194190979,-0.9944331049919128,0.169605016708374,14.44461059570312,80.86860656738281,-37.89266967773438
158727,-0.4560699462890625,0.563629150390625,0.1730804443359375,1.550301194190979,-0.9944331049919128,0.169605016708374,14.44461059570312,80.86860656738281,-37.89266967773438
158728,-0.4543609619140625,0.4838409423828125,0.2522125244140625,1.236429572105408,-0.7414479851722717,0.2377795428037643,14.45932006835938,80.15164184570312,-38.08522033691406
158729,-0.4634246826171875,0.4156036376953125,0.243377685546875,1.158931016921997,-0.5903245210647583,0.1902327835559845,14.43450927734375,79.93855285644531,-38.20661926269531
158730,-0.49554443359375,0.3312835693359375,0.2233734130859375,1.116755604743958,-0.446889340877533,0.1441774219274521,14.42184448242188,79.79493713378906,-38.26472473144531
158731,-0.49554443359375,0.3312835693359375,0.2233734130859375,1.116755604743958,-0.446889340877533,0.1441774219274521,14.42184448242188,79.79493713378906,-38.26472473144531
158732,-0.5013275146484375,0.1876068115234375,0.169647216796875,0.9622171521186828,-0.2109516561031342,-0.0088358353823423,14.50985717773438,79.42312622070312,-38.39875793457031
158733,-0.483856201171875,0.1255035400390625,0.170684814453125,0.7922235727310181,-0.112475149333477,-0.0900729000568389,14.52177429199219,79.21099853515625,-38.59614562988281
158734,-0.4647064208984375,0.0834197998046875,0.146759033203125,0.5922912955284119,-0.0468623153865337,-0.1587534248828888,14.48106384277344,79.00228881835938,-38.82740783691406
158735,-0.4647064208984375,0.0834197998046875,0.146759033203125,0.5922912955284119,-0.0468623153865337,-0.1587534248828888,14.48106384277344,79.00228881835938,-38.82740783691406
158736,-0.4149322509765625,0.228363037109375,0.1010589599609375,0.0821689069271087,-0.0082193138077855,-0.135053962469101,14.419677734375,78.54240417480469,-39.22344970703125
158737,-0.4325408935546875,0.425811767578125,0.134613037109375,-0.196526899933815,-0.0481664650142192,-0.0461371354758739,14.27906799316406,78.4957275390625,-39.47590637207031
158738,-0.4999847412109375,0.5787353515625,0.1985015869140625,-0.3823732137680054,-0.0355105884373188,-0.0066488478332757,14.19284057617188,78.43101501464844,-39.49620056152344
158739,-0.4999847412109375,0.5787353515625,0.1985015869140625,-0.3823732137680054,-0.0355105884373188,-0.0066488478332757,14.19284057617188,78.43101501464844,-39.49620056152344
158740,-0.6048736572265625,0.780426025390625,0.25115966796875,-0.5259045362472534,-0.0806524977087974,-0.0146207539364695,13.95509338378906,78.719970703125,-39.42657470703125
158741,-0.62872314453125,0.8497161865234375,0.3033294677734375,-0.5894869565963745,-0.0250483620911836,-0.0480335727334022,13.89476013183594,78.78701782226562,-39.26730346679688
158742,-0.637451171875,0.8798980712890625,0.3448028564453125,-0.6689075231552124,0.0746180415153503,-0.0982703790068626,13.84445190429688,78.85086059570312,-39.11372375488281
158743,-0.637451171875,0.8798980712890625,0.3448028564453125,-0.6689075231552124,0.0746180415153503,-0.0982703790068626,13.84445190429688,78.85086059570312,-39.11372375488281
158744,-0.645233154296875,0.8829803466796875,0.3538055419921875,-0.8278372287750244,0.2262477874755859,-0.2014183402061462,13.67704772949219,78.86955261230469,-38.49751281738281
158745,-0.648956298828125,0.8786773681640625,0.3258209228515625,-0.8983643651008606,0.1655290424823761,-0.2433561980724335,13.64712524414062,79.02923583984375,-38.45606994628906
158746,-0.65472412109375,0.871429443359375,0.2742156982421875,-1.012363910675049,-0.1302195191383362,-0.3438383340835571,13.51399230957031,79.32147216796875,-38.19743347167969
158747,-0.65472412109375,0.871429443359375,0.2742156982421875,-1.012363910675049,-0.1302195191383362,-0.3438383340835571,13.51399230957031,79.32147216796875,-38.19743347167969
158748,-0.6486358642578125,0.8694610595703125,0.2469635009765625,-1.04054069519043,-0.1378468126058578,-0.4235382080078125,13.32846069335938,79.37602233886719,-37.88067626953125
158749,-0.6502838134765625,0.866790771484375,0.19110107421875,-1.018542170524597,-0.0335963107645511,-0.4993560016155243,13.31796264648438,79.49714660644531,-37.69038391113281
158750,-0.654052734375,0.792144775390625,0.04644775390625,-0.8470061421394348,0.1971183866262436,-0.5755757093429565,12.82405090332031,79.74482727050781,-37.2012939453125
158751,-0.654052734375,0.792144775390625,0.04644775390625,-0.8470061421394348,0.1971183866262436,-0.5755757093429565,12.82405090332031,79.74482727050781,-37.2012939453125
158752,-0.635528564453125,0.7565155029296875,-0.0517120361328125,-0.7649222016334534,0.179751917719841,-0.5541782379150391,12.66363525390625,79.72232055664062,-36.96278381347656
158753,-0.60308837890625,0.741241455078125,-0.150238037109375,-0.7073992490768433,0.0940900146961212,-0.5067620277404785,12.43350219726562,79.75318908691406,-36.71804809570312
158754,-0.5739898681640625,0.751190185546875,-0.225128173828125,-0.6754202842712402,-0.0028463865164667,-0.466792494058609,12.30323791503906,79.69053649902344,-36.59844970703125
158755,-0.5739898681640625,0.751190185546875,-0.225128173828125,-0.6754202842712402,-0.0028463865164667,-0.466792494058609,12.30323791503906,79.69053649902344,-36.59844970703125
158756,-0.5370941162109375,0.82379150390625,-0.3353424072265625,-0.6887184977531433,0.1028422266244888,-0.4460006356239319,11.753662109375,79.58393859863281,-36.08360290527344
158757,-0.540191650390625,0.8861236572265625,-0.4347381591796875,-0.7373678088188171,0.1327410042285919,-0.4844918549060822,11.59040832519531,79.50056457519531,-35.80705261230469
158758,-0.6150665283203125,0.990997314453125,-0.564910888671875,-0.7966604232788086,-0.0550778992474079,-0.4930307567119598,11.13771057128906,79.39006042480469,-35.46914672851562
158759,-0.6150665283203125,0.990997314453125,-0.564910888671875,-0.7966604232788086,-0.0550778992474079,-0.4930307567119598,11.13771057128906,79.39006042480469,-35.46914672851562
158760,-0.652923583984375,1.040054321289062,-0.5401763916015625,-0.7397180199623108,-0.081221617758274,-0.389687567949295,10.94497680664062,79.43827819824219,-35.19735717773438
158761,-0.66357421875,1.091842651367188,-0.555755615234375,-0.5987321138381958,-0.0052879727445542,-0.2339880019426346,10.62300109863281,79.41117858886719,-34.82713317871094
158762,-0.644256591796875,1.150405883789062,-0.6291961669921875,-0.4115153849124908,0.1145548075437546,-0.0432097874581813,10.44721984863281,79.25749206542969,-34.65228271484375
158763,-0.644256591796875,1.150405883789062,-0.6291961669921875,-0.4115153849124908,0.1145548075437546,-0.0432097874581813,10.44721984863281,79.25749206542969,-34.65228271484375
158764,-0.5694580078125,1.374343872070312,-0.7573089599609375,-0.0545780248939991,0.4225363433361053,0.2754584848880768,10.39140319824219,79.21182250976562,-34.206298828125
158765,-0.5406494140625,1.466156005859375,-0.695770263671875,0.1012725606560707,0.5819118618965149,0.3613752424716949,10.3902587890625,79.1593017578125,-34.11021423339844
158766,-0.5222320556640625,1.51153564453125,-0.6165008544921875,0.2468665093183517,0.7093873023986816,0.3844243586063385,10.46250915527344,79.32490539550781,-34.04652404785156
158767,-0.5222320556640625,1.51153564453125,-0.6165008544921875,0.2468665093183517,0.7093873023986816,0.3844243586063385,10.46250915527344,79.32490539550781,-34.04652404785156
158768,-0.5471649169921875,1.433807373046875,-0.577301025390625,0.4619466066360474,0.7330760955810547,0.4179746210575104,10.85768127441406,79.37745666503906,-34.48727416992188
158769,-0.545928955078125,1.319992065429688,-0.5652618408203125,0.5032676458358765,0.7298853397369385,0.4256394505500793,11.10122680664062,79.56256103515625,-34.71934509277344
158770,-0.47943115234375,1.040969848632812,-0.43182373046875,0.4147673547267914,0.5368983149528503,0.3955201506614685,11.62510681152344,79.85183715820312,-35.65037536621094
158771,-0.47943115234375,1.040969848632812,-0.43182373046875,0.4147673547267914,0.5368983149528503,0.3955201506614685,11.62510681152344,79.85183715820312,-35.65037536621094
158772,-0.468719482421875,0.8924713134765625,-0.38543701171875,0.3885000646114349,0.3592380583286285,0.3615843057632446,11.94476318359375,79.9317626953125,-36.07492065429688
158773,-0.4731903076171875,0.7906494140625,-0.3327484130859375,0.4350691735744476,0.2102914601564407,0.3224315643310547,12.21089172363281,79.93995666503906,-36.50605773925781
158774,-0.492095947265625,0.743377685546875,-0.2675018310546875,0.5078810453414917,0.1355093568563461,0.2780933976173401,12.47207641601562,80.09014892578125,-36.97123718261719
158775,-0.492095947265625,0.743377685546875,-0.2675018310546875,0.5078810453414917,0.1355093568563461,0.2780933976173401,12.47207641601562,80.09014892578125,-36.97123718261719
158776,-0.4989776611328125,0.722076416015625,-0.0520782470703125,0.4852793514728546,-0.081128142774105,0.2399987429380417,12.76325988769531,80.3896484375,-37.6669921875
158777,-0.5105438232421875,0.7261962890625,0.0240631103515625,0.4590988755226135,-0.149530902504921,0.2529297173023224,12.81512451171875,80.50157165527344,-38.14186096191406
158778,-0.51104736328125,0.7098846435546875,0.0519561767578125,0.4834465682506561,-0.2671273052692413,0.3170709013938904,12.81512451171875,80.50157165527344,-38.14186096191406
158779,-0.51104736328125,0.7098846435546875,0.0519561767578125,0.4834465682506561,-0.2671273052692413,0.3170709013938904,12.81512451171875,80.50157165527344,-38.14186096191406
158780,-0.50469970703125,0.6962738037109375,0.0870361328125,0.7441425919532776,-0.6867019534111023,0.5322313904762268,13.17959594726562,80.45866394042969,-38.20356750488281
158781,-0.482574462890625,0.6994476318359375,0.0908355712890625,0.8299016952514648,-0.7955642342567444,0.5824027061462402,13.28706359863281,80.44804382324219,-38.35685729980469
158782,-0.4473876953125,0.678802490234375,0.0886383056640625,0.8259781002998352,-0.7810643911361694,0.5570477843284607,13.47500610351562,80.40657043457031,-38.297607421875
158783,-0.4473876953125,0.678802490234375,0.0886383056640625,0.8259781002998352,-0.7810643911361694,0.5570477843284607,13.47500610351562,80.40657043457031,-38.297607421875
158784,-0.37890625,0.580535888671875,0.070220947265625,0.7147476673126221,-0.4591489434242249,0.4876940250396729,13.78623962402344,80.2860107421875,-38.16488647460938
158785,-0.346954345703125,0.5700836181640625,0.09271240234375,0.6399115324020386,-0.2063427865505219,0.4877102673053741,13.85498046875,80.34307861328125,-38.22132873535156
158786,-0.3321380615234375,0.5908355712890625,0.10723876953125,0.5340726971626282,0.030965905636549,0.4857126474380493,14.00050354003906,80.30270385742188,-38.20851135253906
158787,-0.3397979736328125,0.61297607421875,0.1121063232421875,0.4054689407348633,0.1199085637927055,0.4978531897068024,14.20028686523438,80.37979125976562,-38.48970031738281
158788,-0.3664398193359375,0.60626220703125,0.126373291015625,0.251055121421814,0.0901799574494361,0.5042900443077087,14.35218811035156,80.22219848632812,-38.54779052734375
158789,-0.3826446533203125,0.5816650390625,0.1271820068359375,0.0883130878210067,0.0098204063251614,0.492462694644928,14.57560729980469,80.38101196289062,-38.68304443359375
158790,-0.4041748046875,0.5564117431640625,0.105224609375,-0.0451360531151294,-0.0955962985754013,0.4478901624679565,14.75785827636719,80.4058837890625,-38.71632385253906
158791,-0.4323577880859375,0.546783447265625,0.10601806640625,-0.1374143213033676,-0.1410338133573532,0.3705841898918152,14.96705627441406,80.53965759277344,-38.67390441894531
158792,-0.485748291015625,0.55987548828125,0.1333465576171875,-0.214195653796196,-0.0965401232242584,0.2669909596443176,15.11317443847656,80.61158752441406,-38.61576843261719
158793,-0.5696258544921875,0.596771240234375,0.1317138671875,-0.2740155756473541,0.0144183542579412,0.1280903220176697,15.10136413574219,80.703369140625,-38.549560546875
158794,-0.6497802734375,0.6620941162109375,0.101806640625,-0.3194810450077057,0.0953387692570686,-0.006654973141849,15.21961975097656,80.88095092773438,-38.43679809570312
158795,-0.6497802734375,0.6620941162109375,0.101806640625,-0.3194810450077057,0.0953387692570686,-0.006654973141849,15.21961975097656,80.88095092773438,-38.43679809570312
158796,-0.6714630126953125,0.781890869140625,0.1374664306640625,-0.3706768751144409,0.2516538202762604,-0.2453855276107788,15.17727661132812,81.13128662109375,-38.38031005859375
158797,-0.6484375,0.826812744140625,0.20281982421875,-0.4056447148323059,0.3319851458072662,-0.330518513917923,15.14126586914062,81.1129150390625,-38.346923828125
158798,-0.6404266357421875,0.851776123046875,0.2375640869140625,-0.4170797765254974,0.3610607385635376,-0.397570013999939,15.09489440917969,81.13575744628906,-38.42471313476562
158799,-0.6404266357421875,0.851776123046875,0.2375640869140625,-0.4170797765254974,0.3610607385635376,-0.397570013999939,15.09489440917969,81.13575744628906,-38.42471313476562
158800,-0.64508056640625,0.8160247802734375,0.2169189453125,-0.3975934386253357,0.2274699062108994,-0.4670753180980682,15.01080322265625,81.10189819335938,-38.25662231445312
158801,-0.6418304443359375,0.7751007080078125,0.1956787109375,-0.3792442679405212,0.1675426512956619,-0.4865017235279083,14.97738647460938,81.0706787109375,-38.16748046875
158802,-0.634063720703125,0.660552978515625,0.1708526611328125,-0.3995636403560638,0.2407199293375015,-0.528555691242218,14.72138977050781,81.04820251464844,-38.18898010253906
158803,-0.634063720703125,0.660552978515625,0.1708526611328125,-0.3995636403560638,0.2407199293375015,-0.528555691242218,14.72138977050781,81.04820251464844,-38.18898010253906
158804,-0.629058837890625,0.6115570068359375,0.1644744873046875,-0.4314155876636505,0.300885796546936,-0.5733088254928589,14.49896240234375,80.92919921875,-38.16876220703125
158805,-0.6273956298828125,0.568145751953125,0.148193359375,-0.4861885607242584,0.3208850622177124,-0.616645872592926,14.44644165039062,80.90988159179688,-38.227294921875
158806,-0.63299560546875,0.5391082763671875,0.104705810546875,-0.5708576440811157,0.2890568375587463,-0.6428069472312927,14.39862060546875,80.76141357421875,-38.22503662109375
158807,-0.63299560546875,0.5391082763671875,0.104705810546875,-0.5708576440811157,0.2890568375587463,-0.6428069472312927,14.39862060546875,80.76141357421875,-38.22503662109375
158808,-0.6288299560546875,0.5486297607421875,-0.133087158203125,-0.7564994096755981,-0.1971847116947174,-0.6278748512268066,13.91696166992188,80.68290710449219,-38.24729919433594
158809,-0.5834808349609375,0.5841827392578125,-0.18084716796875,-0.8501481413841248,-0.5281786322593689,-0.5694655776023865,13.60377502441406,80.6612548828125,-38.01472473144531
158810,-0.5154571533203125,0.6188812255859375,-0.1027374267578125,-0.9328853487968444,-0.662595808506012,-0.5031739473342896,13.31588745117188,80.6112060546875,-37.69425964355469
158811,-0.453887939453125,0.6652069091796875,-0.011383056640625,-0.9958344697952272,-0.5739604830741882,-0.468181848526001,12.95327758789062,80.61517333984375,-37.09262084960938
158812,-0.45343017578125,0.7439422607421875,-0.0184478759765625,-1.055796146392822,-0.4272738397121429,-0.4836097955703735,12.59283447265625,80.55157470703125,-36.46621704101562
158813,-0.534881591796875,0.8598175048828125,-0.111358642578125,-1.083940148353577,-0.3980879783630371,-0.5098462104797363,12.2735595703125,80.47038269042969,-36.01100158691406
158814,-0.627288818359375,0.982513427734375,-0.2283935546875,-1.077179908752441,-0.509340226650238,-0.5506482124328613,11.94329833984375,80.50942993164062,-35.45515441894531
158815,-0.627288818359375,0.982513427734375,-0.2283935546875,-1.077179908752441,-0.509340226650238,-0.5506482124328613,11.94329833984375,80.50942993164062,-35.45515441894531
158816,-0.7568817138671875,1.17706298828125,-0.324554443359375,-0.8878576755523682,-0.6535130739212036,-0.5171874761581421,11.20292663574219,80.49800109863281,-34.42950439453125
158817,-0.75872802734375,1.2608642578125,-0.343536376953125,-0.7112663984298706,-0.559549868106842,-0.3914836049079895,10.70785522460938,80.537353515625,-33.72813415527344
158818,-0.693115234375,1.278762817382812,-0.3489227294921875,-0.5093231797218323,-0.4522729218006134,-0.2771876752376556,10.37147521972656,80.44085693359375,-33.1015625
158819,-0.693115234375,1.278762817382812,-0.3489227294921875,-0.5093231797218323,-0.4522729218006134,-0.2771876752376556,10.37147521972656,80.44085693359375,-33.1015625
158820,-0.49169921875,1.20831298828125,-0.4882659912109375,-0.0637163966894149,-0.3826895952224731,-0.0114116454496979,9.802490234375,80.31430053710938,-31.91415405273438
158821,-0.4071502685546875,1.18280029296875,-0.574920654296875,0.2055172026157379,-0.3596124947071075,0.1254894882440567,9.731536865234377,80.17845153808594,-31.66082763671875
158822,-0.3014984130859375,1.159805297851562,-0.6544952392578125,0.6922221183776855,-0.2114629745483398,0.3663883805274963,9.750396728515623,80.07086181640625,-31.414794921875
158823,-0.3014984130859375,1.159805297851562,-0.6544952392578125,0.6922221183776855,-0.2114629745483398,0.3663883805274963,9.750396728515623,80.07086181640625,-31.414794921875
158824,-0.2847442626953125,1.174652099609375,-0.618988037109375,0.8235897421836853,-0.0707482025027275,0.4365160763263702,9.846710205078123,80.01699829101562,-31.41041564941406
158825,-0.30419921875,1.205490112304688,-0.5612335205078125,0.8907365798950195,0.0740340128540992,0.4439415037631989,9.946563720703123,80.03977966308594,-31.52827453613281
158826,-0.3339080810546875,1.231170654296875,-0.5323028564453125,0.9114261269569396,0.1508976370096207,0.4477540850639343,10.17802429199219,79.99929809570312,-31.70100402832031
158827,-0.3339080810546875,1.231170654296875,-0.5323028564453125,0.9114261269569396,0.1508976370096207,0.4477540850639343,10.17802429199219,79.99929809570312,-31.70100402832031
158828,-0.3877410888671875,1.296859741210938,-0.5037841796875,0.9198361039161682,0.0565303862094879,0.4858561754226685,10.61604309082031,80.11970520019531,-32.46273803710938
158829,-0.40386962890625,1.323898315429688,-0.46466064453125,0.9210776686668396,0.0269999261945486,0.5047121644020081,10.80824279785156,80.14622497558594,-32.98165893554688
158830,-0.4254913330078125,1.32806396484375,-0.3912200927734375,0.9168224930763244,0.0527795925736427,0.4883792698383331,11.09228515625,80.20442199707031,-33.35263061523438
158831,-0.4254913330078125,1.32806396484375,-0.3912200927734375,0.9168224930763244,0.0527795925736427,0.4883792698383331,11.09228515625,80.20442199707031,-33.35263061523438
158832,-0.4981231689453125,1.297698974609375,-0.248992919921875,0.9433994889259338,0.0799302533268928,0.3798503875732422,11.47206115722656,80.28846740722656,-33.880126953125
158833,-0.5353851318359375,1.276519775390625,-0.19036865234375,0.9493303894996644,-0.0242952201515436,0.3099967539310455,11.60897827148438,80.36656188964844,-34.20231628417969
158834,-0.60113525390625,1.271926879882812,-0.125579833984375,0.9626235365867616,-0.162531390786171,0.2082605212926865,11.74456787109375,80.40052795410156,-34.57485961914062
158835,-0.60113525390625,1.271926879882812,-0.125579833984375,0.9626235365867616,-0.162531390786171,0.2082605212926865,11.74456787109375,80.40052795410156,-34.57485961914062
158836,-0.738372802734375,1.229232788085938,0.0511322021484375,1.032390594482422,-0.2203331738710403,-0.0517931580543518,12.01554870605469,80.36029052734375,-35.26976013183594
158837,-0.7944488525390625,1.161376953125,0.0764312744140625,1.105355381965637,-0.1387674659490585,-0.175174206495285,11.98760986328125,80.25328063964844,-35.45668029785156
158838,-0.8501434326171875,1.072509765625,0.0521697998046875,1.186306118965149,-0.1712985187768936,-0.2523419559001923,11.9488525390625,80.19732666015625,-35.75094604492188
158839,-0.8501434326171875,1.072509765625,0.0521697998046875,1.186306118965149,-0.1712985187768936,-0.2523419559001923,11.9488525390625,80.19732666015625,-35.75094604492188
158840,-0.899322509765625,0.8796844482421875,-0.013153076171875,1.25954258441925,-0.6833141446113586,-0.2113620489835739,11.94747924804688,79.84294128417969,-36.4833984375
158841,-0.8593902587890625,0.7601470947265625,0.000640869140625,1.265690445899963,-0.9378697276115416,-0.1304019540548325,11.91119384765625,79.51873779296875,-36.64736938476562
158842,-0.8016357421875,0.654632568359375,0.0718536376953125,1.306444048881531,-1.076169490814209,-0.0183052383363246,11.84425354003906,79.1204833984375,-36.73323059082031
158843,-0.8016357421875,0.654632568359375,0.0718536376953125,1.306444048881531,-1.076169490814209,-0.0183052383363246,11.84425354003906,79.1204833984375,-36.73323059082031
158844,-0.6219635009765625,0.5035247802734375,0.1752471923828125,1.391095042228699,-0.8199201822280884,0.0127586722373962,11.80569458007812,78.66342163085938,-36.65277099609375
158845,-0.5257568359375,0.405059814453125,0.16070556640625,1.316920638084412,-0.5871436595916748,0.0473344922065734,11.83595275878906,78.33541870117188,-36.50218200683594
158846,-0.501983642578125,0.3516082763671875,0.1063385009765625,1.21090841293335,-0.253888726234436,0.0541439279913902,11.94792175292969,77.99714660644531,-36.53807067871094
158847,-0.501983642578125,0.3516082763671875,0.1063385009765625,1.21090841293335,-0.253888726234436,0.0541439279913902,11.94792175292969,77.99714660644531,-36.53807067871094
158848,-0.4806671142578125,0.2684783935546875,0.009674072265625,1.097381114959717,0.2010244578123093,-0.0179667491465807,12.15615844726562,77.17750549316406,-36.58665466308594
158849,-0.45758056640625,0.2482147216796875,-0.0105743408203125,1.011986255645752,0.3225506246089935,-0.0507966019213199,12.23452758789062,76.98103332519531,-36.76325988769531
158850,-0.4303436279296875,0.2227630615234375,-0.0103759765625,0.8527851700782776,0.3648754358291626,-0.085701584815979,12.20211791992188,76.80105590820312,-37.18719482421875
158851,-0.4303436279296875,0.2227630615234375,-0.0103759765625,0.8527851700782776,0.3648754358291626,-0.085701584815979,12.20211791992188,76.80105590820312,-37.18719482421875
158852,-0.365875244140625,0.2433929443359375,0.1058349609375,0.3423022031784058,0.2739423215389252,-0.0927672237157821,12.20248413085938,76.48625183105469,-38.22537231445312
158853,-0.3706512451171875,0.2802581787109375,0.17413330078125,0.0645049586892128,0.2051286548376083,-0.0617403276264667,12.29052734375,76.31898498535156,-38.43626403808594
158854,-0.4033660888671875,0.337158203125,0.243011474609375,-0.1898500919342041,0.114248014986515,-0.0392459407448768,12.30068969726562,76.27397155761719,-38.69229125976562
158855,-0.4033660888671875,0.337158203125,0.243011474609375,-0.1898500919342041,0.114248014986515,-0.0392459407448768,12.30068969726562,76.27397155761719,-38.69229125976562
158856,-0.5631866455078125,0.5487518310546875,0.369049072265625,-0.5075830817222595,0.1051000505685806,0.0602130070328712,12.32856750488281,76.40826416015625,-38.89796447753906
158857,-0.629425048828125,0.633026123046875,0.352935791015625,-0.547980010509491,0.1055615767836571,0.0397242419421672,12.321044921875,76.49070739746094,-38.80986022949219
158858,-0.67425537109375,0.63470458984375,0.33941650390625,-0.5632031559944153,0.1094484627246857,0.0074115772731602,12.35287475585938,76.55209350585938,-38.73023986816406
158859,-0.67425537109375,0.63470458984375,0.33941650390625,-0.5632031559944153,0.1094484627246857,0.0074115772731602,12.35287475585938,76.55209350585938,-38.73023986816406
158860,-0.6488037109375,0.64093017578125,0.2567901611328125,-0.6539517045021057,0.1391746699810028,-0.0107216201722621,12.44366455078125,76.80073547363281,-38.67695617675781
158861,-0.6234893798828125,0.6966094970703125,0.2026519775390625,-0.7263156771659851,0.0645334497094154,-0.0308061148971319,12.40492248535156,76.81423950195312,-38.61904907226562
158862,-0.591888427734375,0.7508392333984375,0.1779327392578125,-0.8077327609062195,-0.054939679801464,-0.0858973339200019,12.42475891113281,76.91146850585938,-38.570556640625
158863,-0.591888427734375,0.7508392333984375,0.1779327392578125,-0.8077327609062195,-0.054939679801464,-0.0858973339200019,12.42475891113281,76.91146850585938,-38.570556640625
158864,-0.5272216796875,0.8001861572265625,0.2052154541015625,-0.9894695281982422,-0.2758076190948486,-0.165930911898613,12.29489135742188,77.3870849609375,-38.08607482910156
158865,-0.52191162109375,0.8368072509765625,0.2271881103515625,-1.074693560600281,-0.361861526966095,-0.1659671366214752,12.18533325195312,77.46478271484375,-37.60121154785156
158866,-0.5554962158203125,0.87335205078125,0.214630126953125,-1.122790813446045,-0.4460525810718536,-0.1976206600666046,12.153076171875,77.47744750976562,-36.92204284667969
158867,-0.5919189453125,0.8845672607421875,0.1628265380859375,-1.105054974555969,-0.465602844953537,-0.252584308385849,12.00282287597656,77.60003662109375,-36.23213195800781
158868,-0.6192474365234375,0.8806915283203125,0.0643463134765625,-0.9886977672576904,-0.447076290845871,-0.3194901049137115,11.8349609375,77.73085021972656,-35.67323303222656
158869,-0.6143951416015625,0.845184326171875,-0.0596466064453125,-0.8320080041885376,-0.4270956814289093,-0.3427232503890991,11.57778930664062,77.89865112304688,-35.14227294921875
158870,-0.5821075439453125,0.7955780029296875,-0.1766357421875,-0.6910620927810669,-0.4719265103340149,-0.3045045137405396,11.35952758789062,78.12591552734375,-34.64851379394531
158871,-0.5821075439453125,0.7955780029296875,-0.1766357421875,-0.6910620927810669,-0.4719265103340149,-0.3045045137405396,11.35952758789062,78.12591552734375,-34.64851379394531
158872,-0.5821075439453125,0.7955780029296875,-0.1766357421875,-0.6910620927810669,-0.4719265103340149,-0.3045045137405396,11.35952758789062,78.12591552734375,-34.64851379394531
158873,-0.5821075439453125,0.7955780029296875,-0.1766357421875,-0.6910620927810669,-0.4719265103340149,-0.3045045137405396,11.35952758789062,78.12591552734375,-34.64851379394531
158874,-0.55804443359375,0.78179931640625,-0.2527618408203125,-0.6206725835800171,-0.5542522668838501,-0.2640729248523712,11.11970520019531,78.14279174804688,-34.14166259765625
158875,-0.5223388671875,1.061782836914062,-0.4584197998046875,-0.6183021068572998,-0.4798651337623596,-0.5269538164138794,10.05833435058594,78.09658813476562,-32.51864624023438
158876,-0.58197021484375,1.114410400390625,-0.4709014892578125,-0.5274403691291809,-0.4413616955280304,-0.5058810114860535,9.7069091796875,77.90194702148438,-31.87590026855469
158877,-0.69635009765625,1.16571044921875,-0.4443511962890625,-0.4141918420791626,-0.3996160924434662,-0.4114205539226532,9.45318603515625,77.79238891601562,-31.30558776855469
158878,-0.7579193115234375,1.165115356445312,-0.4424896240234375,-0.2978452742099762,-0.3522909283638,-0.2832226455211639,9.118362426757812,77.62739562988281,-30.76765441894531
158879,-0.743377685546875,1.106552124023438,-0.4783172607421875,-0.1795308738946915,-0.2944574654102325,-0.1152014210820198,8.887115478515625,77.60627746582031,-30.48884582519531
158880,-0.687530517578125,1.034698486328125,-0.53277587890625,-0.0435895547270774,-0.154928594827652,0.0696794763207435,8.7159423828125,77.48428344726562,-30.22184753417969
158881,-0.631561279296875,1.006561279296875,-0.58599853515625,0.1001175493001938,0.0233817547559738,0.2886935770511627,8.689483642578125,77.44383239746094,-30.14021301269531
158882,-0.597015380859375,1.032241821289062,-0.6273345947265625,0.1919827610254288,0.1886250376701355,0.4764650762081146,8.708602905273438,77.39955139160156,-29.94697570800781
158883,-0.597015380859375,1.032241821289062,-0.6273345947265625,0.1919827610254288,0.1886250376701355,0.4764650762081146,8.708602905273438,77.39955139160156,-29.94697570800781
158884,-0.5347137451171875,1.129531860351562,-0.5543670654296875,0.2255737334489822,0.4362974166870117,0.7167828679084778,8.80645751953125,77.54605102539062,-30.20460510253906
158885,-0.5716705322265625,1.178802490234375,-0.5041961669921875,0.2282776385545731,0.5654647350311279,0.7244163155555725,8.978500366210938,77.69410705566406,-30.07858276367188
158886,-0.5994720458984375,1.189422607421875,-0.4656524658203125,0.2459162920713425,0.6394193768501282,0.7066516876220703,9.268310546875,77.87162780761719,-30.03022766113281
158887,-0.582427978515625,1.169265747070312,-0.4469451904296875,0.2668407559394836,0.7114509344100952,0.6939737200737,9.6505126953125,78.06901550292969,-30.17176818847656
158888,-0.555999755859375,1.142623901367188,-0.4364776611328125,0.2855340242385864,0.8116832971572876,0.667597770690918,10.00581359863281,78.34152221679688,-30.59336853027344
158889,-0.525238037109375,1.103836059570312,-0.42083740234375,0.3057804107666016,0.8598343133926392,0.626656711101532,10.22952270507812,78.67417907714844,-31.10647583007812
158890,-0.5084381103515625,1.062210083007812,-0.3852386474609375,0.3220531344413757,0.8310905694961548,0.5876280665397644,10.51432800292969,79.04197692871094,-31.80393981933594
158891,-0.5084381103515625,1.062210083007812,-0.3852386474609375,0.3220531344413757,0.8310905694961548,0.5876280665397644,10.51432800292969,79.04197692871094,-31.80393981933594
158892,-0.5000762939453125,0.9805908203125,-0.30419921875,0.3539990782737732,0.5475730895996094,0.483720600605011,10.99444580078125,79.7177734375,-33.488037109375
158893,-0.508941650390625,0.963165283203125,-0.272186279296875,0.3462133407592773,0.2933954000473022,0.4405185282230377,11.26689147949219,80.00244140625,-33.96588134765625
158894,-0.51324462890625,0.9575653076171876,-0.212066650390625,0.3314746022224426,0.0082904202863574,0.4308768212795258,11.48149108886719,80.0108642578125,-34.21499633789062
158895,-0.51324462890625,0.9575653076171876,-0.212066650390625,0.3314746022224426,0.0082904202863574,0.4308768212795258,11.48149108886719,80.0108642578125,-34.21499633789062
158896,-0.509002685546875,0.9362335205078124,-0.0103607177734375,0.3250822126865387,-0.3586636185646057,0.4889949858188629,11.87794494628906,80.24142456054688,-34.59344482421875
158897,-0.5016021728515625,0.9257049560546876,0.06805419921875,0.4043634533882141,-0.3958647847175598,0.5401812195777893,12.12236022949219,80.35255432128906,-34.74092102050781
158898,-0.4870452880859375,0.8981781005859375,0.0892486572265625,0.5643121004104614,-0.4629583358764648,0.6152312159538269,12.29681396484375,80.36100769042969,-34.83317565917969
158899,-0.4887237548828125,0.8599700927734375,0.1217803955078125,0.7433418035507202,-0.5517547726631165,0.7036545872688293,12.44230651855469,80.49760437011719,-34.89503479003906
158900,-0.4732513427734375,0.812744140625,0.1633758544921875,0.8832509517669678,-0.6077437400817871,0.7422515153884888,12.70257568359375,80.63290405273438,-34.74737548828125
158901,-0.419036865234375,0.749481201171875,0.188079833984375,0.9308323264122008,-0.602138340473175,0.7179706692695618,12.97505187988281,80.53633117675781,-34.45021057128906
158902,-0.3613128662109375,0.6852874755859375,0.220001220703125,0.8538216948509216,-0.4714721739292145,0.6746700406074524,13.15754699707031,80.58345031738281,-34.52864074707031
158903,-0.3613128662109375,0.6852874755859375,0.220001220703125,0.8538216948509216,-0.4714721739292145,0.6746700406074524,13.15754699707031,80.58345031738281,-34.52864074707031
158904,-0.26043701171875,0.615234375,0.234344482421875,0.4732716977596283,-0.0746609196066856,0.5855082273483276,13.3927001953125,80.78826904296875,-35.01466369628906
158905,-0.27008056640625,0.6133880615234375,0.24041748046875,0.2583516538143158,0.1820824593305588,0.5318068861961365,13.59422302246094,80.90017700195312,-35.14984130859375
158906,-0.2911834716796875,0.619903564453125,0.18084716796875,0.1106841713190079,0.2941360175609589,0.507474958896637,13.80377197265625,80.90548706054688,-35.22425842285156
158907,-0.2911834716796875,0.619903564453125,0.18084716796875,0.1106841713190079,0.2941360175609589,0.507474958896637,13.80377197265625,80.90548706054688,-35.22425842285156
158908,-0.3547515869140625,0.7040863037109375,0.1074371337890625,-0.0400829724967479,0.1935641318559647,0.3994661569595337,14.30070495605469,81.05117797851562,-35.39566040039062
158909,-0.37432861328125,0.7390594482421875,0.06268310546875,-0.0760351121425628,0.1340446174144745,0.3521710932254791,14.55409240722656,81.09481811523438,-35.53028869628906
158910,-0.3571929931640625,0.7288055419921875,0.049224853515625,-0.0454769358038902,0.141107052564621,0.2622851431369781,14.93612670898438,81.17155456542969,-35.20362854003906
158911,-0.3571929931640625,0.7288055419921875,0.049224853515625,-0.0454769358038902,0.141107052564621,0.2622851431369781,14.93612670898438,81.17155456542969,-35.20362854003906
158912,-0.378021240234375,0.7288055419921875,0.051239013671875,-0.0170104093849659,0.1762471944093704,0.1792259514331818,15.13064575195312,81.24723815917969,-34.93946838378906
158913,-0.4160614013671875,0.738922119140625,0.036651611328125,-0.0206682607531547,0.1383813172578812,0.0730619579553604,15.2261962890625,81.4671630859375,-35.22134399414062
158914,-0.4544677734375,0.7585906982421875,0.056488037109375,-0.0898904725909233,-0.0273823551833629,-0.1553485840559006,15.15638732910156,81.67169189453125,-35.84773254394531
158915,-0.4544677734375,0.7585906982421875,0.056488037109375,-0.0898904725909233,-0.0273823551833629,-0.1553485840559006,15.15638732910156,81.67169189453125,-35.84773254394531
158916,-0.4636383056640625,0.7688751220703125,0.10528564453125,-0.1307718604803085,-0.0395942814648151,-0.246733620762825,15.13461303710938,81.73281860351562,-35.88882446289062
158917,-0.4724884033203125,0.7815399169921875,0.1373748779296875,-0.1792387366294861,-0.0215186085551977,-0.3211548626422882,15.12606811523438,81.87492370605469,-35.886962890625
158918,-0.481170654296875,0.7810516357421875,0.1385345458984375,-0.224695697426796,-0.0210445653647184,-0.3785880506038666,15.08079528808594,81.85371398925781,-35.80999755859375
158919,-0.481170654296875,0.7810516357421875,0.1385345458984375,-0.224695697426796,-0.0210445653647184,-0.3785880506038666,15.08079528808594,81.85371398925781,-35.80999755859375
158920,-0.494873046875,0.7256622314453125,0.126434326171875,-0.2786646485328674,-0.0288731940090656,-0.4371286034584045,14.86865234375,81.66386413574219,-35.59979248046875
158921,-0.49761962890625,0.705474853515625,0.120758056640625,-0.28829225897789,0.0080920150503516,-0.4655517041683197,14.7447509765625,81.55809020996094,-35.29435729980469
158922,-0.50439453125,0.6867523193359375,0.112091064453125,-0.3108846545219421,0.0555165223777294,-0.5014327764511108,14.64016723632812,81.44013977050781,-35.39266967773438
158923,-0.5101165771484375,0.662811279296875,0.113983154296875,-0.3399309515953064,0.1019418090581894,-0.5461690425872803,14.474853515625,81.30599975585938,-35.37051391601562
158924,-0.519927978515625,0.6397857666015625,0.123870849609375,-0.3864632844924927,0.145938828587532,-0.5847273468971252,14.25225830078125,81.26742553710938,-35.43765258789062
158925,-0.5352020263671875,0.6361846923828125,0.11785888671875,-0.455064445734024,0.1634443253278732,-0.6168009042739868,14.16484069824219,81.20248413085938,-35.30046081542969
158926,-0.5591583251953125,0.64990234375,0.0798187255859375,-0.5395109057426453,0.0935866758227348,-0.6456050872802734,13.922119140625,81.11846923828125,-35.29315185546875
158927,-0.5859527587890625,0.68121337890625,0.0099029541015625,-0.6373128294944763,-0.0811339989304542,-0.6557653546333313,13.72244262695312,81.16770935058594,-35.42892456054688
158928,-0.599151611328125,0.7259674072265625,-0.04718017578125,-0.7279308438301086,-0.325506180524826,-0.6428905725479126,13.49853515625,81.03103637695312,-35.35195922851562
158929,-0.582550048828125,0.7647857666015625,-0.0389862060546875,-0.7980809211730957,-0.5320900082588196,-0.6068875193595886,13.22640991210938,80.97161865234375,-35.11058044433594
158930,-0.5547027587890625,0.807830810546875,-0.0041351318359375,-0.8387117385864258,-0.6071344017982483,-0.5794958472251892,12.89968872070312,80.95338439941406,-34.79496765136719
158931,-0.5159759521484375,0.844451904296875,0.0019683837890625,-0.8448519110679626,-0.6565173864364624,-0.55857914686203,12.51234436035156,80.82002258300781,-34.40440368652344
158932,-0.4985504150390625,0.8981781005859375,-0.0160369873046875,-0.8478498458862305,-0.6887914538383484,-0.5513342618942261,12.17578125,80.66236877441406,-33.742431640625
158933,-0.5206756591796875,0.981170654296875,-0.08575439453125,-0.8381865620613098,-0.7206301093101501,-0.544546902179718,11.86009216308594,80.56781005859375,-33.22761535644531
158934,-0.5611419677734375,1.070465087890625,-0.177764892578125,-0.7829506993293762,-0.7688583135604858,-0.5368692874908447,11.5438232421875,80.55397033691406,-32.90000915527344
158935,-0.5611419677734375,1.070465087890625,-0.177764892578125,-0.7829506993293762,-0.7688583135604858,-0.5368692874908447,11.5438232421875,80.55397033691406,-32.90000915527344
158936,-0.5928802490234375,1.179244995117188,-0.283294677734375,-0.4467756152153015,-0.7036817073822021,-0.4728018939495087,10.63525390625,80.57394409179688,-31.82342529296875
158937,-0.5817413330078125,1.187973022460938,-0.304229736328125,-0.2423114329576492,-0.5368647575378418,-0.4168246686458588,10.18760681152344,80.5582275390625,-31.29335021972656
158938,-0.5695953369140625,1.184249877929688,-0.3486328125,-0.0544323474168777,-0.3849402368068695,-0.3552499711513519,9.877853393554688,80.47267150878906,-30.90481567382812
158939,-0.540008544921875,1.165313720703125,-0.421844482421875,0.1272809952497482,-0.3316322565078735,-0.2787764966487885,9.58526611328125,80.25613403320312,-30.47123718261719
158940,-0.494140625,1.138916015625,-0.4979095458984375,0.3228784501552582,-0.3497385680675507,-0.1936373710632324,9.360519409179688,80.17776489257812,-30.04364013671875
158941,-0.4314422607421875,1.113174438476562,-0.552825927734375,0.5359129905700684,-0.3542701900005341,-0.0904806330800056,9.190216064453123,80.0841064453125,-29.77154541015625
158942,-0.3641815185546875,1.0943603515625,-0.60858154296875,0.744414746761322,-0.3189974129199982,-0.0004258394474163,9.218017578125,80.02651977539062,-29.69566345214844
158943,-0.3264617919921875,1.087265014648438,-0.6371612548828125,0.9015540480613708,-0.2171751856803894,0.0733367949724197,9.162216186523438,79.57305908203125,-29.73342895507812
158944,-0.314117431640625,1.102798461914062,-0.654541015625,0.9819192290306092,-0.1138677150011063,0.1179274320602417,9.156768798828123,79.50465393066406,-29.82608032226562
158945,-0.3184661865234375,1.13385009765625,-0.6337890625,0.9942421913146972,-0.0515545383095741,0.1457697153091431,9.156768798828123,79.50465393066406,-29.82608032226562
158946,-0.3517608642578125,1.159439086914062,-0.52862548828125,0.9553837180137634,0.0041010016575455,0.2453756779432297,9.373550415039062,78.99420166015625,-30.14656066894531
158947,-0.3517608642578125,1.159439086914062,-0.52862548828125,0.9553837180137634,0.0041010016575455,0.2453756779432297,9.373550415039062,78.99420166015625,-30.14656066894531
158948,-0.35345458984375,1.153778076171875,-0.4853363037109375,0.94554603099823,0.0094278566539287,0.2952968776226044,9.456069946289062,78.91876220703125,-30.37327575683594
158949,-0.3735198974609375,1.16436767578125,-0.4351348876953125,0.917294144630432,-0.0114795556291937,0.3389104008674622,9.578414916992188,78.94534301757812,-30.83976745605469
158950,-0.4282073974609375,1.219940185546875,-0.349212646484375,0.7965091466903687,-0.1206563785672188,0.3407770395278931,9.811874389648438,79.01850891113281,-31.84901428222656
158951,-0.4282073974609375,1.219940185546875,-0.349212646484375,0.7965091466903687,-0.1206563785672188,0.3407770395278931,9.811874389648438,79.01850891113281,-31.84901428222656
158952,-0.46673583984375,1.24835205078125,-0.280029296875,0.7309226393699646,-0.2933812737464905,0.2852972447872162,9.9215087890625,79.12789916992188,-32.14921569824219
158953,-0.5113067626953125,1.291549682617188,-0.15789794921875,0.6736630797386169,-0.3958634436130524,0.1928203254938126,9.957061767578123,79.19906616210938,-32.25825500488281
158954,-0.5624237060546875,1.354400634765625,-0.0590667724609375,0.6457550525665283,-0.3929989635944366,0.0492799319326877,10.07524108886719,79.17654418945312,-32.52415466308594
158955,-0.61688232421875,1.387237548828125,0.0085906982421875,0.6868625283241272,-0.3466378450393677,-0.1307851821184158,10.14599609375,79.19151306152344,-32.65861511230469
158956,-0.6782684326171875,1.377609252929688,0.054656982421875,0.7945548892021179,-0.2531630098819733,-0.2778571844100952,10.1402587890625,79.11808776855469,-32.6748046875
158957,-0.7408447265625,1.310348510742188,0.034820556640625,0.929702877998352,-0.245485931634903,-0.3446990549564362,10.231201171875,79.05157470703125,-32.70573425292969
158958,-0.7613983154296875,1.154617309570312,-0.01690673828125,1.043751120567322,-0.4009735286235809,-0.3174408078193665,10.17636108398438,78.82429504394531,-32.90499877929688
158959,-0.7613983154296875,1.154617309570312,-0.01690673828125,1.043751120567322,-0.4009735286235809,-0.3174408078193665,10.17636108398438,78.82429504394531,-32.90499877929688
158960,-0.7191162109375,0.8430633544921875,-0.0004425048828125,1.301716923713684,-0.821885347366333,-0.0525178015232086,10.1746826171875,78.31436157226562,-32.99519348144531
158961,-0.608367919921875,0.7258453369140625,0.02215576171875,1.431490302085876,-0.9300469756126404,0.0187417306005954,10.23796081542969,78.00155639648438,-32.79524230957031
158962,-0.4892425537109375,0.6180267333984375,0.0833892822265625,1.50480318069458,-0.9582796692848206,0.0584129765629768,10.29493713378906,77.74884033203125,-32.98036193847656
158963,-0.4214019775390625,0.546112060546875,0.17193603515625,1.485534429550171,-0.8473262190818787,0.0982994064688682,10.28114318847656,77.6064453125,-33.23554992675781
158964,-0.4185791015625,0.512359619140625,0.2263031005859375,1.409963965415955,-0.6198395490646362,0.1295124590396881,10.31710815429688,77.4652099609375,-33.23847961425781
158965,-0.4644012451171875,0.5229949951171875,0.2115020751953125,1.335912108421326,-0.4207067489624023,0.0975324138998985,10.41629028320312,77.07728576660156,-33.25115966796875
158966,-0.544769287109375,0.4700775146484375,0.147918701171875,1.254941940307617,-0.2664670944213867,-0.0959142819046974,10.623046875,76.61164855957031,-33.5191650390625
158967,-0.544769287109375,0.4700775146484375,0.147918701171875,1.254941940307617,-0.2664670944213867,-0.0959142819046974,10.623046875,76.61164855957031,-33.5191650390625
158968,-0.5814971923828125,0.396697998046875,0.1318206787109375,1.231894135475159,-0.1561195552349091,-0.1991956532001495,10.65512084960938,76.35977172851562,-33.77223205566406
158969,-0.591217041015625,0.29486083984375,0.0645599365234375,1.217397809028625,-0.0354514680802822,-0.282802402973175,10.50614929199219,76.25732421875,-34.03837585449219
158970,-0.5760650634765625,0.1696014404296875,0.00396728515625,1.161427736282349,0.1173798888921738,-0.3123592436313629,10.54573059082031,75.79478454589844,-34.23231506347656
158971,-0.5760650634765625,0.1696014404296875,0.00396728515625,1.161427736282349,0.1173798888921738,-0.3123592436313629,10.54573059082031,75.79478454589844,-34.23231506347656
158972,-0.5026702880859375,-0.0123138427734375,-0.1067352294921875,0.6801010370254517,0.550380289554596,-0.1706566959619522,10.51643371582031,75.04873657226562,-34.87290954589844
158973,-0.43658447265625,0.0720062255859375,-0.1660919189453125,0.3505755960941315,0.4845709502696991,-0.0580672994256019,10.49577331542969,74.89859008789062,-35.4111328125
158974,-0.4086456298828125,0.3153228759765625,-0.0777435302734375,0.0066653597168624,0.2039480656385422,0.0840576216578483,10.45938110351562,74.86065673828125,-35.87657165527344
158975,-0.4086456298828125,0.3153228759765625,-0.0777435302734375,0.0066653597168624,0.2039480656385422,0.0840576216578483,10.45938110351562,74.86065673828125,-35.87657165527344
158976,-0.511962890625,0.725677490234375,0.2110595703125,-0.5214429497718811,-0.0972980558872222,0.0484524890780448,10.57545471191406,74.80238342285156,-36.36160278320312
158977,-0.574310302734375,0.800384521484375,0.287109375,-0.6145907044410706,-0.1470778584480286,-0.0293578878045082,10.57081604003906,74.98640441894531,-36.32333374023438
158978,-0.631134033203125,0.8057098388671875,0.3504638671875,-0.6408668160438538,-0.1070151329040527,-0.0644477009773254,10.51364135742188,75.12928771972656,-36.20513916015625
158979,-0.631134033203125,0.8057098388671875,0.3504638671875,-0.6408668160438538,-0.1070151329040527,-0.0644477009773254,10.51364135742188,75.12928771972656,-36.20513916015625
158980,-0.6603546142578125,0.7842864990234375,0.3359527587890625,-0.7356806397438049,0.0186557099223136,-0.074444942176342,10.41972351074219,75.14956665039062,-35.74203491210938
158981,-0.6446990966796875,0.8087921142578125,0.271728515625,-0.8113924860954285,0.0076797576621174,-0.0727327913045883,10.25968933105469,75.47300720214844,-36.41255187988281
158982,-0.633697509765625,0.8437042236328125,0.213714599609375,-0.8781116008758545,-0.0397500768303871,-0.086657129228115,10.24082946777344,75.67172241210938,-36.46562194824219
158983,-0.633697509765625,0.8437042236328125,0.213714599609375,-0.8781116008758545,-0.0397500768303871,-0.086657129228115,10.24082946777344,75.67172241210938,-36.46562194824219
158984,-0.6374664306640625,0.9026031494140624,0.1671142578125,-0.98104327917099,-0.104321613907814,-0.1588330566883087,10.03538513183594,75.92515563964844,-35.95915222167969
158985,-0.65423583984375,0.9127044677734376,0.14990234375,-1.02086877822876,-0.1400138288736343,-0.2319663912057877,9.949676513671877,76.06925964355469,-35.63682556152344
158986,-0.67901611328125,0.9234466552734376,0.12652587890625,-1.032636165618896,-0.19788858294487,-0.299088180065155,9.850677490234377,76.24331665039062,-35.50544738769531
158987,-0.67901611328125,0.9234466552734376,0.12652587890625,-1.032636165618896,-0.19788858294487,-0.299088180065155,9.850677490234377,76.24331665039062,-35.50544738769531
158988,-0.715423583984375,0.920501708984375,0.030731201171875,-0.9461854696273804,-0.2122989445924759,-0.3766897618770599,9.497665405273438,76.36796569824219,-34.87776184082031
158989,-0.7017059326171875,0.910369873046875,-0.0844573974609375,-0.8958844542503357,-0.2493640184402466,-0.3622498214244843,9.402145385742188,76.45878601074219,-34.29263305664062
158990,-0.6829071044921875,0.925140380859375,-0.2236480712890625,-0.8258776664733887,-0.3625592887401581,-0.3735863566398621,9.11187744140625,76.60554504394531,-33.97262573242188
158991,-0.6829071044921875,0.925140380859375,-0.2236480712890625,-0.8258776664733887,-0.3625592887401581,-0.3735863566398621,9.11187744140625,76.60554504394531,-33.97262573242188
158992,-0.553436279296875,0.8386688232421875,-0.3628997802734375,-0.7605361938476562,-0.6026017069816589,-0.3450881540775299,8.653244018554688,76.64718627929688,-33.40589904785156
158993,-0.5015716552734375,0.8615264892578125,-0.360321044921875,-0.7705771327018738,-0.5529798269271851,-0.340673953294754,8.353179931640625,76.70466613769531,-32.95106506347656
158994,-0.49908447265625,0.946258544921875,-0.3679046630859375,-0.7728791832923889,-0.41938316822052,-0.3926551342010498,8.06207275390625,76.62895202636719,-32.44923400878906
158995,-0.49908447265625,0.946258544921875,-0.3679046630859375,-0.7728791832923889,-0.41938316822052,-0.3926551342010498,8.06207275390625,76.62895202636719,-32.44923400878906
158996,-0.6287841796875,1.022857666015625,-0.4353790283203125,-0.6563813090324402,-0.2290981709957123,-0.3954181671142578,7.601348876953125,76.57234191894531,-31.6124267578125
158997,-0.7105865478515625,1.039825439453125,-0.44915771484375,-0.5358884334564209,-0.2002220451831818,-0.2938076555728912,7.3177490234375,76.5206298828125,-31.21823120117188
158998,-0.7542877197265625,1.031005859375,-0.4774169921875,-0.4021122753620148,-0.0937528535723686,-0.1687093824148178,7.16522216796875,76.36224365234375,-30.88400268554688
158999,-0.7442626953125,1.006607055664062,-0.5544891357421875,-0.216231107711792,0.0127725200727582,-0.0098875183612108,7.029495239257812,76.25819396972656,-30.54965209960938
159000,-0.689056396484375,0.9926910400390624,-0.635162353515625,-0.0139757366850972,0.1156480386853218,0.161608874797821,7.08782958984375,76.18084716796875,-30.37518310546875
159001,-0.6075592041015625,1.03118896484375,-0.6758270263671875,0.1314642876386642,0.2246213853359222,0.3358922600746155,7.047698974609375,76.12591552734375,-30.31483459472656
159002,-0.5344390869140625,1.1142578125,-0.6678314208984375,0.2044990807771683,0.3298575282096863,0.4722277224063873,7.082748413085938,76.14903259277344,-30.30781555175781
159003,-0.5344390869140625,1.1142578125,-0.6678314208984375,0.2044990807771683,0.3298575282096863,0.4722277224063873,7.082748413085938,76.14903259277344,-30.30781555175781
159004,-0.4748687744140625,1.215255737304688,-0.58184814453125,0.3050147593021393,0.5716499090194702,0.5482348799705505,7.295578002929688,76.50152587890625,-30.63478088378906
159005,-0.47174072265625,1.191055297851562,-0.5569610595703125,0.3806464076042175,0.6350398063659668,0.5385737419128418,7.573394775390625,76.77108764648438,-30.82000732421875
159006,-0.4599609375,1.127777099609375,-0.53271484375,0.4434594511985779,0.658118486404419,0.5221875905990601,7.687362670898438,76.8468017578125,-31.1949462890625
159007,-0.4406890869140625,1.064422607421875,-0.4951019287109375,0.4747923612594604,0.6379615664482117,0.5023414492607117,7.876480102539062,77.15972900390625,-31.60279846191406
159008,-0.4320220947265625,1.006118774414062,-0.441864013671875,0.4781838953495026,0.5619661211967468,0.4725798070430756,8.095352172851562,77.36610412597656,-31.9927978515625
159009,-0.4239654541015625,0.9387359619140624,-0.3822174072265625,0.4762578904628754,0.4554162621498108,0.4161335527896881,8.303924560546875,77.49237060546875,-32.45637512207031
159010,-0.4274139404296875,0.875335693359375,-0.33209228515625,0.4916602671146393,0.3004330694675446,0.3655867576599121,8.557647705078125,77.6318359375,-32.82318115234375
159011,-0.4274139404296875,0.875335693359375,-0.33209228515625,0.4916602671146393,0.3004330694675446,0.3655867576599121,8.557647705078125,77.6318359375,-32.82318115234375
159012,-0.4518890380859375,0.8112335205078125,-0.218597412109375,0.5182181000709534,-0.1022763028740883,0.3129845559597015,8.832717895507812,77.82368469238281,-33.60397338867188
159013,-0.461395263671875,0.7984771728515625,-0.145263671875,0.4969043135643005,-0.3280532360076904,0.3156141340732574,8.906158447265625,77.83967590332031,-33.72576904296875
159014,-0.4676055908203125,0.7969970703125,-0.062713623046875,0.4528543055057526,-0.5132949948310852,0.3152178823947906,8.988296508789062,77.88233947753906,-33.99502563476562
159015,-0.4676055908203125,0.7969970703125,-0.062713623046875,0.4528543055057526,-0.5132949948310852,0.3152178823947906,8.988296508789062,77.88233947753906,-33.99502563476562
159016,-0.486572265625,0.7795562744140625,0.10150146484375,0.4780094623565674,-0.5851225852966309,0.3843625783920288,9.127639770507812,78.08732604980469,-34.10691833496094
159017,-0.5013580322265625,0.7916717529296875,0.1374664306640625,0.6139196157455444,-0.6198734045028687,0.4725590348243713,9.245559692382812,78.17732238769531,-34.02180480957031
159018,-0.5076446533203125,0.806640625,0.1410369873046875,0.7539845705032349,-0.6758871078491211,0.5520740747451782,9.340362548828123,78.258056640625,-33.91587829589844
159019,-0.5076446533203125,0.806640625,0.1410369873046875,0.7539845705032349,-0.6758871078491211,0.5520740747451782,9.340362548828123,78.258056640625,-33.91587829589844
159020,-0.456573486328125,0.795501708984375,0.14593505859375,0.8190378546714783,-0.7334292531013489,0.592139720916748,9.74896240234375,78.33927917480469,-33.71697998046875
159021,-0.4021759033203125,0.7530364990234375,0.1493377685546875,0.7351073026657104,-0.6387650370597839,0.5481089353561401,9.885528564453123,78.32237243652344,-33.55039978027344
159022,-0.3229217529296875,0.675079345703125,0.110321044921875,0.4818878173828125,-0.3200797438621521,0.5169829726219177,10.03886413574219,78.49485778808594,-33.71109008789062
159023,-0.3229217529296875,0.675079345703125,0.110321044921875,0.4818878173828125,-0.3200797438621521,0.5169829726219177,10.03886413574219,78.49485778808594,-33.71109008789062
159024,-0.306671142578125,0.6651611328125,0.0760650634765625,0.380760133266449,-0.1914266794919968,0.52144455909729,10.12196350097656,78.44125366210938,-33.632080078125
159025,-0.306671142578125,0.6651611328125,0.0760650634765625,0.380760133266449,-0.1914266794919968,0.52144455909729,10.12196350097656,78.44125366210938,-33.632080078125
159026,-0.361358642578125,0.6682891845703125,0.0653228759765625,0.2719628214836121,0.0469272956252098,0.4734354615211487,10.37075805664062,78.68472290039062,-33.52035522460938
159027,-0.411865234375,0.64984130859375,0.0361480712890625,0.2225305438041687,0.1065988838672638,0.4115276336669922,10.5689697265625,78.80665588378906,-33.61557006835938
159028,-0.4428558349609375,0.6152801513671875,0.01678466796875,0.1476895958185196,0.0797571465373039,0.3372981250286102,10.687255859375,78.90205383300781,-33.72544860839844
159029,-0.4428558349609375,0.6152801513671875,0.01678466796875,0.1476895958185196,0.0797571465373039,0.3372981250286102,10.687255859375,78.90205383300781,-33.72544860839844
159030,-0.471221923828125,0.5977325439453125,0.0300445556640625,0.055101603269577,0.0336463786661624,0.253961443901062,10.88349914550781,79.07292175292969,-33.68910217285156
159031,-0.50958251953125,0.597412109375,0.0314788818359375,-0.0058863847516477,-0.0011081412667408,0.1485790908336639,11.11180114746094,79.09024047851562,-33.73818969726562
159032,-0.593780517578125,0.714813232421875,0.056304931640625,-0.0457171536982059,-0.0062728095799684,-0.0455427169799804,11.211181640625,79.17425537109375,-33.67578125
159033,-0.6044158935546875,0.778411865234375,0.0747222900390625,-0.0522930324077606,0.0453797318041324,-0.1107198596000671,11.17658996582031,79.28807067871094,-33.86126708984375
159034,-0.5937957763671875,0.816375732421875,0.091827392578125,-0.0594308376312255,0.1051320135593414,-0.1592072248458862,11.13023376464844,79.28421020507812,-33.89706420898438
159035,-0.5937957763671875,0.816375732421875,0.091827392578125,-0.0594308376312255,0.1051320135593414,-0.1592072248458862,11.13023376464844,79.28421020507812,-33.89706420898438
159036,-0.574737548828125,0.845703125,0.095489501953125,-0.0711388885974884,0.154198095202446,-0.2400610744953156,11.09098815917969,79.30863952636719,-34.06312561035156
159037,-0.5789337158203125,0.8077850341796875,0.0918426513671875,-0.0435685142874717,0.1616480201482773,-0.2882514894008636,11.09489440917969,79.272216796875,-34.05949401855469
159038,-0.5813140869140625,0.7445831298828125,0.0889739990234375,-0.0041918153874576,0.1653319746255875,-0.3208278119564056,11.02410888671875,79.1551513671875,-34.14921569824219
159039,-0.5813140869140625,0.7445831298828125,0.0889739990234375,-0.0041918153874576,0.1653319746255875,-0.3208278119564056,11.02410888671875,79.1551513671875,-34.14921569824219
159040,-0.58343505859375,0.6378021240234375,0.1000518798828125,-0.0625227689743042,0.1887177228927612,-0.3837804198265076,10.82229614257812,79.08052062988281,-34.26948547363281
159041,-0.58843994140625,0.601593017578125,0.10272216796875,-0.1534207165241241,0.1784762591123581,-0.4341301321983337,10.6566162109375,78.99209594726562,-34.28157043457031
159042,-0.603363037109375,0.569915771484375,0.112152099609375,-0.2612337172031403,0.165555939078331,-0.4826076626777649,10.5106201171875,78.90597534179688,-34.36883544921875
159043,-0.603363037109375,0.569915771484375,0.112152099609375,-0.2612337172031403,0.165555939078331,-0.4826076626777649,10.5106201171875,78.90597534179688,-34.36883544921875
159044,-0.6290130615234375,0.552886962890625,0.10760498046875,-0.4847067594528198,0.0639049485325813,-0.5442920923233032,10.30548095703125,78.79582214355469,-34.456298828125
159045,-0.6322021484375,0.5743255615234375,0.1030426025390625,-0.6001574397087097,-0.0164460856467485,-0.547146737575531,10.24388122558594,78.69258117675781,-34.47514343261719
159046,-0.6405792236328125,0.6159210205078125,0.078399658203125,-0.7085976600646973,-0.0919166058301925,-0.5253229141235352,10.06498718261719,78.48513793945312,-34.23623657226562
159047,-0.6524810791015625,0.684295654296875,-0.00604248046875,-0.784001350402832,-0.2374240010976791,-0.4750061929225922,9.90570068359375,78.31033325195312,-33.96348571777344
159048,-0.6419219970703125,0.76409912109375,-0.132720947265625,-0.805016040802002,-0.4818675816059113,-0.4106320142745972,9.636337280273438,78.24037170410156,-33.66011047363281
159049,-0.5882568359375,0.8206329345703125,-0.1926116943359375,-0.8067615032196045,-0.7091342806816101,-0.3668358027935028,9.4024658203125,78.17947387695312,-33.23536682128906
159050,-0.5159454345703125,0.836822509765625,-0.1440582275390625,-0.8172532916069031,-0.7773828506469727,-0.3115730583667755,9.045242309570312,78.30699157714844,-32.93760681152344
159051,-0.5159454345703125,0.836822509765625,-0.1440582275390625,-0.8172532916069031,-0.7773828506469727,-0.3115730583667755,9.045242309570312,78.30699157714844,-32.93760681152344
159052,-0.466217041015625,0.9321746826171876,-0.080078125,-0.8812503814697266,-0.5123759508132935,-0.3413834273815155,8.5125732421875,78.18832397460938,-32.02001953125
159053,-0.5392608642578125,1.011642456054688,-0.1530303955078125,-0.8670618534088135,-0.4847946465015411,-0.4186350703239441,8.257308959960938,78.06629943847656,-31.32540893554688
159054,-0.608184814453125,1.065505981445312,-0.215789794921875,-0.7985438108444214,-0.5822064280509949,-0.4649208188056946,7.960372924804688,78.08888244628906,-30.802001953125
159055,-0.608184814453125,1.065505981445312,-0.215789794921875,-0.7985438108444214,-0.5822064280509949,-0.4649208188056946,7.960372924804688,78.08888244628906,-30.802001953125
159056,-0.62481689453125,1.153823852539062,-0.31292724609375,-0.524366557598114,-0.6424396634101868,-0.3693945407867432,7.324676513671875,78.12135314941406,-29.87461853027344
159057,-0.564056396484375,1.157608032226562,-0.382537841796875,-0.2979709804058075,-0.552468478679657,-0.26957768201828,7.030136108398438,77.95060729980469,-29.34776306152344
159058,-0.481658935546875,1.137542724609375,-0.47113037109375,-0.0377750769257545,-0.4394972026348114,-0.1310509592294693,6.804718017578125,77.92161560058594,-28.88591003417969
159059,-0.481658935546875,1.137542724609375,-0.47113037109375,-0.0377750769257545,-0.4394972026348114,-0.1310509592294693,6.804718017578125,77.92161560058594,-28.88591003417969
159060,-0.3941497802734375,1.128280639648438,-0.6403961181640625,0.4734924733638763,-0.2685332000255585,0.156855121254921,6.48614501953125,77.76089477539062,-28.08967590332031
159061,-0.3545074462890625,1.137115478515625,-0.6701812744140625,0.6839895248413086,-0.2060426473617554,0.2717223167419434,6.537445068359375,77.51795959472656,-27.83726501464844
159062,-0.3165283203125,1.160064697265625,-0.6634063720703125,0.8238193392753601,-0.1065853014588356,0.3505534827709198,6.627639770507812,77.41891479492188,-27.7056884765625
159063,-0.2813262939453125,1.209701538085938,-0.6275177001953125,0.8971465229988098,-0.0039057920221239,0.3728201687335968,6.666351318359375,77.49296569824219,-27.74798583984375
159064,-0.265960693359375,1.2384033203125,-0.5947113037109375,0.896164059638977,0.0632218495011329,0.3755224943161011,6.806488037109375,77.41546630859375,-27.78190612792969
159065,-0.27587890625,1.272140502929688,-0.5672149658203125,0.8811816573143005,-0.0027324033435434,0.4008169174194336,6.9600830078125,77.42796325683594,-28.04240417480469
159066,-0.2992706298828125,1.32379150390625,-0.5118560791015625,0.860901415348053,-0.0708030685782432,0.4254359900951385,7.065444946289062,77.50164794921875,-28.52900695800781
159067,-0.2992706298828125,1.32379150390625,-0.5118560791015625,0.860901415348053,-0.0708030685782432,0.4254359900951385,7.065444946289062,77.50164794921875,-28.52900695800781
159068,-0.3673858642578125,1.38177490234375,-0.4068603515625,0.86612868309021,-0.0711908191442489,0.380760669708252,7.3858642578125,77.64376831054688,-29.24015808105469
159069,-0.426727294921875,1.412384033203125,-0.3299713134765625,0.8807555437088013,-0.0624687038362026,0.3335859477519989,7.553634643554688,77.675048828125,-29.414794921875
159070,-0.4844970703125,1.439163208007812,-0.2535247802734375,0.909696400165558,-0.0931299403309822,0.2629900872707367,7.645416259765625,77.84811401367188,-29.65992736816406
159071,-0.4844970703125,1.439163208007812,-0.2535247802734375,0.909696400165558,-0.0931299403309822,0.2629900872707367,7.645416259765625,77.84811401367188,-29.65992736816406
159072,-0.599639892578125,1.409439086914062,-0.09539794921875,0.9604466557502748,-0.314562201499939,0.0175321213901042,7.782745361328125,78.03146362304688,-30.23492431640625
159073,-0.6570892333984375,1.359481811523438,-0.0260009765625,1.031786918640137,-0.3539942800998688,-0.1196515634655952,7.733169555664062,78.05195617675781,-30.48458862304688
159074,-0.6570892333984375,1.359481811523438,-0.0260009765625,1.031786918640137,-0.3539942800998688,-0.1196515634655952,7.733169555664062,78.05195617675781,-30.48458862304688
159075,-0.7644805908203125,0.94659423828125,-0.04119873046875,1.24754524230957,-0.4438935518264771,-0.3002831339836121,7.782546997070312,77.68876647949219,-30.89930725097656
159076,-0.7644805908203125,0.94659423828125,-0.04119873046875,1.24754524230957,-0.4438935518264771,-0.3002831339836121,7.782546997070312,77.68876647949219,-30.89930725097656
159077,-0.807708740234375,0.83160400390625,-0.06378173828125,1.261106371879578,-0.6816336512565613,-0.2341416627168655,7.765609741210938,77.53352355957031,-30.91094970703125
159078,-0.8252410888671875,0.7425994873046875,-0.0672760009765625,1.229350566864014,-0.9811466336250304,-0.1487886756658554,7.785873413085938,77.20492553710938,-30.78994750976562
159079,-0.8260498046875,0.6572418212890625,-0.0232696533203125,1.185100317001343,-1.2014981508255,-0.0423706248402595,7.758743286132812,77.0189208984375,-31.06137084960938
159080,-0.79730224609375,0.5773468017578125,0.0618438720703125,1.203083753585815,-1.321256756782532,0.0597086027264595,7.717514038085938,76.79925537109375,-31.21395874023438
159081,-0.74078369140625,0.5251922607421875,0.1602935791015625,1.251126408576965,-1.258546829223633,0.1212302893400192,7.609756469726562,76.65187072753906,-31.30259704589844
159082,-0.6568756103515625,0.4809722900390625,0.2276153564453125,1.286368012428284,-1.020772099494934,0.1055938005447388,7.749649047851562,76.29780578613281,-30.25563049316406
159083,-0.576690673828125,0.416778564453125,0.2497100830078125,1.277533292770386,-0.648698091506958,0.1018238365650177,7.833572387695312,75.91633605957031,-29.77780151367188
159084,-0.52423095703125,0.3725433349609375,0.1789703369140625,1.246931195259094,-0.2698881924152374,0.1025330349802971,8.002914428710938,75.70648193359375,-29.25108337402344
159085,-0.4933319091796875,0.3368377685546875,0.0945587158203125,1.245130896568298,-0.007791344076395,0.0696288794279098,8.192840576171875,75.4698486328125,-28.95156860351562
159086,-0.4390716552734375,0.2704010009765625,0.0262451171875,1.163919925689697,0.2980908155441284,-0.0138881187885999,8.315216064453125,75.1927490234375,-29.73725891113281
159087,-0.4390716552734375,0.2704010009765625,0.0262451171875,1.163919925689697,0.2980908155441284,-0.0138881187885999,8.315216064453125,75.1927490234375,-29.73725891113281
159088,-0.411895751953125,0.20904541015625,-0.011444091796875,1.010881662368774,0.3370549976825714,-0.059854544699192,8.397171020507812,75.06454467773438,-30.31536865234375
159089,-0.3759307861328125,0.131134033203125,-0.069000244140625,0.8133459091186523,0.274810254573822,-0.0958924442529678,8.4271240234375,74.82247924804688,-30.61137390136719
159090,-0.3342132568359375,0.0544281005859375,-0.1161956787109375,0.5925570726394653,0.1749931126832962,-0.0959835201501846,8.553741455078125,74.68040466308594,-30.98570251464844
159091,-0.2876739501953125,0.0433349609375,-0.1231842041015625,0.3585203289985657,0.1095075830817223,-0.0480458214879035,8.633224487304688,74.56582641601562,-31.45486450195312
159092,-0.26885986328125,0.21856689453125,-0.1179656982421875,0.0918074175715446,0.0775384679436683,0.0755355060100555,8.577728271484375,74.42376708984375,-31.76060485839844
159093,-0.34906005859375,0.4946136474609375,-0.0776519775390625,-0.1323159635066986,-0.0488216020166873,0.1630970388650894,8.598434448242188,74.37736511230469,-31.88687133789062
159094,-0.4216461181640625,0.6438751220703125,0.031097412109375,-0.2873936891555786,-0.1469090133905411,0.1841711699962616,8.628311157226562,74.35382080078125,-32.12330627441406
159095,-0.46807861328125,0.745269775390625,0.1142730712890625,-0.3985138237476349,-0.2036503255367279,0.1860774606466293,8.622604370117188,74.38172912597656,-32.09803771972656
159096,-0.52392578125,0.8084869384765625,0.166839599609375,-0.465790331363678,-0.2424523234367371,0.1598485261201859,8.615463256835938,74.40168762207031,-32.02781677246094
159097,-0.5715484619140625,0.8148956298828125,0.201080322265625,-0.5048543810844421,-0.2612569034099579,0.1320648193359375,8.567718505859375,74.53759765625,-31.89579772949219
159098,-0.605194091796875,0.7979278564453125,0.218902587890625,-0.5350756645202637,-0.2671960294246674,0.1177303642034531,8.564727783203125,74.62281799316406,-31.60478210449219
159099,-0.608062744140625,0.7864227294921875,0.220062255859375,-0.5953315496444702,-0.2807839810848236,0.1084015741944313,8.4786376953125,74.83206176757812,-31.54983520507812
159100,-0.6014404296875,0.7898101806640625,0.21466064453125,-0.6704670190811157,-0.3088225424289703,0.0837436318397522,8.526596069335938,74.87371826171875,-31.17839050292969
159101,-0.6014404296875,0.7898101806640625,0.21466064453125,-0.6704670190811157,-0.3088225424289703,0.0837436318397522,8.526596069335938,74.87371826171875,-31.17839050292969
159102,-0.623504638671875,0.8055572509765625,0.21783447265625,-0.7987267374992371,-0.3357678949832916,-0.0024626250378787,8.369277954101562,75.17263793945312,-30.65621948242188
159103,-0.6450347900390625,0.8225860595703125,0.2108612060546875,-0.8539580702781677,-0.329023152589798,-0.0608596205711364,8.29937744140625,75.37130737304688,-30.28707885742188
159104,-0.6450347900390625,0.8225860595703125,0.2108612060546875,-0.8539580702781677,-0.329023152589798,-0.0608596205711364,8.29937744140625,75.37130737304688,-30.28707885742188
159105,-0.6747283935546875,0.8482513427734375,0.1824188232421875,-0.8849657773971558,-0.325510174036026,-0.1216199100017548,8.15673828125,75.62406921386719,-29.21443176269531
159106,-0.6747283935546875,0.8482513427734375,0.1824188232421875,-0.8849657773971558,-0.325510174036026,-0.1216199100017548,8.15673828125,75.62406921386719,-29.21443176269531
159107,-0.6747283935546875,0.8482513427734375,0.1824188232421875,-0.8849657773971558,-0.325510174036026,-0.1216199100017548,8.15673828125,75.62406921386719,-29.21443176269531
159108,-0.75811767578125,0.9512939453125,0.046630859375,-0.8339071273803711,-0.3404513299465179,-0.2221086919307709,7.767425537109375,75.96401977539062,-28.05537414550781
159109,-0.75811767578125,0.9512939453125,0.046630859375,-0.8339071273803711,-0.3404513299465179,-0.2221086919307709,7.767425537109375,75.96401977539062,-28.05537414550781
159110,-0.7068939208984375,0.88909912109375,-0.12066650390625,-0.7159559726715088,-0.4297292828559875,-0.126719057559967,7.233627319335938,76.17732238769531,-27.06887817382812
159111,-0.6541595458984375,0.845611572265625,-0.2083740234375,-0.6971663236618042,-0.3986754715442657,-0.1977069526910782,7.081100463867188,76.24052429199219,-26.58760070800781
159112,-0.590667724609375,0.8016204833984375,-0.2995452880859375,-0.7186404466629028,-0.4053168594837189,-0.2201486080884933,6.886383056640625,76.29299926757812,-26.38151550292969
159113,-0.5318756103515625,0.807464599609375,-0.3512420654296875,-0.7450054883956909,-0.4553656578063965,-0.2285743206739426,6.689208984375,76.32806396484375,-26.140625
159114,-0.49664306640625,0.866546630859375,-0.391204833984375,-0.7563979029655457,-0.5073870420455933,-0.2501435279846191,6.46148681640625,76.25471496582031,-25.77699279785156
159115,-0.4937744140625,0.9271087646484376,-0.4212646484375,-0.7246469259262085,-0.5435474514961243,-0.2619418501853943,6.330841064453125,76.19001770019531,-25.29519653320312
159116,-0.525390625,0.99359130859375,-0.4346466064453125,-0.620307981967926,-0.5413652658462524,-0.203964576125145,6.1754150390625,76.03755187988281,-24.61810302734375
159117,-0.5833587646484375,1.069549560546875,-0.454925537109375,-0.4577497243881226,-0.4064828157424927,-0.0819063186645507,5.9586181640625,75.97439575195312,-24.06634521484375
159118,-0.631988525390625,1.149658203125,-0.53271484375,-0.2458821982145309,-0.1960219740867615,0.0667281672358512,5.878265380859375,75.95291137695312,-23.78388977050781
159119,-0.6427001953125,1.229446411132812,-0.64483642578125,-0.0410920418798923,-0.0300138257443904,0.2218117564916611,5.840713500976562,75.95779418945312,-23.44882202148438
159120,-0.6281585693359375,1.3204345703125,-0.724609375,0.1193215996026993,0.0825774371623992,0.3411735594272614,5.91046142578125,75.86703491210938,-23.10446166992188
159121,-0.5990447998046875,1.4046630859375,-0.723846435546875,0.2296100258827209,0.2060234695672989,0.4237185120582581,5.91876220703125,75.92343139648438,-23.05519104003906
159122,-0.5344390869140625,1.373672485351562,-0.6051483154296875,0.4098471701145172,0.4696939885616302,0.4429907500743866,6.063980102539062,76.17131042480469,-23.44973754882812
159123,-0.5344390869140625,1.373672485351562,-0.6051483154296875,0.4098471701145172,0.4696939885616302,0.4429907500743866,6.063980102539062,76.17131042480469,-23.44973754882812
159124,-0.536468505859375,1.2647705078125,-0.5837860107421875,0.5280214548110962,0.60878986120224,0.477111428976059,6.242401123046875,76.31442260742188,-23.56425476074219
159125,-0.536468505859375,1.2647705078125,-0.5837860107421875,0.5280214548110962,0.60878986120224,0.477111428976059,6.242401123046875,76.31442260742188,-23.56425476074219
159126,-0.473358154296875,1.08770751953125,-0.551177978515625,0.6228912472724915,0.7232455611228943,0.5225870609283447,6.740768432617188,76.6260986328125,-24.48251342773438
159127,-0.4298095703125,0.993316650390625,-0.49554443359375,0.5841476321220398,0.6349239349365234,0.5198173522949219,6.950653076171875,76.91886901855469,-25.02565002441406
159128,-0.4083251953125,0.9124908447265624,-0.421630859375,0.520563542842865,0.4920650720596313,0.4960012435913086,7.069778442382812,77.09999084472656,-25.497802734375
159129,-0.4083251953125,0.9124908447265624,-0.421630859375,0.520563542842865,0.4920650720596313,0.4960012435913086,7.069778442382812,77.09999084472656,-25.497802734375
159130,-0.4173126220703125,0.78900146484375,-0.30010986328125,0.4353570640087128,0.1133310869336128,0.3864172101020813,7.350631713867188,77.66664123535156,-26.42311096191406
159131,-0.439178466796875,0.7728729248046875,-0.231231689453125,0.3960056602954865,-0.0847409889101982,0.337798535823822,7.546249389648438,77.80284118652344,-26.59579467773438
159132,-0.45635986328125,0.7749176025390625,-0.1529083251953125,0.3449467420578003,-0.2693928480148315,0.3297749757766724,7.6522216796875,77.91319274902344,-26.73762512207031
159133,-0.47100830078125,0.783172607421875,-0.0762786865234375,0.2954007685184479,-0.4382580518722534,0.3291059732437134,7.671844482421875,78.053955078125,-26.82887268066406
159134,-0.4774627685546875,0.7978363037109375,-0.0148162841796875,0.2530445158481598,-0.5732523202896118,0.328272670507431,7.741317749023438,78.19319152832031,-26.980712890625
159135,-0.478240966796875,0.8138275146484375,0.0535736083984375,0.2549393475055695,-0.6382420063018799,0.3538779020309448,7.910354614257812,78.32701110839844,-27.13748168945312
159136,-0.4732208251953125,0.82928466796875,0.111968994140625,0.3174874186515808,-0.67462158203125,0.4001902937889099,8.075149536132812,78.39317321777344,-27.04978942871094
159137,-0.4617156982421875,0.832763671875,0.151336669921875,0.4350284337997437,-0.7088013887405396,0.4496957957744598,8.158843994140625,78.50358581542969,-26.99104309082031
159138,-0.4323577880859375,0.822906494140625,0.1560516357421875,0.5396270155906677,-0.7938776612281799,0.5018018484115601,8.34722900390625,78.56877136230469,-26.76792907714844
159139,-0.3860931396484375,0.8090972900390625,0.16937255859375,0.5833052396774292,-0.8825750350952148,0.5268930792808533,8.5269775390625,78.65179443359375,-26.65457153320312
159140,-0.3359527587890625,0.7775115966796875,0.2149658203125,0.5341387391090393,-0.8418198823928833,0.5189353227615356,8.672576904296875,78.80850219726562,-26.288330078125
159141,-0.2880859375,0.72406005859375,0.23712158203125,0.4791921675205231,-0.7274650931358337,0.49754798412323,8.869827270507812,78.78900146484375,-26.0245361328125
159142,-0.269195556640625,0.673858642578125,0.2577362060546875,0.4375280737876892,-0.5662040114402771,0.4761247336864471,8.884292602539062,78.90547180175781,-25.97853088378906
159143,-0.269195556640625,0.673858642578125,0.2577362060546875,0.4375280737876892,-0.5662040114402771,0.4761247336864471,8.884292602539062,78.90547180175781,-25.97853088378906
159144,-0.266754150390625,0.5943756103515625,0.223114013671875,0.3660107553005219,-0.2592339515686035,0.4612914621829987,9.204574584960938,79.11001586914062,-25.3580322265625
159145,-0.266754150390625,0.5943756103515625,0.223114013671875,0.3660107553005219,-0.2592339515686035,0.4612914621829987,9.204574584960938,79.11001586914062,-25.3580322265625
159146,-0.353668212890625,0.602996826171875,0.150421142578125,0.2827379703521729,-0.1077043563127518,0.3726830184459686,9.502395629882812,79.2742919921875,-24.99996948242188
159147,-0.41632080078125,0.61102294921875,0.1092071533203125,0.2605365216732025,-0.0735514461994171,0.3194922506809235,9.601791381835938,79.40675354003906,-25.0343017578125
159148,-0.4652862548828125,0.6258392333984375,0.0801849365234375,0.230520561337471,-0.037021666765213,0.2364562153816223,9.774673461914062,79.50291442871094,-24.83233642578125
159149,-0.5200042724609375,0.6495361328125,0.056549072265625,0.1648280918598175,0.0044349622912704,0.1396130174398422,9.8699951171875,79.72711181640625,-24.95979309082031
159150,-0.6186676025390625,0.727935791015625,0.0729522705078125,-0.0270832832902669,0.0699977278709411,-0.0711703151464462,9.9697265625,79.9727783203125,-25.63491821289062
159151,-0.6186676025390625,0.727935791015625,0.0729522705078125,-0.0270832832902669,0.0699977278709411,-0.0711703151464462,9.9697265625,79.9727783203125,-25.63491821289062
159152,-0.6319732666015625,0.7797393798828125,0.1118621826171875,-0.1129995211958885,0.0682874470949173,-0.1633607000112534,10.0389404296875,79.8411865234375,-25.68797302246094
159153,-0.6319732666015625,0.7797393798828125,0.1118621826171875,-0.1129995211958885,0.0682874470949173,-0.1633607000112534,10.0389404296875,79.8411865234375,-25.68797302246094
159154,-0.653564453125,0.865997314453125,0.1795196533203125,-0.233287051320076,0.0180027019232511,-0.2894890606403351,9.943389892578123,79.61822509765625,-25.92054748535156
159155,-0.657318115234375,0.8894500732421875,0.18756103515625,-0.2533220052719116,-0.0074829501099884,-0.3223293125629425,9.779525756835938,79.52687072753906,-25.94062805175781
159156,-0.65362548828125,0.8887176513671875,0.17889404296875,-0.2461905926465988,-0.0049774479120969,-0.3260654509067535,9.71478271484375,79.47599792480469,-25.72662353515625
159157,-0.6397705078125,0.8618011474609375,0.157562255859375,-0.209977462887764,0.0350149758160114,-0.3284745514392853,9.55010986328125,79.54771423339844,-25.68531799316406
159158,-0.6215667724609375,0.8035736083984375,0.13470458984375,-0.1700814515352249,0.0896518528461456,-0.3275800049304962,9.468582153320312,79.47062683105469,-25.70219421386719
159159,-0.6053619384765625,0.7423248291015625,0.12115478515625,-0.1437880545854568,0.1500632613897324,-0.338204950094223,9.324371337890623,79.36152648925781,-25.6187744140625
159160,-0.590240478515625,0.6814422607421875,0.10675048828125,-0.1471396535634995,0.1937383115291595,-0.3675548434257507,9.255477905273438,79.28326416015625,-25.59144592285156
159161,-0.590240478515625,0.6814422607421875,0.10675048828125,-0.1471396535634995,0.1937383115291595,-0.3675548434257507,9.255477905273438,79.28326416015625,-25.59144592285156
159162,-0.5907440185546875,0.602783203125,0.0798797607421875,-0.2370066940784454,0.1204699575901031,-0.4479841589927673,8.9771728515625,79.00236511230469,-25.74171447753906
159163,-0.58380126953125,0.5893096923828125,0.059417724609375,-0.3307827115058899,0.0339017733931541,-0.4699288904666901,8.936203002929688,78.82562255859375,-25.68292236328125
159164,-0.570770263671875,0.60205078125,0.005950927734375,-0.4412280023097992,-0.0747173801064491,-0.4709877669811249,8.7838134765625,78.50164794921875,-25.36598205566406
159165,-0.551544189453125,0.6412200927734375,-0.100372314453125,-0.5313035845756531,-0.2595423460006714,-0.4525365829467773,8.54754638671875,78.55073547363281,-25.31710815429688
159166,-0.5148162841796875,0.695220947265625,-0.2137908935546875,-0.5829901695251465,-0.538781464099884,-0.4339921772480011,8.28619384765625,78.48597717285156,-25.32546997070312
159167,-0.4662017822265625,0.728790283203125,-0.19000244140625,-0.6604666113853455,-0.7527883052825928,-0.4017314612865448,8.103546142578125,78.41639709472656,-25.00154113769531
159168,-0.405120849609375,0.767822265625,-0.064239501953125,-0.7891318798065186,-0.7392077445983887,-0.3708827197551727,7.842605590820312,78.3848876953125,-24.57254028320312
159169,-0.38763427734375,0.833038330078125,-0.010498046875,-0.910285234451294,-0.6211112141609192,-0.3786136209964752,7.51727294921875,78.38716125488281,-24.04171752929688
159170,-0.459197998046875,0.9344635009765624,-0.0618133544921875,-0.9552135467529296,-0.5509121417999268,-0.4325897693634033,7.281387329101562,78.25129699707031,-23.37716674804688
159171,-0.5390167236328125,1.02801513671875,-0.155609130859375,-0.9304456114768982,-0.5505725741386414,-0.4782496690750122,6.933135986328125,78.20521545410156,-22.99302673339844
159172,-0.6025238037109375,1.099395751953125,-0.2224273681640625,-0.8216823935508728,-0.5551047921180725,-0.4698537886142731,6.766876220703125,78.04621887207031,-22.44418334960938
159173,-0.6025238037109375,1.099395751953125,-0.2224273681640625,-0.8216823935508728,-0.5551047921180725,-0.4698537886142731,6.766876220703125,78.04621887207031,-22.44418334960938
159174,-0.6756439208984375,1.192214965820312,-0.285186767578125,-0.4680915772914886,-0.3356858491897583,-0.3389490246772766,6.222213745117188,77.73176574707031,-20.97943115234375
159175,-0.6871185302734375,1.197128295898438,-0.337982177734375,-0.297751784324646,-0.2255681455135345,-0.2504636347293854,5.991424560546875,77.52090454101562,-20.33096313476562
159176,-0.6436614990234375,1.163650512695312,-0.395233154296875,-0.116448849439621,-0.2456049770116806,-0.1880604475736618,5.83355712890625,77.39584350585938,-19.84049987792969
159177,-0.558258056640625,1.098129272460938,-0.4398956298828125,0.0624274238944053,-0.2801112830638885,-0.1116271987557411,5.754745483398438,77.38003540039062,-19.61672973632812
159178,-0.4525909423828125,1.046417236328125,-0.4853973388671875,0.2961821258068085,-0.2891974449157715,-0.0107839377596974,5.713638305664062,77.20054626464844,-19.57398986816406
159179,-0.3695068359375,1.01885986328125,-0.5320281982421875,0.5593405365943909,-0.2558213770389557,0.0970852673053741,5.662704467773438,77.12528991699219,-19.62969970703125
159180,-0.30517578125,1.004150390625,-0.5756988525390625,0.8127467036247253,-0.1858201920986176,0.2075779587030411,5.616287231445312,76.99610900878906,-19.80581665039062
159181,-0.2581329345703125,1.005401611328125,-0.6143341064453125,1.006003975868225,-0.1258364915847778,0.2948801219463348,5.664337158203125,77.27061462402344,-20.43661499023438
159182,-0.193939208984375,1.073974609375,-0.6170654296875,1.061229228973389,-0.1027221158146858,0.3593437969684601,5.865203857421875,77.31501770019531,-20.74908447265625
159183,-0.193939208984375,1.073974609375,-0.6170654296875,1.061229228973389,-0.1027221158146858,0.3593437969684601,5.865203857421875,77.31501770019531,-20.74908447265625
159184,-0.1779327392578125,1.145263671875,-0.5606842041015625,0.9723174571990968,-0.1740056127309799,0.3641060590744019,6.079681396484375,77.29389953613281,-20.92207336425781
159185,-0.1713409423828125,1.21160888671875,-0.4827728271484375,0.9060936570167542,-0.2370471656322479,0.3715202808380127,6.110809326171875,77.37045288085938,-21.19911193847656
159186,-0.20458984375,1.268829345703125,-0.40032958984375,0.8983811736106873,-0.2919365167617798,0.3767938911914825,6.271621704101562,77.42347717285156,-21.53826904296875
159187,-0.2697296142578125,1.313430786132812,-0.318603515625,0.9263827204704284,-0.3076206743717194,0.3710699379444122,6.3411865234375,77.53379821777344,-21.71385192871094
159188,-0.3438568115234375,1.34527587890625,-0.25091552734375,0.9449089765548706,-0.3081786036491394,0.3373964130878448,6.529190063476562,77.67922973632812,-21.99676513671875
159189,-0.4306182861328125,1.374481201171875,-0.1735992431640625,0.9291009902954102,-0.3140548765659332,0.2679204046726227,6.565475463867188,77.88272094726562,-22.13951110839844
159190,-0.517486572265625,1.396835327148438,-0.0777130126953125,0.8864147663116455,-0.2998674213886261,0.1581265181303024,6.71905517578125,78.00434875488281,-22.35748291015625
159191,-0.6125640869140625,1.390029907226562,-0.010284423828125,0.8554885387420654,-0.2603796422481537,-0.0001592570333741,6.771224975585938,78.14405822753906,-22.47608947753906
159192,-0.7169036865234375,1.360794067382812,0.02764892578125,0.8748303055763245,-0.2442062795162201,-0.1657562106847763,6.824295043945312,78.07444763183594,-22.59603881835938
159193,-0.8025054931640625,1.293426513671875,0.054168701171875,0.937041997909546,-0.2196564525365829,-0.2905053198337555,6.877426147460938,78.15998840332031,-22.66981506347656
159194,-0.8502655029296875,1.180328369140625,0.0595550537109375,1.02871036529541,-0.1889576762914658,-0.3264098167419434,6.989593505859375,77.90792846679688,-22.33248901367188
159195,-0.8502655029296875,1.180328369140625,0.0595550537109375,1.02871036529541,-0.1889576762914658,-0.3264098167419434,6.989593505859375,77.90792846679688,-22.33248901367188
159196,-0.836212158203125,0.956024169921875,-0.037200927734375,1.15937864780426,-0.4375943839550018,-0.1969293057918549,6.815277099609375,77.70829772949219,-23.20054626464844
159197,-0.836212158203125,0.956024169921875,-0.037200927734375,1.15937864780426,-0.4375943839550018,-0.1969293057918549,6.815277099609375,77.70829772949219,-23.20054626464844
159198,-0.754364013671875,0.8047027587890625,-0.0543975830078125,1.150729775428772,-0.865449070930481,-0.0234422087669372,6.725433349609375,77.59275817871094,-24.40989685058594
159199,-0.754364013671875,0.8047027587890625,-0.0543975830078125,1.150729775428772,-0.865449070930481,-0.0234422087669372,6.725433349609375,77.59275817871094,-24.40989685058594
159200,-0.621917724609375,0.671630859375,0.0983428955078125,1.232731699943542,-1.136509299278259,0.0955491587519645,6.914520263671875,77.33229064941406,-24.03080749511719
159201,-0.5497894287109375,0.610992431640625,0.185394287109375,1.210245847702026,-1.077204942703247,0.1499205231666565,7.09991455078125,77.07472229003906,-23.53955078125
159202,-0.503936767578125,0.554412841796875,0.2211151123046875,1.144346475601196,-0.8930034637451172,0.1913012564182281,7.258621215820312,76.94332885742188,-23.28656005859375
159203,-0.4681549072265625,0.4869842529296875,0.16796875,1.105012893676758,-0.7064703106880188,0.1985549032688141,7.298248291015625,76.9774169921875,-23.48117065429688
159204,-0.446136474609375,0.4230499267578125,0.08001708984375,1.114680409431458,-0.539829432964325,0.1883571296930313,7.5523681640625,76.95965576171875,-23.38102722167969
159205,-0.454437255859375,0.375457763671875,0.0285186767578125,1.145063877105713,-0.3097890019416809,0.1482038497924805,7.626022338867188,76.828857421875,-23.28889465332031
159206,-0.459716796875,0.331085205078125,0.0065155029296875,1.169217467308044,-0.0192477311939001,0.0894206911325454,7.767364501953125,76.89524841308594,-23.55210876464844
159207,-0.459716796875,0.331085205078125,0.0065155029296875,1.169217467308044,-0.0192477311939001,0.0894206911325454,7.767364501953125,76.89524841308594,-23.55210876464844
159208,-0.4564208984375,0.234527587890625,-0.0720062255859375,1.144183993339539,0.3371759057044983,0.0048208539374172,7.834823608398438,76.99444580078125,-24.16816711425781
159209,-0.4564208984375,0.234527587890625,-0.0720062255859375,1.144183993339539,0.3371759057044983,0.0048208539374172,7.834823608398438,76.99444580078125,-24.16816711425781
159210,-0.371063232421875,0.2125701904296875,-0.1087188720703125,0.7590727806091309,0.2048942893743515,5.592638444795739e-06,7.998016357421875,76.76046752929688,-24.87689208984375
159211,-0.3165130615234375,0.3093414306640625,-0.0871124267578125,0.4620099663734436,0.005085039883852,0.0787984058260917,8.12353515625,76.69021606445312,-25.27548217773438
159212,-0.321868896484375,0.487884521484375,-0.02545166015625,0.1569398194551468,-0.2409961074590683,0.1653364896774292,8.221435546875,76.59370422363281,-25.55378723144531
159213,-0.387939453125,0.643402099609375,0.05926513671875,-0.0745847523212432,-0.4219853281974792,0.1781130135059357,8.207290649414062,76.54464721679688,-25.75041198730469
159214,-0.45880126953125,0.7404022216796875,0.1470947265625,-0.2116781622171402,-0.4875795245170593,0.1635604351758957,8.113082885742188,76.69483947753906,-25.79998779296875
159215,-0.5390625,0.805145263671875,0.206573486328125,-0.2887119650840759,-0.4096117615699768,0.1379831731319427,8.039779663085938,76.8797607421875,-25.71040344238281
159216,-0.6045074462890625,0.8202056884765625,0.2186737060546875,-0.3210310041904449,-0.2868932783603668,0.1100410148501396,8.103271484375,76.87509155273438,-25.33238220214844
159217,-0.639739990234375,0.7929840087890625,0.2118988037109375,-0.342953085899353,-0.178391307592392,0.0932423323392868,7.97186279296875,76.9869384765625,-25.1849365234375
159218,-0.6404571533203125,0.7589874267578125,0.1902923583984375,-0.3855836391448975,-0.1309415102005005,0.0975752919912338,7.994155883789062,77.14022827148438,-24.99688720703125
159219,-0.6404571533203125,0.7589874267578125,0.1902923583984375,-0.3855836391448975,-0.1309415102005005,0.0975752919912338,7.994155883789062,77.14022827148438,-24.99688720703125
159220,-0.607879638671875,0.7628326416015625,0.171875,-0.5882076025009155,-0.2665762901306152,0.090690754354,8.02130126953125,77.28829956054688,-24.88714599609375
159221,-0.6090850830078125,0.7838897705078125,0.198638916015625,-0.6935928463935852,-0.3515346050262451,0.0508479997515678,7.976425170898438,77.38153076171875,-24.68000793457031
159222,-0.6177215576171875,0.80255126953125,0.21929931640625,-0.7798795700073242,-0.3575395047664642,-0.0317376889288425,7.915618896484375,77.42857360839844,-24.458740234375
159223,-0.6322479248046875,0.8180389404296875,0.20892333984375,-0.8497310876846313,-0.3300942778587341,-0.1214699745178223,7.942916870117188,77.5938720703125,-24.26258850097656
159224,-0.6482086181640625,0.844207763671875,0.17608642578125,-0.8971784710884094,-0.3096867501735687,-0.2023791968822479,7.79290771484375,77.70167541503906,-23.80685424804688
159225,-0.674285888671875,0.8770904541015625,0.1414947509765625,-0.8954501152038574,-0.30316361784935,-0.2763453125953674,7.736434936523438,77.79969787597656,-23.41925048828125
159226,-0.70086669921875,0.9005889892578125,0.09320068359375,-0.8558880090713501,-0.2814820110797882,-0.3298918902873993,7.593429565429688,77.85409545898438,-23.2303466796875
159227,-0.704010009765625,0.89593505859375,0.03240966796875,-0.8103367686271667,-0.2906768321990967,-0.3320719599723816,7.482757568359375,77.75685119628906,-22.83319091796875
159228,-0.6825408935546875,0.8704833984375,-0.03253173828125,-0.7932920455932617,-0.3187889158725739,-0.2852546572685242,7.41094970703125,77.60153198242188,-22.46493530273438
159229,-0.6470489501953125,0.863922119140625,-0.1159820556640625,-0.7990681529045105,-0.326815128326416,-0.2621964514255524,7.223587036132812,77.61843872070312,-22.129638671875
159230,-0.616363525390625,0.85296630859375,-0.216705322265625,-0.7855288982391357,-0.3070212006568909,-0.2979946732521057,6.996627807617188,77.6912841796875,-21.75967407226562
159231,-0.616363525390625,0.85296630859375,-0.216705322265625,-0.7855288982391357,-0.3070212006568909,-0.2979946732521057,6.996627807617188,77.6912841796875,-21.75967407226562
159232,-0.5465240478515625,0.8253631591796875,-0.365325927734375,-0.8154604434967041,-0.3807111382484436,-0.3111538887023926,6.532241821289062,77.44497680664062,-20.62989807128906
159233,-0.5246429443359375,0.889251708984375,-0.3778228759765625,-0.8370357751846313,-0.4457002580165863,-0.3311744630336761,6.377639770507812,77.38304138183594,-20.26385498046875
159234,-0.5197296142578125,0.9441375732421876,-0.39422607421875,-0.8130303025245667,-0.486705482006073,-0.3792043030261993,6.206161499023438,77.29248046875,-19.91505432128906
159235,-0.5197296142578125,0.9441375732421876,-0.39422607421875,-0.8130303025245667,-0.486705482006073,-0.3792043030261993,6.206161499023438,77.29248046875,-19.91505432128906
159236,-0.581634521484375,1.0125732421875,-0.4127349853515625,-0.5232864022254944,-0.3234603404998779,-0.2363680601119995,5.813430786132812,76.98431396484375,-19.09895324707031
159237,-0.6035308837890625,1.027923583984375,-0.4761810302734375,-0.3178317546844482,-0.0873194560408592,-0.0877170711755752,5.675186157226562,76.81817626953125,-18.55859375
159238,-0.61138916015625,1.057723999023438,-0.5762939453125,-0.1239365935325623,0.1109957620501518,0.0925405845046043,5.520706176757812,76.67616271972656,-18.08857727050781
159239,-0.61138916015625,1.057723999023438,-0.5762939453125,-0.1239365935325623,0.1109957620501518,0.0925405845046043,5.520706176757812,76.67616271972656,-18.08857727050781
159240,-0.6016845703125,1.212005615234375,-0.7503814697265625,0.1378936916589737,0.3024027347564697,0.3840688467025757,5.380615234375,76.35397338867188,-17.71044921875
159241,-0.57476806640625,1.294448852539062,-0.70416259765625,0.2037597894668579,0.4215163588523865,0.4541600346565247,5.425628662109375,76.39280700683594,-17.80613708496094
159242,-0.5556640625,1.329849243164062,-0.6314697265625,0.2760731279850006,0.6069344282150269,0.4674540162086487,5.426559448242188,76.49195861816406,-17.87400817871094
159243,-0.5556640625,1.329849243164062,-0.6314697265625,0.2760731279850006,0.6069344282150269,0.4674540162086487,5.426559448242188,76.49195861816406,-17.87400817871094
159244,-0.579925537109375,1.196853637695312,-0.578155517578125,0.5520277619361877,0.9380316138267516,0.54692143201828,5.685806274414062,76.89376831054688,-18.55709838867188
159245,-0.5323638916015625,1.11016845703125,-0.5774688720703125,0.6001244187355042,0.9976177215576172,0.5568318367004395,5.78887939453125,77.14088439941406,-18.92425537109375
159246,-0.486785888671875,1.031890869140625,-0.534454345703125,0.5701130032539368,0.9216755628585817,0.552153468132019,5.964828491210938,77.30844116210938,-19.27030944824219
159247,-0.486785888671875,1.031890869140625,-0.534454345703125,0.5701130032539368,0.9216755628585817,0.552153468132019,5.964828491210938,77.30844116210938,-19.27030944824219
159248,-0.4287261962890625,0.87567138671875,-0.39654541015625,0.4560881853103638,0.6297814249992371,0.4769335389137268,6.361709594726562,77.79055786132812,-20.35678100585938
159249,-0.4287261962890625,0.87567138671875,-0.39654541015625,0.4560881853103638,0.6297814249992371,0.4769335389137268,6.361709594726562,77.79055786132812,-20.35678100585938
159250,-0.426910400390625,0.8289947509765625,-0.3569793701171875,0.4380476474761963,0.4085859060287476,0.4333948493003845,6.590118408203125,78.08320617675781,-20.94235229492188
159251,-0.4488067626953125,0.805511474609375,-0.310455322265625,0.4156118631362915,0.1446637064218521,0.3893770575523376,6.642379760742188,78.2940673828125,-21.53968811035156
159252,-0.4994049072265625,0.789825439453125,-0.057373046875,0.3299435377120972,-0.3533729910850525,0.3774687349796295,6.884918212890625,78.94517517089844,-22.79632568359375
159253,-0.5128326416015625,0.8058624267578125,0.0981903076171875,0.3258193731307983,-0.3314695358276367,0.3697993457317352,7.03399658203125,79.10331726074219,-23.04570007324219
159254,-0.50762939453125,0.80548095703125,0.1483001708984375,0.4158688485622406,-0.3056616485118866,0.4152701795101166,7.120285034179688,79.17877197265625,-22.95841979980469
159255,-0.50762939453125,0.80548095703125,0.1483001708984375,0.4158688485622406,-0.3056616485118866,0.4152701795101166,7.120285034179688,79.17877197265625,-22.95841979980469
159256,-0.4997406005859375,0.839874267578125,0.1484375,0.7978820204734802,-0.6839732527732849,0.6441859006881714,7.63507080078125,79.43801879882812,-22.76243591308594
159257,-0.44732666015625,0.8567352294921875,0.165191650390625,0.9391658902168274,-0.8732827305793762,0.6928263902664185,7.834457397460938,79.51905822753906,-23.00776672363281
159258,-0.3624725341796875,0.844970703125,0.1917266845703125,0.9851253628730774,-0.9686148762702942,0.6431587338447571,8.080291748046875,79.74551391601562,-22.98971557617188
159259,-0.3624725341796875,0.844970703125,0.1917266845703125,0.9851253628730774,-0.9686148762702942,0.6431587338447571,8.080291748046875,79.74551391601562,-22.98971557617188
159260,-0.1681060791015625,0.7258758544921875,0.20697021484375,0.7925881743431091,-0.9256503582000732,0.5712137222290039,8.445968627929688,80.14448547363281,-22.695556640625
159261,-0.1681060791015625,0.7258758544921875,0.20697021484375,0.7925881743431091,-0.9256503582000732,0.5712137222290039,8.445968627929688,80.14448547363281,-22.695556640625
159262,-0.1237945556640625,0.748626708984375,0.2020416259765625,0.4193107187747955,-0.5019922852516174,0.6351308822631836,8.82684326171875,80.26805114746094,-22.45245361328125
159263,-0.1237945556640625,0.748626708984375,0.2020416259765625,0.4193107187747955,-0.5019922852516174,0.6351308822631836,8.82684326171875,80.26805114746094,-22.45245361328125
159264,-0.37261962890625,0.806915283203125,0.012939453125,0.2620590329170227,-0.318482369184494,0.5087750554084778,9.087921142578123,80.71328735351562,-22.18936157226562
159265,-0.3749847412109375,0.7707366943359375,-0.0050048828125,0.2913482189178467,-0.3373857438564301,0.4425635635852814,9.340347290039062,80.85957336425781,-22.16629028320312
159266,-0.3672637939453125,0.7466888427734375,0.003021240234375,0.3080486357212067,-0.2684716582298279,0.3837758898735046,9.509750366210938,80.889404296875,-22.14369201660156
159267,-0.3672637939453125,0.7466888427734375,0.003021240234375,0.3080486357212067,-0.2684716582298279,0.3837758898735046,9.509750366210938,80.889404296875,-22.14369201660156
159268,-0.4524993896484375,0.7090301513671875,0.0019378662109375,0.2906009256839752,-0.2580118477344513,0.2162540107965469,9.920440673828123,81.24565124511719,-22.13092041015625
159269,-0.5088348388671875,0.6968994140625,-0.0146331787109375,0.2473309636116028,-0.3037644028663635,0.0974192321300506,10.1241455078125,81.5264892578125,-22.16986083984375
159270,-0.5541534423828125,0.6958160400390625,-0.0327301025390625,0.1746698170900345,-0.3355114161968231,-0.0249088127166032,10.17715454101562,81.62031555175781,-22.17768859863281
159271,-0.5830230712890625,0.7112274169921875,-0.0219573974609375,0.0790207833051681,-0.331928938627243,-0.126029834151268,10.16964721679688,81.68486022949219,-22.14334106445312
159272,-0.5948028564453125,0.7341766357421875,0.01116943359375,-0.0319089293479919,-0.2853262722492218,-0.2055859118700027,10.1009521484375,81.61447143554688,-21.94744873046875
159273,-0.5915985107421875,0.7564544677734375,0.0521392822265625,-0.1375789046287537,-0.2151352167129517,-0.2574437856674194,10.11653137207031,81.46966552734375,-21.91958618164062
159274,-0.58837890625,0.773773193359375,0.105255126953125,-0.2324124723672867,-0.1219916865229607,-0.2871774435043335,10.04779052734375,81.46139526367188,-21.75633239746094
159275,-0.58837890625,0.773773193359375,0.105255126953125,-0.2324124723672867,-0.1219916865229607,-0.2871774435043335,10.04779052734375,81.46139526367188,-21.75633239746094
159276,-0.589080810546875,0.758544921875,0.1676025390625,-0.3461909592151642,0.0650780722498893,-0.3048177063465118,9.888442993164062,81.40753173828125,-21.56121826171875
159277,-0.6049652099609375,0.7358245849609375,0.1569366455078125,-0.377506285905838,0.1118516996502876,-0.305968165397644,9.660552978515623,81.32037353515625,-21.53669738769531
159278,-0.612945556640625,0.712371826171875,0.1284942626953125,-0.3900473713874817,0.0962586253881454,-0.3103136718273163,9.66375732421875,81.28466796875,-21.46109008789062
159279,-0.612945556640625,0.712371826171875,0.1284942626953125,-0.3900473713874817,0.0962586253881454,-0.3103136718273163,9.66375732421875,81.28466796875,-21.46109008789062
159280,-0.6011810302734375,0.6669464111328125,0.1141204833984375,-0.4328784644603729,0.0846672132611274,-0.3484794199466705,9.422775268554688,80.89418029785156,-21.40023803710938
159281,-0.588775634765625,0.6586151123046875,0.1030120849609375,-0.4720325171947479,0.08186636865139,-0.3706539571285248,9.316741943359377,80.75982666015625,-21.34506225585938
159282,-0.5804290771484375,0.661224365234375,0.08978271484375,-0.5278148055076599,0.0523974262177944,-0.3895725309848785,9.229598999023438,80.73410034179688,-21.33486938476562
159283,-0.5804290771484375,0.661224365234375,0.08978271484375,-0.5278148055076599,0.0523974262177944,-0.3895725309848785,9.229598999023438,80.73410034179688,-21.33486938476562
159284,-0.5615386962890625,0.6891021728515625,0.04693603515625,-0.6828302145004272,-0.0964264050126075,-0.386966347694397,8.862106323242188,80.52215576171875,-20.94338989257812
159285,-0.5467987060546875,0.709014892578125,-0.012969970703125,-0.7639168500900269,-0.2303152233362198,-0.3592223525047302,8.729537963867188,80.4696044921875,-20.74128723144531
159286,-0.5194244384765625,0.746673583984375,-0.0788116455078125,-0.823242723941803,-0.4011716544628143,-0.3222645819187164,8.568679809570312,80.25680541992188,-20.34872436523438
159287,-0.5194244384765625,0.746673583984375,-0.0788116455078125,-0.823242723941803,-0.4011716544628143,-0.3222645819187164,8.568679809570312,80.25680541992188,-20.34872436523438
159288,-0.4215850830078125,0.792724609375,-0.084075927734375,-0.92896568775177,-0.6568087339401245,-0.2895340919494629,8.119735717773438,80.20274353027344,-19.52633666992188
159289,-0.39727783203125,0.814849853515625,-0.0726470947265625,-1.00019359588623,-0.695985734462738,-0.2989614009857178,7.887283325195312,80.201171875,-19.23747253417969
159290,-0.425048828125,0.867095947265625,-0.0985260009765625,-1.048912048339844,-0.7087531685829163,-0.3518573641777039,7.636322021484375,79.94244384765625,-18.58787536621094
159291,-0.425048828125,0.867095947265625,-0.0985260009765625,-1.048912048339844,-0.7087531685829163,-0.3518573641777039,7.636322021484375,79.94244384765625,-18.58787536621094
159292,-0.5088958740234375,1.029754638671875,-0.2280120849609375,-0.8777168989181519,-0.7483261823654175,-0.4056606888771057,7.212677001953125,79.72921752929688,-17.25506591796875
159293,-0.519989013671875,1.108901977539062,-0.2684478759765625,-0.6727381944656372,-0.6467263102531433,-0.3797222971916199,6.922698974609375,79.60240173339844,-16.47764587402344
159294,-0.5099639892578125,1.178436279296875,-0.297271728515625,-0.437100350856781,-0.499602347612381,-0.3209609687328339,6.62725830078125,79.47254943847656,-15.95469665527344
159295,-0.5099639892578125,1.178436279296875,-0.297271728515625,-0.437100350856781,-0.499602347612381,-0.3209609687328339,6.62725830078125,79.47254943847656,-15.95469665527344
159296,-0.4358673095703125,1.223098754882812,-0.4160308837890625,-0.0091114733368158,-0.3789616823196411,-0.1661559492349625,6.449874877929688,78.91273498535156,-14.82789611816406
159297,-0.3799285888671875,1.205276489257812,-0.4896697998046875,0.2112049162387848,-0.4047781229019165,-0.0712006762623786,6.270416259765625,78.75784301757812,-14.47596740722656
159298,-0.3300628662109375,1.189193725585938,-0.576934814453125,0.4573265314102173,-0.4164049327373505,0.0508200377225875,6.258102416992188,78.619384765625,-14.47727966308594
159299,-0.3300628662109375,1.189193725585938,-0.576934814453125,0.4573265314102173,-0.4164049327373505,0.0508200377225875,6.258102416992188,78.619384765625,-14.47727966308594
159300,-0.2643585205078125,1.21282958984375,-0.6690521240234375,0.9420242309570312,-0.2888813316822052,0.285755842924118,6.4901123046875,78.40603637695312,-14.33683776855469
159301,-0.2477569580078125,1.24530029296875,-0.6777801513671875,1.045147180557251,-0.1645404845476151,0.3406550586223602,6.586959838867188,78.55448913574219,-14.35804748535156
159302,-0.2306671142578125,1.296981811523438,-0.6595458984375,1.043855309486389,-0.1230596154928207,0.3584944903850555,6.612472534179688,78.62777709960938,-14.54325866699219
159303,-0.2172088623046875,1.318862915039062,-0.6029052734375,1.000557065010071,-0.1401640325784683,0.3834304809570312,6.806594848632812,78.803466796875,-14.88040161132812
159304,-0.2111053466796875,1.3292236328125,-0.547698974609375,1.01167893409729,-0.1913004517555237,0.4486992359161377,6.96875,78.90611267089844,-15.01730346679688
159305,-0.2111053466796875,1.3292236328125,-0.547698974609375,1.01167893409729,-0.1913004517555237,0.4486992359161377,6.96875,78.90611267089844,-15.01730346679688
159306,-0.2445831298828125,1.342575073242188,-0.4057769775390625,1.022006392478943,-0.2233611792325974,0.4956033527851105,7.400802612304688,79.27662658691406,-15.56468200683594
159307,-0.2909698486328125,1.352798461914062,-0.337127685546875,0.9727137088775636,-0.2335648238658905,0.4254916608333588,7.542007446289062,79.55781555175781,-15.78302001953125
159308,-0.3515167236328125,1.377655029296875,-0.24603271484375,0.9018201231956482,-0.2925692796707153,0.3142071962356567,7.692718505859375,79.91455078125,-16.06649780273438
159309,-0.4163970947265625,1.3944091796875,-0.130218505859375,0.8357737064361572,-0.3609150648117065,0.1638405919075012,7.920425415039062,80.131591796875,-16.39022827148438
159310,-0.497650146484375,1.413070678710938,-0.039276123046875,0.8283685445785522,-0.410124659538269,-0.0124627947807312,8.034500122070312,80.35398864746094,-16.58891296386719
159311,-0.497650146484375,1.413070678710938,-0.039276123046875,0.8283685445785522,-0.410124659538269,-0.0124627947807312,8.034500122070312,80.35398864746094,-16.58891296386719
159312,-0.7012939453125,1.379318237304688,0.112213134765625,1.012447237968445,-0.3702259957790375,-0.4031495749950409,8.119216918945312,80.61236572265625,-16.94863891601562
