time_idx,accelerometerAccelerationX(G),accelerometerAccelerationY(G),accelerometerAccelerationZ(G),gyroRotationX(rad/s),gyroRotationY(rad/s),gyroRotationZ(rad/s),magnetometerX(µT),magnetometerY(µT),magnetometerZ(µT)
238920,0.0253448486328125,-0.0999755859375,0.01129150390625,-0.3733429610729218,0.5151978135108948,-0.3107168674468994,58.46730041503906,93.26301574707033,-43.895263671875
238921,0.0253448486328125,-0.0999755859375,0.01129150390625,-0.3733429610729218,0.5151978135108948,-0.3107168674468994,58.46730041503906,93.26301574707033,-43.895263671875
238922,0.040618896484375,-0.0914459228515625,0.0190582275390625,-0.3707490265369415,0.1274714022874832,-0.4379565715789795,58.77809143066406,93.63748168945312,-42.86138916015625
238923,0.0425872802734375,-0.0901031494140625,0.0197296142578125,-0.4279761016368866,0.0185595694929361,-0.4887595772743225,58.81546020507812,93.85845947265624,-42.2713623046875
238924,0.0425872802734375,-0.0901031494140625,0.0197296142578125,-0.4279761016368866,0.0185595694929361,-0.4887595772743225,58.81546020507812,93.85845947265624,-42.2713623046875
238925,0.0506134033203125,-0.0931396484375,0.0184783935546875,-0.7586703896522522,-0.420844703912735,-0.5660716891288757,58.67475891113281,94.24137878417967,-41.01112365722656
238926,0.0611572265625,-0.0926361083984375,-0.003448486328125,-0.7586703896522522,-0.420844703912735,-0.5660716891288757,58.51066589355469,94.45010375976562,-40.29310607910156
238927,0.08740234375,-0.091400146484375,-0.0522613525390625,-0.8917714953422546,-0.7377834916114807,-0.5809659361839294,58.39714050292969,94.44967651367188,-39.64865112304688
238928,0.1324615478515625,-0.0714874267578125,-0.1051483154296875,-1.014030575752258,-1.221015691757202,-0.5775400400161743,58.17890930175781,94.6299285888672,-39.25300598144531
238929,0.1324615478515625,-0.0714874267578125,-0.1051483154296875,-1.014030575752258,-1.221015691757202,-0.5775400400161743,58.17890930175781,94.6299285888672,-39.25300598144531
238930,0.1120758056640625,0.1058807373046875,0.2543182373046875,-1.215789198875427,-1.937355399131775,-0.6028743982315063,57.1552734375,94.93118286132812,-38.6790771484375
238931,0.0720672607421875,0.180511474609375,0.6493988037109375,-1.353033065795898,-1.396158218383789,-0.661699652671814,56.31590270996094,95.29306030273438,-38.75196838378906
238932,0.0720672607421875,0.180511474609375,0.6493988037109375,-1.353033065795898,-1.396158218383789,-0.661699652671814,56.31590270996094,95.29306030273438,-38.75196838378906
238933,0.0727996826171875,0.92620849609375,1.060089111328125,-2.159991979598999,0.0894475877285003,-0.9424652457237244,54.18119812011719,96.00340270996094,-39.18424987792969
238934,0.022125244140625,2.945541381835938,1.497055053710938,-3.163177013397217,0.176318570971489,-0.9592090845108032,53.51313781738281,96.30767822265624,-39.20024108886719
238935,-0.36273193359375,5.623550415039062,2.30975341796875,-3.948960065841675,0.632034420967102,-0.2498532384634018,53.16395568847656,96.79127502441406,-39.1700439453125
238936,-0.36273193359375,5.623550415039062,2.30975341796875,-3.948960065841675,0.632034420967102,-0.2498532384634018,53.16395568847656,96.79127502441406,-39.1700439453125
238937,-1.475433349609375,7.291046142578125,2.703521728515625,-3.693934679031372,2.272284507751465,-0.164154589176178,53.20832824707031,97.43980407714844,-38.66139221191406
238938,-2.115509033203125,7.119247436523438,1.557449340820312,-2.207549333572388,3.286181449890137,-1.47775137424469,53.67791748046875,98.2851104736328,-37.60469055175781
238939,-0.3479461669921875,1.731353759765625,-3.006423950195312,-0.4112794101238251,-2.419465065002441,-1.886069893836975,54.16648864746094,99.475830078125,-35.29975891113281
238940,-0.0861663818359375,0.608154296875,-2.987457275390625,-1.627665162086487,-5.592862129211426,0.0963390544056892,53.01011657714844,99.9226531982422,-34.73844909667969
238941,-0.0861663818359375,0.608154296875,-2.987457275390625,-1.627665162086487,-5.592862129211426,0.0963390544056892,53.01011657714844,99.9226531982422,-34.73844909667969
238942,0.177886962890625,2.189361572265625,0.0165252685546875,0.7727127075195312,0.7689643502235413,0.9186637997627258,50.03923034667969,101.0624694824219,-33.85113525390625
238943,0.070709228515625,2.083694458007812,-0.212310791015625,1.662887930870056,0.9405518174171448,0.5451208353042603,50.08738708496094,100.9192199707031,-33.24777221679688
238944,0.070709228515625,2.083694458007812,-0.212310791015625,1.662887930870056,0.9405518174171448,0.5451208353042603,50.08738708496094,100.9192199707031,-33.24777221679688
238945,-0.13751220703125,1.553390502929688,-0.5381622314453125,0.493501603603363,-0.3209228813648224,0.1955625712871552,51.21778869628906,100.0442047119141,-34.03152465820312
238946,-0.0962982177734375,1.258270263671875,-0.5148468017578125,0.0937762930989265,-0.5182298421859741,0.3333321511745453,51.40335083007812,99.6532745361328,-34.63908386230469
238947,-0.065155029296875,1.082992553710938,-0.562255859375,0.479162871837616,-0.7989427447319031,0.4845547080039978,51.60057067871094,99.42018127441406,-34.87521362304688
238948,-0.08184814453125,0.913330078125,-0.509490966796875,1.111169576644897,-0.9183002710342408,0.5709692239761353,51.79069519042969,99.20475769042967,-34.9111328125
238949,-0.08184814453125,0.913330078125,-0.509490966796875,1.111169576644897,-0.9183002710342408,0.5709692239761353,51.79069519042969,99.20475769042967,-34.9111328125
238950,-0.1709747314453125,0.6589202880859375,-0.3184356689453125,1.547175884246826,-0.5117934942245483,0.5498450398445129,52.10763549804688,98.8253173828125,-35.5054931640625
238951,-0.1699371337890625,0.556732177734375,-0.2644500732421875,1.205016493797302,-0.5591362714767456,0.3474221527576447,52.25563049316406,98.33753967285156,-36.02999877929688
238952,-0.1699371337890625,0.556732177734375,-0.2644500732421875,1.205016493797302,-0.5591362714767456,0.3474221527576447,52.25563049316406,98.33753967285156,-36.02999877929688
238953,-0.15740966796875,0.4300537109375,-0.20867919921875,1.205016493797302,-0.5591362714767456,0.3474221527576447,52.394287109375,97.89450073242188,-36.78150939941406
238954,-0.120330810546875,0.1904296875,-0.095367431640625,0.8387828469276428,-0.5900315642356873,0.1436415910720825,52.5899658203125,97.2366180419922,-37.86769104003906
238955,-0.09722900390625,0.1390380859375,0.00946044921875,0.8101045489311218,-0.4719142615795135,0.0328239910304546,52.50724792480469,97.01821899414062,-38.29322814941406
238956,-0.0587615966796875,0.1031036376953125,0.0730743408203125,0.8794391751289368,-0.313099592924118,-0.0706206411123275,52.45515441894531,96.9281768798828,-38.64520263671875
238957,-0.0587615966796875,0.1031036376953125,0.0730743408203125,0.8794391751289368,-0.313099592924118,-0.0706206411123275,52.45515441894531,96.9281768798828,-38.64520263671875
238958,0.0448150634765625,0.05474853515625,0.129791259765625,1.084943890571594,-0.1947625577449799,-0.1415017396211624,52.20133972167969,96.48487854003906,-39.23529052734375
238959,0.094085693359375,0.038421630859375,0.154937744140625,1.074493288993835,-0.0633448809385299,-0.1420285105705261,52.08576965332031,96.26423645019533,-39.57322692871094
238960,0.094085693359375,0.038421630859375,0.154937744140625,1.074493288993835,-0.0633448809385299,-0.1420285105705261,52.08576965332031,96.26423645019533,-39.57322692871094
238961,0.1470794677734375,-0.0489044189453125,0.05157470703125,0.741942286491394,-0.2364703267812729,0.0357500091195106,51.93936157226562,95.65313720703124,-40.54518127441406
238962,0.154571533203125,-0.10015869140625,0.0313568115234375,0.741942286491394,-0.2364703267812729,0.0357500091195106,51.91874694824219,95.3810577392578,-40.85276794433594
238963,0.147918701171875,-0.1259002685546875,0.058197021484375,0.6440650224685669,-0.3277626931667328,0.0861673727631568,51.86807250976562,95.18679809570312,-41.19990539550781
238964,0.1423187255859375,-0.122314453125,0.0761871337890625,0.5678794384002686,-0.2996985614299774,0.1253494024276733,51.82331848144531,94.9648895263672,-41.38687133789062
238965,0.1423187255859375,-0.122314453125,0.0761871337890625,0.5678794384002686,-0.2996985614299774,0.1253494024276733,51.82331848144531,94.9648895263672,-41.38687133789062
238966,0.1441192626953125,-0.1182098388671875,-0.00787353515625,0.3885714411735535,-0.3452071845531464,0.1842939406633377,51.69364929199219,94.62091064453124,-41.32867431640625
238967,0.13543701171875,-0.113067626953125,-0.0100860595703125,0.2750161290168762,-0.4886040389537811,0.1919950097799301,51.59765625,94.35409545898438,-41.06988525390625
238968,0.123199462890625,-0.1074981689453125,0.0374298095703125,0.1521719545125961,-0.5971089601516724,0.1761697083711624,51.66172790527344,94.3737335205078,-40.91804504394531
238969,0.123199462890625,-0.1074981689453125,0.0374298095703125,0.1521719545125961,-0.5971089601516724,0.1761697083711624,51.66172790527344,94.3737335205078,-40.91804504394531
238970,0.1165313720703125,-0.1180572509765625,0.0500030517578125,-0.1507522314786911,-0.766595184803009,0.0765656158328056,51.558349609375,94.28913879394533,-40.57598876953125
238971,0.1208953857421875,-0.1300506591796875,-9.1552734375e-05,-0.3389309346675873,-1.01141369342804,0.0152228949591517,51.56277465820312,94.15994262695312,-40.32878112792969
238972,0.092071533203125,-0.0062255859375,-0.043609619140625,-0.7432547211647034,-1.625402092933655,-0.2079108506441116,51.14523315429688,94.25390625,-39.61627197265625
238973,0.092071533203125,-0.0062255859375,-0.043609619140625,-0.7432547211647034,-1.625402092933655,-0.2079108506441116,51.14523315429688,94.25390625,-39.61627197265625
238974,0.0167236328125,0.2311859130859375,-0.0301971435546875,-0.8960649967193604,-1.772647142410278,-0.5133333802223206,50.85227966308594,94.4366455078125,-39.10247802734375
238975,-0.010009765625,0.372344970703125,0.0374908447265625,-1.076296091079712,-1.676747798919678,-0.7357571125030518,50.38375854492188,94.68292236328124,-38.68525695800781
238976,-0.010009765625,0.372344970703125,0.0374908447265625,-1.076296091079712,-1.676747798919678,-0.7357571125030518,50.38375854492188,94.68292236328124,-38.68525695800781
238977,-0.00726318359375,0.672607421875,0.363739013671875,-1.479655981063843,-0.5773786306381226,-0.9870548248291016,49.62948608398438,94.95469665527344,-38.39846801757812
238978,0.009765625,0.8101043701171875,0.78143310546875,-2.060185670852661,0.9819682240486144,-1.330602645874023,48.81784057617188,95.37400817871094,-38.24513244628906
238979,-0.0513763427734375,4.015609741210938,0.947052001953125,-2.626104593276978,2.921105146408081,-2.55699634552002,47.555908203125,96.7205810546875,-37.55235290527344
238980,-0.0513763427734375,4.015609741210938,0.947052001953125,-2.626104593276978,2.921105146408081,-2.55699634552002,47.555908203125,96.7205810546875,-37.55235290527344
238981,-0.345672607421875,6.461471557617188,0.3603973388671875,-1.893507480621338,1.008909821510315,-2.370356559753418,47.15028381347656,97.40374755859376,-37.17556762695312
238982,-1.642669677734375,6.344528198242188,0.8423919677734375,1.655246257781982,-1.855358839035034,-2.155543327331543,46.08982849121094,98.83914184570312,-36.90182495117188
238983,-1.251373291015625,2.542556762695312,0.4200897216796875,1.437060594558716,-0.824214518070221,-2.131178379058838,45.19340515136719,99.18057250976562,-37.54389953613281
238984,-1.251373291015625,2.542556762695312,0.4200897216796875,1.437060594558716,-0.824214518070221,-2.131178379058838,45.19340515136719,99.18057250976562,-37.54389953613281
238985,-0.8150787353515625,0.8035125732421875,-0.8003082275390625,-0.094121441245079,0.5226243138313293,-0.5577109456062317,43.99269104003906,98.77401733398438,-38.28948974609375
238986,-0.234222412109375,1.48944091796875,-0.6610565185546875,0.0596638619899749,-3.040623903274536,0.90168297290802,42.9190673828125,97.56390380859376,-38.43699645996094
238987,-0.08941650390625,1.746246337890625,-0.1782073974609375,0.910946786403656,-1.822928428649902,0.8653324246406555,42.83335876464844,97.53848266601562,-37.97001647949219
238988,-0.08941650390625,1.746246337890625,-0.1782073974609375,0.910946786403656,-1.822928428649902,0.8653324246406555,42.83335876464844,97.53848266601562,-37.97001647949219
238989,0.0855712890625,1.664260864257812,-0.5551910400390625,1.783567428588867,-0.7355837225914001,0.742688000202179,42.51856994628906,97.58290100097656,-37.69432067871094
238990,-0.013671875,1.475448608398438,-0.5137939453125,1.758994936943054,-0.886665940284729,0.574805736541748,42.52861022949219,97.14280700683594,-38.24519348144531
238991,-0.024627685546875,1.345062255859375,-0.1866607666015625,1.644245982170105,-0.8141118288040161,0.4946307837963104,42.78367614746094,96.53572082519533,-38.88803100585938
238992,-0.0089874267578125,1.136199951171875,-0.0511474609375,1.528432607650757,-0.5116840600967407,0.6246830224990845,43.10366821289062,95.9597625732422,-39.57220458984375
238993,-0.0089874267578125,1.136199951171875,-0.0511474609375,1.528432607650757,-0.5116840600967407,0.6246830224990845,43.10366821289062,95.9597625732422,-39.57220458984375
238994,0.074371337890625,0.6333160400390625,-0.1955718994140625,1.523586511611938,-0.6931856870651245,0.765993058681488,43.4990234375,94.91757202148438,-40.87774658203125
238995,0.097869873046875,0.415618896484375,-0.198577880859375,1.552916884422302,-0.9728718996047974,0.8915277719497681,43.73078918457031,94.53337097167967,-41.45428466796875
238996,0.097869873046875,0.415618896484375,-0.198577880859375,1.552916884422302,-0.9728718996047974,0.8915277719497681,43.73078918457031,94.53337097167967,-41.45428466796875
238997,0.0845184326171875,0.0931854248046875,0.0787353515625,1.603086113929749,0.0010370349045842,1.026670932769775,43.93589782714844,93.87081909179688,-42.58370971679688
238998,0.0501708984375,-0.030242919921875,0.1552581787109375,1.603086113929749,0.0010370349045842,1.026670932769775,44.02099609375,93.5104522705078,-42.96829223632812
238999,0.0007781982421875,-0.133026123046875,0.0323944091796875,1.490303874015808,0.5189520716667175,0.9987570643424988,44.09242248535156,93.1778564453125,-43.57020568847656
239000,0.0007781982421875,-0.133026123046875,0.0323944091796875,1.490303874015808,0.5189520716667175,0.9987570643424988,44.09242248535156,93.1778564453125,-43.57020568847656
239001,-0.0444183349609375,-0.187591552734375,-0.1302337646484375,1.306204319000244,0.5854749083518982,0.9600921869277954,44.33966064453125,92.89244079589844,-43.97444152832031
239002,-0.10687255859375,-0.17938232421875,-0.00823974609375,0.7865691781044006,0.5008465647697449,0.8597994446754456,45.36482238769531,92.33230590820312,-45.11019897460938
239003,-0.105743408203125,-0.15777587890625,0.0940399169921875,0.5527492165565491,0.6648619174957275,0.7990545630455017,45.84196472167969,92.0102996826172,-45.40032958984375
239004,-0.105743408203125,-0.15777587890625,0.0940399169921875,0.5527492165565491,0.6648619174957275,0.7990545630455017,45.84196472167969,92.0102996826172,-45.40032958984375
239005,-0.0986785888671875,-0.1453857421875,0.1387176513671875,0.3625568747520447,0.8469451665878296,0.7375485897064209,46.40789794921875,91.84669494628906,-45.78443908691406
239006,-0.090789794921875,-0.1394500732421875,0.1355438232421875,0.0644943043589592,0.9889856576919556,0.6052235960960388,47.69400024414062,91.63926696777344,-45.98434448242188
239007,-0.0856170654296875,-0.137115478515625,0.179901123046875,-0.0725618153810501,1.047747492790222,0.5483136773109436,48.39796447753906,91.62213134765624,-45.90174865722656
239008,-0.0856170654296875,-0.137115478515625,0.179901123046875,-0.0725618153810501,1.047747492790222,0.5483136773109436,48.39796447753906,91.62213134765624,-45.90174865722656
239009,-0.107208251953125,-0.166107177734375,0.1766510009765625,-0.3634258806705475,1.260980367660522,0.4626789689064026,49.54916381835938,92.05860900878906,-45.74955749511719
239010,-0.110443115234375,-0.1773529052734375,0.1414031982421875,-0.4741289615631104,1.24189031124115,0.4310930669307709,50.28135681152344,92.1885986328125,-45.40274047851562
239011,-0.1111602783203125,-0.1889801025390625,0.123565673828125,-0.535504937171936,1.100721716880798,0.3981718719005585,50.97731018066406,92.36737060546876,-44.86033630371094
239012,-0.1111602783203125,-0.1889801025390625,0.123565673828125,-0.535504937171936,1.100721716880798,0.3981718719005585,50.97731018066406,92.36737060546876,-44.86033630371094
239013,-0.1131591796875,-0.1980438232421875,0.08734130859375,-0.6104167699813843,0.6704518795013428,0.282988041639328,52.24919128417969,92.69308471679688,-43.41072082519531
239014,-0.11102294921875,-0.1918487548828125,0.0503997802734375,-0.7189746499061584,0.3805326819419861,0.1991386711597443,52.77597045898438,92.89161682128906,-42.71232604980469
239015,-0.090789794921875,-0.1639251708984375,0.0107269287109375,-0.891371488571167,0.0457003749907016,0.0791334360837936,53.17597961425781,93.091064453125,-41.99824523925781
239016,-0.049591064453125,-0.11993408203125,-0.0176849365234375,-1.095499277114868,-0.3213319480419159,-0.079411469399929,53.36836242675781,93.3419952392578,-41.40963745117188
239017,-0.049591064453125,-0.11993408203125,-0.0176849365234375,-1.095499277114868,-0.3213319480419159,-0.079411469399929,53.36836242675781,93.3419952392578,-41.40963745117188
239018,0.0572662353515625,0.030975341796875,-0.0331573486328125,-1.463163018226624,-1.272565960884094,-0.3263578712940216,53.41127014160156,93.8944854736328,-40.07191467285156
239019,0.0235748291015625,0.0894622802734375,0.1431884765625,-1.704866766929626,-1.794929027557373,-0.3422151207923889,53.14517211914062,94.23161315917967,-39.6160888671875
239020,0.0235748291015625,0.0894622802734375,0.1431884765625,-1.704866766929626,-1.794929027557373,-0.3422151207923889,53.14517211914062,94.23161315917967,-39.6160888671875
239021,0.0023193359375,0.176300048828125,0.3623809814453125,-2.346045732498169,-2.712628602981567,-0.448044627904892,52.67622375488281,94.77919006347656,-39.58015441894531
239022,-0.0002899169921875,1.084243774414062,1.2572021484375,-2.922874689102173,-3.118573904037476,-0.7017826437950134,51.03628540039062,95.50914001464844,-39.40768432617188
239023,0.0203399658203125,2.531845092773438,2.102508544921875,-3.464343547821045,-2.465993881225586,-0.7861422300338745,49.97648620605469,95.95622253417967,-39.20295715332031
239024,-0.068603515625,6.099517822265625,3.034149169921875,-3.405082702636719,0.2303080409765244,0.1674398630857468,48.94950866699219,96.51406860351562,-38.82249450683594
239025,-0.068603515625,6.099517822265625,3.034149169921875,-3.405082702636719,0.2303080409765244,0.1674398630857468,48.94950866699219,96.51406860351562,-38.82249450683594
239026,-1.277175903320312,7.318496704101562,0.4153289794921875,-1.222448706626892,5.409000873565674,0.2556647956371307,48.18557739257812,98.3434600830078,-38.03762817382812
239027,-0.537689208984375,3.228363037109375,-2.4210205078125,0.0257397182285785,1.987096905708313,-0.8964090943336487,49.27934265136719,99.15476989746094,-37.26026916503906
239028,-0.537689208984375,3.228363037109375,-2.4210205078125,0.0257397182285785,1.987096905708313,-0.8964090943336487,49.27934265136719,99.15476989746094,-37.26026916503906
239029,0.236724853515625,0.864715576171875,-0.6513671875,0.788933515548706,0.2792042195796967,0.9012118577957152,50.58103942871094,99.61386108398438,-35.794189453125
239030,0.45159912109375,1.025131225585938,0.3367919921875,0.788933515548706,0.2792042195796967,0.9012118577957152,49.99385070800781,99.56907653808594,-35.40240478515625
239031,0.5325164794921875,1.422958374023438,-0.3041534423828125,0.9604802131652832,0.9280788898468018,1.105092525482178,49.35932922363281,99.4358367919922,-35.05014038085938
239032,0.4434051513671875,2.02587890625,-0.52557373046875,0.7951110005378723,-0.3620636761188507,0.8757094144821167,49.39639282226562,99.31436157226562,-35.06234741210938
239033,0.4434051513671875,2.02587890625,-0.52557373046875,0.7951110005378723,-0.3620636761188507,0.8757094144821167,49.39639282226562,99.31436157226562,-35.06234741210938
239034,0.3226318359375,1.670578002929688,-0.53509521484375,0.2504252791404724,-0.665199339389801,0.2072501182556152,50.32083129882812,98.78793334960938,-35.65335083007812
239035,0.1687469482421875,1.419174194335938,-0.7942657470703125,0.6610093712806702,-0.7865110635757446,0.3963063359260559,50.47184753417969,98.59613037109376,-35.81158447265625
239036,0.1687469482421875,1.419174194335938,-0.7942657470703125,0.6610093712806702,-0.7865110635757446,0.3963063359260559,50.47184753417969,98.59613037109376,-35.81158447265625
239037,0.102508544921875,1.158935546875,-0.603118896484375,1.392844438552856,-1.036349415779114,0.6789907813072205,50.63093566894531,98.15567016601562,-36.24787902832031
239038,0.04791259765625,1.044921875,-0.6460113525390625,1.392844438552856,-1.036349415779114,0.6789907813072205,50.76358032226562,97.88587951660156,-36.55592346191406
239039,0.06634521484375,0.9283905029296876,-0.62347412109375,1.294154644012451,-1.146680951118469,0.6657378077507019,50.79606628417969,97.45637512207033,-37.2242431640625
239040,0.06634521484375,0.9283905029296876,-0.62347412109375,1.294154644012451,-1.146680951118469,0.6657378077507019,50.79606628417969,97.45637512207033,-37.2242431640625
239041,0.1287689208984375,0.8506317138671875,-0.56243896484375,1.356398582458496,-1.449072241783142,0.4716399610042572,50.97834777832031,97.1611785888672,-37.90347290039062
239042,0.3100738525390625,0.740966796875,-0.18548583984375,1.421116590499878,-1.528172135353088,0.3262313604354858,51.02049255371094,96.49324035644533,-38.86155700683594
239043,0.3757781982421875,0.6712799072265625,0.189697265625,1.42603588104248,-1.304168105125427,0.244192436337471,51.00315856933594,96.26783752441406,-39.54869079589844
239044,0.4105072021484375,0.5787811279296875,0.452362060546875,1.350447177886963,-0.7392604947090149,0.2904936075210571,50.85231018066406,95.83287048339844,-39.99105834960938
239045,0.4105072021484375,0.5787811279296875,0.452362060546875,1.350447177886963,-0.7392604947090149,0.2904936075210571,50.85231018066406,95.83287048339844,-39.99105834960938
239046,0.3479461669921875,0.3153228759765625,0.3242034912109375,1.097010850906372,0.0718478262424469,0.5619762539863586,50.70068359375,94.87855529785156,-41.16207885742188
239047,0.2866363525390625,0.17254638671875,0.1319427490234375,0.9969372749328612,-0.0873274505138397,0.6256897449493408,50.81260681152344,94.4603271484375,-41.4622802734375
239048,0.2866363525390625,0.17254638671875,0.1319427490234375,0.9969372749328612,-0.0873274505138397,0.6256897449493408,50.81260681152344,94.4603271484375,-41.4622802734375
239049,0.23150634765625,0.0299530029296875,-0.0205230712890625,0.9412727355957032,-0.5176301002502441,0.6090825200080872,51.16302490234375,94.13229370117188,-41.73065185546875
239050,0.1492767333984375,-0.1572418212890625,0.0186614990234375,1.030208706855774,-1.36173689365387,0.5002612471580505,51.64569091796875,93.51945495605467,-42.31684875488281
239051,0.1102752685546875,-0.1707000732421875,0.12689208984375,1.064419388771057,-1.240089178085327,0.4351850152015686,51.6578369140625,93.3049774169922,-42.58209228515625
239052,0.09002685546875,-0.176300048828125,0.119140625,1.032566905021667,-0.97857666015625,0.3871964514255524,51.55908203125,93.0463409423828,-42.82765197753906
239053,0.09002685546875,-0.176300048828125,0.119140625,1.032566905021667,-0.97857666015625,0.3871964514255524,51.55908203125,93.0463409423828,-42.82765197753906
239054,0.061187744140625,-0.1454010009765625,0.0770263671875,0.8493486642837524,-0.6566023826599121,0.3164069652557373,51.24630737304688,92.66667175292967,-43.55046081542969
239055,0.04901123046875,-0.1374664306640625,0.12115478515625,0.7353429794311523,-0.511736273765564,0.2752286493778229,51.17420959472656,92.422119140625,-43.69795227050781
239056,0.0426177978515625,-0.1417694091796875,0.1308746337890625,0.5722501873970032,-0.3283166289329529,0.2181334048509598,51.18293762207031,92.17938232421876,-43.745361328125
239057,0.0426177978515625,-0.1417694091796875,0.1308746337890625,0.5722501873970032,-0.3283166289329529,0.2181334048509598,51.18293762207031,92.17938232421876,-43.745361328125
239058,0.05218505859375,-0.1836395263671875,-0.120880126953125,0.1716726869344711,-0.6615233421325684,0.0978176370263099,51.31135559082031,91.75401306152344,-43.704833984375
239059,0.0686187744140625,-0.211456298828125,-0.2200775146484375,0.0146098351106047,-1.271607160568237,0.0623794868588447,51.43280029296875,91.554931640625,-43.5220947265625
239060,0.0884246826171875,-0.2191162109375,-0.1883392333984375,-0.1698457598686218,-2.124693393707275,-0.0520584061741828,51.53245544433594,91.31591796875,-43.31564331054688
239061,0.0884246826171875,-0.2191162109375,-0.1883392333984375,-0.1698457598686218,-2.124693393707275,-0.0520584061741828,51.53245544433594,91.31591796875,-43.31564331054688
239062,0.1250762939453125,-0.0879669189453125,0.2291717529296875,-0.2982839047908783,-1.791059732437134,-0.2194575220346451,51.2938232421875,90.85084533691406,-42.67245483398438
239063,0.1038055419921875,0.1338958740234375,0.41259765625,-0.5463578701019287,-0.9315804243087769,-0.4999107420444489,50.79301452636719,90.80850219726562,-42.470458984375
239064,0.1038055419921875,0.1338958740234375,0.41259765625,-0.5463578701019287,-0.9315804243087769,-0.4999107420444489,50.79301452636719,90.80850219726562,-42.470458984375
239065,0.030029296875,0.2250518798828125,0.4533538818359375,-1.412399768829346,0.6048363447189331,-0.8587839603424072,50.20855712890625,90.76768493652344,-42.24247741699219
239066,-0.0408477783203125,0.590911865234375,0.74212646484375,-2.09676718711853,1.106000185012817,-1.147276759147644,48.76284790039062,91.98031616210938,-41.45465087890625
239067,-0.0135650634765625,1.014785766601562,1.066604614257812,-2.838380336761475,1.742761731147766,-1.692286014556885,48.30032348632812,92.84188842773438,-41.07150268554688
239068,-0.0135650634765625,1.014785766601562,1.066604614257812,-2.838380336761475,1.742761731147766,-1.692286014556885,48.30032348632812,92.84188842773438,-41.07150268554688
239069,-0.0318603515625,3.186447143554688,1.151046752929688,-3.116097688674927,2.16373085975647,-2.642526388168335,47.95953369140625,93.94578552246094,-40.76922607421875
239070,-0.6517486572265625,8.030975341796875,1.16546630859375,-1.841370820999146,-1.577622771263123,-0.3073903024196625,47.20146179199219,96.08392333984376,-40.25979614257812
239071,-1.30023193359375,7.499191284179688,1.2337646484375,-0.546111524105072,-2.450875520706177,-0.5306777358055115,46.97325134277344,96.80654907226562,-39.97261047363281
239072,-0.38336181640625,4.434417724609375,0.093780517578125,-0.2529443800449371,-3.530186414718628,-1.262909054756165,46.51260375976562,96.90313720703124,-39.47610473632812
239073,-0.38336181640625,4.434417724609375,0.093780517578125,-0.2529443800449371,-3.530186414718628,-1.262909054756165,46.51260375976562,96.90313720703124,-39.47610473632812
239074,0.816680908203125,0.7975311279296875,-1.754165649414062,-1.430881500244141,-2.616626739501953,-0.5826996564865112,43.82951354980469,96.86134338378906,-38.12699890136719
239075,0.9998931884765624,1.093643188476562,-1.952972412109375,0.2754179835319519,-0.947109580039978,0.1804717779159546,42.37458801269531,96.8673858642578,-37.08763122558594
239076,0.6180267333984375,1.635345458984375,-0.7332611083984375,2.558879613876343,-2.119925737380981,0.5551167726516724,41.70794677734375,96.848876953125,-36.67269897460938
239077,0.6180267333984375,1.635345458984375,-0.7332611083984375,2.558879613876343,-2.119925737380981,0.5551167726516724,41.70794677734375,96.848876953125,-36.67269897460938
239078,0.246978759765625,1.481979370117188,-0.1832275390625,2.093113422393799,-2.592254400253296,0.5912142992019653,41.44522094726562,95.83274841308594,-37.93180847167969
239079,0.0847320556640625,1.360488891601562,-0.035003662109375,0.9200012683868408,-2.171185493469238,0.5326763987541199,41.28494262695312,95.11868286132812,-38.89622497558594
239080,0.015380859375,1.20697021484375,-0.0294342041015625,0.3264734447002411,-1.76516580581665,0.6077871322631836,41.22552490234375,94.6282958984375,-39.4014892578125
239081,0.015380859375,1.20697021484375,-0.0294342041015625,0.3264734447002411,-1.76516580581665,0.6077871322631836,41.22552490234375,94.6282958984375,-39.4014892578125
239082,-0.0686187744140625,0.6731109619140625,-0.41326904296875,0.9331228733062744,-2.244279861450195,0.8107548952102661,41.10943603515625,94.21250915527344,-39.22749328613281
239083,-0.1253509521484375,0.4361724853515625,-0.260345458984375,1.680067896842957,-2.263640642166138,0.861272394657135,41.08877563476562,93.94371032714844,-39.27703857421875
239084,-0.162994384765625,0.2858428955078125,-0.007049560546875,2.248565435409546,-1.599045038223267,0.7982966303825378,41.02227783203125,93.7273406982422,-39.59771728515625
239085,-0.1745758056640625,0.1519317626953125,0.074676513671875,2.404132604598999,-0.7383882999420166,0.6736729741096497,40.93260192871094,93.2101593017578,-40.0784912109375
239086,-0.177581787109375,-0.0077362060546875,-0.03570556640625,2.193510770797729,-0.1688790321350098,0.5559670925140381,40.82421875,92.58731079101562,-40.76260375976562
239087,-0.181915283203125,-0.18017578125,-0.2027740478515625,1.765041708946228,0.0130193950608372,0.4784065186977386,40.85055541992188,92.0306396484375,-41.740478515625
239088,-0.1278533935546875,-0.341644287109375,-0.13018798828125,0.8616929054260254,0.033692717552185,0.4510124623775482,41.06965637207031,91.32662963867188,-42.99667358398438
239089,-0.1278533935546875,-0.341644287109375,-0.13018798828125,0.8616929054260254,0.033692717552185,0.4510124623775482,41.06965637207031,91.32662963867188,-42.99667358398438
239090,-0.079559326171875,-0.2941131591796875,0.02850341796875,0.618286669254303,0.2418560385704041,0.4632025361061096,41.16081237792969,91.1910400390625,-43.37348937988281
239091,-0.0412445068359375,-0.2472076416015625,0.0906524658203125,0.515175998210907,0.4686218202114105,0.4617798924446106,41.39201354980469,91.2028350830078,-43.55477905273438
239092,-0.0160675048828125,-0.211517333984375,0.0673828125,0.4863773584365845,0.4965327978134155,0.4021570384502411,41.6690673828125,91.1037139892578,-43.67060852050781
239093,-0.0160675048828125,-0.211517333984375,0.0673828125,0.4863773584365845,0.4965327978134155,0.4021570384502411,41.6690673828125,91.1037139892578,-43.67060852050781
239094,0.0171966552734375,-0.177947998046875,0.012298583984375,0.4760485589504242,0.3175710439682007,0.3520062565803528,42.29670715332031,90.96633911132812,-43.9771728515625
239095,0.0284271240234375,-0.16583251953125,0.032684326171875,0.4212202131748199,0.1356592923402786,0.2947389483451843,42.62124633789062,90.80403137207033,-43.94392395019531
239096,0.036651611328125,-0.15692138671875,0.0695037841796875,0.3284497857093811,0.0561330430209636,0.2365986853837967,42.93940734863281,90.81491088867188,-44.05181884765625
239097,0.036651611328125,-0.15692138671875,0.0695037841796875,0.3284497857093811,0.0561330430209636,0.2365986853837967,42.93940734863281,90.81491088867188,-44.05181884765625
239098,0.0465850830078125,-0.146331787109375,0.08795166015625,0.075108602643013,0.1428751349449158,0.1524185687303543,43.28140258789062,90.98272705078124,-43.52633666992188
239099,0.0492706298828125,-0.14825439453125,0.07733154296875,-0.1070702597498894,0.178407296538353,0.1138128489255905,43.5240478515625,90.94515991210938,-43.2496337890625
239100,0.0543365478515625,-0.1540985107421875,0.0646820068359375,-0.3034938275814056,0.1937617510557175,0.0823340192437171,43.87077331542969,90.90806579589844,-42.80583190917969
239101,0.0577239990234375,-0.1588897705078125,0.0400238037109375,-0.490820586681366,0.1526174992322922,0.0628633871674537,44.31108093261719,90.8333740234375,-42.26687622070312
239102,0.0620880126953125,-0.166900634765625,0.0007171630859375,-0.6857416033744812,0.0010689928894862,0.0361244492232799,44.55563354492188,90.74617004394533,-41.80865478515625
239103,0.066253662109375,-0.17510986328125,-0.0727081298828125,-0.9026827216148376,-0.3407692909240723,0.0011022823164239,44.75311279296875,90.57977294921876,-41.21086120605469
239104,0.0756072998046875,-0.177825927734375,-0.15869140625,-1.135548710823059,-0.9319345951080322,-0.0521577447652816,44.89532470703125,90.55868530273438,-40.86311340332031
239105,0.0756072998046875,-0.177825927734375,-0.15869140625,-1.135548710823059,-0.9319345951080322,-0.0521577447652816,44.89532470703125,90.55868530273438,-40.86311340332031
239106,0.17156982421875,0.0186004638671875,-0.0308380126953125,-1.605216860771179,-2.277860164642334,-0.3011883497238159,44.68452453613281,90.87257385253906,-39.64862060546875
239107,0.157073974609375,0.173431396484375,0.3671875,-1.713560342788696,-1.950382471084595,-0.4072585701942444,44.19252014160156,91.30465698242188,-38.97584533691406
239108,0.0909271240234375,0.2628631591796875,0.8535614013671875,-2.161895036697388,0.709136962890625,-0.6183383464813232,42.56846618652344,92.40675354003906,-37.70867919921875
239109,0.0909271240234375,0.2628631591796875,0.8535614013671875,-2.161895036697388,0.709136962890625,-0.6183383464813232,42.56846618652344,92.40675354003906,-37.70867919921875
239110,0.0951995849609375,0.4507904052734375,1.016006469726562,-2.683419942855835,1.755761861801147,-0.7950020432472229,41.80300903320312,93.23333740234376,-37.40730285644531
239111,0.1428985595703125,1.064224243164062,1.277511596679688,-3.304871082305908,2.470006942749023,-1.162112712860107,41.21473693847656,94.06901550292967,-37.08293151855469
239112,0.157958984375,2.711502075195312,1.357711791992188,-3.691856384277344,2.382394075393677,-1.415173649787903,40.85574340820312,94.91062927246094,-36.88670349121094
239113,0.157958984375,2.711502075195312,1.357711791992188,-3.691856384277344,2.382394075393677,-1.415173649787903,40.85574340820312,94.91062927246094,-36.88670349121094
239114,-0.90399169921875,7.726577758789062,2.070953369140625,-2.695202827453613,0.6727211475372314,-0.1380537450313568,40.62364196777344,96.51603698730467,-36.56280517578125
239115,-1.531204223632812,7.40972900390625,1.51458740234375,-1.790280699729919,0.4606975615024567,-1.324200868606567,40.9923095703125,97.1269989013672,-36.1446533203125
239116,-0.744476318359375,4.620529174804688,0.2217254638671875,-1.278178811073303,-0.6560295224189758,-2.155009746551514,41.20407104492188,97.3991241455078,-35.377685546875
239117,-0.744476318359375,4.620529174804688,0.2217254638671875,-1.278178811073303,-0.6560295224189758,-2.155009746551514,41.20407104492188,97.3991241455078,-35.377685546875
239118,0.5025482177734375,1.097412109375,-2.304153442382812,-1.026443004608154,-5.638410568237305,-0.8142902851104736,39.35684204101562,97.6783447265625,-33.70928955078125
239119,0.805755615234375,1.014480590820312,-0.998138427734375,-0.4715046882629395,-0.8618769645690918,0.2937690317630768,37.57437133789062,98.01701354980467,-32.74813842773438
239120,0.3255462646484375,1.94287109375,-0.7195587158203125,1.023813128471375,1.243832588195801,0.7917138338088989,36.07728576660156,98.41641235351562,-31.90657043457031
239121,0.3255462646484375,1.94287109375,-0.7195587158203125,1.023813128471375,1.243832588195801,0.7917138338088989,36.07728576660156,98.41641235351562,-31.90657043457031
239122,0.0925445556640625,2.1005859375,0.0195770263671875,1.782864332199097,-0.1489751040935516,0.7769724726676941,36.26155090332031,98.17417907714844,-32.06301879882812
239123,0.1268310546875,1.8577880859375,0.012908935546875,1.062658309936523,-0.8633230328559875,0.6342414021492004,36.99105834960938,97.70100402832033,-32.81376647949219
239124,0.1395263671875,1.574844360351562,0.0532073974609375,0.4877371788024902,-1.168332815170288,0.5754050016403198,37.45130920410156,97.2883758544922,-33.37794494628906
239125,0.1538848876953125,1.317977905273438,-0.1070404052734375,0.3137494027614594,-1.311459541320801,0.5223913192749023,37.7183837890625,97.04708862304688,-33.76242065429688
239126,0.229461669921875,1.02471923828125,-0.36529541015625,0.4615159630775452,-1.83701765537262,0.5935051441192627,37.99919128417969,96.77279663085938,-33.79121398925781
239127,0.2393035888671875,0.777313232421875,-0.4083099365234375,0.8717879056930542,-2.371738195419312,0.7255092859268188,37.94967651367188,96.75959777832033,-33.69956970214844
239128,0.206146240234375,0.5809173583984375,-0.3430633544921875,1.371459245681763,-2.610069513320923,0.8107091188430786,37.90771484375,96.81552124023438,-33.59396362304688
239129,0.206146240234375,0.5809173583984375,-0.3430633544921875,1.371459245681763,-2.610069513320923,0.8107091188430786,37.90771484375,96.81552124023438,-33.59396362304688
239130,0.17523193359375,0.195953369140625,-0.3502960205078125,1.828193545341492,-2.507221460342407,0.7059574127197266,37.63084411621094,96.5150146484375,-33.65975952148438
239131,0.1986236572265625,-0.0201568603515625,-0.31903076171875,1.476670861244202,-2.091403007507324,0.572265088558197,37.45254516601562,96.24122619628906,-33.92570495605469
239132,0.2776336669921875,-0.0945281982421875,0.1203765869140625,0.6177327036857605,-0.6196709871292114,0.3368611037731171,37.25921630859375,95.67837524414062,-34.48396301269531
239133,0.2776336669921875,-0.0945281982421875,0.1203765869140625,0.6177327036857605,-0.6196709871292114,0.3368611037731171,37.25921630859375,95.67837524414062,-34.48396301269531
239134,0.273284912109375,-0.099212646484375,0.163787841796875,0.5020852088928223,-0.1795252859592438,0.3157302737236023,37.26472473144531,95.61492919921876,-34.68955993652344
239135,0.255950927734375,-0.1101837158203125,0.0551910400390625,0.5501505136489868,-0.1539751887321472,0.3098417520523071,37.37492370605469,95.40377807617188,-34.66004943847656
239136,0.241851806640625,-0.1275482177734375,-0.094940185546875,0.7091215252876282,-0.5867156982421875,0.3050973117351532,37.61660766601562,95.1914520263672,-34.61198425292969
239137,0.2158203125,-0.1454620361328125,-0.09521484375,1.154970288276672,-1.481580376625061,0.240139901638031,37.82456970214844,94.9467315673828,-34.44728088378906
239138,0.1890411376953125,-0.158782958984375,-0.00482177734375,1.154970288276672,-1.481580376625061,0.240139901638031,37.9412841796875,94.8141632080078,-34.5074462890625
239139,0.1682586669921875,-0.1665802001953125,0.0191802978515625,1.30565357208252,-1.617375254631042,0.1953029185533524,37.82081604003906,94.67691040039062,-34.49832153320312
239140,0.146209716796875,-0.1572113037109375,0.0141143798828125,1.346626043319702,-1.687519192695618,0.1639284789562225,37.67056274414062,94.61048889160156,-34.56045532226562
239141,0.146209716796875,-0.1572113037109375,0.0141143798828125,1.346626043319702,-1.687519192695618,0.1639284789562225,37.67056274414062,94.61048889160156,-34.56045532226562
239142,0.0989837646484375,-0.12939453125,0.0086517333984375,1.118057012557983,-1.755663156509399,0.0730214789509773,37.14814758300781,94.17132568359376,-34.94564819335938
239143,0.080902099609375,-0.12591552734375,0.00701904296875,0.90199613571167,-1.780475735664368,0.0154769606888294,36.91873168945312,93.7905731201172,-35.17706298828125
239144,0.0688018798828125,-0.127410888671875,0.0404205322265625,0.2996173501014709,-1.596264958381653,-0.1174371466040611,36.68550109863281,93.63406372070312,-35.21945190429688
239145,0.0688018798828125,-0.127410888671875,0.0404205322265625,0.2996173501014709,-1.596264958381653,-0.1174371466040611,36.68550109863281,93.63406372070312,-35.21945190429688
239146,0.0274200439453125,-0.1045074462890625,0.1824493408203125,-0.0990301743149757,-1.322048306465149,-0.2196996062994003,36.03216552734375,93.35479736328124,-35.00279235839844
239147,-0.0265045166015625,0.049530029296875,0.3204803466796875,-0.5407868027687073,-0.8630066514015198,-0.4483828544616699,35.73703002929688,93.33747863769533,-34.79032897949219
239148,-0.0349273681640625,0.203857421875,0.4972381591796875,-1.367453336715698,0.6165769100189209,-0.8724675178527832,35.45712280273438,93.30892944335938,-34.39971923828125
239149,-0.0349273681640625,0.203857421875,0.4972381591796875,-1.367453336715698,0.6165769100189209,-0.8724675178527832,35.45712280273438,93.30892944335938,-34.39971923828125
239150,-0.01690673828125,0.4428558349609375,0.7191925048828125,-1.856153964996338,1.360763192176819,-1.153386831283569,34.81825256347656,93.42474365234376,-33.70359802246094
239151,-0.000579833984375,0.5928192138671875,0.8382415771484375,-2.344776153564453,2.092171907424927,-1.522946715354919,34.57960510253906,93.59994506835938,-33.17555236816406
239152,-0.110504150390625,2.987625122070312,0.8220367431640625,-0.9954113364219666,0.4641154706478119,-1.956758975982666,33.96340942382812,94.5171356201172,-32.53042602539062
239153,-0.110504150390625,2.987625122070312,0.8220367431640625,-0.9954113364219666,0.4641154706478119,-1.956758975982666,33.96340942382812,94.5171356201172,-32.53042602539062
239154,-0.242431640625,4.951461791992188,0.9234466552734376,-0.9954113364219666,0.4641154706478119,-1.956758975982666,33.75851440429688,94.89208984375,-32.58474731445312
239155,-0.7874603271484375,5.99090576171875,1.110031127929688,-0.1168544441461563,-1.542591571807861,-1.211256265640259,33.26821899414062,95.13107299804688,-32.957763671875
239156,-1.066070556640625,5.42572021484375,1.244918823242188,0.4936642944812775,-2.187922716140747,-1.204962134361267,32.76214599609375,95.2102508544922,-33.17332458496094
239157,-0.5146942138671875,3.229080200195312,0.71337890625,0.3084441125392914,-2.758604288101196,-1.430380344390869,32.14399719238281,95.15606689453124,-33.28410339355469
239158,-0.097930908203125,1.703094482421875,0.386688232421875,-0.2955293953418732,-3.70692253112793,-1.113815426826477,31.38839721679688,94.70999145507812,-32.885009765625
239159,0.0177459716796875,1.10382080078125,0.347412109375,-0.6895992159843445,-4.01270055770874,-0.7671800255775452,30.47001647949219,94.24346923828124,-32.23976135253906
239160,0.2254486083984375,1.155303955078125,0.1572113037109375,-0.6796597242355347,-3.561343908309937,-0.3483158946037292,29.40168762207031,93.85577392578124,-31.16082763671875
239161,0.2254486083984375,1.155303955078125,0.1572113037109375,-0.6796597242355347,-3.561343908309937,-0.3483158946037292,29.40168762207031,93.85577392578124,-31.16082763671875
239162,0.6077880859375,2.805984497070312,-1.485794067382812,0.4665898084640503,-1.175641298294067,0.5261465907096863,27.21942138671875,93.8659210205078,-28.88995361328125
239163,0.3610382080078125,2.847274780273438,-0.96063232421875,1.435043811798096,-1.194643139839172,0.2260062396526337,26.60565185546875,94.20277404785156,-28.11186218261719
239164,0.128814697265625,2.404006958007812,-0.004180908203125,1.839264273643494,-1.153339982032776,0.2623967230319977,26.5628662109375,94.1738739013672,-27.66233825683594
239165,0.128814697265625,2.404006958007812,-0.004180908203125,1.839264273643494,-1.153339982032776,0.2623967230319977,26.5628662109375,94.1738739013672,-27.66233825683594
239166,0.06304931640625,1.906784057617188,-0.14044189453125,1.298885941505432,-1.546137094497681,0.6014629602432251,26.96380615234375,93.66989135742188,-27.98928833007812
239167,0.150726318359375,1.581008911132812,-0.251068115234375,1.316989660263062,-1.808374285697937,0.6719112992286682,27.19325256347656,93.27346801757812,-28.36006164550781
239168,0.1847991943359375,1.257949829101562,-0.3435821533203125,1.691058278083801,-2.090345859527588,0.7538735270500183,27.44894409179688,93.06575012207033,-28.57339477539062
239169,0.1847991943359375,1.257949829101562,-0.3435821533203125,1.691058278083801,-2.090345859527588,0.7538735270500183,27.44894409179688,93.06575012207033,-28.57339477539062
239170,0.177398681640625,0.6234588623046875,-0.05059814453125,2.689856290817261,-1.580704927444458,0.9046033620834352,27.86091613769531,92.63331604003906,-28.87422180175781
239171,0.1187286376953125,0.3495635986328125,-0.038116455078125,2.689856290817261,-1.580704927444458,0.9046033620834352,28.01478576660156,92.54896545410156,-29.058349609375
239172,0.057525634765625,0.1375732421875,-0.0279541015625,2.615119457244873,-1.363056421279907,0.9208635687828064,28.17878723144531,92.35743713378906,-29.58393859863281
239173,0.057525634765625,0.1375732421875,-0.0279541015625,2.615119457244873,-1.363056421279907,0.9208635687828064,28.17878723144531,92.35743713378906,-29.58393859863281
239174,0.00238037109375,-0.1695709228515625,-0.0418701171875,2.041580677032471,-1.018268704414368,0.8448324799537659,28.55133056640625,91.76785278320312,-30.57501220703125
239175,-0.018157958984375,-0.2512969970703125,-0.0852813720703125,1.643068432807922,-0.7473120093345642,0.8158096075057983,28.70220947265625,91.59765625,-30.96516418457031
239176,-0.0233306884765625,-0.27410888671875,-0.138946533203125,1.008531332015991,-0.3366603255271912,0.8093189597129822,28.77139282226562,91.46061706542967,-31.51734924316406
239177,-0.0160369873046875,-0.263763427734375,-0.130126953125,1.008531332015991,-0.3366603255271912,0.8093189597129822,28.9044189453125,91.50531005859376,-32.23536682128906
239178,-0.01690673828125,-0.2510986328125,-0.0724334716796875,0.8595157861709595,-0.212162584066391,0.7893170118331909,29.12960815429688,91.39968872070312,-32.55642700195312
239179,-0.018646240234375,-0.2501373291015625,-0.057708740234375,0.7733044624328613,-0.1275672763586044,0.764132022857666,29.40144348144531,91.31500244140624,-32.69834899902344
239180,-0.0181121826171875,-0.2754364013671875,-0.1395263671875,0.7704367637634277,-0.1881917417049408,0.726413905620575,29.72193908691406,91.41558837890624,-32.86238098144531
239181,-0.0181121826171875,-0.2754364013671875,-0.1395263671875,0.7704367637634277,-0.1881917417049408,0.726413905620575,29.72193908691406,91.41558837890624,-32.86238098144531
239182,-0.0177459716796875,-0.358245849609375,-0.233612060546875,1.007696747779846,-0.8215116858482361,0.6774263978004456,30.77505493164062,91.64079284667967,-32.67378234863281
239183,-0.0193023681640625,-0.374847412109375,-0.1279296875,1.114476680755615,-0.8682994246482849,0.6107121109962463,31.39839172363281,91.75846862792967,-32.42127990722656
239184,-0.0174713134765625,-0.38946533203125,-0.04498291015625,1.054149150848389,-0.5901690125465393,0.4813746213912964,32.09417724609375,91.47549438476562,-32.072265625
239185,-0.0174713134765625,-0.38946533203125,-0.04498291015625,1.054149150848389,-0.5901690125465393,0.4813746213912964,32.09417724609375,91.47549438476562,-32.072265625
239186,-0.0094451904296875,-0.3732757568359375,-0.094512939453125,0.415509045124054,0.3287342190742493,0.1353397220373154,33.34910583496094,89.88877868652344,-31.50218200683594
239187,-0.00439453125,-0.4056243896484375,-0.1793975830078125,0.012623650021851,0.4611668288707733,0.0246169287711381,33.59405517578125,88.89833068847656,-31.63059997558594
239188,-0.0059356689453125,-0.4378204345703125,-0.139404296875,-0.3101791739463806,0.4141665399074554,-0.0270550530403852,33.42283630371094,87.98622131347656,-31.78749084472656
239189,-0.0148162841796875,-0.42950439453125,-0.0526275634765625,-0.5508820414543152,0.3789417147636414,-0.0350309535861015,33.07194519042969,87.33468627929688,-32.03652954101562
239190,-0.03564453125,-0.378997802734375,-0.0187225341796875,-0.758603036403656,0.3395961821079254,-0.0223777443170547,32.40341186523438,86.84115600585938,-32.19496154785156
239191,-0.07666015625,-0.3231048583984375,-0.01837158203125,-0.9559943675994872,0.2572355270385742,-0.0076715019531548,31.65711975097656,86.67955017089844,-32.28608703613281
239192,-0.1536407470703125,-0.2209320068359375,-0.002227783203125,-1.203908801078796,0.093768835067749,0.0213340502232313,31.08296203613281,86.73652648925781,-32.27574157714844
239193,-0.1832427978515625,0.0230865478515625,0.0281829833984375,-1.293373227119446,0.0456891916692256,0.005354018881917,30.57618713378906,86.87971496582031,-32.20167541503906
239194,-0.1175079345703125,0.1688690185546875,0.122955322265625,-1.293373227119446,0.0456891916692256,0.005354018881917,30.32467651367188,86.92926025390625,-32.07743835449219
239195,-0.0876617431640625,0.203399658203125,0.2810516357421875,-1.494996070861816,0.0734976530075073,-0.0184069704264402,30.38398742675781,87.09732055664062,-31.58428955078125
239196,-0.08563232421875,0.2628173828125,0.36871337890625,-1.822841882705688,0.0302500482648611,-0.0646990984678268,30.81709289550781,87.33229064941406,-31.08802795410156
239197,-0.08563232421875,0.2628173828125,0.36871337890625,-1.822841882705688,0.0302500482648611,-0.0646990984678268,30.81709289550781,87.33229064941406,-31.08802795410156
239198,-0.099884033203125,0.5055694580078125,0.8342132568359375,-2.735750436782837,-0.0236978717148304,-0.3340461552143097,32.36090087890625,88.59321594238281,-28.99151611328125
239199,-0.092620849609375,0.7578277587890625,1.290115356445312,-2.854760646820068,0.0330871120095253,-0.5350503921508789,32.99041748046875,90.05963134765625,-27.52180480957031
239200,-0.1952362060546875,1.319046020507812,1.756240844726562,-2.58887767791748,0.1955889463424683,-0.7860221266746521,32.93510437011719,91.94810485839844,-26.28375244140625
239201,-0.1952362060546875,1.319046020507812,1.756240844726562,-2.58887767791748,0.1955889463424683,-0.7860221266746521,32.93510437011719,91.94810485839844,-26.28375244140625
239202,-0.240570068359375,7.52264404296875,2.64703369140625,-1.391944527626038,-0.3443150222301483,0.7555087208747864,31.53919982910156,94.50540161132812,-26.24591064453125
239203,-1.993560791015625,7.908126831054688,3.19891357421875,2.893726348876953,7.051436901092529,5.679224014282227,31.32106018066406,95.28343200683594,-27.46632385253906
239204,0.554351806640625,4.643447875976562,-0.20147705078125,2.446237325668335,6.179565906524658,5.376505851745605,31.89985656738281,96.00047302246094,-28.99746704101562
239205,0.434906005859375,1.862045288085938,-1.358688354492188,-2.56473970413208,-5.095081806182861,2.49203085899353,33.95802307128906,96.288330078125,-30.26875305175781
239206,0.3899078369140625,1.077224731445312,-2.874252319335938,-2.56473970413208,-5.095081806182861,2.49203085899353,36.6240234375,96.49502563476562,-31.25486755371094
239207,0.66156005859375,0.75543212890625,-1.195877075195312,-4.363629817962646,-8.626849174499512,1.171600461006165,38.548095703125,96.9687957763672,-31.18740844726562
239208,1.017730712890625,1.152450561523438,1.114456176757812,-4.76998233795166,-2.520073890686035,0.2599143981933594,39.03099060058594,97.8036651611328,-29.91012573242188
239209,1.017730712890625,1.152450561523438,1.114456176757812,-4.76998233795166,-2.520073890686035,0.2599143981933594,39.03099060058594,97.8036651611328,-29.91012573242188
239210,1.274093627929688,1.963226318359375,-3.027328491210938,0.0711910873651504,0.7111585736274719,0.1905315965414047,37.9658203125,99.11318969726562,-24.21734619140625
239211,0.73822021484375,1.756454467773438,-0.729522705078125,2.444537878036499,-2.667016983032227,0.6046427488327026,38.15643310546875,99.02781677246094,-22.3812255859375
239212,0.2862701416015625,1.455963134765625,0.104339599609375,3.329573154449463,-2.689596891403198,0.542602002620697,38.60641479492188,98.72686767578124,-21.85171508789062
239213,0.2862701416015625,1.455963134765625,0.104339599609375,3.329573154449463,-2.689596891403198,0.542602002620697,38.60641479492188,98.72686767578124,-21.85171508789062
239214,0.0387725830078125,0.7798614501953125,-0.2158355712890625,2.276462554931641,-1.812455534934998,0.2853579819202423,38.86940002441406,98.24386596679688,-23.67413330078125
239215,-0.001007080078125,0.5997161865234375,-0.181365966796875,1.350937724113464,-1.346053004264832,0.2505621910095215,38.83177185058594,98.06629943847656,-24.99101257324219
239216,-0.001556396484375,0.480224609375,-0.17364501953125,0.7206612229347229,-1.140790820121765,0.1983200162649155,38.82545471191406,97.7783203125,-25.96035766601562
239217,-0.001556396484375,0.480224609375,-0.17364501953125,0.7206612229347229,-1.140790820121765,0.1983200162649155,38.82545471191406,97.7783203125,-25.96035766601562
239218,0.084075927734375,0.119171142578125,-0.0633544921875,0.2375244051218033,-1.062068104743958,0.1811088025569916,38.64352416992188,97.31036376953124,-26.90019226074219
239219,0.154083251953125,0.015594482421875,0.1262664794921875,0.2702621221542358,-0.6602463722229004,0.2583199739456177,38.52359008789062,97.310546875,-27.1343994140625
239220,0.2021331787109375,-0.0373687744140625,0.230255126953125,0.538421630859375,0.3574289679527283,0.4005013406276703,38.57748413085938,97.26300048828124,-27.10012817382812
239221,0.2021331787109375,-0.0373687744140625,0.230255126953125,0.538421630859375,0.3574289679527283,0.4005013406276703,38.57748413085938,97.26300048828124,-27.10012817382812
239222,0.214630126953125,-0.11236572265625,0.0396728515625,0.8922138214111328,0.2756592631340027,0.4922443032264709,38.69992065429688,97.03414916992188,-27.02946472167969
239223,0.1991119384765625,-0.1475830078125,-0.0992431640625,0.8922138214111328,0.2756592631340027,0.4922443032264709,38.83212280273438,96.94953918457033,-27.09986877441406
239224,0.17529296875,-0.157196044921875,-0.0703277587890625,1.121156454086304,-0.0914175286889076,0.4739744961261749,39.15896606445312,96.94528198242188,-27.34825134277344
239225,0.17529296875,-0.157196044921875,-0.0703277587890625,1.121156454086304,-0.0914175286889076,0.4739744961261749,39.15896606445312,96.94528198242188,-27.34825134277344
239226,0.144439697265625,-0.16485595703125,0.05096435546875,1.535972595214844,-0.5901191830635071,0.2941442728042603,39.66140747070312,96.67431640625,-27.88246154785156
239227,0.1336517333984375,-0.1782379150390625,0.021484375,1.653870463371277,-0.8407197594642639,0.1958326250314713,39.93107604980469,96.4277801513672,-28.22862243652344
239228,0.11627197265625,-0.1800384521484375,-0.0152435302734375,1.71608293056488,-1.155429244041443,0.0966320037841796,40.00015258789062,96.03240966796876,-28.60459899902344
239229,0.1001739501953125,-0.17669677734375,-0.0001983642578125,1.739786148071289,-1.416029095649719,0.0052083441987633,40.00738525390625,95.75352478027344,-29.06556701660156
239230,0.0938873291015625,-0.1772308349609375,0.041900634765625,1.694524884223938,-1.564121842384338,-0.0906132534146308,39.685791015625,94.981689453125,-29.94071960449219
239231,0.0908355712890625,-0.1847381591796875,0.065765380859375,1.559116244316101,-1.595269680023193,-0.1876279562711716,39.41229248046875,94.60646057128906,-30.4678955078125
239232,0.09271240234375,-0.1970062255859375,0.0702972412109375,1.346777319908142,-1.534681677818298,-0.2852916717529297,39.12626647949219,94.166259765625,-30.8663330078125
239233,0.09271240234375,-0.1970062255859375,0.0702972412109375,1.346777319908142,-1.534681677818298,-0.2852916717529297,39.12626647949219,94.166259765625,-30.8663330078125
239234,0.1132659912109375,-0.2990264892578125,0.0645751953125,0.5595368146896362,-0.9179577827453612,-0.5173981189727783,38.27500915527344,93.58612060546876,-31.43890380859375
239235,0.129913330078125,-0.332183837890625,-0.0156097412109375,-0.0616705529391765,-0.3045945167541504,-0.6833881735801697,37.76016235351562,93.36285400390624,-31.58036804199219
239236,0.159576416015625,-0.3197174072265625,-0.1729583740234375,-0.5118364095687866,-0.4001013338565826,-0.7978260517120361,37.36650085449219,93.18865966796876,-31.52485656738281
239237,0.159576416015625,-0.3197174072265625,-0.1729583740234375,-0.5118364095687866,-0.4001013338565826,-0.7978260517120361,37.36650085449219,93.18865966796876,-31.52485656738281
239238,0.251220703125,-0.1032562255859375,0.11700439453125,-1.100626468658447,-0.9818398356437684,-0.9541820883750916,36.54144287109375,93.03688049316406,-31.04667663574219
239239,0.2034912109375,0.1798553466796875,0.3778533935546875,-1.389617204666138,-0.7169786095619202,-1.105826258659363,36.08453369140625,93.16940307617188,-30.42282104492188
239240,0.1396636962890625,0.28411865234375,0.553497314453125,-1.638687491416931,-0.0640050843358039,-1.305443525314331,35.50611877441406,93.31472778320312,-29.71923828125
239241,0.1396636962890625,0.28411865234375,0.553497314453125,-1.638687491416931,-0.0640050843358039,-1.305443525314331,35.50611877441406,93.31472778320312,-29.71923828125
239242,0.1269378662109375,0.80133056640625,1.07318115234375,-2.32450795173645,2.097566843032837,-1.999129772186279,34.39875793457031,93.84979248046876,-28.40789794921875
239243,0.35858154296875,1.682388305664062,1.405899047851562,-3.185387134552002,3.464892148971558,-2.776019096374512,33.83827209472656,94.28416442871094,-27.93368530273438
239244,0.830718994140625,4.25537109375,1.00213623046875,-3.121705770492554,3.98877477645874,-3.590360879898071,33.0689697265625,94.89324951171876,-27.69993591308594
239245,0.830718994140625,4.25537109375,1.00213623046875,-3.121705770492554,3.98877477645874,-3.590360879898071,33.0689697265625,94.89324951171876,-27.69993591308594
239246,0.098052978515625,8.077667236328125,-0.0913543701171875,-0.2624196410179138,-3.348561525344849,-2.094361066818237,30.72726440429688,96.29443359375,-28.12007141113281
239247,-0.919281005859375,7.331588745117188,0.8428955078125,0.7636563777923584,-5.321830272674561,-3.746875762939453,29.41831970214844,96.65029907226562,-28.29177856445312
239248,-0.3470916748046875,4.032180786132812,0.4800872802734375,0.6086103320121765,-5.781087875366211,-4.725816249847412,27.93928527832031,96.13249206542967,-28.04838562011719
239249,-0.3470916748046875,4.032180786132812,0.4800872802734375,0.6086103320121765,-5.781087875366211,-4.725816249847412,27.93928527832031,96.13249206542967,-28.04838562011719
239250,0.067657470703125,0.975494384765625,-0.094146728515625,-0.7942438721656799,-7.000054359436035,-3.405644178390503,24.10591125488281,92.79461669921876,-25.23692321777344
239251,-0.9338226318359376,0.2703094482421875,-0.6308746337890625,-1.314323782920837,-0.9407440423965454,-1.366143822669983,22.07177734375,91.40657043457033,-23.52497863769531
239252,-0.5885009765625,0.5165252685546875,-3.181747436523438,0.4664838314056396,-0.7657477855682373,1.217162847518921,20.55828857421875,90.85833740234376,-22.06910705566406
239253,-0.5885009765625,0.5165252685546875,-3.181747436523438,0.4664838314056396,-0.7657477855682373,1.217162847518921,20.55828857421875,90.85833740234376,-22.06910705566406
239254,0.0817718505859375,1.697006225585938,0.0183868408203125,3.200843811035156,-0.6619910001754761,1.328445672988892,20.70295715332031,91.00489807128906,-21.47396850585938
239255,0.1107330322265625,1.490127563476562,-0.241790771484375,2.646523714065552,-0.4691230058670044,1.118780136108398,21.34684753417969,90.98716735839844,-22.09635925292969
239256,0.1034393310546875,0.906280517578125,-0.0571746826171875,0.9791883826255798,-0.9471116662025452,1.032059907913208,22.70526123046875,90.48884582519533,-23.60722351074219
239257,0.1034393310546875,0.906280517578125,-0.0571746826171875,0.9791883826255798,-0.9471116662025452,1.032059907913208,22.70526123046875,90.48884582519533,-23.60722351074219
239258,0.18048095703125,0.61126708984375,-0.0951995849609375,0.6225256323814392,-1.035331010818481,1.128373622894287,23.27680969238281,90.4091339111328,-23.94668579101562
239259,0.2893829345703125,0.325439453125,-0.258453369140625,0.5797643065452576,-1.350815534591675,1.354256510734558,23.704833984375,90.587158203125,-23.80824279785156
239260,0.3236236572265625,0.115570068359375,-0.234954833984375,0.8874739408493042,-1.61973512172699,1.586280465126038,24.02810668945312,90.85546875,-23.48771667480469
239261,0.3236236572265625,0.115570068359375,-0.234954833984375,0.8874739408493042,-1.61973512172699,1.586280465126038,24.02810668945312,90.85546875,-23.48771667480469
239262,0.1955413818359375,-0.09912109375,0.009765625,1.749065637588501,-0.7735897302627563,1.643311738967896,24.84921264648438,91.59114074707033,-23.03602600097656
239263,0.119598388671875,-0.1984100341796875,-0.0706024169921875,1.869694352149963,-0.3279009163379669,1.566261529922485,25.25137329101562,91.81832885742188,-23.09857177734375
239264,0.047210693359375,-0.2471771240234375,-0.1172943115234375,1.718418478965759,-0.1533378958702087,1.494530320167542,25.76582336425781,92.07968139648438,-23.55239868164062
239265,-0.0060882568359375,-0.254791259765625,-0.04345703125,1.366550445556641,-0.0579410642385482,1.454194903373718,26.26190185546875,92.29891967773438,-24.26876831054688
239266,-0.041656494140625,-0.2427215576171875,0.0645751953125,0.9670649170875548,0.1386433690786362,1.428757190704346,26.79295349121094,92.4694366455078,-24.80690002441406
239267,-0.065216064453125,-0.2205963134765625,0.0828704833984375,0.6381770372390747,0.365741491317749,1.40586519241333,27.26622009277344,92.89105224609376,-25.32698059082031
239268,-0.0742034912109375,-0.2061004638671875,-0.021453857421875,0.4409206807613373,0.4133569598197937,1.372658729553223,27.90718078613281,93.2012939453125,-25.56658935546875
239269,-0.0742034912109375,-0.2061004638671875,-0.021453857421875,0.4409206807613373,0.4133569598197937,1.372658729553223,27.90718078613281,93.2012939453125,-25.56658935546875
239270,-0.081146240234375,-0.20086669921875,-0.1300201416015625,0.4091686010360718,-0.1581257283687592,1.288751006126404,29.33865356445312,93.74015808105467,-25.80522155761719
239271,-0.0778961181640625,-0.1833953857421875,-0.0760498046875,0.4338707625865936,-0.3251240253448486,1.193225026130676,30.08433532714844,93.9491729736328,-25.92189025878906
239272,-0.0744171142578125,-0.1654815673828125,-0.0206756591796875,0.3095943331718445,-0.2011101990938187,0.8424129486083984,30.70217895507812,94.06777954101562,-25.81623840332031
239273,-0.0744171142578125,-0.1654815673828125,-0.0206756591796875,0.3095943331718445,-0.2011101990938187,0.8424129486083984,30.70217895507812,94.06777954101562,-25.81623840332031
239274,-0.068023681640625,-0.1392059326171875,0.0539703369140625,0.1358356028795242,0.019227223470807,0.616043210029602,32.00241088867188,94.56834411621094,-25.45733642578125
239275,-0.0647430419921875,-0.131439208984375,0.0417633056640625,-0.0573700815439224,0.2454811334609985,0.3895565569400787,32.70335388183594,94.592529296875,-25.02310180664062
239276,-0.0591888427734375,-0.1354522705078125,0.01092529296875,-0.2661837339401245,0.4151484668254852,0.182440385222435,33.20866394042969,94.65275573730467,-24.9921875
239277,-0.059539794921875,-0.145538330078125,-0.0240936279296875,-0.4695464670658112,0.5256193280220032,7.323692989302799e-05,33.75375366210938,94.74330139160156,-24.91064453125
239278,-0.06658935546875,-0.1595458984375,-0.0647125244140625,-0.6507974863052368,0.5801416635513306,-0.1539674550294876,34.21754455566406,94.62590026855467,-24.50360107421875
239279,-0.0837249755859375,-0.178802490234375,-0.1280364990234375,-0.838930070400238,0.5568880438804626,-0.2791253924369812,34.55696105957031,94.34483337402344,-24.06077575683594
239280,-0.1517486572265625,-0.15447998046875,-0.1991119384765625,-1.362167477607727,-0.0171126741915941,-0.5385252833366394,34.94209289550781,93.81729125976562,-22.95182800292969
239281,-0.1517486572265625,-0.15447998046875,-0.1991119384765625,-1.362167477607727,-0.0171126741915941,-0.5385252833366394,34.94209289550781,93.81729125976562,-22.95182800292969
239282,-0.188079833984375,-0.04150390625,-0.16046142578125,-1.362167477607727,-0.0171126741915941,-0.5385252833366394,34.98648071289062,93.57481384277344,-22.23077392578125
239283,-0.1479949951171875,0.10791015625,-0.116943359375,-1.388547658920288,-0.0627376809716224,-0.525490939617157,34.94132995605469,93.52243041992188,-21.54791259765625
239284,-0.052215576171875,0.161285400390625,0.1341552734375,-1.911025285720825,0.1124996468424797,-0.5229950547218323,34.38165283203125,93.70697021484376,-20.31965637207031
239285,-0.052215576171875,0.161285400390625,0.1341552734375,-1.911025285720825,0.1124996468424797,-0.5229950547218323,34.38165283203125,93.70697021484376,-20.31965637207031
239286,-0.0321197509765625,0.15216064453125,0.2996063232421875,-1.911025285720825,0.1124996468424797,-0.5229950547218323,33.96717834472656,94.1271514892578,-19.68867492675781
239287,-0.0314178466796875,0.249786376953125,0.500640869140625,-2.238974332809448,0.0401474200189113,-0.561797559261322,33.33953857421875,94.701904296875,-19.15138244628906
239288,-0.0396270751953125,0.6596527099609375,1.041107177734375,-2.420668363571167,0.530788779258728,-0.96803879737854,32.56297302246094,95.44888305664062,-18.97090148925781
239289,-0.0337982177734375,1.8011474609375,1.619354248046875,-2.420668363571167,0.530788779258728,-0.96803879737854,31.65318298339844,95.97930908203124,-19.11865234375
239290,0.0348052978515625,5.546234130859375,2.154006958007812,-1.92065954208374,1.383650660514832,0.0016274576773867,30.99334716796875,96.44065856933594,-19.51483154296875
239291,-0.254974365234375,7.820053100585938,2.6636962890625,-1.652664303779602,1.143815159797668,2.396529912948608,30.66213989257812,96.90794372558594,-20.45687866210938
239292,-0.837310791015625,7.971939086914062,2.687149047851562,-0.8736787438392639,1.555884718894958,1.393878579139709,31.09414672851562,97.29444885253906,-21.04483032226562
239293,-0.837310791015625,7.971939086914062,2.687149047851562,-0.8736787438392639,1.555884718894958,1.393878579139709,31.09414672851562,97.29444885253906,-21.04483032226562
239294,-0.032257080078125,2.62139892578125,0.267791748046875,-1.088346600532532,0.1780637353658676,-0.76913982629776,32.65318298339844,97.73257446289062,-20.43156433105469
239295,-0.1779022216796875,1.533218383789062,-0.025848388671875,-1.65710461139679,-0.670218825340271,-1.128250360488892,32.59178161621094,97.57687377929688,-19.89205932617188
239296,0.01556396484375,0.974365234375,-0.500640869140625,-2.223583936691284,-0.8695090413093567,-1.388439059257507,32.01277160644531,97.41348266601562,-19.17106628417969
239297,0.01556396484375,0.974365234375,-0.500640869140625,-2.223583936691284,-0.8695090413093567,-1.388439059257507,32.01277160644531,97.41348266601562,-19.17106628417969
239298,0.83056640625,1.220413208007812,-2.107452392578125,-2.927389621734619,-1.018251657485962,-0.0539266131818294,30.2586669921875,96.91778564453124,-16.59613037109375
239299,0.4985198974609375,1.674240112304688,-1.06365966796875,-0.0638905689120292,-0.4985956847667694,0.8759704232215881,29.54287719726562,96.66780090332033,-14.69345092773438
239300,0.2489776611328125,1.74102783203125,0.0725250244140625,1.696818947792053,-0.5611158013343811,1.020656228065491,29.53602600097656,96.42019653320312,-13.31260681152344
239301,0.2489776611328125,1.74102783203125,0.0725250244140625,1.696818947792053,-0.5611158013343811,1.020656228065491,29.53602600097656,96.42019653320312,-13.31260681152344
239302,0.304107666015625,1.541152954101562,0.0995635986328125,1.584964275360107,0.1376385539770126,1.003696084022522,30.3621826171875,96.46023559570312,-13.24893188476562
239303,0.3783111572265625,1.356781005859375,-0.2422027587890625,0.8398084044456482,0.0312548577785491,1.058570265769958,30.87834167480469,96.59181213378906,-13.92247009277344
239304,0.5183563232421875,1.00732421875,-0.677581787109375,0.2818274199962616,-1.600134015083313,0.9504488706588744,31.77787780761719,96.75083923339844,-15.20838928222656
239305,0.5183563232421875,1.00732421875,-0.677581787109375,0.2818274199962616,-1.600134015083313,0.9504488706588744,31.77787780761719,96.75083923339844,-15.20838928222656
239306,0.5249176025390625,0.79852294921875,-0.54705810546875,0.8081620335578918,-1.840666890144348,0.8904598355293274,32.35130310058594,96.84669494628906,-15.26704406738281
239307,0.4777374267578125,0.5952301025390625,-0.5154266357421875,1.435311436653137,-1.770411968231201,0.8797624707221985,32.80598449707031,96.94676208496094,-14.99652099609375
239308,0.3633880615234375,0.4591522216796875,-0.4803619384765625,1.763740420341492,-1.692091345787048,0.8181822299957275,33.21249389648438,97.1309814453125,-15.15678405761719
239309,0.3633880615234375,0.4591522216796875,-0.4803619384765625,1.763740420341492,-1.692091345787048,0.8181822299957275,33.21249389648438,97.1309814453125,-15.15678405761719
239310,0.2609710693359375,0.3656005859375,-0.3957366943359375,1.685541749000549,-1.556922793388367,0.6654762625694275,33.545654296875,97.28189086914062,-15.48812866210938
239311,0.197998046875,0.2657928466796875,-0.0081024169921875,0.9383293986320496,-1.036405086517334,0.4633061289787292,34.29409790039062,97.40724182128906,-16.26986694335938
239312,0.1897430419921875,0.3086090087890625,0.18438720703125,0.6425065398216248,-0.5523646473884583,0.4402815103530884,34.46710205078125,97.60044860839844,-16.64152526855469
239313,0.1897430419921875,0.3086090087890625,0.18438720703125,0.6425065398216248,-0.5523646473884583,0.4402815103530884,34.46710205078125,97.60044860839844,-16.64152526855469
239314,0.10626220703125,0.335235595703125,0.1404876708984375,0.6312791705131531,-0.5413694977760315,0.3488573133945465,35.02784729003906,97.66799926757812,-17.09396362304688
239315,0.0460662841796875,0.2746124267578125,0.01959228515625,0.6371642351150513,-0.7291767001152039,0.2405585497617722,35.31275939941406,97.74363708496094,-17.15086364746094
239316,0.0356292724609375,0.1941375732421875,-0.012939453125,0.6163668036460876,-0.9747899174690248,0.172708123922348,35.52116394042969,97.79278564453124,-17.41770935058594
239317,0.0356292724609375,0.1941375732421875,-0.012939453125,0.6163668036460876,-0.9747899174690248,0.172708123922348,35.52116394042969,97.79278564453124,-17.41770935058594
239318,0.0762176513671875,0.0506744384765625,0.0650177001953125,0.3472860455513,-0.9951343536376952,-0.025025725364685,35.77879333496094,97.93666076660156,-17.75688171386719
239319,0.0822906494140625,-0.0247955322265625,0.0348663330078125,0.3472860455513,-0.9951343536376952,-0.025025725364685,35.88067626953125,97.91656494140624,-17.76300048828125
239320,0.0805816650390625,-0.0928802490234375,0.0388641357421875,0.2892301976680756,-0.987314224243164,-0.0823515951633453,35.96632385253906,97.81202697753906,-17.76454162597656
239321,0.0805816650390625,-0.0928802490234375,0.0388641357421875,0.2892301976680756,-0.987314224243164,-0.0823515951633453,35.96632385253906,97.81202697753906,-17.76454162597656
239322,0.0516204833984375,-0.1427459716796875,0.09930419921875,0.2871170043945312,-0.7709334492683411,-0.1661729961633682,36.02682495117188,97.8944854736328,-17.59474182128906
239323,0.043731689453125,-0.1263580322265625,0.10113525390625,0.3062334358692169,-0.549992561340332,-0.211248055100441,35.99032592773438,97.71588134765624,-17.34152221679688
239324,0.0352783203125,-0.108306884765625,0.0733795166015625,0.2521568834781647,-0.2986058592796326,-0.2902563214302063,35.88426208496094,97.6524658203125,-17.30447387695312
239325,0.0352783203125,-0.108306884765625,0.0733795166015625,0.2521568834781647,-0.2986058592796326,-0.2902563214302063,35.88426208496094,97.6524658203125,-17.30447387695312
239326,0.02410888671875,-0.0835113525390625,0.0055389404296875,0.1537671983242035,-0.351277083158493,-0.3388307988643646,35.64521789550781,97.7806396484375,-17.03787231445312
239327,0.0174102783203125,-0.0814666748046875,-0.005615234375,-0.0053367083892226,-0.5177003741264343,-0.3994824290275574,35.60675048828125,97.77395629882812,-16.86465454101562
239328,0.0069732666015625,-0.08245849609375,0.0010833740234375,-0.5051084160804749,-1.068210124969482,-0.5834386944770813,35.5335693359375,97.78384399414062,-16.58348083496094
239329,-0.0159912109375,-0.0804595947265625,0.025421142578125,-0.5051084160804749,-1.068210124969482,-0.5834386944770813,35.25723266601562,97.74908447265624,-16.28724670410156
239330,-0.06695556640625,-0.0446929931640625,0.0848388671875,-0.8427911400794983,-1.312021970748901,-0.7173804640769958,35.06695556640625,97.72885131835938,-15.92970275878906
239331,-0.1137847900390625,0.0860443115234375,0.196929931640625,-1.180534839630127,-1.296215653419495,-0.8794317245483398,34.9053955078125,97.69073486328124,-15.32179260253906
239332,-0.1251373291015625,0.221588134765625,0.324249267578125,-2.031526327133179,-0.3259725272655487,-1.283662557601929,34.60284423828125,97.67904663085938,-14.70809936523438
239333,-0.1708526611328125,0.463348388671875,0.565216064453125,-2.031526327133179,-0.3259725272655487,-1.283662557601929,34.16830444335938,97.72386169433594,-13.88487243652344
239334,-0.2258148193359375,0.6485443115234375,0.877685546875,-2.456565856933594,0.5517755746841431,-1.646470785140991,33.67807006835938,97.63990783691406,-12.95278930664062
239335,-0.4191131591796875,1.907867431640625,1.111099243164062,-2.243594646453857,1.640660047531128,-2.260312080383301,33.02778625488281,97.64447021484376,-12.40660095214844
239336,-0.0406036376953125,4.726837158203125,1.235763549804688,-1.205440402030945,2.454083204269409,-1.45811665058136,32.23724365234375,97.65315246582033,-11.9774169921875
239337,0.1161346435546875,7.09857177734375,0.9409027099609376,0.6769552826881409,2.68612813949585,2.395906925201416,31.4688720703125,97.44798278808594,-11.99697875976562
239338,-0.5149688720703125,6.582015991210938,0.380615234375,1.496889114379883,0.1221770420670509,2.223620891571045,31.19032287597656,97.56077575683594,-12.57984924316406
239339,-0.19219970703125,3.884323120117188,0.497314453125,1.096968531608582,-2.516385793685913,0.1881163716316223,31.87985229492188,97.96144104003906,-13.40605163574219
239340,0.1999969482421875,2.134658813476562,0.565673828125,0.4109718203544617,-3.5694260597229,-0.3210656344890594,32.66651916503906,98.26983642578124,-13.85775756835938
239341,0.1999969482421875,2.134658813476562,0.565673828125,0.4109718203544617,-3.5694260597229,-0.3210656344890594,32.66651916503906,98.26983642578124,-13.85775756835938
239342,0.08074951171875,1.0128173828125,0.3584747314453125,-1.40306568145752,-4.008076190948486,-0.495412677526474,32.74858093261719,98.23367309570312,-13.40196228027344
239343,0.26837158203125,1.436614990234375,0.2322235107421875,-2.026447772979736,-3.098448514938354,-0.8019731640815735,32.58712768554688,97.77146911621094,-12.33235168457031
239344,0.8552398681640625,2.093154907226562,-0.5261688232421875,-1.92698073387146,-0.8377249836921692,0.783713698387146,32.40304565429688,97.25804138183594,-10.88356018066406
239345,1.932907104492188,2.610671997070312,-2.770233154296875,-1.92698073387146,-0.8377249836921692,0.783713698387146,32.21232604980469,96.74569702148438,-9.526153564453123
239346,1.504638671875,2.292724609375,-1.756072998046875,1.043328285217285,-2.130087614059448,1.35958206653595,31.95907592773438,96.44313049316406,-8.03900146484375
239347,0.8485107421875,1.810791015625,0.214630126953125,2.822060108184814,-1.52336323261261,1.27101731300354,32.10072326660156,96.30084228515624,-6.93707275390625
239348,0.6352691650390625,1.59228515625,0.1826324462890625,3.082340717315674,-0.7598333954811096,1.149962306022644,32.73983764648438,96.43386840820312,-6.54901123046875
239349,0.444854736328125,1.492401123046875,-0.143798828125,2.443789720535278,-0.9041817784309388,0.9952573776245116,33.565673828125,96.7407684326172,-6.998703002929688
239350,0.3292083740234375,1.282791137695312,-0.0935516357421875,1.656641721725464,-1.34802770614624,0.8988195061683655,34.33842468261719,96.96450805664062,-8.005081176757812
239351,0.2917633056640625,1.047882080078125,0.0941009521484375,1.210638403892517,-1.491878867149353,0.9158528447151184,35.06629943847656,97.01939392089844,-8.961227416992188
239352,0.2791595458984375,0.8065948486328125,0.0894317626953125,1.085294842720032,-1.607375144958496,0.9424639344215392,35.67213439941406,97.20352172851562,-9.791793823242188
239353,0.2791595458984375,0.8065948486328125,0.0894317626953125,1.085294842720032,-1.607375144958496,0.9424639344215392,35.67213439941406,97.20352172851562,-9.791793823242188
239354,0.1981201171875,0.2456207275390625,-0.066162109375,1.294226288795471,-2.24281120300293,0.9895694255828856,36.83122253417969,97.33070373535156,-10.33287048339844
239355,0.12713623046875,0.0317535400390625,-0.0537567138671875,1.473488688468933,-2.424454212188721,0.9956536293029784,37.44282531738281,97.46615600585938,-10.50027465820312
239356,0.0310211181640625,-0.110595703125,-0.0251922607421875,1.617005348205566,-2.318755149841309,0.9547690749168396,38.03741455078125,97.59725952148438,-10.77603149414062
239357,0.0310211181640625,-0.110595703125,-0.0251922607421875,1.617005348205566,-2.318755149841309,0.9547690749168396,38.03741455078125,97.59725952148438,-10.77603149414062
239358,-0.1553192138671875,-0.27911376953125,-0.0549468994140625,1.687283277511597,-1.963742017745972,0.7258298993110657,38.989990234375,98.04595947265624,-11.35647583007812
239359,-0.2136383056640625,-0.2339935302734375,0.24853515625,1.600810170173645,-1.356240630149841,0.5118870139122009,39.5020751953125,98.28988647460938,-11.85861206054688
239360,-0.2772674560546875,-0.16632080078125,0.4533538818359375,1.23108696937561,0.6091208457946777,-0.1699408292770386,39.83135986328125,98.48948669433594,-12.36268615722656
239361,-0.31231689453125,-0.113861083984375,0.3995361328125,1.23108696937561,0.6091208457946777,-0.1699408292770386,40.08610534667969,98.7537078857422,-12.97650146484375
239362,-0.3076934814453125,-0.101348876953125,0.2319183349609375,0.973776876926422,1.01636004447937,-0.5384647846221924,40.2928466796875,98.98196411132812,-13.63243103027344
239363,-0.294097900390625,-0.1017913818359375,0.0869140625,0.7320337295532227,0.9702447056770324,-0.8576446771621704,40.37773132324219,99.0356903076172,-14.13520812988281
239364,-0.264617919921875,-0.11822509765625,0.0408782958984375,0.5731338262557983,0.7919314503669739,-1.109344244003296,40.3502197265625,99.0443115234375,-14.72021484375
239365,-0.264617919921875,-0.11822509765625,0.0408782958984375,0.5731338262557983,0.7919314503669739,-1.109344244003296,40.3502197265625,99.0443115234375,-14.72021484375
239366,-0.1693267822265625,-0.1567230224609375,0.0964202880859375,0.4643476903438568,0.6780285835266113,-1.389009952545166,39.87950134277344,99.00978088378906,-15.51809692382812
239367,-0.133636474609375,-0.17132568359375,0.08941650390625,0.4274320304393768,0.6753230690956116,-1.444459199905396,39.47627258300781,99.0499267578125,-15.57859802246094
239368,-0.1042938232421875,-0.1871795654296875,0.0777740478515625,0.2278107851743698,0.5347052216529846,-1.449788689613342,39.18800354003906,98.89674377441406,-15.6541748046875
239369,-0.1042938232421875,-0.1871795654296875,0.0777740478515625,0.2278107851743698,0.5347052216529846,-1.449788689613342,39.18800354003906,98.89674377441406,-15.6541748046875
239370,-0.05743408203125,-0.218780517578125,0.06951904296875,-0.2451775372028351,0.2153578549623489,-1.335326790809631,38.26544189453125,98.2452392578125,-15.64999389648438
239371,-0.05743408203125,-0.218780517578125,0.06951904296875,-0.2451775372028351,0.2153578549623489,-1.335326790809631,38.26544189453125,98.2452392578125,-15.64999389648438
239372,-0.06402587890625,-0.2672271728515625,0.0838775634765625,-0.5563141107559204,0.0648551657795906,-1.219276666641235,37.4423828125,97.42767333984376,-15.09559631347656
239373,-0.06402587890625,-0.2672271728515625,0.0838775634765625,-0.5563141107559204,0.0648551657795906,-1.219276666641235,37.4423828125,97.42767333984376,-15.09559631347656
239374,-0.0935516357421875,-0.314697265625,0.08453369140625,-1.347049474716187,-0.2392157763242722,-0.9136208295822144,36.52565002441406,96.50782775878906,-13.9644775390625
239375,-0.097808837890625,-0.3010101318359375,0.073455810546875,-1.760804891586304,-0.318670392036438,-0.7736895680427551,36.08807373046875,96.09075927734376,-13.19221496582031
239376,-0.0587310791015625,-0.1771697998046875,0.082611083984375,-2.149977684020996,-0.2045070677995682,-0.6968344449996948,35.70475769042969,95.82640075683594,-12.51254272460938
239377,-0.0587310791015625,-0.1771697998046875,0.082611083984375,-2.149977684020996,-0.2045070677995682,-0.6968344449996948,35.70475769042969,95.82640075683594,-12.51254272460938
239378,0.0048370361328125,0.3406829833984375,-0.816131591796875,-1.930390119552612,-0.5865974426269531,-0.6078779697418213,34.93429565429688,95.56796264648438,-10.71328735351562
239379,-0.033111572265625,0.3818511962890625,-0.2071380615234375,-1.82485020160675,0.0303800106048584,-0.5915570259094238,34.42288208007812,95.78352355957033,-9.734237670898438
239380,-0.0460662841796875,0.296356201171875,0.491668701171875,-2.170088768005371,0.5112472772598267,-0.627692699432373,33.82557678222656,96.24464416503906,-9.180404663085938
239381,-0.0224761962890625,0.4833221435546875,0.565673828125,-2.750180721282959,-0.0977284237742424,-0.961764931678772,32.94871520996094,96.595947265625,-9.038650512695312
239382,-0.06011962890625,1.487380981445312,0.8577728271484375,-2.750180721282959,-0.0977284237742424,-0.961764931678772,31.98442077636719,96.55844116210938,-8.982666015625
239383,-0.1328887939453125,5.349884033203125,1.067947387695312,-2.330368518829346,-0.5372117757797241,-1.143134713172913,31.13600158691406,96.31161499023438,-8.765640258789062
239384,-0.5620574951171875,8.178573608398438,0.997589111328125,-1.526001691818237,-1.491641879081726,0.7287929058074951,30.50860595703125,96.16552734375,-8.646682739257812
239385,-0.5620574951171875,8.178573608398438,0.997589111328125,-1.526001691818237,-1.491641879081726,0.7287929058074951,30.50860595703125,96.16552734375,-8.646682739257812
239386,-0.2882080078125,5.134475708007812,0.1673126220703125,-0.0390693731606006,-0.4948403537273407,0.0516725145280361,30.24327087402344,96.7483367919922,-9.30938720703125
239387,0.1718902587890625,1.743453979492188,-1.064971923828125,0.3910300731658936,-1.104282140731812,1.027852058410645,30.61117553710938,96.70787048339844,-8.794342041015625
239388,0.1866455078125,0.8032379150390625,-0.79931640625,1.285321712493896,-1.063684582710266,1.230610013008118,30.76838684082031,96.4394073486328,-7.909347534179688
239389,0.1866455078125,0.8032379150390625,-0.79931640625,1.285321712493896,-1.063684582710266,1.230610013008118,30.76838684082031,96.4394073486328,-7.909347534179688
239390,0.357177734375,0.775390625,-1.17449951171875,1.378815174102783,0.2134510278701782,0.8283280730247498,31.1239013671875,96.62037658691406,-6.892822265625
239391,0.3060455322265625,1.350784301757812,-0.6709136962890625,0.789909839630127,-1.101918339729309,0.4943165183067322,31.58766174316406,96.83143615722656,-7.047286987304688
239392,0.25311279296875,1.53411865234375,-0.1673431396484375,0.1697171330451965,-0.8911850452423096,0.5167331695556641,32.06396484375,96.85740661621094,-7.643142700195312
239393,0.25311279296875,1.53411865234375,-0.1673431396484375,0.1697171330451965,-0.8911850452423096,0.5167331695556641,32.06396484375,96.85740661621094,-7.643142700195312
239394,0.31781005859375,1.351165771484375,-0.4574432373046875,0.4653682112693787,-0.8165193200111389,0.6834313273429871,33.20957946777344,96.64495849609376,-8.110748291015625
239395,0.3302154541015625,1.289596557617188,-0.513702392578125,0.9541805386543274,-0.9733185172080994,0.7844154238700867,33.62405395507812,96.84376525878906,-8.1507568359375
239396,0.3054962158203125,1.24835205078125,-0.384674072265625,1.286720871925354,-0.9977232217788696,0.7504478693008423,34.0303955078125,96.93898010253906,-8.299285888671875
239397,0.3054962158203125,1.24835205078125,-0.384674072265625,1.286720871925354,-0.9977232217788696,0.7504478693008423,34.0303955078125,96.93898010253906,-8.299285888671875
239398,0.19342041015625,0.979583740234375,-0.294921875,0.9767561554908752,-1.034818649291992,0.4362185895442963,34.80801391601562,97.27375793457033,-8.995819091796875
239399,0.14764404296875,0.80511474609375,-0.2819976806640625,0.9767561554908752,-1.034818649291992,0.4362185895442963,35.22598266601562,97.4104461669922,-9.424453735351562
239400,0.1131134033203125,0.63238525390625,-0.296783447265625,0.8575687408447266,-1.113314032554626,0.3790272176265717,35.51968383789062,97.51348876953124,-9.906661987304688
239401,0.1131134033203125,0.63238525390625,-0.296783447265625,0.8575687408447266,-1.113314032554626,0.3790272176265717,35.51968383789062,97.51348876953124,-9.906661987304688
239402,0.044830322265625,0.4127349853515625,-0.1517791748046875,0.6647353768348694,-1.121154069900513,0.2560845017433167,36.09330749511719,97.74015808105467,-10.22691345214844
239403,0.0418243408203125,0.3472137451171875,0.1382293701171875,0.5847238898277283,-0.6947295069694519,0.2018345892429352,36.26222229003906,97.8083953857422,-10.40657043457031
239404,0.0455474853515625,0.3004608154296875,0.3558807373046875,0.5579700469970703,-0.0315219722688198,0.1679173707962036,36.46676635742188,97.83642578125,-10.58375549316406
239405,0.0455474853515625,0.3004608154296875,0.3558807373046875,0.5579700469970703,-0.0315219722688198,0.1679173707962036,36.46676635742188,97.83642578125,-10.58375549316406
239406,0.029327392578125,0.11810302734375,0.185882568359375,0.5153877139091492,0.8670392036437988,0.1100822985172272,36.80194091796875,97.90126037597656,-10.75338745117188
239407,0.0181121826171875,-0.0099334716796875,-0.025634765625,0.5201204419136047,0.5885261297225952,0.1107515469193459,36.99317932128906,97.873291015625,-10.9595947265625
239408,0.0068359375,-0.100372314453125,-0.118988037109375,0.6187815070152283,0.000176034940523,0.1117393150925636,37.15757751464844,97.8267822265625,-11.09814453125
239409,0.0068359375,-0.100372314453125,-0.118988037109375,0.6187815070152283,0.000176034940523,0.1117393150925636,37.15757751464844,97.8267822265625,-11.09814453125
239410,-0.00250244140625,-0.12750244140625,0.02288818359375,0.8088395595550537,-0.7581992745399475,0.08333270996809,37.4078369140625,97.95619201660156,-11.58749389648438
239411,0.0050048828125,-0.1048736572265625,0.0914306640625,0.8015278577804565,-0.7422054409980774,0.0413913801312446,37.4505615234375,97.90206909179688,-11.50042724609375
239412,0.007781982421875,-0.081451416015625,0.098663330078125,0.7292717695236206,-0.612089991569519,-0.0194466691464185,37.66513061523438,98.01373291015624,-11.72402954101562
239413,0.0092620849609375,-0.0746307373046875,0.052734375,0.6295060515403748,-0.539456307888031,-0.0886638239026069,37.68196105957031,98.14674377441406,-11.83027648925781
239414,0.0174407958984375,-0.08392333984375,0.0315399169921875,0.5065662860870361,-0.5439175963401794,-0.1562095731496811,37.72706604003906,98.22508239746094,-11.886962890625
239415,0.0264739990234375,-0.09210205078125,0.0310821533203125,0.3568678498268127,-0.54259192943573,-0.2108099758625031,37.796142578125,98.23274230957033,-11.72781372070312
239416,0.0325469970703125,-0.098480224609375,0.02154541015625,0.1812504827976227,-0.5053321719169617,-0.2625346779823303,37.82485961914062,98.12458801269533,-11.51612854003906
239417,0.0325469970703125,-0.098480224609375,0.02154541015625,0.1812504827976227,-0.5053321719169617,-0.2625346779823303,37.82485961914062,98.12458801269533,-11.51612854003906
239418,0.0689697265625,-0.152587890625,-0.15460205078125,-0.1703616082668304,-0.6385996341705322,-0.317218691110611,37.92947387695312,97.8599853515625,-10.77113342285156
239419,0.0952911376953125,-0.1833953857421875,-0.288848876953125,-0.2792529463768005,-1.129574179649353,-0.3108808994293213,37.9534912109375,97.69288635253906,-10.36279296875
239420,0.1174468994140625,-0.1859893798828125,-0.2537994384765625,-0.3617009520530701,-1.692223429679871,-0.2984766960144043,37.8272705078125,97.4619140625,-9.831451416015623
239421,0.1361846923828125,-0.1427154541015625,-0.07293701171875,-0.5008271336555481,-1.975337982177734,-0.3139352798461914,37.7978515625,97.17512512207033,-9.274932861328123
239422,0.120086669921875,0.0590057373046875,0.2064056396484375,-0.7558935284614563,-1.649644494056702,-0.4506819546222687,37.617919921875,97.07536315917967,-8.742538452148438
239423,0.0194091796875,0.2148895263671875,0.484405517578125,-1.003332853317261,-0.5193470120429993,-0.6106431484222412,37.44110107421875,96.8879852294922,-8.173904418945312
239424,-0.026824951171875,0.2445831298828125,0.5944671630859375,-1.342393517494202,0.8006919026374817,-0.7490350604057312,37.23306274414062,97.06460571289062,-7.75006103515625
239425,-0.044525146484375,0.35931396484375,0.682708740234375,-1.909234046936035,1.665569424629211,-0.9622189998626708,36.93452453613281,97.19883728027344,-7.1767578125
239426,-0.050079345703125,0.7667694091796875,0.90728759765625,-2.592639207839966,2.457701206207275,-1.339719176292419,36.28935241699219,97.45614624023438,-6.737396240234375
239427,-0.0876007080078125,1.560653686523438,0.9126739501953124,-3.084512948989868,2.608243942260742,-1.938377022743225,35.38343811035156,97.63404846191406,-6.589508056640625
239428,-0.2533111572265625,5.260421752929688,0.8821563720703125,-2.529424428939819,1.869070887565613,-2.269912242889404,34.39457702636719,97.63943481445312,-6.837692260742188
239429,-0.624298095703125,7.859130859375,0.74456787109375,-2.081233978271484,-1.026384711265564,-0.1158927828073502,33.64306640625,97.5819091796875,-7.37286376953125
239430,-1.646469116210938,7.961639404296875,1.397109985351562,-0.8243005275726318,-2.429477453231812,0.7109516263008118,33.47605895996094,97.44444274902344,-7.766708374023438
239431,-1.121871948242188,5.886703491210938,0.6704254150390625,0.1943561583757401,-2.570998668670654,-0.7164055109024048,33.84347534179688,97.30622863769533,-7.432891845703125
239432,-0.0465545654296875,2.849884033203125,-0.1946868896484375,-0.2347025275230408,-3.304191112518311,-0.8382589817047119,34.14201354980469,96.97659301757812,-6.44378662109375
239433,-0.0465545654296875,2.849884033203125,-0.1946868896484375,-0.2347025275230408,-3.304191112518311,-0.8382589817047119,34.14201354980469,96.97659301757812,-6.44378662109375
239434,0.8019256591796875,0.863525390625,-1.323150634765625,-1.034608721733093,-3.715909242630005,0.3321782052516937,33.50538635253906,96.50613403320312,-4.506210327148438
239435,0.831512451171875,1.068984985351562,-0.9763031005859376,0.8992994427680969,-1.416020274162292,0.6123510003089905,33.41848754882812,96.47967529296876,-3.121490478515625
239436,0.52593994140625,1.504135131835938,-0.5077056884765625,2.666306972503662,-1.119106650352478,0.6994091868400574,33.72941589355469,96.45687866210938,-2.291946411132812
239437,0.52593994140625,1.504135131835938,-0.5077056884765625,2.666306972503662,-1.119106650352478,0.6994091868400574,33.72941589355469,96.45687866210938,-2.291946411132812
239438,0.210479736328125,1.4864501953125,-0.3038482666015625,2.215216159820557,-1.38139545917511,0.6412420272827148,34.76438903808594,96.7091064453125,-3.152984619140625
239439,0.084716796875,1.229293823242188,-0.2379608154296875,1.318178653717041,-1.396573424339294,0.6478312611579895,35.28927612304688,96.94390869140624,-4.169876098632812
239440,0.175384521484375,0.8171844482421875,-0.5567626953125,1.063367486000061,-1.505492925643921,0.836842954158783,36.35173034667969,97.10836791992188,-5.18023681640625
239441,0.175384521484375,0.8171844482421875,-0.5567626953125,1.063367486000061,-1.505492925643921,0.836842954158783,36.35173034667969,97.10836791992188,-5.18023681640625
239442,0.21533203125,0.6030426025390625,-0.6459503173828125,1.538142800331116,-1.923060297966003,0.9770030379295348,36.79869079589844,97.36050415039062,-5.471588134765625
239443,0.2039947509765625,0.46551513671875,-0.3740234375,2.031837701797485,-1.699927091598511,1.01888120174408,37.20610046386719,97.52326965332033,-5.768051147460938
239444,0.189727783203125,0.3323516845703125,-0.159393310546875,2.257118940353394,-0.970650315284729,0.9892213344573976,37.75601196289062,97.81622314453124,-6.129409790039062
239445,0.18035888671875,0.1495819091796875,-0.1447906494140625,2.178208827972412,-0.399105042219162,0.9901180267333984,38.243408203125,98.09815979003906,-6.767990112304688
239446,0.1630859375,-0.037384033203125,-0.2085113525390625,1.901623725891113,-0.2673534154891968,1.041980385780334,38.76875305175781,98.38662719726562,-7.53167724609375
239447,0.1373443603515625,-0.1776123046875,-0.2285919189453125,1.543045163154602,-0.4183349311351776,1.086178779602051,39.23587036132812,98.60147094726562,-8.1383056640625
239448,0.0909576416015625,-0.247283935546875,-0.12591552734375,1.203626036643982,-0.5094043612480164,1.106576442718506,39.71479797363281,98.85745239257812,-8.869384765625
239449,0.0909576416015625,-0.247283935546875,-0.12591552734375,1.203626036643982,-0.5094043612480164,1.106576442718506,39.71479797363281,98.85745239257812,-8.869384765625
239450,0.0126190185546875,-0.2263031005859375,0.153533935546875,0.7081987261772156,0.1152224615216255,1.087942361831665,40.73072814941406,99.38177490234376,-9.712188720703123
239451,-0.0139007568359375,-0.1969146728515625,0.1684722900390625,0.5504599213600159,0.5143144726753235,1.059121012687683,41.255859375,99.61244201660156,-9.860885620117188
239452,-0.0348663330078125,-0.171966552734375,0.1137847900390625,0.3169201612472534,0.6478464007377625,0.9169812202453612,41.89892578125,99.7710418701172,-10.10829162597656
239453,-0.0348663330078125,-0.171966552734375,0.1137847900390625,0.3169201612472534,0.6478464007377625,0.9169812202453612,41.89892578125,99.7710418701172,-10.10829162597656
239454,-0.0714874267578125,-0.1559600830078125,0.011138916015625,0.2552277743816376,0.4241648614406586,0.7978044748306274,43.21734619140625,99.94284057617188,-10.2060546875
239455,-0.0800018310546875,-0.15093994140625,0.0234222412109375,0.2272651046514511,0.2025014460086823,0.6467074155807495,43.761474609375,99.8964385986328,-10.12271118164062
239456,-0.0888824462890625,-0.13812255859375,0.0696868896484375,0.195291206240654,0.1060100570321083,0.4639807045459747,44.33049011230469,99.95001220703124,-10.05110168457031
239457,-0.0888824462890625,-0.13812255859375,0.0696868896484375,0.195291206240654,0.1060100570321083,0.4639807045459747,44.33049011230469,99.95001220703124,-10.05110168457031
239458,-0.1031036376953125,-0.127838134765625,0.1308746337890625,-0.0782652422785759,0.5840746164321899,-0.2120416760444641,45.31254577636719,100.175048828125,-9.390609741210938
239459,-0.0938720703125,-0.1268768310546875,0.132659912109375,-0.0782652422785759,0.5840746164321899,-0.2120416760444641,45.68438720703125,100.23046875,-9.084930419921877
239460,-0.0750274658203125,-0.133758544921875,0.119720458984375,-0.217145100235939,0.786022961139679,-0.3915456533432007,46.05072021484375,100.0511779785156,-8.602386474609375
239461,-0.0750274658203125,-0.133758544921875,0.119720458984375,-0.217145100235939,0.786022961139679,-0.3915456533432007,46.05072021484375,100.0511779785156,-8.602386474609375
239462,-0.0528564453125,-0.15142822265625,0.089691162109375,-0.6256742477416992,0.7226450443267822,-0.6132700443267822,46.24894714355469,99.57868957519533,-7.699554443359375
239463,-0.0673065185546875,-0.1530303955078125,0.0971221923828125,-0.8773371577262878,0.4502369463443756,-0.680375337600708,46.12522888183594,99.14405822753906,-7.17913818359375
239464,-0.1164703369140625,-0.1292266845703125,0.1232452392578125,-1.136547923088074,0.1145100668072701,-0.7480603456497192,45.91055297851562,98.71458435058594,-6.609176635742188
239465,-0.1164703369140625,-0.1292266845703125,0.1232452392578125,-1.136547923088074,0.1145100668072701,-0.7480603456497192,45.91055297851562,98.71458435058594,-6.609176635742188
239466,-0.2065277099609375,0.07257080078125,0.197265625,-1.582811713218689,-0.4326811134815216,-0.9472965002059937,45.04257202148438,97.9649658203125,-5.6632080078125
239467,-0.1850128173828125,0.142181396484375,0.22528076171875,-1.820042371749878,-0.6796280741691589,-0.9927220344543456,44.63580322265625,97.6838836669922,-4.933609008789062
239468,-0.1440582275390625,0.1875152587890625,0.2720794677734375,-2.060539722442627,-0.9061570763587952,-1.013818025588989,44.1434326171875,97.705078125,-4.176498413085938
239469,-0.1440582275390625,0.1875152587890625,0.2720794677734375,-2.060539722442627,-0.9061570763587952,-1.013818025588989,44.1434326171875,97.705078125,-4.176498413085938
239470,-0.0917510986328125,0.309783935546875,0.556243896484375,-2.362995147705078,-1.181144118309021,-1.016750693321228,43.14476013183594,98.26304626464844,-2.5087890625
239471,-0.056060791015625,0.557342529296875,0.879364013671875,-2.380685806274414,-1.169206261634827,-1.008199334144592,42.40721130371094,98.64085388183594,-2.055938720703125
239472,-0.0188751220703125,1.398818969726562,1.31854248046875,-2.613460063934326,-1.093242526054382,-1.134876847267151,41.57614135742188,98.82908630371094,-1.583450317382812
239473,-0.0188751220703125,1.398818969726562,1.31854248046875,-2.613460063934326,-1.093242526054382,-1.134876847267151,41.57614135742188,98.82908630371094,-1.583450317382812
239474,-0.045257568359375,7.60455322265625,2.604660034179688,-2.853790760040283,0.0089559443295001,2.558656215667725,40.31855773925781,98.56808471679688,-2.24224853515625
239475,-0.84765625,8.069992065429688,2.927459716796875,-1.253653287887573,5.003756523132324,3.701538324356079,40.50691223144531,98.47454833984376,-2.6439208984375
239476,-0.3315887451171875,6.292984008789062,0.4250335693359375,0.412480503320694,7.205773830413818,1.443459987640381,41.4593505859375,98.40650939941406,-2.480209350585938
239477,-0.3315887451171875,6.292984008789062,0.4250335693359375,0.412480503320694,7.205773830413818,1.443459987640381,41.4593505859375,98.40650939941406,-2.480209350585938
239478,0.7658233642578125,1.055252075195312,-4.313201904296875,-2.810348033905029,-7.976046085357666,-0.2455857992172241,42.387451171875,98.15687561035156,-1.734695434570312
239479,1.121078491210938,0.9532928466796876,-0.04425048828125,-3.600720882415771,-9.522820472717283,-0.5774849057197571,42.02734375,98.26063537597656,-0.9437408447265624
239480,1.546890258789062,1.636795043945312,0.7885894775390625,0.2136174738407135,1.715658187866211,0.7381600737571716,41.94496154785156,98.22312927246094,0.9527435302734376
239481,1.546890258789062,1.636795043945312,0.7885894775390625,0.2136174738407135,1.715658187866211,0.7381600737571716,41.94496154785156,98.22312927246094,0.9527435302734376
239482,0.828521728515625,2.16015625,-1.148757934570312,2.120454072952271,-2.165588617324829,0.7344947457313538,42.6390380859375,97.01084899902344,4.4459228515625
239483,0.49737548828125,1.831207275390625,0.122802734375,2.574212789535522,-2.669262409210205,0.7151274681091309,42.99781799316406,96.4757080078125,4.618576049804688
239484,0.4287567138671875,1.40509033203125,0.0246734619140625,2.123403787612915,-2.113940000534058,0.7177613377571106,43.66184997558594,96.5492706298828,3.920974731445312
239485,0.4287567138671875,1.40509033203125,0.0246734619140625,2.123403787612915,-2.113940000534058,0.7177613377571106,43.66184997558594,96.5492706298828,3.920974731445312
239486,0.27349853515625,0.90789794921875,0.0057525634765625,0.9475548267364502,-0.935235321521759,0.7276288866996765,45.20619201660156,97.24478149414062,2.033523559570312
239487,0.2649078369140625,0.6933441162109375,-0.046661376953125,0.7034854292869568,-0.8250092267990112,0.6747299432754517,45.845703125,97.45535278320312,1.420455932617188
239488,0.24346923828125,0.46734619140625,-0.1173248291015625,0.7132707238197327,-1.051801919937134,0.582345187664032,46.47111511230469,97.58413696289062,0.9967498779296876
239489,0.24346923828125,0.46734619140625,-0.1173248291015625,0.7132707238197327,-1.051801919937134,0.582345187664032,46.47111511230469,97.58413696289062,0.9967498779296876
239490,0.134490966796875,0.049224853515625,-0.284454345703125,1.074429154396057,-1.752087593078613,0.539678692817688,47.46656799316406,97.57974243164062,0.60821533203125
239491,0.05767822265625,-0.0870819091796875,-0.335357666015625,1.244982242584229,-1.997039198875427,0.5617416501045227,47.95909118652344,97.78329467773438,0.2849273681640625
239492,-0.0098724365234375,-0.164947509765625,-0.246246337890625,1.315091013908386,-1.976313710212708,0.5314255356788635,48.49989318847656,97.8987274169922,-0.1711578369140625
239493,-0.0098724365234375,-0.164947509765625,-0.246246337890625,1.315091013908386,-1.976313710212708,0.5314255356788635,48.49989318847656,97.8987274169922,-0.1711578369140625
239494,-0.005615234375,-0.1743316650390625,0.196044921875,1.17440390586853,-0.7164044380187988,0.2883583009243011,49.43449401855469,98.4397430419922,-1.24072265625
239495,0.0509033203125,-0.1211090087890625,0.2952880859375,1.026331186294556,-0.068641647696495,0.1516795456409454,49.76524353027344,98.67243957519533,-1.659530639648438
239496,0.07781982421875,-0.0753173828125,0.2868194580078125,0.8838909268379211,0.2895817458629608,0.048331581056118,50.08908081054688,98.78372192382812,-2.088790893554688
239497,0.07781982421875,-0.0753173828125,0.2868194580078125,0.8838909268379211,0.2895817458629608,0.048331581056118,50.08908081054688,98.78372192382812,-2.088790893554688
239498,0.0678253173828125,-0.0923919677734375,0.103179931640625,0.7075166702270508,0.1858875751495361,-0.1438964456319809,50.46931457519531,98.81330871582033,-2.842239379882812
239499,0.048095703125,-0.1136322021484375,0.0519256591796875,0.7139040231704712,-0.1341090649366379,-0.2124699205160141,50.58963012695312,98.8441162109375,-3.058853149414062
239500,0.02801513671875,-0.1187591552734375,0.06707763671875,0.7717923521995544,-0.6065381169319153,-0.3406822085380554,50.59190368652344,98.83067321777344,-3.22283935546875
239501,0.02801513671875,-0.1187591552734375,0.06707763671875,0.7717923521995544,-0.6065381169319153,-0.3406822085380554,50.59190368652344,98.83067321777344,-3.22283935546875
239502,0.015289306640625,-0.103118896484375,0.1165924072265625,0.7135841846466064,-0.6904228925704956,-0.404781311750412,50.71711730957031,99.10321044921876,-3.895614624023438
239503,0.015899658203125,-0.0970458984375,0.121002197265625,0.5826128125190735,-0.7173988819122314,-0.4637050926685333,50.62481689453125,99.20433044433594,-4.133941650390625
239504,0.0169677734375,-0.0906982421875,0.10894775390625,0.4054564237594604,-0.7253329753875732,-0.520033061504364,50.40057373046875,99.26068115234376,-4.34149169921875
239505,0.0169677734375,-0.0906982421875,0.10894775390625,0.4054564237594604,-0.7253329753875732,-0.520033061504364,50.40057373046875,99.26068115234376,-4.34149169921875
239506,0.01763916015625,-0.092559814453125,0.0967254638671875,-0.0401878990232944,-0.816592812538147,-0.6309073567390442,50.25228881835938,99.2591552734375,-4.521926879882812
239507,0.0110321044921875,-0.093475341796875,0.113128662109375,-0.3072867095470428,-0.9077155590057372,-0.702867329120636,50.15585327148438,99.34530639648438,-4.533523559570312
239508,-0.0094757080078125,-0.0914459228515625,0.1664886474609375,-1.025030970573425,-0.8938362002372742,-0.9287260174751282,50.05133056640625,99.34873962402344,-4.43701171875
239509,-0.0094757080078125,-0.0914459228515625,0.1664886474609375,-1.025030970573425,-0.8938362002372742,-0.9287260174751282,50.05133056640625,99.34873962402344,-4.43701171875
239510,-0.0900726318359375,0.13525390625,0.381988525390625,-1.378913640975952,-0.5705737471580505,-1.076793551445007,49.56497192382812,99.4219207763672,-3.68341064453125
239511,-0.08203125,0.2764129638671875,0.5033111572265625,-1.807992577552795,-0.1732295751571655,-1.258275747299194,49.25178527832031,99.38352966308594,-3.008834838867188
239512,-0.095733642578125,0.4580078125,0.7173614501953125,-2.604865789413452,0.8555716276168823,-1.79337477684021,48.91261291503906,99.44146728515624,-2.352508544921875
239513,-0.095733642578125,0.4580078125,0.7173614501953125,-2.604865789413452,0.8555716276168823,-1.79337477684021,48.91261291503906,99.44146728515624,-2.352508544921875
239514,-0.3444671630859375,1.924331665039062,1.157989501953125,-2.330448865890503,1.466579914093018,-2.517925024032593,47.57203674316406,99.28067016601562,-0.882415771484375
239515,-0.4021148681640625,3.8782958984375,1.154647827148438,-1.200885415077209,1.893511772155762,-2.977526664733887,46.61088562011719,99.25469970703124,-0.28973388671875
239516,-0.451904296875,4.90704345703125,0.9331512451171876,-0.539377748966217,0.0910718515515327,-1.695824027061462,45.489013671875,99.08601379394533,-0.0531463623046875
239517,-0.451904296875,4.90704345703125,0.9331512451171876,-0.539377748966217,0.0910718515515327,-1.695824027061462,45.489013671875,99.08601379394533,-0.0531463623046875
239518,-0.7183837890625,5.19708251953125,1.030105590820312,0.541325032711029,-1.867897748947144,-0.0045646582730114,43.51170349121094,99.02955627441406,-0.292938232421875
239519,-0.091888427734375,2.969161987304688,0.3818511962890625,-0.401305079460144,-3.249946594238281,-0.3961984813213348,43.37518310546875,98.99659729003906,-0.375518798828125
239520,-0.0322723388671875,1.942291259765625,0.30926513671875,-2.164814233779907,-2.793666124343872,-1.115065574645996,43.727783203125,98.79205322265624,-0.298675537109375
239521,-0.0322723388671875,1.942291259765625,0.30926513671875,-2.164814233779907,-2.793666124343872,-1.115065574645996,43.727783203125,98.79205322265624,-0.298675537109375
239522,0.5226593017578125,1.651535034179688,-0.588623046875,-2.694075345993042,-2.556980609893799,-0.94951730966568,44.12628173828125,97.88526916503906,1.072052001953125
239523,1.276519775390625,2.348419189453125,-2.065231323242188,-2.081966400146484,-2.308030128479004,-0.2775221467018127,44.03727722167969,97.25794982910156,2.349945068359375
239524,1.280227661132812,2.642684936523438,-2.009933471679688,0.7484017610549927,-2.177981376647949,0.4049043357372284,43.72222900390625,96.70417785644533,3.787033081054688
239525,1.280227661132812,2.642684936523438,-2.009933471679688,0.7484017610549927,-2.177981376647949,0.4049043357372284,43.72222900390625,96.70417785644533,3.787033081054688
239526,0.2760009765625,2.138427734375,0.0238189697265625,2.685259342193604,-1.679686307907104,0.4279348254203796,44.15203857421875,96.20391845703124,5.514251708984375
239527,0.1147003173828125,2.023681640625,-0.090118408203125,1.844758629798889,-1.499403357505798,0.4324747323989868,44.81117248535156,96.48138427734376,5.043502807617188
239528,0.16107177734375,1.736465454101562,-0.1602020263671875,1.112272381782532,-1.488718509674072,0.4550117254257202,45.34706115722656,96.75906372070312,4.113311767578125
239529,0.16107177734375,1.736465454101562,-0.1602020263671875,1.112272381782532,-1.488718509674072,0.4550117254257202,45.34706115722656,96.75906372070312,4.113311767578125
239530,0.2388153076171875,1.120880126953125,-0.1929779052734375,1.652803063392639,-1.56992518901825,0.768690824508667,46.53379821777344,97.01036071777344,2.51898193359375
239531,0.1781463623046875,0.853546142578125,-0.2058563232421875,2.352858066558838,-1.717411279678345,0.8825731873512268,47.17974853515625,97.0654754638672,2.112197875976562
239532,0.05126953125,0.42889404296875,0.04962158203125,2.989108562469482,-1.216019034385681,0.8877384066581726,48.38426208496094,97.69082641601562,0.6519775390625
239533,0.05126953125,0.42889404296875,0.04962158203125,2.989108562469482,-1.216019034385681,0.8877384066581726,48.38426208496094,97.69082641601562,0.6519775390625
239534,-0.0269012451171875,0.2004241943359375,0.0045623779296875,2.83851432800293,-0.7555798292160034,0.7445124983787537,48.97550964355469,97.99195861816406,-0.455230712890625
239535,-0.102447509765625,-0.0381011962890625,-0.17236328125,2.493292331695557,-0.5354277491569519,0.5636604428291321,49.5870361328125,98.24705505371094,-1.567581176757812
239536,-0.17059326171875,-0.2293701171875,-0.2140655517578125,2.030085802078247,-0.4071909487247467,0.3932117223739624,50.01708984375,98.68482971191406,-2.804580688476562
239537,-0.17059326171875,-0.2293701171875,-0.2140655517578125,2.030085802078247,-0.4071909487247467,0.3932117223739624,50.01708984375,98.68482971191406,-2.804580688476562
239538,-0.12835693359375,-0.180938720703125,0.1369171142578125,1.240484476089478,0.5009912252426147,0.0900334864854812,50.51931762695312,99.36412048339844,-5.097030639648438
239539,-0.105133056640625,-0.143402099609375,0.133453369140625,1.008778810501099,0.6905134320259094,-0.016463128849864,50.63375854492188,99.59054565429688,-5.891754150390625
239540,-0.1160125732421875,-0.147552490234375,0.0764007568359375,0.8224920034408569,0.5103282332420349,-0.2243044674396515,50.6531982421875,99.8906707763672,-6.342742919921875
239541,-0.1498565673828125,-0.15985107421875,0.0223541259765625,0.8224920034408569,0.5103282332420349,-0.2243044674396515,50.68707275390625,100.0520477294922,-6.56842041015625
239542,-0.17999267578125,-0.1783905029296875,-0.0127410888671875,0.8663042187690735,0.3322597146034241,-0.3368137180805206,50.62294006347656,100.2672119140625,-6.70703125
239543,-0.178375244140625,-0.19952392578125,-0.041168212890625,0.9644467234611512,0.1886873543262482,-0.4347565174102783,50.61660766601562,100.4350738525391,-6.752471923828125
239544,-0.142364501953125,-0.2052764892578125,-0.02386474609375,1.022586464881897,0.0759317800402641,-0.5043859481811523,50.61636352539062,100.5213623046875,-6.734725952148438
239545,-0.142364501953125,-0.2052764892578125,-0.02386474609375,1.022586464881897,0.0759317800402641,-0.5043859481811523,50.61636352539062,100.5213623046875,-6.734725952148438
239546,-0.07818603515625,-0.21124267578125,0.072662353515625,0.8019603490829468,0.1669759452342987,-0.5938548445701599,50.50454711914062,100.9273681640625,-6.61810302734375
239547,-0.05718994140625,-0.224395751953125,0.078277587890625,0.6205663084983826,0.3316176235675812,-0.5992623567581177,50.53140258789062,100.9839019775391,-6.42083740234375
239548,-0.04217529296875,-0.2481536865234375,0.045318603515625,0.4490230679512024,0.3957188427448273,-0.5756787657737732,50.62588500976562,100.7063598632812,-5.97784423828125
239549,-0.03466796875,-0.2769927978515625,0.0040283203125,0.2752185165882111,0.2735287547111511,-0.5242794752120972,50.77194213867188,100.2014465332031,-5.600082397460938
239550,-0.0268707275390625,-0.306396484375,-0.0150909423828125,0.0850334018468856,0.0324476882815361,-0.4481388926506042,50.74082946777344,99.70428466796876,-5.2489013671875
239551,-0.0078277587890625,-0.2972412109375,-0.0058441162109375,-0.1002296656370163,-0.2422288805246353,-0.3904732167720795,50.55406188964844,98.87136840820312,-5.07415771484375
239552,0.0090179443359375,-0.256866455078125,0.00408935546875,-0.5163597464561462,-0.8051039576530457,-0.3734047412872314,50.33805847167969,98.210693359375,-5.142425537109375
239553,0.0202178955078125,-0.233062744140625,0.030364990234375,-0.5163597464561462,-0.8051039576530457,-0.3734047412872314,49.88739013671875,97.67257690429688,-5.442413330078125
239554,0.0311126708984375,-0.236053466796875,0.079071044921875,-0.8083863258361816,-1.015463590621948,-0.3970608115196228,49.31906127929688,97.30618286132812,-5.808914184570312
239555,0.0311126708984375,-0.236053466796875,0.079071044921875,-0.8083863258361816,-1.015463590621948,-0.3970608115196228,49.31906127929688,97.30618286132812,-5.808914184570312
239556,0.050048828125,-0.2458038330078125,0.1397552490234375,-1.197110891342163,-1.170508027076721,-0.437396764755249,48.8785400390625,96.96809387207033,-5.93603515625
239557,0.1249847412109375,-0.03271484375,0.2360382080078125,-2.240837574005127,-1.597319006919861,-0.5249274373054504,48.19096374511719,96.76065063476562,-5.57366943359375
239558,0.0671539306640625,0.1416473388671875,0.3400726318359375,-2.645581722259521,-1.701134085655212,-0.5622191429138184,48.09095764160156,96.76031494140624,-4.933517456054688
239559,0.0577392578125,0.2069244384765625,0.547088623046875,-2.926812410354614,-1.441619396209717,-0.6396337747573853,48.12875366210938,96.74273681640624,-2.432235717773438
239560,0.0663909912109375,0.317596435546875,0.8548431396484375,-3.0985267162323,0.2382479906082153,-0.9274937510490416,48.15162658691406,97.13465881347656,-0.846954345703125
239561,0.0663909912109375,0.317596435546875,0.8548431396484375,-3.0985267162323,0.2382479906082153,-0.9274937510490416,48.15162658691406,97.13465881347656,-0.846954345703125
239562,-0.0272979736328125,0.6752166748046875,1.075881958007812,-2.868742942810059,0.5781296491622925,-1.012827634811401,46.74287414550781,98.2490234375,1.203353881835938
239563,-0.1252899169921875,1.755142211914062,1.264877319335938,-2.784363985061646,0.3235895037651062,-1.248865962028503,45.55476379394531,98.36639404296876,1.398025512695312
239564,-0.2906036376953125,5.128402709960938,1.350341796875,-2.713397026062012,-0.01796062476933,-1.060664653778076,44.71054077148438,98.45367431640624,1.111465454101562
239565,-0.2906036376953125,5.128402709960938,1.350341796875,-2.713397026062012,-0.01796062476933,-1.060664653778076,44.71054077148438,98.45367431640624,1.111465454101562
239566,-2.187713623046875,7.985763549804688,-0.9134368896484376,-0.7715321183204651,-0.1567422151565552,0.639137327671051,44.006591796875,99.17977905273438,-0.832061767578125
239567,-0.66180419921875,5.80029296875,-2.006912231445312,0.5757125616073608,-0.739785373210907,-0.0311826858669519,44.08248901367188,99.30436706542967,-0.95068359375
239568,-0.129425048828125,1.260452270507812,-0.5694732666015625,1.363409876823425,-1.552477240562439,1.760990262031555,44.46928405761719,98.8148956298828,0.4663848876953125
239569,-0.129425048828125,1.260452270507812,-0.5694732666015625,1.363409876823425,-1.552477240562439,1.760990262031555,44.46928405761719,98.8148956298828,0.4663848876953125
239570,0.0145721435546875,0.9721221923828124,0.07794189453125,1.610786557197571,-1.052442908287048,1.281420111656189,45.20878601074219,98.6684112548828,0.8936767578125
239571,0.1877593994140625,0.65570068359375,0.029693603515625,0.8335603475570679,-0.1036337167024612,0.7913241982460022,46.07548522949219,98.63662719726562,0.9109649658203124
239572,0.3209228515625,0.6780853271484375,-0.4526519775390625,0.4975570440292358,-0.8639816641807556,0.7714096307754517,46.81974792480469,98.55558776855467,0.54559326171875
239573,0.37933349609375,0.92919921875,-0.8419647216796875,0.4975570440292358,-0.8639816641807556,0.7714096307754517,47.40585327148438,98.56575012207033,0.2763519287109375
239574,0.3581390380859375,1.04986572265625,-0.7703094482421875,0.5896009802818298,-1.494926571846008,0.8096004128456116,47.96263122558594,98.43629455566406,0.1614532470703125
239575,0.2875213623046875,0.9951324462890624,-0.4555511474609375,0.9833852648735046,-1.440472960472107,0.8149515390396118,48.45909118652344,98.50164794921876,-0.18206787109375
239576,0.2118377685546875,0.887664794921875,-0.2733917236328125,1.31813907623291,-1.135128736495972,0.7424352169036865,49.08929443359375,98.54446411132812,-0.849029541015625
239577,0.2118377685546875,0.887664794921875,-0.2733917236328125,1.31813907623291,-1.135128736495972,0.7424352169036865,49.08929443359375,98.54446411132812,-0.849029541015625
239578,0.12030029296875,0.5689239501953125,-0.2161102294921875,1.336082339286804,-0.7416490912437439,0.6129544973373413,50.17941284179688,98.78157043457033,-2.084426879882812
239579,0.12030029296875,0.5689239501953125,-0.2161102294921875,1.336082339286804,-0.7416490912437439,0.6129544973373413,50.17941284179688,98.78157043457033,-2.084426879882812
239580,0.09259033203125,0.4262237548828125,-0.229827880859375,1.190815448760986,-0.7107641100883484,0.5682756900787354,50.69477844238281,98.81446838378906,-2.739425659179688
239581,0.0620269775390625,0.242462158203125,-0.141326904296875,0.9179396629333496,-0.6860289573669434,0.4634563326835632,51.31398010253906,99.03579711914062,-3.883560180664062
239582,0.05078125,0.1812744140625,-0.0566253662109375,0.8048256635665894,-0.5810673832893372,0.399361252784729,51.65150451660156,99.1785125732422,-4.365463256835938
239583,0.05889892578125,0.1094818115234375,0.0179290771484375,0.6719224452972412,-0.4179655611515045,0.3394217491149902,51.96348571777344,99.15274047851562,-4.648239135742188
239584,0.0747833251953125,0.048248291015625,0.09442138671875,0.5203939080238342,-0.1703403145074844,0.3064235746860504,52.27413940429688,99.2058563232422,-4.995346069335938
239585,0.0747833251953125,0.048248291015625,0.09442138671875,0.5203939080238342,-0.1703403145074844,0.3064235746860504,52.27413940429688,99.2058563232422,-4.995346069335938
239586,0.1039886474609375,-0.0816802978515625,0.0267181396484375,0.256949782371521,0.2004777044057846,0.3183793127536774,52.65676879882812,99.49627685546876,-5.114028930664062
239587,0.1037445068359375,-0.1267852783203125,-0.0893096923828125,0.2743519246578217,0.0338722132146358,0.3446593880653381,52.8275146484375,99.6005859375,-5.226913452148438
239588,0.0910491943359375,-0.1377105712890625,-0.109954833984375,0.4031482636928558,-0.2827781736850739,0.3511298000812531,52.95970153808594,99.57650756835938,-5.1434326171875
239589,0.0910491943359375,-0.1377105712890625,-0.109954833984375,0.4031482636928558,-0.2827781736850739,0.3511298000812531,52.95970153808594,99.57650756835938,-5.1434326171875
239590,0.0718231201171875,-0.1111602783203125,0.077423095703125,0.7153439521789551,-0.501509964466095,0.2747082710266113,53.44085693359375,99.75155639648438,-5.031173706054688
239591,0.0634613037109375,-0.089874267578125,0.1026153564453125,0.7864386439323425,-0.4315479397773743,0.1997786313295364,53.75556945800781,99.7713623046875,-5.1612548828125
239592,0.0513153076171875,-0.07464599609375,0.08154296875,0.6927111148834229,-0.4556692540645599,0.0050573428161442,54.24198913574219,99.615234375,-5.494903564453125
239593,0.0513153076171875,-0.07464599609375,0.08154296875,0.6927111148834229,-0.4556692540645599,0.0050573428161442,54.24198913574219,99.615234375,-5.494903564453125
239594,0.052490234375,-0.084503173828125,0.0634002685546875,0.5236935615539551,-0.5944697260856628,-0.0973143056035041,54.36274719238281,99.6101531982422,-5.491775512695312
239595,0.052490234375,-0.084503173828125,0.0634002685546875,0.5236935615539551,-0.5944697260856628,-0.0973143056035041,54.36274719238281,99.6101531982422,-5.491775512695312
239596,0.05792236328125,-0.094512939453125,0.071258544921875,0.0074350130744278,-1.056731700897217,-0.304432600736618,54.51521301269531,99.63658142089844,-5.51177978515625
239597,0.0671844482421875,-0.094573974609375,0.1143646240234375,-0.3143438100814819,-1.22016453742981,-0.3967835605144501,54.43992614746094,99.69119262695312,-5.402572631835938
239598,0.089630126953125,-0.0584564208984375,0.1710357666015625,-1.020039916038513,-1.138184428215027,-0.5982745885848999,54.36726379394531,99.70588684082033,-5.23358154296875
239599,0.07281494140625,0.085357666015625,0.2654876708984375,-1.020039916038513,-1.138184428215027,-0.5982745885848999,54.20280456542969,99.73381042480467,-4.895004272460938
239600,0.0120697021484375,0.16583251953125,0.40618896484375,-1.34019935131073,-0.7490633130073547,-0.7169855237007141,54.07330322265625,99.69203186035156,-4.51739501953125
239601,0.0120697021484375,0.16583251953125,0.40618896484375,-1.34019935131073,-0.7490633130073547,-0.7169855237007141,54.07330322265625,99.69203186035156,-4.51739501953125
239602,0.0111846923828125,0.6669921875,1.021713256835938,-2.308379173278809,0.9027945399284364,-1.296691298484802,53.34951782226562,100.0093078613281,-3.590744018554688
239603,-0.029998779296875,1.197296142578125,1.244033813476562,-2.727669477462769,2.002285957336426,-1.674585819244385,52.60032653808594,100.1322479248047,-3.06402587890625
239604,-0.1041259765625,3.860763549804688,1.510391235351562,-2.47169017791748,2.936546564102173,-2.529750823974609,51.6514892578125,100.31005859375,-2.654296875
239605,-0.1041259765625,3.860763549804688,1.510391235351562,-2.47169017791748,2.936546564102173,-2.529750823974609,51.6514892578125,100.31005859375,-2.654296875
239606,-0.75494384765625,7.5543212890625,1.560256958007812,-0.5759173631668091,-0.4175141453742981,0.3323118984699249,49.5498046875,100.5462341308594,-2.176239013671875
239607,-1.281158447265625,6.587081909179688,1.408370971679688,0.8938567042350769,-0.4874301254749298,0.4699195623397827,49.35728454589844,100.4925994873047,-2.222732543945312
239608,-0.57672119140625,3.233779907226562,0.2786407470703125,1.139259815216064,-1.348852157592773,-0.477035254240036,49.73545837402344,100.4417724609375,-2.2396240234375
239609,-0.17938232421875,1.67462158203125,-0.18096923828125,0.8139219284057617,-2.62006402015686,-0.7233265042304993,50.10409545898438,100.3884124755859,-2.137939453125
239610,-0.0517578125,1.208343505859375,-1.088088989257812,0.1043277382850647,-4.160331249237061,-1.354755401611328,49.97268676757812,100.2507476806641,-1.993896484375
239611,0.7156829833984375,1.196136474609375,-2.315963745117188,-1.760471224784851,-9.16111660003662,-1.9047532081604,49.54240417480469,100.2936706542969,-1.977188110351562
