time_idx,accelerometerAccelerationX(G),accelerometerAccelerationY(G),accelerometerAccelerationZ(G),gyroRotationX(rad/s),gyroRotationY(rad/s),gyroRotationZ(rad/s),magnetometerX(µT),magnetometerY(µT),magnetometerZ(µT)
183535,0.0339813232421875,0.8701629638671875,0.007843017578125,1.209394454956055,-0.1313790678977966,-0.2609234750270844,38.829345703125,99.21182250976562,-8.368972778320312
183536,-0.031768798828125,0.9707183837890624,-0.203765869140625,1.073426008224487,-0.8636245131492615,-0.1499274522066116,38.64335632324219,99.31651306152344,-9.0372314453125
183537,-0.031768798828125,0.9707183837890624,-0.203765869140625,1.073426008224487,-0.8636245131492615,-0.1499274522066116,38.64335632324219,99.31651306152344,-9.0372314453125
183538,-0.1152191162109375,0.943756103515625,-0.262359619140625,0.5956263542175293,-1.827082395553589,-0.0364288464188575,38.53167724609375,99.34587097167967,-9.424652099609377
183539,-0.130096435546875,0.6405181884765625,-0.1800079345703125,0.5092867016792297,-1.264184236526489,0.0610529668629169,38.52890014648438,99.37237548828124,-9.846725463867188
183540,-0.0128326416015625,0.2728118896484375,-0.2132568359375,0.5191486477851868,-0.4140512347221375,0.1624229997396469,38.49162292480469,99.31356811523438,-10.30885314941406
183541,-0.0128326416015625,0.2728118896484375,-0.2132568359375,0.5191486477851868,-0.4140512347221375,0.1624229997396469,38.49162292480469,99.31356811523438,-10.30885314941406
183542,0.0154876708984375,0.3003387451171875,-0.245941162109375,0.6264052987098694,0.5299432277679443,0.187594398856163,38.5751953125,99.30438232421876,-10.36724853515625
183543,0.0768890380859375,0.4526824951171875,-0.152740478515625,0.579136073589325,0.6054459810256958,0.1554332673549652,38.607177734375,99.5239715576172,-10.82554626464844
183544,0.110107421875,0.4820709228515625,-0.06500244140625,0.4476304948329926,0.6569046378135681,0.0572329275310039,38.77902221679688,99.57096862792967,-11.05012512207031
183545,0.14276123046875,0.5010833740234375,0.032440185546875,0.123781330883503,0.9164994359016418,-0.0890289396047592,38.80235290527344,99.5961456298828,-11.32559204101562
183546,0.1475982666015625,0.531097412109375,0.1466522216796875,0.123781330883503,0.9164994359016418,-0.0890289396047592,38.87542724609375,99.5486297607422,-11.45751953125
183547,0.1096954345703125,0.5852508544921875,0.2606353759765625,-0.0024088292848318,1.159061551094055,-0.106777049601078,38.87350463867188,99.7647705078125,-11.74871826171875
183548,0.039337158203125,0.656097412109375,0.3235015869140625,-0.1257816255092621,1.357437968254089,-0.1506305187940598,38.94618225097656,99.74441528320312,-11.70565795898438
183549,-0.07330322265625,0.6864013671875,0.3365936279296875,-0.2310121804475784,1.413869500160217,-0.205869272351265,39.00105285644531,99.71148681640624,-11.78181457519531
183550,-0.07330322265625,0.6864013671875,0.3365936279296875,-0.2310121804475784,1.413869500160217,-0.205869272351265,39.00105285644531,99.71148681640624,-11.78181457519531
183551,-0.171722412109375,0.690185546875,0.3139801025390625,-0.3156402409076691,1.278597235679626,-0.2910044193267822,39.00010681152344,99.64247131347656,-11.88691711425781
183552,-0.320404052734375,0.691375732421875,0.2600250244140625,-0.4270735681056976,0.5059774518013,-0.5367662310600281,38.87112426757812,99.5810089111328,-11.93170166015625
183553,-0.320404052734375,0.691375732421875,0.2600250244140625,-0.4270735681056976,0.5059774518013,-0.5367662310600281,38.87112426757812,99.5810089111328,-11.93170166015625
183554,-0.3511199951171875,0.7205657958984375,0.21270751953125,-0.496128261089325,0.0500692911446094,-0.6666222214698792,38.73274230957031,99.6840362548828,-11.92626953125
183555,-0.34954833984375,0.794219970703125,0.0604248046875,-0.5857217907905579,-0.449162632226944,-0.7685278058052063,38.52734375,99.6775360107422,-11.9007568359375
183556,-0.2381744384765625,0.9814300537109376,-0.2388153076171875,-0.7569872736930847,-2.360449075698853,-0.9530478715896606,37.8656005859375,99.59339904785156,-11.54562377929688
183557,-0.2381744384765625,0.9814300537109376,-0.2388153076171875,-0.7569872736930847,-2.360449075698853,-0.9530478715896606,37.8656005859375,99.59339904785156,-11.54562377929688
183558,-0.147857666015625,1.008102416992188,0.12445068359375,-0.7334089875221252,-2.076953172683716,-0.8773807883262634,37.41920471191406,99.51136779785156,-11.20339965820312
183559,0.03204345703125,1.037811279296875,0.2327117919921875,-0.7604379653930664,0.1903164088726044,-0.3928852379322052,36.5340576171875,99.4007568359375,-10.23747253417969
183560,-0.0355987548828125,1.059844970703125,0.2645416259765625,-0.8252973556518555,0.6068305373191833,-0.363616019487381,36.14471435546875,99.3904266357422,-9.766891479492188
183561,-0.1173858642578125,1.163955688476562,0.2444000244140625,-0.7815917134284973,0.1329053193330765,-0.5883879065513611,35.91239929199219,99.23323059082033,-9.274658203125
183562,-0.1173858642578125,1.163955688476562,0.2444000244140625,-0.7815917134284973,0.1329053193330765,-0.5883879065513611,35.91239929199219,99.23323059082033,-9.274658203125
183563,-0.227325439453125,1.591659545898438,-0.075958251953125,-0.7552719712257385,-0.4591332376003265,-0.6406750679016113,35.54061889648438,99.09130859375,-8.551376342773438
183564,-0.1629638671875,1.951873779296875,-0.390106201171875,-0.7649924755096436,-1.622567057609558,-0.5187709927558899,35.22978210449219,98.94883728027344,-8.215774536132812
183565,-0.1629638671875,1.951873779296875,-0.390106201171875,-0.7649924755096436,-1.622567057609558,-0.5187709927558899,35.22978210449219,98.94883728027344,-8.215774536132812
183566,0.1976776123046875,2.842010498046875,-0.132232666015625,-0.5731860399246216,-0.4440647959709167,-0.216064915060997,34.61509704589844,98.6441650390625,-7.262435913085938
183567,0.178009033203125,2.9840087890625,-0.0440521240234375,-0.2631080746650696,0.1544367074966431,-0.0608985051512718,34.14613342285156,98.59622192382812,-6.6785888671875
183568,0.008087158203125,2.949478149414062,0.1431884765625,0.0769837275147438,-0.0320226475596427,0.0334128178656101,33.93778991699219,98.66146850585938,-6.242431640625
183569,0.008087158203125,2.949478149414062,0.1431884765625,0.0769837275147438,-0.0320226475596427,0.0334128178656101,33.93778991699219,98.66146850585938,-6.242431640625
183570,-0.0418701171875,2.891845703125,0.1321258544921875,0.2685922980308533,-0.2206908315420151,0.1496784389019012,33.89199829101562,98.52548217773438,-5.937088012695312
183571,0.1561279296875,1.8062744140625,-0.0877685546875,0.2757042944431305,-0.5086483359336853,0.1894921660423279,33.92852783203125,98.38406372070312,-5.923904418945312
183572,0.162322998046875,1.731887817382812,0.002197265625,0.3695452809333801,-0.3829537630081177,0.2479384243488312,34.14324951171875,98.30047607421876,-5.9384765625
183573,0.1455841064453125,1.659210205078125,-0.0818634033203125,0.4564482271671295,-0.4026768803596497,0.3090981841087341,34.25227355957031,98.28628540039062,-6.020919799804688
183574,0.1455841064453125,1.659210205078125,-0.0818634033203125,0.4564482271671295,-0.4026768803596497,0.3090981841087341,34.25227355957031,98.28628540039062,-6.020919799804688
183575,0.0474700927734375,1.372222900390625,-0.1647491455078125,0.549913227558136,-0.8154277205467224,0.3269352316856384,34.80819702148438,98.3279266357422,-6.260040283203125
183576,-0.0075836181640625,1.176788330078125,-0.1183013916015625,0.6016765236854553,-0.9054611921310424,0.416108250617981,35.42010498046875,98.2448272705078,-6.31256103515625
183577,-0.0075836181640625,1.176788330078125,-0.1183013916015625,0.6016765236854553,-0.9054611921310424,0.416108250617981,35.42010498046875,98.2448272705078,-6.31256103515625
183578,-0.0189971923828125,0.8780517578125,-0.1017303466796875,0.7513642907142639,-0.7928329110145569,0.635690450668335,36.21234130859375,98.19918823242188,-6.845565795898438
183579,0.0014190673828125,0.73687744140625,-0.1243896484375,0.7532090544700623,-0.7260149717330933,0.6795374751091003,36.64613342285156,98.28414916992188,-6.99078369140625
183580,0.0295867919921875,0.6098480224609375,-0.13909912109375,0.7356566786766052,-0.6503905653953552,0.6954927444458008,36.98890686035156,98.31745910644533,-7.270034790039062
183581,0.0295867919921875,0.6098480224609375,-0.13909912109375,0.7356566786766052,-0.6503905653953552,0.6954927444458008,36.98890686035156,98.31745910644533,-7.270034790039062
183582,0.0481109619140625,0.4996490478515625,-0.1583404541015625,0.7467016577720642,-0.5552139282226562,0.6983191967010498,37.45469665527344,98.41494750976562,-7.514312744140625
183583,0.0662078857421875,0.2934112548828125,-0.1845855712890625,0.7715262770652771,-0.3888902366161346,0.6841543316841125,38.18670654296875,98.59898376464844,-7.982772827148438
183584,0.0564727783203125,0.2249298095703125,-0.099029541015625,0.6955503225326538,-0.1829905956983566,0.6335638761520386,38.60360717773438,98.552978515625,-8.252182006835938
183585,0.0564727783203125,0.2249298095703125,-0.099029541015625,0.6955503225326538,-0.1829905956983566,0.6335638761520386,38.60360717773438,98.552978515625,-8.252182006835938
183586,0.034576416015625,0.1793975830078125,0.00042724609375,0.5630612373352051,0.1861951798200607,0.5509425401687622,38.87567138671875,98.673828125,-8.55621337890625
183587,0.009246826171875,0.1203765869140625,0.0431060791015625,0.3942527770996094,0.5728598237037659,0.4771644175052643,39.12370300292969,98.88449096679688,-8.803878784179688
183588,-0.05096435546875,0.0366668701171875,0.12176513671875,0.1311636120080948,1.186213493347168,0.3210014700889587,39.47811889648438,99.0547332763672,-9.22265625
183589,-0.05096435546875,0.0366668701171875,0.12176513671875,0.1311636120080948,1.186213493347168,0.3210014700889587,39.47811889648438,99.0547332763672,-9.22265625
183590,-0.069305419921875,-0.0458984375,0.14739990234375,0.0310079827904701,1.685958027839661,0.1041256040334702,39.73187255859375,99.2255859375,-9.659408569335938
183591,-0.0733642578125,-0.087493896484375,0.077117919921875,0.0260331984609365,1.639866948127747,-0.0182833988219499,39.93389892578125,99.08602905273438,-9.675537109375
183592,-0.0818023681640625,-0.121826171875,0.0079345703125,0.0491635501384735,1.396570205688477,-0.1157556250691414,40.031005859375,99.02644348144533,-9.783843994140623
183593,-0.0818023681640625,-0.121826171875,0.0079345703125,0.0491635501384735,1.396570205688477,-0.1157556250691414,40.031005859375,99.02644348144533,-9.783843994140623
183594,-0.0899810791015625,-0.1311187744140625,-0.04925537109375,0.0592438839375972,1.009815573692322,-0.1894138753414154,40.10658264160156,99.02415466308594,-10.00787353515625
183595,-0.08135986328125,-0.1038665771484375,-0.0115966796875,-0.0972146987915039,0.3321502506732941,-0.3275032937526703,40.01344299316406,99.07342529296876,-10.017822265625
183596,-0.0623321533203125,-0.08612060546875,0.0372161865234375,-0.2687920331954956,0.2367297261953354,-0.3872864842414856,39.96269226074219,99.13131713867188,-9.864212036132812
183597,-0.0623321533203125,-0.08612060546875,0.0372161865234375,-0.2687920331954956,0.2367297261953354,-0.3872864842414856,39.96269226074219,99.13131713867188,-9.864212036132812
183598,-0.020965576171875,-0.048248291015625,0.0944976806640625,-0.7161533236503601,0.2979866862297058,-0.4887981712818146,39.56895446777344,99.16421508789062,-9.518600463867188
183599,-0.022979736328125,0.0681915283203125,0.12518310546875,-0.9849762320518494,0.2588544487953186,-0.5463083386421204,39.38078308105469,99.08131408691406,-9.195220947265623
183600,-0.0548248291015625,0.15106201171875,0.1815338134765625,-1.262408375740051,0.1725097149610519,-0.5813485980033875,39.12167358398438,99.09800720214844,-8.80474853515625
183601,-0.0548248291015625,0.15106201171875,0.1815338134765625,-1.262408375740051,0.1725097149610519,-0.5813485980033875,39.12167358398438,99.09800720214844,-8.80474853515625
183602,-0.0853118896484375,0.194976806640625,0.25177001953125,-1.538502812385559,0.0878358483314514,-0.6270133256912231,38.82785034179688,99.093505859375,-8.39056396484375
183603,-0.1594085693359375,0.329376220703125,0.375274658203125,-1.725925445556641,0.1461111307144165,-0.6958451271057129,38.529296875,98.86083984375,-7.854156494140625
183604,-0.3425140380859375,1.565780639648438,0.6371917724609375,-1.539557218551636,0.7062367796897888,-1.224865555763245,37.71260070800781,98.69790649414062,-6.854965209960938
183605,-0.46319580078125,1.969284057617188,0.7539215087890625,-1.427363038063049,0.5217878222465515,-1.12099289894104,37.11642456054688,98.4437255859375,-6.505081176757812
183606,-0.46319580078125,1.969284057617188,0.7539215087890625,-1.427363038063049,0.5217878222465515,-1.12099289894104,37.11642456054688,98.4437255859375,-6.505081176757812
183607,-0.830657958984375,2.87811279296875,0.763214111328125,-1.173276662826538,0.1898026913404465,-1.017308592796326,35.94482421875,97.95948791503906,-5.6900634765625
183608,-0.717315673828125,2.85302734375,0.545379638671875,-1.281371116638184,0.2982450127601624,-0.737459123134613,35.46122741699219,97.65803527832033,-5.208328247070312
183609,-0.717315673828125,2.85302734375,0.545379638671875,-1.281371116638184,0.2982450127601624,-0.737459123134613,35.46122741699219,97.65803527832033,-5.208328247070312
183610,0.100616455078125,2.297500610351562,-0.7598876953125,-0.9886133074760436,-0.4054710566997528,-0.2636902332305908,34.37185668945312,97.35377502441406,-4.250381469726562
183611,0.39398193359375,2.039901733398438,-0.636810302734375,-0.0097423754632472,-0.4102682173252106,0.1867451220750809,33.97378540039062,97.30355834960938,-3.65155029296875
183612,0.3320770263671875,1.976654052734375,-0.243255615234375,0.806133508682251,-0.0803957730531692,0.2685105502605438,33.75100708007812,97.11087036132812,-3.243988037109375
183613,0.3320770263671875,1.976654052734375,-0.243255615234375,0.806133508682251,-0.0803957730531692,0.2685105502605438,33.75100708007812,97.11087036132812,-3.243988037109375
183614,0.06524658203125,1.680801391601562,-0.2865447998046875,0.4539214372634888,-0.024573253467679,0.040537305176258,33.706298828125,97.29206848144533,-3.620101928710938
183615,-0.0169677734375,1.526214599609375,-0.4552459716796875,0.0227346066385507,-0.1188009530305862,-0.0031095067970454,33.71510314941406,97.40362548828124,-3.878875732421875
183616,-0.0526580810546875,1.443756103515625,-0.444244384765625,-0.0142758749425411,-0.1986832618713379,-0.0490461066365242,33.71311950683594,97.39149475097656,-4.066116333007812
183617,-0.0526580810546875,1.443756103515625,-0.444244384765625,-0.0142758749425411,-0.1986832618713379,-0.0490461066365242,33.71311950683594,97.39149475097656,-4.066116333007812
183618,-0.100555419921875,1.537948608398438,-0.07354736328125,-0.06818438321352,-0.4140429794788361,-0.0743485316634178,33.887451171875,97.40994262695312,-4.211196899414062
183619,-0.123260498046875,1.679458618164062,0.1499786376953125,-0.06818438321352,-0.4140429794788361,-0.0743485316634178,33.86148071289062,97.19294738769533,-4.177291870117188
183620,-0.1121673583984375,1.80902099609375,0.221466064453125,-0.2627410888671875,-0.5026085376739502,-0.0173827186226844,33.88157653808594,97.15341186523438,-4.082870483398438
183621,-0.0909423828125,1.884033203125,0.18292236328125,-0.2668969333171844,-0.5819392800331116,0.0454321950674057,33.94734191894531,97.02789306640624,-3.853378295898438
183622,-0.0909423828125,1.884033203125,0.18292236328125,-0.2668969333171844,-0.5819392800331116,0.0454321950674057,33.94734191894531,97.02789306640624,-3.853378295898438
183623,-0.0970611572265625,1.664993286132812,-0.094024658203125,0.3575115203857422,-0.3174805045127869,0.2287186682224274,34.2340087890625,96.89878845214844,-3.368331909179688
183624,-0.15576171875,1.51080322265625,-0.1422576904296875,0.8386637568473816,-0.2822170555591583,0.3372600674629211,34.38638305664062,96.91343688964844,-3.149658203125
183625,-0.19232177734375,1.394271850585938,-0.040924072265625,1.422048926353455,-0.2690032422542572,0.3515870571136475,34.649658203125,96.9687042236328,-3.498641967773438
183626,-0.19232177734375,1.394271850585938,-0.040924072265625,1.422048926353455,-0.2690032422542572,0.3515870571136475,34.649658203125,96.9687042236328,-3.498641967773438
183627,-0.176177978515625,1.141815185546875,0.18988037109375,1.361515760421753,-0.1803652495145798,0.2738398015499115,35.04557800292969,97.10768127441406,-4.562835693359375
183628,-0.168914794921875,1.004196166992188,0.1947174072265625,1.178588271141052,-0.1401845365762711,0.1929734498262405,35.1624755859375,97.35755920410156,-5.197067260742188
183629,-0.1491241455078125,0.8710479736328125,0.185516357421875,0.9508829712867736,-0.1514334678649902,0.0754018127918243,35.44322204589844,97.3427276611328,-5.79266357421875
183630,-0.125946044921875,0.707733154296875,0.1702423095703125,0.7120237946510315,-0.1706617474555969,-0.0358767732977867,35.62962341308594,97.30674743652344,-6.283706665039062
183631,-0.1008453369140625,0.5477142333984375,0.1478118896484375,0.5101298093795776,-0.1527919471263885,-0.1065994128584862,35.78628540039062,97.38462829589844,-6.67431640625
183632,-0.0924530029296875,0.4222869873046875,0.10791015625,0.3969374895095825,-0.1682854145765305,-0.1634893268346786,35.81779479980469,97.35086059570312,-6.912841796875
183633,-0.0924530029296875,0.4222869873046875,0.10791015625,0.3969374895095825,-0.1682854145765305,-0.1634893268346786,35.81779479980469,97.35086059570312,-6.912841796875
183634,-0.0758056640625,0.29937744140625,0.068756103515625,0.4336158931255341,-0.3894564211368561,-0.226021945476532,35.89797973632812,97.3389129638672,-6.945281982421875
183635,-0.0821685791015625,0.1080474853515625,0.0268096923828125,0.5109698176383972,-0.5744574069976807,-0.2525840401649475,35.79965209960938,97.29396057128906,-7.218597412109375
183636,-0.0955657958984375,0.04443359375,0.05316162109375,0.5680122971534729,-0.7194961309432983,-0.2811363339424133,35.7728271484375,97.22581481933594,-7.191635131835938
183637,-0.0955657958984375,0.04443359375,0.05316162109375,0.5680122971534729,-0.7194961309432983,-0.2811363339424133,35.7728271484375,97.22581481933594,-7.191635131835938
183638,-0.1239166259765625,0.0127716064453125,0.0955352783203125,0.5597525238990784,-0.7835531234741211,-0.3204067647457123,35.71890258789062,97.3687744140625,-7.28759765625
183639,-0.15057373046875,0.07275390625,0.2310943603515625,0.3115555047988892,-0.5147716999053955,-0.3821196854114532,35.53977966308594,97.35028076171876,-7.427597045898438
183640,-0.134857177734375,0.1707611083984375,0.2539520263671875,0.0974993929266929,-0.2656263411045074,-0.3676919937133789,35.46722412109375,97.36637878417967,-7.530532836914062
183641,-0.134857177734375,0.1707611083984375,0.2539520263671875,0.0974993929266929,-0.2656263411045074,-0.3676919937133789,35.46722412109375,97.36637878417967,-7.530532836914062
183642,-0.1253814697265625,0.3804779052734375,0.1769866943359375,-0.3922386169433594,-0.0194759629666805,-0.4351208508014679,35.05003356933594,97.3105010986328,-7.6160888671875
183643,-0.1086578369140625,0.475860595703125,0.0298309326171875,-0.5557252764701843,0.2104174196720123,-0.4039821028709412,34.94790649414062,97.15242004394533,-7.444412231445312
183644,-0.0618743896484375,0.6197357177734375,-0.538421630859375,-0.5449749231338501,-0.113558255136013,-0.3467158675193787,34.72383117675781,97.0426788330078,-7.321365356445312
183645,0.0729522705078125,0.720947265625,-0.428802490234375,0.1220723763108253,-1.323904275894165,-0.0754201859235763,34.433837890625,96.84877014160156,-6.88995361328125
183646,0.0729522705078125,0.720947265625,-0.428802490234375,0.1220723763108253,-1.323904275894165,-0.0754201859235763,34.433837890625,96.84877014160156,-6.88995361328125
183647,0.173370361328125,0.6736907958984375,-0.0300140380859375,0.4817477166652679,-0.5147823691368103,0.1867792010307312,34.24028015136719,96.70794677734376,-6.509445190429688
183648,0.2142181396484375,0.62109375,0.0477447509765625,0.555306077003479,0.1693735867738724,0.2579071819782257,34.21646118164062,96.77969360351562,-6.409515380859375
183649,0.2142181396484375,0.62109375,0.0477447509765625,0.555306077003479,0.1693735867738724,0.2579071819782257,34.21646118164062,96.77969360351562,-6.409515380859375
183650,0.19561767578125,0.4324493408203125,-0.0025482177734375,0.0947688519954681,0.1972430348396301,0.1668190807104111,34.34341430664062,96.95213317871094,-6.635589599609375
183651,0.1636199951171875,0.3971710205078125,-0.0015106201171875,-0.1213890090584755,-0.0471001341938972,0.0714166611433029,34.4476318359375,97.07917785644533,-6.810577392578125
183652,0.1316070556640625,0.3845672607421875,-0.0088348388671875,-0.1960432827472687,-0.1993716955184937,-0.0804442390799522,34.47160339355469,97.1011962890625,-6.896759033203125
183653,0.1316070556640625,0.3845672607421875,-0.0088348388671875,-0.1960432827472687,-0.1993716955184937,-0.0804442390799522,34.47160339355469,97.1011962890625,-6.896759033203125
183654,0.095458984375,0.3789520263671875,-0.038970947265625,-0.1677463948726654,-0.2584342062473297,-0.2543039321899414,34.60409545898438,97.25645446777344,-6.760421752929688
183655,0.0276641845703125,0.402252197265625,-0.0461883544921875,-0.1117512956261635,-0.2108203619718552,-0.4210817217826843,34.58836364746094,97.24440002441406,-6.666702270507812
183656,-0.100921630859375,0.5797882080078125,0.1009979248046875,-0.1850207149982452,-0.1101986765861511,-0.4569081664085388,34.40293884277344,97.18344116210938,-6.443771362304688
183657,-0.100921630859375,0.5797882080078125,0.1009979248046875,-0.1850207149982452,-0.1101986765861511,-0.4569081664085388,34.40293884277344,97.18344116210938,-6.443771362304688
183658,-0.1522369384765625,0.7540130615234375,0.1873626708984375,-0.6236652135848999,0.1815743148326874,-0.3904372453689575,34.1002197265625,97.19764709472656,-6.214187622070312
183659,-0.1751708984375,0.8547821044921875,0.1025390625,-0.6236652135848999,0.1815743148326874,-0.3904372453689575,33.92352294921875,97.19967651367188,-6.134872436523438
183660,-0.1883544921875,1.020797729492188,-0.157623291015625,-0.7061017155647278,-0.0628934800624847,-0.3356187343597412,33.71165466308594,97.1587371826172,-5.796554565429688
183661,-0.1883544921875,1.020797729492188,-0.157623291015625,-0.7061017155647278,-0.0628934800624847,-0.3356187343597412,33.71165466308594,97.1587371826172,-5.796554565429688
183662,-0.1935272216796875,1.471206665039062,-0.299652099609375,-0.7131500840187073,-0.3288876116275787,0.0613230131566524,33.31922912597656,97.24072265625,-5.220016479492188
183663,-0.2017364501953125,1.5723876953125,0.151031494140625,-0.7131500840187073,-0.3288876116275787,0.0613230131566524,33.15226745605469,97.23844909667967,-4.899948120117188
183664,-0.2268524169921875,1.679824829101562,0.53436279296875,-0.8492921590805054,-0.2446126788854599,0.1607883423566818,33.02592468261719,97.26246643066406,-4.548858642578125
183665,-0.226104736328125,1.89031982421875,0.779327392578125,-1.020702838897705,-0.2576493918895721,0.1335183829069138,33.01153564453125,97.18722534179688,-4.14630126953125
183666,-0.226104736328125,1.89031982421875,0.779327392578125,-1.020702838897705,-0.2576493918895721,0.1335183829069138,33.01153564453125,97.18722534179688,-4.14630126953125
183667,-0.156951904296875,2.37286376953125,0.4383697509765625,-1.279703497886658,0.3156391680240631,-0.1326568424701691,33.22221374511719,96.87904357910156,-3.29949951171875
183668,-0.1900634765625,2.372161865234375,0.1026458740234375,-1.172931790351868,0.3377101421356201,-0.1661756634712219,33.21382141113281,96.69367980957033,-2.744873046875
183669,-0.196014404296875,2.27044677734375,0.02117919921875,-0.8056371212005615,0.3869312107563019,-0.0360813066363334,33.145263671875,96.642333984375,-2.216400146484375
183670,-0.11944580078125,2.316299438476562,0.0430450439453125,-0.3617323637008667,0.4887433052062988,0.1091168969869614,32.98699951171875,96.51719665527344,-1.558395385742188
183671,-0.0569610595703125,2.300750732421875,0.072418212890625,-0.0847132876515388,0.60679030418396,0.2187137007713318,32.88453674316406,96.42166137695312,-1.291275024414062
183672,0.014404296875,2.136642456054688,0.0303802490234375,-0.0069380672648549,0.7700223922729492,0.251828521490097,32.76278686523438,96.47598266601562,-1.155120849609375
183673,0.0893707275390625,1.93719482421875,-0.080535888671875,0.1610802263021469,0.6420833468437195,0.2438091933727264,32.77427673339844,96.32882690429688,-1.207733154296875
183674,0.0893707275390625,1.93719482421875,-0.080535888671875,0.1610802263021469,0.6420833468437195,0.2438091933727264,32.77427673339844,96.32882690429688,-1.207733154296875
183675,0.05816650390625,1.561172485351562,-0.0674285888671875,0.2632454931735992,0.5459418892860413,0.1950334012508392,32.77909851074219,96.34327697753906,-1.538238525390625
183676,-0.005218505859375,1.414886474609375,-0.01055908203125,0.3096095323562622,0.5290398597717285,0.1540633291006088,32.82186889648438,96.45777893066406,-1.731185913085938
183677,-0.084564208984375,1.359100341796875,-0.0037689208984375,0.29610675573349,0.3568936884403229,0.1747686117887497,32.91487121582031,96.5120086669922,-2.034011840820312
183678,-0.1462860107421875,1.361083984375,-0.0320281982421875,0.2899876236915588,0.1878338158130646,0.2212839126586914,32.92082214355469,96.5320281982422,-2.293807983398438
183679,-0.1595611572265625,1.344863891601562,-0.06689453125,0.2899876236915588,0.1878338158130646,0.2212839126586914,32.92298889160156,96.5171356201172,-2.540206909179688
183680,-0.120361328125,1.2857666015625,-0.0856170654296875,0.3459568619728088,0.0973803475499153,0.2710988819599152,33.05674743652344,96.43280029296876,-2.545639038085938
183681,-0.120361328125,1.2857666015625,-0.0856170654296875,0.3459568619728088,0.0973803475499153,0.2710988819599152,33.05674743652344,96.43280029296876,-2.545639038085938
183682,-0.0749053955078125,1.176895141601562,-0.1023101806640625,0.4823224246501923,0.0875378400087356,0.4124128520488739,33.2186279296875,96.45401000976562,-2.632476806640625
183683,0.0205841064453125,0.9020843505859376,-0.1808319091796875,0.8972948789596558,-0.13471919298172,0.6544662117958069,33.48994445800781,96.45669555664062,-3.127105712890625
183684,0.0837249755859375,0.7980194091796875,-0.21722412109375,1.040765762329102,-0.4178617000579834,0.7364279627799988,33.77119445800781,96.588623046875,-3.33270263671875
183685,0.0837249755859375,0.7980194091796875,-0.21722412109375,1.040765762329102,-0.4178617000579834,0.7364279627799988,33.77119445800781,96.588623046875,-3.33270263671875
183686,0.1417388916015625,0.7390289306640625,-0.2599639892578125,1.079845547676086,-0.9735566377639772,0.7959029674530029,34.08180236816406,96.6630401611328,-3.815444946289062
183687,0.2131195068359375,0.583251953125,-0.245269775390625,1.001707553863525,-1.109184503555298,0.8353604078292847,34.7994384765625,97.18049621582033,-4.707305908203125
183688,0.230804443359375,0.4941253662109375,-0.128753662109375,0.8809297680854797,-1.043874740600586,0.8920657634735107,35.17828369140625,97.38583374023438,-5.09619140625
183689,0.2054443359375,0.4339141845703125,0.063323974609375,0.7475389242172241,-0.6337913274765015,0.9423893690109252,35.550537109375,97.57292175292967,-5.33831787109375
183690,0.2054443359375,0.4339141845703125,0.063323974609375,0.7475389242172241,-0.6337913274765015,0.9423893690109252,35.550537109375,97.57292175292967,-5.33831787109375
183691,0.080535888671875,0.396026611328125,0.219482421875,0.4835203289985657,0.5160106420516968,0.9204795360565186,36.62890625,97.83073425292967,-5.813552856445312
183692,0.0063934326171875,0.3884735107421875,0.157470703125,0.3851556777954102,0.8377122282981873,0.8007441163063049,37.10617065429688,97.92970275878906,-5.99151611328125
183693,0.0063934326171875,0.3884735107421875,0.157470703125,0.3851556777954102,0.8377122282981873,0.8007441163063049,37.10617065429688,97.92970275878906,-5.99151611328125
183694,-0.133544921875,0.2186279296875,0.0116424560546875,0.2272209078073502,0.3825511038303375,0.3363588452339172,37.90322875976562,98.15159606933594,-6.72540283203125
183695,-0.178802490234375,0.110443115234375,-0.044403076171875,0.2272209078073502,0.3825511038303375,0.3363588452339172,38.30844116210938,98.14030456542967,-6.827774047851562
183696,-0.1998291015625,0.0303955078125,-0.06231689453125,0.239561453461647,0.0112816831097006,0.2483024895191193,38.59722900390625,98.22024536132812,-6.964935302734375
183697,-0.1998291015625,0.0303955078125,-0.06231689453125,0.239561453461647,0.0112816831097006,0.2483024895191193,38.59722900390625,98.22024536132812,-6.964935302734375
183698,-0.1870574951171875,-0.02392578125,-0.010833740234375,0.2499299496412277,-0.2051145285367966,0.1900500953197479,38.8154296875,98.28160095214844,-7.040390014648438
183699,-0.0728912353515625,-0.049713134765625,0.15020751953125,0.0712669864296913,0.1132882088422775,0.1880830824375153,39.05473327636719,98.34797668457033,-7.143707275390625
183700,-0.0068359375,0.0446014404296875,0.13702392578125,-0.1368550509214401,0.4493048191070557,0.2542610466480255,39.12417602539062,98.43959045410156,-7.213623046875
183701,-0.0068359375,0.0446014404296875,0.13702392578125,-0.1368550509214401,0.4493048191070557,0.2542610466480255,39.12417602539062,98.43959045410156,-7.213623046875
183702,0.01220703125,0.3068389892578125,0.0075531005859375,-0.4934366047382355,0.6158474683761597,0.1831565052270889,39.29057312011719,98.59626770019533,-7.333358764648438
183703,-0.0210723876953125,0.4469757080078125,0.025054931640625,-0.6117350459098816,0.5203568935394287,0.0901541262865066,39.45242309570312,98.57850646972656,-7.297622680664062
183704,-0.0511474609375,0.5611114501953125,0.0855865478515625,-0.679256021976471,0.4994210004806519,-0.0028852687682956,39.55868530273438,98.61705017089844,-7.13189697265625
183705,-0.0616607666015625,0.662139892578125,0.158233642578125,-0.6908660531044006,0.7728533148765564,-0.1611167192459106,39.52635192871094,98.58570861816406,-6.827667236328125
183706,-0.0616607666015625,0.662139892578125,0.158233642578125,-0.6908660531044006,0.7728533148765564,-0.1611167192459106,39.52635192871094,98.58570861816406,-6.827667236328125
183707,-0.0653228759765625,0.806610107421875,0.321624755859375,-0.7291021347045898,1.233020901679993,-0.308658242225647,39.52664184570312,98.62290954589844,-6.185577392578125
183708,-0.0676116943359375,0.86883544921875,0.3592529296875,-0.7730754613876343,1.341150641441345,-0.3611217141151428,39.39738464355469,98.65676879882812,-5.927337646484375
183709,-0.0676116943359375,0.86883544921875,0.3592529296875,-0.7730754613876343,1.341150641441345,-0.3611217141151428,39.39738464355469,98.65676879882812,-5.927337646484375
183710,-0.0932159423828125,0.9801177978515624,0.47552490234375,-0.8094131946563721,1.410869240760803,-0.3762466013431549,39.00619506835938,98.634765625,-5.598587036132812
183711,-0.141632080078125,1.085052490234375,0.4664306640625,-0.8225277066230774,1.390750885009766,-0.3649984896183014,38.72193908691406,98.69105529785156,-5.474166870117188
183712,-0.2149658203125,1.229080200195312,0.4058990478515625,-0.812776505947113,1.323488473892212,-0.3713224232196808,38.39700317382812,98.71322631835938,-5.300933837890625
183713,-0.2149658203125,1.229080200195312,0.4058990478515625,-0.812776505947113,1.323488473892212,-0.3713224232196808,38.39700317382812,98.71322631835938,-5.300933837890625
183714,-0.2765655517578125,1.374359130859375,0.3426971435546875,-0.6732934713363647,1.294713377952576,-0.5167182087898254,38.00248718261719,98.7235870361328,-5.20709228515625
183715,-0.3733367919921875,1.514999389648438,0.3125457763671875,-0.5900430679321289,1.319179534912109,-0.595488429069519,37.14895629882812,98.6999969482422,-4.787750244140625
183716,-0.3853912353515625,1.516937255859375,0.264129638671875,-0.5802996158599854,1.172149300575256,-0.6505774855613708,36.5545654296875,98.67340087890624,-4.835601806640625
183717,-0.3853912353515625,1.516937255859375,0.264129638671875,-0.5802996158599854,1.172149300575256,-0.6505774855613708,36.5545654296875,98.67340087890624,-4.835601806640625
183718,-0.33721923828125,1.5283203125,0.2498779296875,-0.635164737701416,1.029597759246826,-0.6661908030509949,36.10208129882812,98.69938659667967,-4.89886474609375
183719,-0.159149169921875,1.61737060546875,-0.068511962890625,-0.6932730078697205,0.6812965273857117,-0.6477928757667542,35.29161071777344,98.41477966308594,-4.746307373046875
183720,-0.0643310546875,1.647796630859375,-0.3054351806640625,-0.5471256971359253,0.3497731685638428,-0.5805861353874207,34.84873962402344,98.29202270507812,-4.540206909179688
183721,0.049591064453125,1.6973876953125,-0.4155731201171875,-0.2553609311580658,0.1528587937355042,-0.4663722217082977,34.35887145996094,98.1502685546875,-4.305984497070312
183722,0.1217193603515625,1.771148681640625,-0.3725433349609375,0.052814744412899,0.1116309240460396,-0.3444620370864868,33.92973327636719,98.08740234375,-4.125640869140625
183723,0.133392333984375,1.8048095703125,-0.2234039306640625,0.2254480421543121,0.1259158551692963,-0.2574081122875214,33.63630676269531,97.89431762695312,-3.981735229492188
183724,0.1044769287109375,1.794326782226562,-0.1531219482421875,0.2376820594072342,0.0980543941259384,-0.1942839920520782,33.41049194335938,97.78579711914062,-3.755615234375
183725,0.027313232421875,1.746337890625,-0.20928955078125,0.208201676607132,-0.2217893898487091,-0.1306211203336716,33.17526245117188,97.68537902832033,-3.860580444335938
183726,-0.039520263671875,1.663955688476562,-0.278350830078125,0.208201676607132,-0.2217893898487091,-0.1306211203336716,33.00515747070312,97.72584533691406,-4.205703735351562
183727,-0.039520263671875,1.663955688476562,-0.278350830078125,0.208201676607132,-0.2217893898487091,-0.1306211203336716,33.00515747070312,97.72584533691406,-4.205703735351562
183728,-0.096221923828125,1.642608642578125,-0.219085693359375,0.1754791438579559,-0.4177261292934418,0.1212097778916359,32.84918212890625,97.6702880859375,-4.488525390625
183729,-0.0979766845703125,1.675994873046875,-0.146820068359375,0.0837529525160789,-0.4027687609195709,0.2221230864524841,32.85971069335938,97.68228149414062,-4.468612670898438
183730,-0.0782928466796875,1.704254150390625,-0.061920166015625,0.0171334464102983,-0.3317683637142181,0.3007036447525024,32.90145874023438,97.73443603515624,-4.590423583984375
183731,-0.0514068603515625,1.728225708007812,-0.0101776123046875,0.0711024031043052,-0.2949224412441254,0.36663818359375,33.03607177734375,97.87379455566406,-4.641876220703125
183732,-0.0303955078125,1.690673828125,0.003997802734375,0.257323145866394,-0.3583128750324249,0.4082729816436768,33.18003845214844,97.9464111328125,-4.6756591796875
183733,-0.0191650390625,1.592681884765625,-0.0220947265625,0.5126364231109619,-0.5462327003479004,0.4257622361183167,33.40260314941406,97.98077392578124,-4.61505126953125
183734,-0.0191650390625,1.592681884765625,-0.0220947265625,0.5126364231109619,-0.5462327003479004,0.4257622361183167,33.40260314941406,97.98077392578124,-4.61505126953125
183735,0.01708984375,1.325942993164062,-0.129486083984375,1.130821585655212,-1.421554923057556,0.4432490766048431,33.90469360351562,97.925537109375,-4.798660278320312
183736,0.0596466064453125,1.154205322265625,-0.112548828125,1.130821585655212,-1.421554923057556,0.4432490766048431,34.22265625,97.87828063964844,-4.877716064453125
183737,0.0596466064453125,1.154205322265625,-0.112548828125,1.130821585655212,-1.421554923057556,0.4432490766048431,34.22265625,97.87828063964844,-4.877716064453125
183738,0.0950775146484375,0.98126220703125,-0.0176544189453125,1.184408903121948,-1.135529279708862,0.5176772475242615,34.88148498535156,98.06350708007812,-5.378616333007812
183739,0.0979156494140625,0.7940673828125,0.2010498046875,1.110671281814575,-0.7426972985267639,0.5735607147216797,35.33456420898438,98.18661499023438,-5.754013061523438
183740,0.1013946533203125,0.7581024169921875,0.2361907958984375,0.96714049577713,-0.3147105276584625,0.5710448622703552,35.6748046875,98.25105285644533,-6.1287841796875
183741,0.1013946533203125,0.7581024169921875,0.2361907958984375,0.96714049577713,-0.3147105276584625,0.5710448622703552,35.6748046875,98.25105285644533,-6.1287841796875
183742,0.105010986328125,0.7067718505859375,0.1569671630859375,0.7865955233573914,-0.0099056279286742,0.4994556307792664,36.04264831542969,98.3779296875,-6.279220581054688
183743,0.040496826171875,0.559234619140625,-0.037689208984375,0.5923184752464294,-0.0417003072798252,0.1741172075271606,36.68017578125,98.59768676757812,-6.926544189453125
183744,-0.0268096923828125,0.478057861328125,0.0246429443359375,0.6110793352127075,-0.0681018233299255,-0.0922633484005928,36.90583801269531,98.71078491210938,-7.352783203125
183745,-0.0268096923828125,0.478057861328125,0.0246429443359375,0.6110793352127075,-0.0681018233299255,-0.0922633484005928,36.90583801269531,98.71078491210938,-7.352783203125
183746,-0.0530242919921875,0.3780670166015625,0.08843994140625,0.5986573100090027,0.0947558060288429,-0.3182914257049561,37.18234252929688,98.6863250732422,-7.765045166015625
183747,-0.1171875,0.262359619140625,0.019561767578125,0.5711268782615662,0.0715335682034492,-0.3318557143211365,36.99789428710938,98.64804077148438,-8.202163696289062
183748,-0.1475067138671875,0.2899627685546875,-0.0589141845703125,0.4949178695678711,-0.1029631346464157,-0.2932449281215668,36.8470458984375,98.71881103515624,-8.502273559570312
183749,-0.1762237548828125,0.3501739501953125,-0.1200714111328125,0.3777102828025818,-0.3354088962078094,-0.2412701398134232,36.68418884277344,98.88470458984376,-8.7652587890625
183750,-0.1762237548828125,0.3501739501953125,-0.1200714111328125,0.3777102828025818,-0.3354088962078094,-0.2412701398134232,36.68418884277344,98.88470458984376,-8.7652587890625
183751,-0.141510009765625,0.418853759765625,-0.18902587890625,0.2126446217298508,-0.3988166153430939,-0.0973806157708168,36.35430908203125,99.0518798828125,-9.155319213867188
183752,-0.0190887451171875,0.439666748046875,-0.1922607421875,0.2020039558410645,-0.0559679269790649,0.0076102488674223,36.22314453125,99.13893127441406,-9.294967651367188
183753,0.1179046630859375,0.476409912109375,-0.1604461669921875,0.2025512456893921,0.2015301883220673,0.0478122644126415,36.18479919433594,99.1637725830078,-9.354721069335938
183754,0.1179046630859375,0.476409912109375,-0.1604461669921875,0.2025512456893921,0.2015301883220673,0.0478122644126415,36.18479919433594,99.1637725830078,-9.354721069335938
183755,0.20355224609375,0.4803619384765625,0.0574951171875,0.2117226421833038,0.3230528831481934,0.1450866162776947,36.29487609863281,98.96304321289062,-9.47186279296875
183756,0.2041168212890625,0.438629150390625,0.0757904052734375,0.2366479635238647,0.2578704357147217,0.1276961714029312,36.38987731933594,98.87985229492188,-9.481063842773438
183757,0.2041168212890625,0.438629150390625,0.0757904052734375,0.2366479635238647,0.2578704357147217,0.1276961714029312,36.38987731933594,98.87985229492188,-9.481063842773438
183758,0.1909332275390625,0.3500518798828125,0.05169677734375,0.2576030492782593,0.1343836337327957,0.0721588805317878,36.41316223144531,98.8751220703125,-9.557266235351562
183759,0.1381988525390625,0.191070556640625,-0.02813720703125,0.182439848780632,-0.066175028681755,-0.0393599234521389,36.470947265625,98.8891143798828,-9.73712158203125
183760,0.122528076171875,0.1362152099609375,-0.081695556640625,0.0849367305636405,-0.1714622974395752,-0.0886531695723533,36.5194091796875,98.88076782226562,-9.76068115234375
183761,0.122528076171875,0.1362152099609375,-0.081695556640625,0.0849367305636405,-0.1714622974395752,-0.0886531695723533,36.5194091796875,98.88076782226562,-9.76068115234375
183762,0.1099853515625,0.19207763671875,-0.102447509765625,-0.0926090329885482,-0.3164248168468475,-0.1723041236400604,36.43603515625,98.90866088867188,-9.867950439453123
183763,0.082000732421875,0.2916259765625,0.009307861328125,-0.1739960312843323,-0.0759387090802192,-0.1962257027626038,36.41236877441406,98.90194702148438,-9.916915893554688
183764,0.049530029296875,0.40692138671875,0.1007232666015625,-0.3217372894287109,0.3504402935504913,-0.2169363051652908,36.317138671875,98.86067199707033,-9.820709228515623
183765,0.0075531005859375,0.5328369140625,0.1204071044921875,-0.5484652519226074,0.635535717010498,-0.2661730945110321,36.06326293945312,98.88978576660156,-9.749237060546877
183766,0.0075531005859375,0.5328369140625,0.1204071044921875,-0.5484652519226074,0.635535717010498,-0.2661730945110321,36.06326293945312,98.88978576660156,-9.749237060546877
183767,-0.13885498046875,0.938995361328125,0.0649566650390625,-0.9904367923736572,0.6371080279350281,-0.5649624466896057,35.86024475097656,98.97346496582033,-9.6680908203125
183768,-0.219757080078125,1.247665405273438,-0.069091796875,-1.069872736930847,0.3728569447994232,-0.8193404078483582,35.55760192871094,98.87393188476562,-9.41259765625
183769,-0.219757080078125,1.247665405273438,-0.069091796875,-1.069872736930847,0.3728569447994232,-0.8193404078483582,35.55760192871094,98.87393188476562,-9.41259765625
183770,-0.3145599365234375,1.511810302734375,-0.1371002197265625,-1.085106015205383,-0.0781725645065307,-1.018694519996643,35.1639404296875,98.76478576660156,-9.14593505859375
183771,-0.3971405029296875,1.68304443359375,0.0820465087890625,-1.089755415916443,-0.2364633977413177,-1.005163788795471,34.72720336914062,98.6493682861328,-8.790084838867188
183772,-0.1728973388671875,1.973587036132812,0.4478302001953125,-1.087967038154602,-0.1805814951658249,-0.5212392210960388,33.83139038085938,98.15060424804688,-7.851974487304688
183773,-0.0109710693359375,2.17791748046875,0.520599365234375,-1.098898768424988,-0.3957161605358124,-0.2083667814731598,33.55496215820312,97.83985900878906,-7.343536376953125
183774,-0.0109710693359375,2.17791748046875,0.520599365234375,-1.098898768424988,-0.3957161605358124,-0.2083667814731598,33.55496215820312,97.83985900878906,-7.343536376953125
183775,0.2037353515625,2.238677978515625,0.520477294921875,-1.038668274879456,-0.2789280414581299,0.0726291984319686,33.34335327148438,97.46884155273438,-6.35125732421875
183776,0.0973358154296875,1.677871704101562,0.2878265380859375,-0.8046120405197144,-0.0769752115011215,-0.1359991133213043,33.41154479980469,97.454833984375,-5.839675903320312
183777,0.0973358154296875,1.677871704101562,0.2878265380859375,-0.8046120405197144,-0.0769752115011215,-0.1359991133213043,33.41154479980469,97.454833984375,-5.839675903320312
183778,-0.1011505126953125,1.397537231445312,0.050506591796875,-0.3165198862552643,-0.0754169896245002,-0.1155220717191696,33.5328369140625,97.13191223144533,-4.799728393554688
183779,-0.0990447998046875,1.387847900390625,0.1603240966796875,-0.2570666968822479,-0.1917704939842224,-0.1537530720233917,33.50993347167969,97.04913330078124,-4.545455932617188
183780,-0.0778045654296875,1.346115112304688,0.1852264404296875,-0.3865152299404144,-0.124158963561058,-0.1877682954072952,33.48641967773438,96.89250183105467,-4.278961181640625
183781,-0.0222625732421875,1.374755859375,0.0555419921875,-0.5679366588592529,-0.024655545130372,-0.175674095749855,33.46504211425781,96.87458801269533,-4.20574951171875
183782,0.05938720703125,1.4737548828125,-0.167083740234375,-0.591619074344635,0.0173417050391435,-0.0956082791090011,33.32618713378906,96.91310119628906,-3.961318969726562
183783,0.1241302490234375,1.628860473632812,-0.36968994140625,-0.345455676317215,0.0402273125946521,0.0235806927084922,33.30865478515625,96.76370239257812,-3.70611572265625
183784,0.1563720703125,1.747222900390625,-0.458282470703125,0.0935730934143066,0.1656613945960999,0.1353072226047516,33.22154235839844,96.68766784667967,-3.401931762695312
183785,0.1563720703125,1.747222900390625,-0.458282470703125,0.0935730934143066,0.1656613945960999,0.1353072226047516,33.22154235839844,96.68766784667967,-3.401931762695312
183786,0.15289306640625,1.72186279296875,-0.328094482421875,0.5111804604530334,0.164955660700798,0.2227707654237747,33.12577819824219,96.78244018554688,-3.3143310546875
183787,0.1295623779296875,1.626907348632812,-0.0306396484375,0.7351920008659363,0.1255003958940506,0.2841917872428894,33.16769409179688,96.75048828125,-3.402374267578125
183788,0.0987091064453125,1.494384765625,0.070281982421875,0.6698875427246094,0.2282131910324097,0.1728045344352722,33.291748046875,97.1201171875,-3.927490234375
183789,0.006195068359375,1.43255615234375,0.050567626953125,0.4589167237281799,0.1427241265773773,0.1550175398588181,33.34425354003906,97.24617004394533,-4.436599731445312
183790,-0.0992889404296875,1.430923461914062,0.07452392578125,0.4589167237281799,0.1427241265773773,0.1550175398588181,33.43739318847656,97.36489868164062,-4.73590087890625
183791,-0.1644134521484375,1.453460693359375,0.1127777099609375,0.4164901673793793,0.0806586295366287,0.2405787855386734,33.4521484375,97.39828491210938,-4.943557739257812
183792,-0.2147369384765625,1.436264038085938,0.120635986328125,0.4277769029140472,0.0718291848897934,0.3108002245426178,33.69900512695312,97.43411254882812,-5.1072998046875
183793,-0.2147369384765625,1.436264038085938,0.120635986328125,0.4277769029140472,0.0718291848897934,0.3108002245426178,33.69900512695312,97.43411254882812,-5.1072998046875
183794,-0.2405548095703125,1.2945556640625,0.094146728515625,0.4341679513454437,0.0981073901057243,0.3862028419971466,33.76657104492188,97.5263214111328,-5.323013305664062
183795,-0.1911773681640625,0.952728271484375,0.1410064697265625,0.4582826197147369,0.2737836241722107,0.5633177161216736,34.08209228515625,97.751220703125,-5.787933349609375
183796,-0.1480712890625,0.81414794921875,0.192138671875,0.4325365126132965,0.4160592555999756,0.6199900507926941,34.32749938964844,97.78610229492188,-5.952163696289062
183797,-0.1480712890625,0.81414794921875,0.192138671875,0.4325365126132965,0.4160592555999756,0.6199900507926941,34.32749938964844,97.78610229492188,-5.952163696289062
183798,-0.0982208251953125,0.6876373291015625,0.1884002685546875,0.3506754636764526,0.3858230710029602,0.6780911684036255,34.57179260253906,97.77398681640624,-6.239776611328125
183799,-0.0327301025390625,0.564788818359375,0.1296539306640625,0.3473132252693176,0.203154444694519,0.7162201404571533,34.84909057617188,97.75529479980467,-6.476364135742188
183800,0.0945587158203125,0.471160888671875,0.0167236328125,0.3501806557178497,-0.03414998203516,0.6980198621749878,35.30882263183594,98.032470703125,-6.792877197265625
183801,0.148101806640625,0.4977569580078125,-0.0198974609375,0.3450441956520081,-0.3124598860740662,0.6369407773017883,35.68620300292969,98.02992248535156,-7.007171630859375
183802,0.148101806640625,0.4977569580078125,-0.0198974609375,0.3450441956520081,-0.3124598860740662,0.6369407773017883,35.68620300292969,98.02992248535156,-7.007171630859375
183803,0.251953125,0.5494384765625,-0.0924530029296875,0.2644345760345459,-0.9267427921295166,0.4918855726718903,36.27833557128906,98.15521240234376,-7.263687133789062
183804,0.30364990234375,0.5429534912109375,-0.113525390625,0.2159250974655151,-1.119067430496216,0.4424104392528534,36.53338623046875,98.32933044433594,-7.309356689453125
183805,0.3411712646484375,0.5107574462890625,-0.155609130859375,0.2039715051651001,-1.207740068435669,0.3923267722129822,36.76167297363281,98.29486083984376,-7.37005615234375
183806,0.3411712646484375,0.5107574462890625,-0.155609130859375,0.2039715051651001,-1.207740068435669,0.3923267722129822,36.76167297363281,98.29486083984376,-7.37005615234375
183807,0.3464508056640625,0.3784637451171875,-0.1378936767578125,0.3980280756950378,-1.043949842453003,0.2386714369058609,37.28984069824219,98.41438293457033,-7.05560302734375
183808,0.2468109130859375,0.28155517578125,-0.13177490234375,0.5675875544548035,-0.6107968091964722,0.1483828127384186,37.51199340820312,98.58090209960938,-6.901626586914062
183809,0.035980224609375,0.196441650390625,-0.220672607421875,0.6858987212181091,-0.2782699763774872,0.0853362008929252,37.76844787597656,98.55601501464844,-6.836441040039062
183810,0.035980224609375,0.196441650390625,-0.220672607421875,0.6858987212181091,-0.2782699763774872,0.0853362008929252,37.76844787597656,98.55601501464844,-6.836441040039062
183811,-0.0876007080078125,0.14837646484375,-0.18524169921875,0.4933559000492096,-0.1891608685255051,0.0266718249768018,37.97482299804688,98.70135498046876,-7.367645263671875
183812,-0.099517822265625,0.1188507080078125,-0.1513671875,0.2552946209907532,-0.0843106210231781,-0.0005906891310587,38.10939025878906,98.7520751953125,-7.691192626953125
183813,-0.099517822265625,0.1188507080078125,-0.1513671875,0.2552946209907532,-0.0843106210231781,-0.0005906891310587,38.10939025878906,98.7520751953125,-7.691192626953125
183814,-0.1126708984375,0.2077178955078125,-0.1413421630859375,-0.1215232387185097,0.2712669372558594,0.0322554074227809,38.21522521972656,98.937744140625,-8.092361450195312
183815,-0.116485595703125,0.3246002197265625,-0.2128448486328125,-0.2010460197925568,0.3775765895843506,0.0264052413403987,38.20880126953125,98.93060302734376,-7.987472534179688
183816,-0.07305908203125,0.4388580322265625,-0.246185302734375,-0.2250016927719116,0.3627832531929016,-0.0083143888041377,38.19813537597656,98.84396362304688,-7.94525146484375
183817,-0.07305908203125,0.4388580322265625,-0.246185302734375,-0.2250016927719116,0.3627832531929016,-0.0083143888041377,38.19813537597656,98.84396362304688,-7.94525146484375
183818,0.1012420654296875,0.653350830078125,-0.0945892333984375,-0.2608592808246613,0.5985339879989624,-0.0100662158802151,38.13055419921875,98.93788146972656,-8.0113525390625
183819,0.1428070068359375,0.78521728515625,0.001373291015625,-0.3643883466720581,0.8010258674621582,0.0049838395789265,38.05117797851562,98.81419372558594,-7.80902099609375
183820,0.158294677734375,0.9551544189453124,0.0925140380859375,-0.7667240500450134,1.085188865661621,-0.1515780687332153,37.97090148925781,98.87509155273438,-7.862335205078125
183821,0.128265380859375,1.151458740234375,0.214385986328125,-0.7667240500450134,1.085188865661621,-0.1515780687332153,37.90519714355469,98.98274230957033,-7.731979370117188
183822,0.039459228515625,1.328033447265625,0.3487396240234375,-1.015051603317261,1.346121668815613,-0.3307385146617889,37.71830749511719,99.03555297851562,-7.616714477539062
183823,-0.06256103515625,1.438949584960938,0.4227294921875,-1.22765576839447,1.611043095588684,-0.5018386244773865,37.61048889160156,98.9696807861328,-7.276992797851562
183824,-0.1630401611328125,1.479995727539062,0.406219482421875,-1.350760936737061,1.646750688552856,-0.6277195811271667,37.42059326171875,98.83653259277344,-6.954193115234375
183825,-0.2523651123046875,1.496368408203125,0.384857177734375,-1.323866963386536,1.463591337203979,-0.7292949557304382,37.20376586914062,98.73565673828124,-6.6663818359375
183826,-0.2523651123046875,1.496368408203125,0.384857177734375,-1.323866963386536,1.463591337203979,-0.7292949557304382,37.20376586914062,98.73565673828124,-6.6663818359375
183827,-0.313507080078125,1.519973754882812,0.3606414794921875,-1.178107380867004,1.215324759483337,-0.794548511505127,36.80230712890625,98.61366271972656,-6.623992919921875
183828,-0.37518310546875,1.574417114257812,0.3225860595703125,-0.7712530493736267,1.067609071731567,-0.7497570514678955,35.97491455078125,98.26168823242188,-5.9755859375
183829,-0.3959808349609375,1.5751953125,0.2779388427734375,-0.5660450458526611,1.052767515182495,-0.4413923025131226,35.46980285644531,98.20457458496094,-5.712570190429688
183830,-0.3959808349609375,1.5751953125,0.2779388427734375,-0.5660450458526611,1.052767515182495,-0.4413923025131226,35.46980285644531,98.20457458496094,-5.712570190429688
183831,-0.3119964599609375,1.5853271484375,0.1271514892578125,-0.4577486515045166,0.8590489625930786,-0.3891205787658691,34.77885437011719,97.90608215332033,-5.54656982421875
183832,-0.2318115234375,1.550521850585938,0.043365478515625,-0.2808180749416351,0.8152159452438354,-0.3417842388153076,34.52871704101562,97.7073211669922,-5.39697265625
183833,-0.187286376953125,1.470718383789062,-0.09136962890625,-0.0463629700243473,0.7314715385437012,-0.2830402255058289,34.1705322265625,97.72883605957033,-5.3067626953125
183834,-0.187286376953125,1.470718383789062,-0.09136962890625,-0.0463629700243473,0.7314715385437012,-0.2830402255058289,34.1705322265625,97.72883605957033,-5.3067626953125
183835,-0.1313934326171875,1.075210571289062,0.063751220703125,0.2690804600715637,0.4676497578620911,-0.1634725481271744,33.63047790527344,97.67172241210938,-5.545730590820312
183836,-0.091827392578125,0.9655303955078124,0.1877593994140625,0.1906929910182953,0.3788138926029205,-0.1168137043714523,33.38002014160156,97.6348876953125,-5.705520629882812
183837,-0.0908203125,1.103927612304688,0.2466583251953125,-0.3975130021572113,0.252138763666153,-0.1401634961366653,33.04608154296875,97.5007781982422,-6.047927856445312
183838,-0.0908203125,1.103927612304688,0.2466583251953125,-0.3975130021572113,0.252138763666153,-0.1401634961366653,33.04608154296875,97.5007781982422,-6.047927856445312
183839,-0.0995635986328125,1.272018432617188,0.1785888671875,-0.6749600768089294,0.0578992515802383,-0.2139208167791367,33.01542663574219,97.47219848632812,-6.083526611328125
183840,-0.0916595458984375,1.454635620117188,0.06842041015625,-0.7363347411155701,-0.0424244217574596,-0.2458118945360184,32.96505737304688,97.41806030273438,-5.950119018554688
183841,-0.0511016845703125,1.640289306640625,-0.1764068603515625,-0.5086485743522644,-0.0796303823590278,-0.2109359353780746,32.86054992675781,97.3489227294922,-5.844207763671875
183842,-0.0511016845703125,1.640289306640625,-0.1764068603515625,-0.5086485743522644,-0.0796303823590278,-0.2109359353780746,32.86054992675781,97.3489227294922,-5.844207763671875
183843,-0.0233917236328125,1.631072998046875,-0.108123779296875,0.2808979749679565,-0.2434808313846588,-0.1999509334564209,32.59916687011719,97.15345764160156,-5.349761962890625
183844,-0.0228729248046875,1.399276733398438,0.149810791015625,0.3828941285610199,-0.3276526927947998,-0.2000049948692322,32.4197998046875,97.08055114746094,-5.304473876953125
183845,0.058135986328125,1.235107421875,0.1553192138671875,0.3314509093761444,-0.5615645051002502,-0.0590928792953491,32.27114868164062,97.0898895263672,-5.4580078125
183846,0.058135986328125,1.235107421875,0.1553192138671875,0.3314509093761444,-0.5615645051002502,-0.0590928792953491,32.27114868164062,97.0898895263672,-5.4580078125
183847,0.05377197265625,1.200775146484375,0.0427093505859375,0.3227852284908295,-1.078450322151184,0.1403986513614655,32.28001403808594,97.0823211669922,-5.647018432617188
183848,0.033721923828125,1.154510498046875,-0.0694122314453125,0.3227852284908295,-1.078450322151184,0.1403986513614655,32.26414489746094,97.12347412109376,-5.615036010742188
183849,0.0461578369140625,1.112899780273438,-0.167999267578125,0.4463561773300171,-1.216476321220398,0.1777620017528534,32.28324890136719,97.18418884277344,-5.63177490234375
183850,0.05517578125,1.106109619140625,-0.2184600830078125,0.6149275898933411,-1.285024166107178,0.1819825917482376,32.404296875,97.15711975097656,-5.58544921875
183851,0.04290771484375,1.097030639648438,-0.2295379638671875,0.7603545784950256,-1.261362552642822,0.1355943083763123,32.66940307617188,97.02972412109376,-5.558059692382812
183852,0.0068511962890625,1.075881958007812,-0.2388916015625,0.851041853427887,-1.175933957099915,0.0718675330281257,32.85745239257812,97.0601806640625,-5.555450439453125
183853,-0.0487060546875,1.045394897460938,-0.2504425048828125,0.8762191534042358,-1.043424129486084,0.010749583132565,33.04977416992188,97.14471435546876,-5.5123291015625
183854,-0.0863800048828125,0.989776611328125,-0.2148284912109375,0.8401844501495361,-0.8204584121704102,-0.0137549601495266,33.32745361328125,97.26751708984376,-5.786880493164062
183855,-0.102874755859375,0.9099578857421876,-0.1295318603515625,0.753219723701477,-0.4257813990116119,-0.0208972916007041,33.39450073242188,97.31324768066406,-5.919586181640625
183856,-0.1115875244140625,0.84088134765625,-0.0786590576171875,0.6483036875724792,-0.0650346577167511,-0.0299451164901256,33.58079528808594,97.22935485839844,-6.140670776367188
183857,-0.1074981689453125,0.78179931640625,-0.0407562255859375,0.5793249011039734,0.119293101131916,-0.0363161973655223,33.6728515625,97.11367797851562,-6.337203979492188
183858,-0.1074981689453125,0.78179931640625,-0.0407562255859375,0.5793249011039734,0.119293101131916,-0.0363161973655223,33.6728515625,97.11367797851562,-6.337203979492188
183859,-0.0591888427734375,0.63092041015625,0.0004425048828125,0.6482070088386536,0.1803740411996841,-0.0564736612141132,33.64401245117188,97.21463012695312,-6.742568969726562
183860,-0.0323028564453125,0.5340423583984375,0.0187835693359375,0.7211480736732483,0.1804328858852386,-0.0335694104433059,33.70082092285156,97.15469360351562,-6.995040893554688
183861,0.0005645751953125,0.4361114501953125,0.0301971435546875,0.8245676755905151,0.2928851246833801,0.1380686610937119,33.70440673828125,97.15786743164062,-7.3955078125
183862,0.0005645751953125,0.4361114501953125,0.0301971435546875,0.8245676755905151,0.2928851246833801,0.1380686610937119,33.70440673828125,97.15786743164062,-7.3955078125
183863,0.0194854736328125,0.3095855712890625,-0.021331787109375,0.8517473340034485,0.3859114944934845,0.1981463730335236,33.71321105957031,97.30242919921876,-8.20965576171875
183864,0.0107879638671875,0.274383544921875,-0.0746917724609375,0.8487308025360107,0.41437828540802,0.2131444960832596,33.69491577148438,97.25209045410156,-8.357254028320312
183865,0.0025177001953125,0.2415008544921875,-0.133331298828125,0.8063772320747375,0.3389450311660767,0.191050112247467,33.680908203125,97.41629028320312,-8.87127685546875
183866,0.0025177001953125,0.2415008544921875,-0.133331298828125,0.8063772320747375,0.3389450311660767,0.191050112247467,33.680908203125,97.41629028320312,-8.87127685546875
183867,0.0048065185546875,0.203704833984375,-0.2197265625,0.6756908297538757,-0.0404883027076721,0.0747594609856605,33.784912109375,97.59162902832033,-9.602157592773438
183868,0.0211944580078125,0.21221923828125,-0.2196197509765625,0.5842775702476501,-0.2180886566638947,0.0097458381205797,33.84034729003906,97.56814575195312,-10.00860595703125
183869,0.0483856201171875,0.2729034423828125,-0.1970977783203125,0.4606930315494537,-0.3185598850250244,-0.0379351302981376,33.92141723632812,97.62605285644533,-10.2823486328125
183870,0.0880279541015625,0.371307373046875,-0.1647796630859375,0.2493906468153,-0.281866043806076,-0.0588127151131629,33.87686157226562,97.6535186767578,-10.55204772949219
183871,0.119049072265625,0.4952392578125,-0.1338348388671875,0.2493906468153,-0.281866043806076,-0.0588127151131629,33.87030029296875,97.76985168457033,-10.79908752441406
183872,0.1256103515625,0.6093597412109375,-0.103179931640625,0.2317655831575394,-0.2005618661642075,-0.0910199210047721,33.802001953125,97.78166198730467,-10.93946838378906
183873,0.1186981201171875,0.6835479736328125,-0.064727783203125,0.1616283059120178,-0.066260777413845,-0.2842564880847931,33.79754638671875,97.75469970703124,-10.97116088867188
183874,0.1186981201171875,0.6835479736328125,-0.064727783203125,0.1616283059120178,-0.066260777413845,-0.2842564880847931,33.79754638671875,97.75469970703124,-10.97116088867188
183875,0.02642822265625,0.6973876953125,0.0409393310546875,0.0467786900699138,-0.015931561589241,-0.356737345457077,33.67095947265625,97.97181701660156,-11.1317138671875
183876,-0.02410888671875,0.7090301513671875,0.091827392578125,-0.1060630530118942,0.0678685307502746,-0.3986065089702606,33.58929443359375,97.85983276367188,-11.16812133789062
183877,-0.065765380859375,0.795867919921875,0.1187591552734375,-0.27933070063591,0.2008729130029678,-0.4612397849559784,33.42710876464844,97.84945678710938,-11.21205139160156
183878,-0.065765380859375,0.795867919921875,0.1187591552734375,-0.27933070063591,0.2008729130029678,-0.4612397849559784,33.42710876464844,97.84945678710938,-11.21205139160156
183879,-0.14019775390625,1.134017944335938,-0.0183563232421875,-0.457303375005722,0.4214625358581543,-0.5761224627494812,33.08280944824219,97.90203857421876,-11.08120727539062
183880,-0.2008514404296875,1.29351806640625,-0.1382293701171875,-0.3678853511810303,0.3587184846401215,-0.5803097486495972,32.85000610351562,97.88229370117188,-10.92903137207031
183881,-0.308990478515625,1.295089721679688,0.1014404296875,-0.2438331693410873,0.4939836263656616,-0.3536283671855927,32.1917724609375,97.89744567871094,-11.02197265625
183882,-0.308990478515625,1.295089721679688,0.1014404296875,-0.2438331693410873,0.4939836263656616,-0.3536283671855927,32.1917724609375,97.89744567871094,-11.02197265625
183883,-0.251922607421875,1.23785400390625,0.263946533203125,-0.4159892201423645,0.5957107543945312,-0.2765200138092041,31.94061279296875,97.76370239257812,-10.98109436035156
183884,-0.2342987060546875,1.228012084960938,0.3809814453125,-0.6269970536231995,0.5510836839675903,-0.3712249398231506,31.71171569824219,97.71923828125,-10.925048828125
183885,-0.298492431640625,1.204544067382812,0.457611083984375,-0.7498968839645386,0.4124064743518829,-0.5586379766464233,31.51780700683594,97.67066955566406,-10.91827392578125
183886,-0.298492431640625,1.204544067382812,0.457611083984375,-0.7498968839645386,0.4124064743518829,-0.5586379766464233,31.51780700683594,97.67066955566406,-10.91827392578125
183887,-0.400146484375,1.124099731445312,0.509552001953125,-0.7054444551467896,-0.036366794258356,-0.6679127812385559,31.25750732421875,97.56886291503906,-10.64112854003906
183888,-0.3995208740234375,1.16058349609375,0.5046844482421875,-0.7335589528083801,-0.1386391073465347,-0.5277538299560547,31.06446838378906,97.37045288085938,-10.29443359375
183889,-0.314117431640625,1.270523071289062,0.3944091796875,-1.278722882270813,-0.2755093276500702,-0.4193954169750214,30.77450561523438,97.21978759765624,-10.09986877441406
183890,-0.314117431640625,1.270523071289062,0.3944091796875,-1.278722882270813,-0.2755093276500702,-0.4193954169750214,30.77450561523438,97.21978759765624,-10.09986877441406
183891,-0.137237548828125,1.434829711914062,-0.0969696044921875,-1.558424353599548,-0.4605018198490143,-0.376350998878479,30.2662353515625,96.8905792236328,-9.35186767578125
183892,-0.0177459716796875,1.513656616210938,-0.3383331298828125,-1.635547041893005,-0.6931467652320862,-0.3294838964939117,30.05091857910156,96.69696044921876,-8.82257080078125
183893,0.083740234375,1.541488647460938,-0.308929443359375,-1.407775163650513,-0.7379249334335327,-0.2847182750701904,29.89143371582031,96.55140686035156,-8.005752563476562
183894,0.12835693359375,1.523529052734375,-0.0979156494140625,-0.9806736707687378,-0.4824286997318268,-0.203042060136795,29.67808532714844,96.38717651367188,-7.182296752929688
183895,0.120635986328125,1.52880859375,0.053741455078125,-0.5765690207481384,-0.2506023943424225,-0.1413395553827286,29.6590576171875,96.13752746582033,-6.328811645507812
183896,0.106109619140625,1.587661743164062,0.12872314453125,-0.3493950068950653,-0.0586366802453994,-0.0780007913708686,29.60545349121094,95.9656982421875,-5.56719970703125
183897,0.1059112548828125,1.68731689453125,0.071075439453125,-0.2524887025356293,0.0755994170904159,-0.0418326668441295,29.61778259277344,95.9215850830078,-5.103744506835938
183898,0.1059112548828125,1.68731689453125,0.071075439453125,-0.2524887025356293,0.0755994170904159,-0.0418326668441295,29.61778259277344,95.9215850830078,-5.103744506835938
183899,0.138397216796875,1.766876220703125,-0.10174560546875,-0.0070856064558029,-0.0481899008154869,0.0514416210353374,29.55650329589844,95.7886962890625,-4.830322265625
183900,0.2398681640625,1.821075439453125,-0.371551513671875,0.1773335039615631,-0.1314994394779205,0.1451295018196106,29.62626647949219,95.67041015625,-4.521408081054688
183901,0.243438720703125,1.82244873046875,-0.32794189453125,0.4939939975738525,-0.0520088709890842,0.2240639925003052,29.49308776855469,95.68864440917967,-4.38616943359375
183902,0.243438720703125,1.82244873046875,-0.32794189453125,0.4939939975738525,-0.0520088709890842,0.2240639925003052,29.49308776855469,95.68864440917967,-4.38616943359375
183903,0.177001953125,1.635040283203125,-0.1326751708984375,0.6090255379676819,-0.0024080302100628,0.2368458360433578,29.61996459960938,95.73886108398438,-4.3944091796875
183904,0.1138763427734375,1.4195556640625,-0.06341552734375,0.7026694416999817,0.0350535921752452,0.2491411119699478,29.79243469238281,95.827880859375,-4.508148193359375
183905,0.0059814453125,1.26507568359375,-0.0347442626953125,0.7342391014099121,0.097866378724575,0.2283170521259308,30.05604553222656,96.00596618652344,-4.79827880859375
183906,0.0059814453125,1.26507568359375,-0.0347442626953125,0.7342391014099121,0.097866378724575,0.2283170521259308,30.05604553222656,96.00596618652344,-4.79827880859375
183907,-0.2259979248046875,1.111068725585938,-0.0104522705078125,0.5863601565361023,0.1753371953964233,0.0802732706069946,30.30278015136719,96.17178344726562,-5.245330810546875
183908,-0.2914886474609375,1.06597900390625,-0.02716064453125,0.4664854109287262,0.1175708398222923,0.0193446688354015,30.47227478027344,96.204345703125,-5.5196533203125
183909,-0.3010406494140625,1.038864135742188,-0.06134033203125,0.324237734079361,-0.2200918793678284,0.1167580410838127,30.63069152832031,96.23818969726562,-5.935089111328125
183910,-0.3010406494140625,1.038864135742188,-0.06134033203125,0.324237734079361,-0.2200918793678284,0.1167580410838127,30.63069152832031,96.23818969726562,-5.935089111328125
183911,-0.15606689453125,1.011642456054688,-0.24688720703125,0.397792637348175,-0.2978774905204773,0.2605777978897095,30.73965454101562,96.27775573730467,-6.281417846679688
183912,-0.092193603515625,1.010940551757812,-0.3078155517578125,0.5653976202011108,-0.3661172688007355,0.4377837181091309,30.76399230957031,96.3243408203125,-6.413681030273438
183913,-0.0674591064453125,0.992340087890625,-0.2337799072265625,0.7261731624603271,-0.4587595760822296,0.5939680337905884,30.98362731933594,96.2777099609375,-6.496841430664062
183914,-0.0674591064453125,0.992340087890625,-0.2337799072265625,0.7261731624603271,-0.4587595760822296,0.5939680337905884,30.98362731933594,96.2777099609375,-6.496841430664062
183915,-0.053436279296875,0.83966064453125,0.027496337890625,0.7202982306480408,-0.5763400197029114,0.7862953543663025,31.66168212890625,96.54240417480467,-7.202407836914062
183916,-0.04278564453125,0.7434234619140625,0.0729522705078125,0.6043146848678589,-0.5684053897857666,0.8029566407203674,32.13352966308594,96.71199035644533,-7.481765747070312
183917,-0.0284271240234375,0.62969970703125,0.049468994140625,0.4812228083610535,-0.6028608083724976,0.7711867094039917,32.4505615234375,96.88377380371094,-7.75225830078125
183918,-0.0284271240234375,0.62969970703125,0.049468994140625,0.4812228083610535,-0.6028608083724976,0.7711867094039917,32.4505615234375,96.88377380371094,-7.75225830078125
183919,0.0050811767578125,0.432830810546875,-0.047149658203125,0.3687516748905182,-0.9011495113372804,0.6617467999458313,33.28915405273438,97.06861877441406,-7.731704711914062
183920,0.0197601318359375,0.3463592529296875,-0.081451416015625,0.4009213149547577,-1.084584593772888,0.6438343524932861,33.69097900390625,97.15106201171876,-7.720260620117188
183921,0.094696044921875,0.192626953125,-0.1311798095703125,0.5322021245956421,-1.387283802032471,0.6375996470451355,34.48760986328125,97.19168090820312,-7.66845703125
183922,0.094696044921875,0.192626953125,-0.1311798095703125,0.5322021245956421,-1.387283802032471,0.6375996470451355,34.48760986328125,97.19168090820312,-7.66845703125
183923,0.128753662109375,0.12030029296875,-0.1123809814453125,0.6137251853942871,-1.403208136558533,0.6234942078590393,34.83512878417969,97.24710083007812,-7.536529541015625
183924,0.148712158203125,0.0579071044921875,-0.0722198486328125,0.6893088817596436,-1.266944766044617,0.613505482673645,35.11747741699219,97.31550598144533,-7.541366577148438
183925,0.1522979736328125,0.023834228515625,-0.0262908935546875,0.7215619087219238,-0.9765310883522034,0.5981491804122925,35.56088256835938,97.46661376953124,-7.744522094726562
183926,0.1522979736328125,0.023834228515625,-0.0262908935546875,0.7215619087219238,-0.9765310883522034,0.5981491804122925,35.56088256835938,97.46661376953124,-7.744522094726562
183927,0.13031005859375,-0.0162506103515625,0.050872802734375,0.6415680050849915,-0.1432498395442963,0.5052631497383118,36.18522644042969,97.69816589355467,-8.269760131835938
183928,0.101593017578125,0.0204315185546875,0.0659027099609375,0.5575021505355835,0.2491909116506577,0.4250117540359497,36.50688171386719,97.89646911621094,-8.593612670898438
183929,0.0677642822265625,0.1663055419921875,0.0423431396484375,0.4289162158966064,0.4962968528270721,0.2824561893939972,36.80390930175781,98.01669311523438,-8.783905029296875
183930,0.0677642822265625,0.1663055419921875,0.0423431396484375,0.4289162158966064,0.4962968528270721,0.2824561893939972,36.80390930175781,98.01669311523438,-8.783905029296875
183931,-0.0966949462890625,0.5340118408203125,-0.0041656494140625,-0.0043265712447464,0.3804991245269775,-0.0888079032301902,37.119873046875,98.17176818847656,-9.360427856445312
183932,-0.1567840576171875,0.692291259765625,-0.060302734375,-0.2694365382194519,0.1814185231924057,-0.3140367567539215,37.19102478027344,98.25161743164062,-9.408767700195312
183933,-0.1892547607421875,0.80804443359375,-0.0208282470703125,-0.5423490405082703,0.1070572137832642,-0.5214176177978516,37.03843688964844,98.3896942138672,-9.517669677734377
183934,-0.1892547607421875,0.80804443359375,-0.0208282470703125,-0.5423490405082703,0.1070572137832642,-0.5214176177978516,37.03843688964844,98.3896942138672,-9.517669677734377
183935,-0.2261962890625,0.966278076171875,0.36285400390625,-0.8940338492393494,1.273832321166992,-0.6071272492408752,36.56143188476562,98.38957214355467,-9.197784423828123
183936,-0.309844970703125,1.023422241210938,0.4122314453125,-0.9320054650306702,1.787877440452576,-0.6432721614837646,36.18443298339844,98.28469848632812,-8.959579467773438
183937,-0.3980865478515625,1.058334350585938,0.3721923828125,-0.913120985031128,1.904370307922363,-0.7170699834823608,35.85980224609375,98.04600524902344,-8.865524291992188
183938,-0.45074462890625,1.03167724609375,0.2960205078125,-0.8553884029388428,1.695631980895996,-0.660512387752533,35.55390930175781,97.98489379882812,-8.746932983398438
183939,-0.4488983154296875,1.00738525390625,0.295684814453125,-0.7448297142982483,1.410989284515381,-0.3881700932979584,35.22618103027344,97.78041076660156,-8.645370483398438
183940,-0.3622589111328125,1.13580322265625,0.3800811767578125,-0.647199809551239,1.290984630584717,-0.026849191635847,34.9315185546875,97.79396057128906,-8.647567749023438
183941,-0.1883544921875,1.384979248046875,0.4158782958984375,-0.680602490901947,1.139394879341125,0.1203658282756805,34.65869140625,97.814453125,-8.665679931640625
183942,-0.083465576171875,1.552001953125,0.4515380859375,-0.8519095182418823,1.022488951683044,0.0247841756790876,34.466552734375,97.80598449707033,-8.627838134765625
183943,-0.0061492919921875,1.598983764648438,0.4188232421875,-1.051473498344421,1.015472888946533,-0.1154802590608597,34.39932250976562,97.8555908203125,-8.463226318359375
183944,0.05487060546875,1.541473388671875,0.29443359375,-1.195242404937744,0.9438205361366272,-0.2962146103382111,34.27833557128906,97.77255249023438,-8.31170654296875
183945,0.080657958984375,1.426101684570312,0.1657562255859375,-1.247464060783386,0.7666939496994019,-0.4461271464824677,34.05767822265625,97.6596221923828,-8.134872436523438
183946,0.092315673828125,1.320663452148438,0.0567474365234375,-1.201557278633118,0.4892756938934326,-0.5172271728515625,33.66712951660156,97.5458984375,-7.76715087890625
183947,0.1163787841796875,1.259384155273438,-0.0079193115234375,-1.064843654632568,0.1729092001914978,-0.539989173412323,33.42843627929688,97.3665008544922,-7.337997436523438
183948,0.1195068359375,1.238937377929688,-0.0760040283203125,-0.8766964077949524,-0.1040667444467545,-0.547824501991272,33.08956909179688,97.15127563476562,-6.802902221679688
183949,0.0867767333984375,1.250732421875,-0.167327880859375,-0.6582849621772766,-0.3637854158878326,-0.5550283193588257,32.83154296875,97.03216552734376,-6.40032958984375
183950,0.0867767333984375,1.250732421875,-0.167327880859375,-0.6582849621772766,-0.3637854158878326,-0.5550283193588257,32.83154296875,97.03216552734376,-6.40032958984375
183951,-0.0046539306640625,1.408050537109375,-0.2664337158203125,-0.1288527846336365,-0.2325608134269714,-0.5126219987869263,32.33732604980469,96.87513732910156,-5.621429443359375
183952,-0.0332183837890625,1.511322021484375,-0.3755035400390625,0.1521003246307373,0.04635551571846,-0.4559475481510162,32.09970092773438,96.80224609375,-5.349075317382812
183953,-0.0829010009765625,1.60504150390625,-0.48089599609375,0.382554829120636,0.1634110361337662,-0.4185410737991333,31.83219909667969,96.8839111328125,-5.247650146484375
183954,-0.1373443603515625,1.656326293945312,-0.4962310791015625,0.5081399083137512,0.1005236804485321,-0.4274991452693939,31.6064453125,96.98715209960938,-5.306182861328125
183955,-0.14678955078125,1.585067749023438,-0.37310791015625,0.5157616138458252,0.0628713741898536,-0.391522228717804,31.34672546386719,96.83879089355467,-5.425750732421875
183956,-0.0852508544921875,1.430007934570312,-0.2611236572265625,0.4234085083007812,0.0252640768885612,-0.2602859139442444,31.07026672363281,96.89382934570312,-5.601715087890625
183957,0.040618896484375,1.317138671875,-0.2303009033203125,0.250527560710907,-0.0689985081553459,-0.0917341783642768,30.89309692382812,96.78732299804688,-5.8505859375
183958,0.040618896484375,1.317138671875,-0.2303009033203125,0.250527560710907,-0.0689985081553459,-0.0917341783642768,30.89309692382812,96.78732299804688,-5.8505859375
183959,0.0517120361328125,1.427581787109375,-0.290374755859375,-0.1699259281158447,-0.1226801127195358,0.0519521459937095,30.78895568847656,96.79910278320312,-6.141128540039062
183960,0.024017333984375,1.591796875,-0.3164215087890625,-0.2582525908946991,-0.0511492043733596,0.0231239609420299,30.81169128417969,96.80245971679688,-6.088851928710938
183961,0.02508544921875,1.677886962890625,-0.3645782470703125,-0.2140907198190689,0.0109407985582947,0.0170506220310926,30.82502746582031,96.80487060546876,-6.079132080078125
183962,0.02508544921875,1.677886962890625,-0.3645782470703125,-0.2140907198190689,0.0109407985582947,0.0170506220310926,30.82502746582031,96.80487060546876,-6.079132080078125
183963,0.003265380859375,1.552276611328125,-0.09002685546875,-0.028325380757451,0.0119165806099772,0.1439771503210068,30.88154602050781,96.69972229003906,-5.77020263671875
183964,-0.0267791748046875,1.414779663085938,0.007781982421875,-0.0002902845444623,-0.0811590328812599,0.2251966297626495,30.85624694824219,96.65464782714844,-5.528671264648438
183965,-0.0455474853515625,1.305221557617188,0.050689697265625,0.0489768646657466,-0.3149052262306213,0.2816529870033264,30.99850463867188,96.51898193359376,-5.484725952148438
183966,-0.0455474853515625,1.305221557617188,0.050689697265625,0.0489768646657466,-0.3149052262306213,0.2816529870033264,30.99850463867188,96.51898193359376,-5.484725952148438
183967,-0.0417327880859375,1.106613159179688,0.0904998779296875,0.3355385959148407,-0.3977827727794647,0.3185100555419922,31.48361206054688,96.63330078125,-5.502853393554688
183968,-0.033050537109375,1.00213623046875,0.0734100341796875,0.3355385959148407,-0.3977827727794647,0.3185100555419922,31.76242065429688,96.57936096191406,-5.386474609375
183969,-0.0067138671875,0.9003143310546875,-0.0043487548828125,0.4967447817325592,-0.5738734006881714,0.215296596288681,32.09609985351562,96.48484802246094,-5.324966430664062
183970,-0.0067138671875,0.9003143310546875,-0.0043487548828125,0.4967447817325592,-0.5738734006881714,0.215296596288681,32.09609985351562,96.48484802246094,-5.324966430664062
183971,0.0139007568359375,0.68035888671875,-0.0323486328125,0.5552805066108704,-0.7697592973709106,0.1256442070007324,32.58131408691406,96.42634582519533,-5.405715942382812
183972,0.0190582275390625,0.606689453125,0.0293426513671875,0.5597288012504578,-0.8380051851272583,0.0461544468998909,32.73692321777344,96.39657592773438,-5.45989990234375
183973,0.0316162109375,0.5920867919921875,0.0512847900390625,0.4810750186443329,-0.5275618433952332,-0.0412576906383037,32.86026000976562,96.45010375976562,-5.642807006835938
183974,0.0316162109375,0.5920867919921875,0.0512847900390625,0.4810750186443329,-0.5275618433952332,-0.0412576906383037,32.86026000976562,96.45010375976562,-5.642807006835938
183975,0.07794189453125,0.5812835693359375,-0.1923828125,0.5038740634918213,-0.4438749253749847,-0.07959496229887,32.92311096191406,96.54916381835938,-6.083938598632812
183976,0.0361175537109375,0.511627197265625,-0.226348876953125,0.6001790165901184,-0.3664299249649048,-0.0984852910041809,33.00865173339844,96.50604248046876,-6.189743041992188
183977,-0.025665283203125,0.4673004150390625,-0.109100341796875,0.6439917683601379,0.2607434391975403,-0.0785733684897422,33.00326538085938,96.55192565917967,-6.355148315429688
183978,-0.025665283203125,0.4673004150390625,-0.109100341796875,0.6439917683601379,0.2607434391975403,-0.0785733684897422,33.00326538085938,96.55192565917967,-6.355148315429688
183979,-0.116607666015625,0.5026397705078125,0.03302001953125,0.5331653952598572,0.4505868852138519,-0.1117928475141525,32.99005126953125,96.58119201660156,-6.822235107421875
183980,-0.14971923828125,0.492706298828125,0.1163482666015625,0.4254354536533356,0.5971680879592896,-0.1914535909891129,32.93327331542969,96.53562927246094,-6.972366333007812
183981,-0.1902008056640625,0.4532623291015625,0.1573333740234375,0.3846043944358826,0.7166239023208618,-0.2969403266906738,32.84707641601562,96.56468200683594,-7.294418334960938
183982,-0.2356414794921875,0.3975677490234375,0.138824462890625,0.4168646037578583,0.7179072499275208,-0.383936733007431,32.80961608886719,96.5745849609375,-7.616104125976562
183983,-0.2939605712890625,0.3251495361328125,0.0994720458984375,0.428461879491806,0.573379635810852,-0.4823956787586212,32.661376953125,96.45510864257812,-7.926681518554688
183984,-0.3685150146484375,0.2612152099609375,0.047607421875,0.428461879491806,0.573379635810852,-0.4823956787586212,32.47537231445312,96.37678527832033,-8.285079956054688
183985,-0.4033050537109375,0.2599334716796875,-0.075347900390625,0.3346373736858368,0.6058406233787537,-0.4011863172054291,32.22283935546875,96.35943603515624,-8.507034301757812
183986,-0.3092498779296875,0.4332427978515625,-0.296630859375,0.1135966032743454,0.0803696736693382,-0.2651286125183105,31.9544677734375,96.404541015625,-8.931793212890625
183987,-0.1576690673828125,0.6273956298828125,-0.3631744384765625,0.1135966032743454,0.0803696736693382,-0.2651286125183105,31.69459533691406,96.50228881835938,-9.203338623046877
183988,-0.0566864013671875,0.7354736328125,-0.224212646484375,0.1109480857849121,-0.1345740556716919,-0.2296252101659775,31.46223449707031,96.46115112304688,-9.49359130859375
183989,0.0421905517578125,0.8452911376953125,-0.1171722412109375,0.1472381800413132,-0.0433874204754829,-0.0898667722940444,31.21163940429688,96.42979431152344,-9.541946411132812
183990,0.12835693359375,0.9778900146484376,-0.0780181884765625,0.1472381800413132,-0.0433874204754829,-0.0898667722940444,31.03153991699219,96.3702392578125,-9.64617919921875
183991,0.195587158203125,1.147323608398438,-0.08746337890625,0.121647335588932,0.2621959447860718,0.1420223861932755,30.89021301269531,96.48866271972656,-9.684616088867188
183992,0.219451904296875,1.315353393554688,-0.131439208984375,0.121647335588932,0.2621959447860718,0.1420223861932755,30.73051452636719,96.4534912109375,-9.803253173828123
183993,0.197235107421875,1.378021240234375,-0.11566162109375,0.0951528772711753,0.308923214673996,0.1858843863010406,30.64361572265625,96.63029479980467,-9.88800048828125
183994,0.197235107421875,1.378021240234375,-0.11566162109375,0.0951528772711753,0.308923214673996,0.1858843863010406,30.64361572265625,96.63029479980467,-9.88800048828125
183995,0.08795166015625,1.117660522460938,-0.01544189453125,0.1191857755184174,-0.054286140948534,0.2190236896276474,30.58636474609375,96.79879760742188,-10.13882446289062
183996,0.086669921875,1.091888427734375,0.0200347900390625,0.1589172184467316,-0.2421204894781113,0.2324611991643906,30.71282958984375,96.90992736816406,-10.10194396972656
183997,0.103729248046875,1.120880126953125,0.0152740478515625,0.0752686560153961,-0.448340505361557,0.1630027741193771,30.87248229980469,96.94143676757812,-10.145263671875
183998,0.103729248046875,1.120880126953125,0.0152740478515625,0.0752686560153961,-0.448340505361557,0.1630027741193771,30.87248229980469,96.94143676757812,-10.145263671875
183999,0.0662689208984375,1.13568115234375,-0.101165771484375,0.0118702417239546,-0.578607439994812,0.0844176784157753,31.10688781738281,97.02151489257812,-10.24781799316406
184000,0.0158843994140625,1.07586669921875,-0.13970947265625,0.0134998299181461,-0.6608535647392273,0.0531457774341106,31.05340576171875,97.02198791503906,-10.15843200683594
184001,-0.0157623291015625,1.04150390625,-0.16949462890625,0.1964512765407562,-0.6685610413551331,0.0873354375362396,31.23426818847656,96.98649597167967,-9.980606079101562
184002,-0.0157623291015625,1.04150390625,-0.16949462890625,0.1964512765407562,-0.6685610413551331,0.0873354375362396,31.23426818847656,96.98649597167967,-9.980606079101562
184003,-0.060150146484375,1.095550537109375,-0.2683868408203125,0.2976101040840149,-0.7038396596908569,0.0968764796853065,31.38255310058594,96.99856567382812,-9.659713745117188
184004,-0.074920654296875,1.13360595703125,-0.27362060546875,0.2538866102695465,-0.571290910243988,0.1543562859296799,31.50852966308594,96.91081237792967,-9.428512573242188
184005,-0.076324462890625,1.155746459960938,-0.277557373046875,0.1197919175028801,-0.4702830910682678,0.1827445179224014,31.68301391601562,96.90792846679688,-9.414138793945312
184006,-0.076324462890625,1.155746459960938,-0.277557373046875,0.1197919175028801,-0.4702830910682678,0.1827445179224014,31.68301391601562,96.90792846679688,-9.414138793945312
184007,0.0315399169921875,1.093826293945312,-0.313323974609375,-0.0271642431616783,-0.2907745838165283,0.238969698548317,31.83682250976562,96.876708984375,-9.32806396484375
184008,0.0788421630859375,1.166000366210938,-0.33428955078125,-0.1696476191282272,-0.1769425570964813,0.2750416994094849,32.02378845214844,96.88768005371094,-9.20147705078125
184009,0.1042022705078125,1.306915283203125,-0.310760498046875,-0.3579088747501373,-0.2854514420032501,0.2587202489376068,32.13386535644531,96.89480590820312,-9.248321533203123
184010,0.1042022705078125,1.306915283203125,-0.310760498046875,-0.3579088747501373,-0.2854514420032501,0.2587202489376068,32.13386535644531,96.89480590820312,-9.248321533203123
184011,0.1270751953125,1.56671142578125,-0.11090087890625,-0.3593171536922455,-0.3299246430397034,0.2101226150989532,32.37930297851562,96.99510192871094,-9.0936279296875
184012,0.0894622802734375,1.624740600585938,0.0013885498046875,-0.3093970119953156,-0.3790455758571625,0.0948649942874908,32.53190612792969,96.98883056640624,-8.843704223632812
184013,-0.0044097900390625,1.57470703125,0.1361846923828125,-0.2089129984378815,-0.4632286429405212,-0.0999138131737709,32.65652465820312,96.94918823242188,-8.588516235351562
184014,-0.089813232421875,1.455703735351562,0.279510498046875,-0.2089129984378815,-0.4632286429405212,-0.0999138131737709,32.77888488769531,97.0089111328125,-8.362945556640625
184015,-0.1361846923828125,1.3765869140625,0.3346099853515625,-0.2426925301551819,-0.3667934536933899,-0.1277007013559341,32.78396606445312,97.01625061035156,-8.140380859375
184016,-0.1623382568359375,1.307464599609375,0.2873992919921875,-0.2993552684783936,-0.297521710395813,-0.1230036839842796,32.83541870117188,97.1019287109375,-7.894363403320312
184017,-0.173614501953125,1.247344970703125,0.1972503662109375,-0.2906789779663086,-0.2775684893131256,-0.091298222541809,32.91432189941406,96.95358276367188,-7.709320068359375
184018,-0.173614501953125,1.247344970703125,0.1972503662109375,-0.2906789779663086,-0.2775684893131256,-0.091298222541809,32.91432189941406,96.95358276367188,-7.709320068359375
184019,-0.1772308349609375,1.161819458007812,0.0533294677734375,-0.0569258667528629,-0.2864772975444794,-0.0359617285430431,32.99514770507812,96.873779296875,-7.394378662109375
184020,-0.170928955078125,1.093719482421875,0.022674560546875,-0.1171095818281174,-0.376943826675415,-0.0507739633321762,32.98709106445312,96.97921752929688,-7.0948486328125
184021,-0.1665802001953125,1.030807495117188,0.0402984619140625,-0.1171095818281174,-0.376943826675415,-0.0507739633321762,33.12236022949219,96.98277282714844,-6.832244873046875
184022,-0.1665802001953125,1.030807495117188,0.0402984619140625,-0.1171095818281174,-0.376943826675415,-0.0507739633321762,33.12236022949219,96.98277282714844,-6.832244873046875
184023,-0.1026763916015625,0.8588409423828125,0.0240020751953125,-0.2615378499031067,-0.4886085689067841,-0.0888198837637901,33.19975280761719,96.8360595703125,-6.499298095703125
184024,-0.049591064453125,0.771026611328125,-0.025909423828125,-0.2443338483572006,-0.6110482215881348,-0.0754500180482864,33.32904052734375,96.80964660644533,-6.147552490234375
184025,0.0133209228515625,0.702911376953125,-0.0752410888671875,0.0328626073896884,-0.915883481502533,0.0947384908795356,33.305908203125,96.75686645507812,-5.888671875
184026,0.0133209228515625,0.702911376953125,-0.0752410888671875,0.0328626073896884,-0.915883481502533,0.0947384908795356,33.305908203125,96.75686645507812,-5.888671875
184027,0.16876220703125,0.571868896484375,-0.08526611328125,0.2186809480190277,-0.9693301916122437,0.2544170916080475,33.37681579589844,96.57461547851562,-5.723617553710938
184028,0.1966705322265625,0.4847869873046875,-0.080230712890625,0.3615153133869171,-0.8390216827392578,0.3867000341415405,33.56037902832031,96.58139038085938,-5.433334350585938
184029,0.178192138671875,0.319976806640625,-0.1600494384765625,0.5692458748817444,-0.6552819609642029,0.5560512542724609,33.72212219238281,96.55661010742188,-5.246749877929688
184030,0.178192138671875,0.319976806640625,-0.1600494384765625,0.5692458748817444,-0.6552819609642029,0.5560512542724609,33.72212219238281,96.55661010742188,-5.246749877929688
184031,0.141143798828125,0.0483856201171875,-0.3067779541015625,0.612013578414917,-0.6802099347114563,0.5880986452102661,34.21136474609375,96.62132263183594,-5.18353271484375
184032,0.1349945068359375,-0.0186920166015625,-0.3535003662109375,0.6254966259002686,-0.7011027336120605,0.5994469523429871,34.48724365234375,96.62733459472656,-5.149658203125
184033,0.115509033203125,-0.038726806640625,-0.39215087890625,0.6066161394119263,-0.7198742628097534,0.5632455348968506,34.86985778808594,96.87242126464844,-5.322021484375
184034,0.115509033203125,-0.038726806640625,-0.39215087890625,0.6066161394119263,-0.7198742628097534,0.5632455348968506,34.86985778808594,96.87242126464844,-5.322021484375
184035,0.0935516357421875,-0.013580322265625,-0.33447265625,0.4410567581653595,-0.5087564587593079,0.3177278935909271,35.54525756835938,97.042236328125,-5.61663818359375
184036,0.1154937744140625,0.0450439453125,-0.335052490234375,0.3469337224960327,-0.2567974328994751,0.2289889752864838,35.76959228515625,97.0588836669922,-5.711349487304688
184037,0.150238037109375,0.3108062744140625,-0.51788330078125,0.4703752398490906,0.0119583923369646,0.3598593771457672,36.12255859375,97.0673828125,-6.064071655273438
184038,0.150238037109375,0.3108062744140625,-0.51788330078125,0.4703752398490906,0.0119583923369646,0.3598593771457672,36.12255859375,97.0673828125,-6.064071655273438
184039,0.2225189208984375,0.41790771484375,-0.5608978271484375,0.6188544631004333,0.017643442377448,0.4496569037437439,36.24348449707031,97.12057495117188,-6.256607055664062
184040,0.2614288330078125,0.5829620361328125,-0.53704833984375,0.629638135433197,0.0266542471945285,0.514435887336731,36.41249084472656,97.20584106445312,-6.38543701171875
184041,0.2926177978515625,0.8423004150390625,-0.478057861328125,0.0500929951667785,-0.1476557701826096,0.3445147573947906,36.45993041992188,97.2909698486328,-6.738174438476562
184042,0.2926177978515625,0.8423004150390625,-0.478057861328125,0.0500929951667785,-0.1476557701826096,0.3445147573947906,36.45993041992188,97.2909698486328,-6.738174438476562
184043,0.328460693359375,1.46868896484375,-0.1949005126953125,-0.3544395864009857,-0.1912573128938675,0.1519458591938019,36.75830078125,97.74996948242188,-7.254379272460938
184044,0.3216094970703125,1.720062255859375,-0.0384674072265625,-0.654670000076294,-0.1241768077015877,0.0003387540928088,36.76786804199219,97.73258972167967,-7.410903930664062
184045,0.283416748046875,1.853134155273438,0.0860595703125,-0.8351537585258484,0.095992311835289,-0.1789918541908264,36.84922790527344,97.89317321777344,-7.428375244140625
184046,0.2527008056640625,1.911270141601562,0.223968505859375,-0.8351537585258484,0.095992311835289,-0.1789918541908264,36.74465942382812,97.95635986328124,-7.291397094726562
184047,0.2326812744140625,1.973373413085938,0.281585693359375,-0.7675334215164185,0.1946837306022644,-0.205790713429451,36.5904541015625,98.0770263671875,-7.075225830078125
184048,0.16845703125,2.080093383789062,0.2825164794921875,-0.6574636101722717,0.1258013397455215,-0.2658655047416687,36.55714416503906,97.9868621826172,-6.609451293945312
184049,0.070098876953125,2.20245361328125,0.2760162353515625,-0.6107658743858337,-0.0177848562598228,-0.4172387719154358,36.38182067871094,97.923583984375,-6.230728149414062
184050,0.070098876953125,2.20245361328125,0.2760162353515625,-0.6107658743858337,-0.0177848562598228,-0.4172387719154358,36.38182067871094,97.923583984375,-6.230728149414062
184051,-0.320648193359375,2.312576293945312,0.1018829345703125,-0.4984393417835236,-0.2269844114780426,-0.3681468665599823,36.08280944824219,97.85423278808594,-5.6580810546875
184052,-0.3476409912109375,2.169540405273438,-0.0869903564453125,-0.2640095353126526,-0.1049740836024284,0.0251764599233865,36.06242370605469,97.76324462890624,-5.509796142578125
184053,0.006561279296875,1.926376342773438,-0.2406463623046875,-0.0810810029506683,0.0290042217820882,0.0881799235939979,35.90814208984375,97.73492431640624,-5.283157348632812
184054,0.006561279296875,1.926376342773438,-0.2406463623046875,-0.0810810029506683,0.0290042217820882,0.0881799235939979,35.90814208984375,97.73492431640624,-5.283157348632812
184055,-0.0638580322265625,1.604766845703125,-0.0121002197265625,-0.1167348697781563,0.1531573235988617,-0.0493001714348793,35.93260192871094,97.63121032714844,-5.100875854492188
184056,-0.13555908203125,1.507858276367188,0.03118896484375,-0.2268158346414566,0.1062140539288521,-0.0332927107810974,36.00987243652344,97.72174072265624,-5.067550659179688
184057,-0.208709716796875,1.387771606445312,0.103668212890625,-0.33802729845047,0.1822808533906937,0.1122522354125977,36.14276123046875,97.65911865234376,-4.885040283203125
184058,-0.208709716796875,1.387771606445312,0.103668212890625,-0.33802729845047,0.1822808533906937,0.1122522354125977,36.14276123046875,97.65911865234376,-4.885040283203125
184059,-0.201751708984375,1.355682373046875,0.0969390869140625,-0.2878411114215851,0.3903336524963379,0.3514150083065033,36.13667297363281,97.6121063232422,-4.726348876953125
184060,-0.1598663330078125,1.2860107421875,0.080230712890625,-0.2878411114215851,0.3903336524963379,0.3514150083065033,36.303466796875,97.59422302246094,-4.606796264648438
184061,-0.104705810546875,1.1961669921875,0.0774078369140625,-0.2152952700853348,0.4826116561889648,0.4269039332866669,36.32060241699219,97.55517578125,-4.505874633789062
184062,-0.104705810546875,1.1961669921875,0.0774078369140625,-0.2152952700853348,0.4826116561889648,0.4269039332866669,36.32060241699219,97.55517578125,-4.505874633789062
184063,-0.022674560546875,1.032806396484375,0.1055145263671875,-0.1118034943938255,0.6366140246391296,0.5278995037078857,36.70573425292969,97.472412109375,-4.44488525390625
184064,-0.0064849853515625,0.9157257080078124,0.1270751953125,-0.1088732182979584,0.7099284529685974,0.534673273563385,36.93568420410156,97.55030822753906,-4.434814453125
184065,0.0164337158203125,0.7957611083984375,0.133514404296875,-0.1512121558189392,0.784081220626831,0.5469003915786743,37.16204833984375,97.67822265625,-4.319869995117188
184066,0.0164337158203125,0.7957611083984375,0.133514404296875,-0.1512121558189392,0.784081220626831,0.5469003915786743,37.16204833984375,97.67822265625,-4.319869995117188
184067,0.047393798828125,0.616241455078125,0.1041717529296875,-0.1926911622285843,0.3583757281303406,0.4342433214187622,37.54768371582031,97.8319091796875,-4.495773315429688
184068,0.06787109375,0.566741943359375,0.114990234375,-0.1926911622285843,0.3583757281303406,0.4342433214187622,37.80409240722656,97.75369262695312,-4.373367309570312
184069,0.0883636474609375,0.5656890869140625,0.1568450927734375,-0.1589696705341339,-0.3005246818065643,0.2573290169239044,37.98294067382812,97.76016235351562,-4.36358642578125
184070,0.0883636474609375,0.5656890869140625,0.1568450927734375,-0.1589696705341339,-0.3005246818065643,0.2573290169239044,37.98294067382812,97.76016235351562,-4.36358642578125
184071,0.0889739990234375,0.7652130126953125,0.402862548828125,-0.2116296887397766,-0.5996418595314026,0.136879026889801,38.44252014160156,97.68272399902344,-4.224685668945312
184072,0.0556182861328125,0.8654937744140625,0.5406036376953125,-0.3407349586486816,-0.731256365776062,0.0512868911027908,38.55174255371094,97.59675598144533,-4.069061279296875
184073,0.041229248046875,0.9376068115234376,0.589385986328125,-0.6670350432395935,-0.6259927749633789,-0.0549154467880725,38.70912170410156,97.52879333496094,-3.929168701171875
184074,0.041229248046875,0.9376068115234376,0.589385986328125,-0.6670350432395935,-0.6259927749633789,-0.0549154467880725,38.70912170410156,97.52879333496094,-3.929168701171875
184075,0.0323944091796875,0.9629974365234376,0.4316558837890625,-0.7105247378349304,-0.387521892786026,-0.1030198559165001,38.83943176269531,97.36759948730467,-3.398468017578125
184076,0.05743408203125,0.945831298828125,0.1774749755859375,-0.5835568904876709,-0.2986298501491547,-0.1412186473608017,38.88658142089844,97.37722778320312,-3.071182250976562
184077,0.0786590576171875,0.910614013671875,-0.1230010986328125,0.2447663396596909,-1.06485915184021,-0.345862865447998,38.912841796875,97.12564086914062,-2.577392578125
184078,0.0786590576171875,0.910614013671875,-0.1230010986328125,0.2447663396596909,-1.06485915184021,-0.345862865447998,38.912841796875,97.12564086914062,-2.577392578125
184079,0.106719970703125,0.7240447998046875,-0.4280853271484375,0.865295946598053,-1.680344343185425,-0.4090924263000488,38.8983154296875,97.1165008544922,-1.918960571289062
184080,0.0606231689453125,0.51605224609375,-0.1565399169921875,1.272445321083069,-1.609495282173157,-0.4271244406700134,38.91744995117188,97.07330322265624,-1.6802978515625
184081,-0.028472900390625,0.3054046630859375,0.001373291015625,1.234030485153198,-0.2046506106853485,-0.2979616522789001,38.84603881835938,97.1185302734375,-1.843368530273438
184082,-0.028472900390625,0.3054046630859375,0.001373291015625,1.234030485153198,-0.2046506106853485,-0.2979616522789001,38.84603881835938,97.1185302734375,-1.843368530273438
184083,-0.0971221923828125,-0.061920166015625,-0.2058868408203125,1.001466512680054,0.2031453996896744,-0.0579306781291961,38.6055908203125,97.42359924316406,-3.324127197265625
184084,-0.023590087890625,-0.10888671875,-0.430572509765625,0.7703632712364197,0.0296934470534324,0.1278346627950668,38.53988647460938,97.42710876464844,-3.825149536132812
184085,0.0196533203125,-0.10748291015625,-0.4841766357421875,0.6105030179023743,-0.4262040555477142,0.2086104601621628,38.62852478027344,97.53643798828124,-4.298797607421875
184086,0.01885986328125,-0.0875701904296875,-0.364654541015625,0.5141147375106812,-0.606861412525177,0.1973253190517426,38.6700439453125,97.59669494628906,-4.542922973632812
184087,0.0136566162109375,-0.07794189453125,-0.2977447509765625,0.4242706000804901,-0.3923936188220978,0.1234090179204941,38.80760192871094,97.65373229980467,-4.676055908203125
184088,0.01019287109375,-0.0628509521484375,-0.3843841552734375,0.3548952341079712,-0.1530340164899826,0.0051889028400182,38.78227233886719,97.89509582519533,-4.881805419921875
184089,0.026580810546875,-0.0084686279296875,-0.5305023193359375,0.3488384187221527,-0.1266990900039673,-0.1562828123569489,38.75978088378906,97.8884735107422,-4.95220947265625
184090,0.026580810546875,-0.0084686279296875,-0.5305023193359375,0.3488384187221527,-0.1266990900039673,-0.1562828123569489,38.75978088378906,97.8884735107422,-4.95220947265625
184091,0.1007080078125,0.2146148681640625,-0.6219024658203125,0.4989064633846283,-0.4623799026012421,-0.2438896298408508,38.69273376464844,97.77798461914062,-5.045074462890625
184092,0.16815185546875,0.268768310546875,-0.5686187744140625,0.5605860948562622,-0.4761622846126556,-0.1259851008653641,38.53886413574219,97.83796691894533,-5.32562255859375
184093,0.21343994140625,0.352386474609375,-0.4994659423828125,0.5407457947731018,-0.3562390804290771,0.0116545250639319,38.49818420410156,97.87294006347656,-5.526535034179688
184094,0.21343994140625,0.352386474609375,-0.4994659423828125,0.5407457947731018,-0.3562390804290771,0.0116545250639319,38.49818420410156,97.87294006347656,-5.526535034179688
184095,0.2614593505859375,0.762939453125,-0.441741943359375,0.1307665407657623,-0.0274635814130306,0.0339390598237514,38.44239807128906,98.15943908691406,-5.903640747070312
184096,0.26336669921875,1.097915649414062,-0.460418701171875,-0.156871110200882,0.0420768782496452,-0.1708859950304031,38.45167541503906,98.31190490722656,-6.00823974609375
184097,0.2064971923828125,1.432083129882812,-0.3892974853515625,-0.4384260773658752,0.1070151329040527,-0.4345354735851288,38.32736206054688,98.39569091796876,-5.939102172851562
184098,0.2064971923828125,1.432083129882812,-0.3892974853515625,-0.4384260773658752,0.1070151329040527,-0.4345354735851288,38.32736206054688,98.39569091796876,-5.939102172851562
