time_idx,accelerometerAccelerationX(G),accelerometerAccelerationY(G),accelerometerAccelerationZ(G),gyroRotationX(rad/s),gyroRotationY(rad/s),gyroRotationZ(rad/s),magnetometerX(µT),magnetometerY(µT),magnetometerZ(µT)
172827,-0.0206451416015625,1.905807495117188,-1.443862915039062,1.599244952201843,-0.3365705609321594,0.5725173354148865,59.84231567382812,100.3816986083984,-30.66374206542969
172828,-0.0646514892578125,1.9105224609375,-0.7789154052734375,1.57236921787262,0.5716898441314697,0.8381189107894897,59.12652587890625,100.322998046875,-31.20100402832031
172829,0.15863037109375,1.622161865234375,-0.35809326171875,1.570896506309509,0.5207276344299316,0.9480363130569458,58.79536437988281,100.0884399414062,-32.07014465332031
172830,0.1792755126953125,1.448089599609375,-0.1278839111328125,1.410552620887756,0.3270004987716675,1.048965573310852,59.00387573242188,99.54107666015624,-32.78082275390625
172831,0.1612396240234375,1.192581176757812,0.013824462890625,1.410552620887756,0.3270004987716675,1.048965573310852,59.74105834960938,98.88803100585938,-33.5665283203125
172832,0.14398193359375,0.913909912109375,-0.03326416015625,1.139580488204956,0.1344984173774719,1.173558354377747,60.58126831054688,98.20790100097656,-34.09716796875
172833,0.109100341796875,0.665069580078125,-0.1550750732421875,0.9853520393371582,-0.231379434466362,1.245922327041626,61.373291015625,97.67391967773438,-34.3577880859375
172834,0.0446929931640625,0.2546234130859375,-0.1942596435546875,1.196690917015076,-1.114660978317261,1.058597683906555,62.50167846679688,96.77915954589844,-35.32212829589844
172835,0.0446929931640625,0.2546234130859375,-0.1942596435546875,1.196690917015076,-1.114660978317261,1.058597683906555,62.50167846679688,96.77915954589844,-35.32212829589844
172836,0.0092315673828125,0.101531982421875,-0.1262969970703125,1.196690917015076,-1.114660978317261,1.058597683906555,62.94439697265625,96.3455810546875,-35.77293395996094
172837,-0.0321502685546875,-0.1050567626953125,-0.0859527587890625,0.8918372392654419,-0.4897915422916412,0.8171315789222717,63.26124572753906,96.06304931640624,-36.35818481445312
172838,-0.050262451171875,-0.298583984375,-0.2939300537109375,0.2982884347438812,0.3472053706645966,0.6101371049880981,63.42796325683594,95.79635620117188,-36.93403625488281
172839,-0.0217132568359375,-0.36431884765625,-0.48236083984375,0.4733097553253174,0.1290264278650284,0.6111408472061157,63.68345642089844,95.53195190429688,-37.26881408691406
172840,-0.0156707763671875,-0.333709716796875,-0.34716796875,0.4733097553253174,0.1290264278650284,0.6111408472061157,64.0484619140625,95.2625732421875,-37.43022155761719
172841,-0.0240325927734375,-0.281982421875,-0.1287994384765625,0.6975013017654419,0.1465684026479721,0.5634079575538635,64.48599243164062,95.0569305419922,-37.5615234375
172842,-0.0374755859375,-0.25848388671875,-0.0784912109375,0.802091121673584,0.2860695719718933,0.4666156470775604,64.81497192382812,94.73837280273438,-37.54666137695312
172843,-0.0487060546875,-0.2676239013671875,-0.1299591064453125,0.7337586879730225,0.3986674845218658,0.3517018556594849,65.10829162597656,94.57923889160156,-37.74674987792969
172844,-0.0580596923828125,-0.2766876220703125,-0.1477203369140625,0.5191145539283752,0.5141882300376892,0.2130350470542908,65.28472900390625,94.43074035644533,-37.93264770507812
172845,-0.0573272705078125,-0.24615478515625,-0.0714874267578125,0.0083343628793954,0.8029923439025879,-0.0670695826411247,65.89012145996094,94.42330932617188,-38.4234619140625
172846,-0.0573272705078125,-0.24615478515625,-0.0714874267578125,0.0083343628793954,0.8029923439025879,-0.0670695826411247,65.89012145996094,94.42330932617188,-38.4234619140625
172847,-0.0555572509765625,-0.257171630859375,-0.0892333984375,-0.3234723508358002,0.8077812194824219,-0.2659938633441925,66.20465087890625,94.57162475585938,-38.39654541015625
172848,-0.05322265625,-0.2967376708984375,-0.1731414794921875,-0.3234723508358002,0.8077812194824219,-0.2659938633441925,66.5159912109375,94.62774658203124,-38.06294250488281
172849,-0.0499114990234375,-0.3759765625,-0.280029296875,-0.4969985783100128,0.6159803867340088,-0.3422358930110931,67.00654602050781,94.65208435058594,-37.33830261230469
172850,-0.046875,-0.4012603759765625,-0.25146484375,-0.9531407952308656,0.5023536682128906,-0.466716855764389,67.31959533691406,94.61271667480467,-36.61326599121094
172851,-0.0380859375,-0.3313751220703125,-0.090667724609375,-0.9531407952308656,0.5023536682128906,-0.466716855764389,67.62828063964844,94.61099243164062,-36.03785705566406
172852,-0.016876220703125,-0.2744293212890625,0.0366363525390625,-1.024174571037292,0.624702513217926,-0.5186160206794739,67.88673400878906,94.66667175292967,-35.19627380371094
172853,0.00762939453125,-0.2622222900390625,0.1042327880859375,-1.01295804977417,0.7217584848403931,-0.5726270079612732,68.1317138671875,94.593505859375,-34.38987731933594
172854,0.0178680419921875,-0.264190673828125,0.0700531005859375,-1.001782655715942,0.6601995229721069,-0.5959326028823853,68.10385131835938,94.49769592285156,-33.56849670410156
172855,0.0167388916015625,-0.2291717529296875,-0.024810791015625,-1.013747692108154,-0.0574339963495731,-0.3393383920192719,68.10884094238281,94.61222839355467,-32.85496520996094
172856,-0.001129150390625,-0.01104736328125,-0.086029052734375,-1.013747692108154,-0.0574339963495731,-0.3393383920192719,67.95976257324219,94.5609893798828,-32.20375061035156
172857,-0.010284423828125,0.1209259033203125,-0.13623046875,-1.023584127426147,-0.5401598811149597,-0.3142908215522766,67.75033569335938,94.64813232421876,-31.55314636230469
172858,-0.0168304443359375,0.1392822265625,-0.017913818359375,-1.102632284164429,-0.9400457739830016,-0.3146242499351501,67.62654113769531,94.91958618164062,-31.23777770996094
172859,-0.0163116455078125,0.136016845703125,0.25067138671875,-1.249322891235352,-0.8889027237892151,-0.3175686299800873,67.25772094726562,95.379150390625,-30.85385131835938
172860,-0.0125579833984375,0.1479949951171875,0.4713592529296875,-1.373663544654846,-0.4544450044631958,-0.3436444401741028,66.92716979980469,95.96194458007812,-30.61943054199219
172861,0.0046234130859375,0.2490234375,0.7846832275390625,-1.263906121253967,0.3400419950485229,-0.4304493963718414,66.41033935546875,96.500244140625,-30.21946716308594
172862,-0.006927490234375,0.6230010986328125,1.149078369140625,-1.084740161895752,1.501235127449036,-0.6521633863449097,65.71687316894531,97.19596862792967,-30.1151123046875
172863,-0.123626708984375,3.131088256835938,1.472824096679688,-1.372297048568726,4.095921516418457,1.008222937583923,64.87277221679688,97.90901184082033,-30.22776794433594
172864,-0.163665771484375,7.569229125976562,1.634490966796875,-1.372297048568726,4.095921516418457,1.008222937583923,64.17269897460938,98.64381408691406,-30.88789367675781
172865,-1.096099853515625,7.719863891601562,0.9813690185546876,-1.644790887832642,1.07279109954834,0.2236573249101639,64.942138671875,99.28402709960938,-32.16464233398438
172866,-1.096099853515625,7.719863891601562,0.9813690185546876,-1.644790887832642,1.07279109954834,0.2236573249101639,64.942138671875,99.28402709960938,-32.16464233398438
172867,-0.13470458984375,4.744216918945312,0.1964111328125,-1.323281049728394,-1.611001491546631,-0.8415288329124451,66.35310363769531,99.145751953125,-31.30403137207031
172868,0.1544189453125,2.05712890625,0.165802001953125,-1.295887231826782,-3.395798206329346,-0.3286780118942261,67.1937255859375,98.93553161621094,-29.66665649414062
172869,0.4789886474609375,0.8359222412109375,0.0627593994140625,-0.3730840981006622,-2.705064296722412,0.8382810950279236,66.12718200683594,99.12042236328124,-28.00816345214844
172870,0.4789886474609375,0.8359222412109375,0.0627593994140625,-0.3730840981006622,-2.705064296722412,0.8382810950279236,66.12718200683594,99.12042236328124,-28.00816345214844
172871,0.7276763916015625,0.9104461669921876,-0.360382080078125,0.6280854940414429,-1.657500267028809,1.841608881950378,65.26145935058594,99.15139770507812,-27.62843322753906
172872,0.665863037109375,1.517059326171875,-0.861419677734375,1.681715369224548,0.2994857728481293,2.148506164550781,64.90809631347656,99.22100830078124,-27.51406860351562
172873,0.5253753662109375,1.827987670898438,-1.148056030273438,1.772598624229431,0.909545123577118,1.395077228546143,65.12232971191406,99.0549774169922,-27.7822265625
172874,0.0843658447265625,1.205368041992188,0.0127716064453125,-0.1168989241123199,0.3875932693481445,0.2902350127696991,66.75244140625,97.84602355957033,-28.61598205566406
172875,0.0843658447265625,1.205368041992188,0.0127716064453125,-0.1168989241123199,0.3875932693481445,0.2902350127696991,66.75244140625,97.84602355957033,-28.61598205566406
172876,-0.0392608642578125,1.032012939453125,0.0763397216796875,-0.3617363572120667,0.1933918297290802,0.0860288888216018,67.51361083984375,97.34263610839844,-29.19650268554688
172877,-0.0907135009765625,0.856201171875,-0.0792083740234375,-0.3617363572120667,0.1933918297290802,0.0860288888216018,68.01318359375,96.98257446289062,-29.51129150390625
172878,-0.13848876953125,0.734771728515625,-0.1591339111328125,-0.2284427583217621,-0.1720212996006012,-0.0664296224713325,68.40827941894531,96.7691650390625,-29.52009582519531
172879,-0.185302734375,0.6480255126953125,-0.1214599609375,0.1136914119124413,-0.4230513870716095,-0.1865459084510803,68.71798706054688,96.698486328125,-29.45445251464844
172880,-0.2282867431640625,0.5441436767578125,-0.0387115478515625,0.4329969584941864,-0.3991644382476807,-0.2953394949436188,68.71360778808594,96.77351379394533,-29.39060974121094
172881,-0.2703094482421875,0.42108154296875,0.001556396484375,0.6066116094589233,-0.1533956825733185,-0.4011420905590057,68.75804138183594,96.8224639892578,-29.38859558105469
172882,-0.3338623046875,0.2833709716796875,-0.0352935791015625,0.6754591464996338,0.1815695315599442,-0.4912842512130737,68.65653991699219,96.97869873046876,-29.83383178710938
172883,-0.484283447265625,0.101043701171875,-0.113128662109375,0.7213576436042786,0.4413774013519287,-0.4463868141174316,68.46624755859375,96.96101379394533,-30.23634338378906
172884,-0.562103271484375,-0.0951995849609375,-0.20758056640625,0.7803938388824463,0.598642110824585,-0.1856939643621445,68.39405822753906,96.9962921142578,-30.54049682617188
172885,-0.28106689453125,-0.2762298583984375,-0.46783447265625,0.9092575311660768,0.3581685423851013,0.2259641587734222,68.32490539550781,96.95504760742188,-31.19692993164062
172886,-0.28106689453125,-0.2762298583984375,-0.46783447265625,0.9092575311660768,0.3581685423851013,0.2259641587734222,68.32490539550781,96.95504760742188,-31.19692993164062
172887,-0.0894012451171875,-0.3040313720703125,-0.4325408935546875,0.9834529161453248,0.0338186845183372,0.3073295950889587,68.47695922851562,96.79762268066406,-31.51315307617188
172888,0.0066375732421875,-0.2610931396484375,-0.1977386474609375,1.044758319854736,0.0278089940547943,0.2947759628295898,68.59988403320312,96.47528076171876,-31.7384033203125
172889,0.053863525390625,-0.210968017578125,0.02923583984375,1.05747926235199,0.333653062582016,0.2232109755277634,68.87847900390625,96.12025451660156,-32.03068542480469
172890,0.065948486328125,-0.166900634765625,0.1180419921875,1.009239554405212,0.6458426713943481,0.146538034081459,69.05825805664062,95.91928100585938,-32.31683349609375
172891,0.061004638671875,-0.1379547119140625,0.0850982666015625,0.9116690158843994,0.7981568574905396,0.0780548527836799,69.12391662597656,95.7430419921875,-32.80133056640625
172892,0.0596160888671875,-0.1240386962890625,0.02215576171875,0.7936510443687439,0.7988228797912598,0.0295677464455366,69.15493774414062,95.69485473632812,-33.04571533203125
172893,0.061981201171875,-0.11370849609375,-0.021270751953125,0.7011474370956421,0.7764539122581482,-0.0092385057359933,69.18916320800781,95.76705932617188,-33.26765441894531
172894,0.0632171630859375,-0.109832763671875,-0.0905609130859375,0.627772867679596,0.4422391951084137,-0.0979494675993919,69.30941772460938,95.57894897460938,-33.41146850585938
172895,0.0632171630859375,-0.109832763671875,-0.0905609130859375,0.627772867679596,0.4422391951084137,-0.0979494675993919,69.30941772460938,95.57894897460938,-33.41146850585938
172896,0.0535125732421875,-0.1080322265625,-0.0928497314453125,0.627772867679596,0.4422391951084137,-0.0979494675993919,69.37875366210938,95.4936065673828,-33.38604736328125
172897,0.0476531982421875,-0.0993499755859375,-0.0356597900390625,0.5471136569976807,0.2292100191116333,-0.1508600860834122,69.52574157714844,95.30380249023438,-33.24493408203125
172898,0.0491180419921875,-0.0860443115234375,0.01202392578125,0.3960224390029907,0.0754175260663032,-0.221129983663559,69.6220703125,95.09754943847656,-33.03115844726562
172899,0.0605010986328125,-0.0711517333984375,0.026611328125,0.1985786110162735,-0.0271461326628923,-0.299319326877594,69.59342956542969,95.06643676757812,-33.04257202148438
172900,0.0796966552734375,-0.0514678955078125,0.0222930908203125,-0.0041982070542871,-0.0717649981379509,-0.3828648328781128,69.60813903808594,95.01155090332033,-33.07232666015625
172901,0.1114044189453125,0.0293121337890625,-0.0003204345703125,-0.3666259348392487,-0.0156410112977027,-0.5677462816238403,69.42222595214844,94.84815979003906,-32.81625366210938
172902,0.1114044189453125,0.0293121337890625,-0.0003204345703125,-0.3666259348392487,-0.0156410112977027,-0.5677462816238403,69.42222595214844,94.84815979003906,-32.81625366210938
172903,0.1249237060546875,0.0779571533203125,-0.0467987060546875,-0.4697440564632416,-0.100254163146019,-0.6702462434768677,69.18070983886719,95.01942443847656,-32.75213623046875
172904,0.127532958984375,0.1302337646484375,0.02197265625,-0.5421338677406311,-0.2485126107931137,-0.7886701226234436,68.88380432128906,95.12345886230467,-32.50765991210938
172905,0.12237548828125,0.18963623046875,0.2420654296875,-0.6783905029296875,-0.1729515343904495,-0.9296860694885254,68.48957824707031,95.37362670898438,-32.36555480957031
172906,0.158538818359375,0.39208984375,0.5066070556640625,-0.8990355134010315,0.2010090053081512,-1.115944147109985,67.96229553222656,95.62574768066406,-32.25802612304688
172907,0.193359375,0.6584625244140625,0.7668304443359375,-1.333037257194519,0.9916426539421082,-1.36717689037323,67.3116455078125,95.93182373046876,-31.99627685546875
172908,0.3523406982421875,2.142120361328125,0.7305755615234375,-1.873048543930054,1.517300367355347,-1.909772992134094,66.6717529296875,96.12051391601562,-31.65383911132812
172909,0.37860107421875,6.4801025390625,-0.077972412109375,-1.583228230476379,-2.877547979354858,-2.986095428466797,65.19552612304688,97.16383361816406,-30.46049499511719
172910,0.37860107421875,6.4801025390625,-0.077972412109375,-1.583228230476379,-2.877547979354858,-2.986095428466797,65.19552612304688,97.16383361816406,-30.46049499511719
172911,0.117767333984375,8.079132080078125,1.320419311523438,-1.328660130500793,-4.409583568572998,-4.064740180969238,64.11521911621094,98.00657653808594,-29.55108642578125
172912,-0.218231201171875,7.1474609375,1.934097290039062,-1.3030104637146,-3.415299892425537,-4.159960269927979,62.56512451171875,98.90109252929688,-29.21241760253906
172913,-0.82025146484375,2.191116333007812,-0.0289459228515625,1.104840874671936,-0.9779050350189208,-2.692545890808105,58.17958068847656,100.4804840087891,-29.25357055664062
172914,-0.82025146484375,2.191116333007812,-0.0289459228515625,1.104840874671936,-0.9779050350189208,-2.692545890808105,58.17958068847656,100.4804840087891,-29.25357055664062
172915,-1.430923461914062,0.7433929443359375,-0.1376953125,1.851560592651367,1.110008716583252,-1.038583755493164,54.67593383789062,101.3799438476562,-30.0611572265625
172916,-1.110122680664062,0.615020751953125,-0.9249114990234376,1.789751887321472,3.323456764221191,0.7147657871246338,53.81034851074219,101.5608673095703,-31.00697326660156
172917,-0.3892822265625,1.309295654296875,-1.640777587890625,1.88722562789917,1.928491592407227,1.335275411605835,54.02925109863281,101.2062225341797,-31.82923889160156
172918,-0.157867431640625,1.60882568359375,-1.0224609375,1.491230607032776,-0.2564480304718018,1.230423331260681,55.03254699707031,100.5757141113281,-32.52680969238281
172919,-0.004150390625,1.520034790039062,-0.410491943359375,0.7222071886062622,-1.272989869117737,1.075192213058472,56.12614440917969,99.81466674804688,-33.25
172920,0.100830078125,1.324234008789062,-0.172454833984375,0.0831646621227264,-1.554106593132019,1.144734978675842,56.72061157226562,99.204833984375,-33.73207092285156
172921,0.12091064453125,1.131118774414062,-0.090301513671875,-0.2440616637468338,-1.495873928070068,1.34293258190155,57.15223693847656,98.7834014892578,-34.00239562988281
172922,0.0917205810546875,1.001708984375,-0.082000732421875,-0.1184062734246254,-1.317710518836975,1.515563130378723,57.48814392089844,98.6357879638672,-34.11024475097656
172923,0.0462646484375,0.94549560546875,-0.0447540283203125,0.4092008173465729,-1.035078525543213,1.502524614334106,57.95022583007812,98.48876953125,-34.17741394042969
172924,0.0188751220703125,0.8448028564453125,0.06134033203125,1.008500695228577,-0.5884749889373779,1.335278034210205,58.49220275878906,98.2602996826172,-34.112548828125
172925,0.0076446533203125,0.681854248046875,0.13092041015625,1.373594284057617,-0.0484261214733123,1.186564207077026,59.02955627441406,98.02894592285156,-34.31889343261719
172926,-0.0114898681640625,0.53271484375,0.1632080078125,1.388214468955994,0.478825181722641,1.061645984649658,59.56904602050781,97.8791961669922,-34.77639770507812
172927,-0.0267486572265625,0.379974365234375,0.1417236328125,1.138176441192627,0.9167516231536864,0.9688073992729188,60.02604675292969,97.43475341796876,-35.30311584472656
172928,-0.0264892578125,0.1836700439453125,-0.003570556640625,0.8211870193481445,1.066683053970337,0.9164930582046508,60.7213134765625,96.9414520263672,-35.74749755859375
172929,-0.012847900390625,-0.1875152587890625,-0.5565338134765625,0.7115212678909302,-0.4179218709468842,0.982983648777008,61.98040771484375,96.31532287597656,-36.18601989746094
172930,-0.012847900390625,-0.1875152587890625,-0.5565338134765625,0.7115212678909302,-0.4179218709468842,0.982983648777008,61.98040771484375,96.31532287597656,-36.18601989746094
172931,-0.0111236572265625,-0.1981201171875,-0.3995361328125,0.8073503375053406,-1.157031893730164,0.961762547492981,62.50141906738281,95.99974060058594,-36.26103210449219
172932,-0.0331268310546875,-0.2035675048828125,-0.0977935791015625,0.8073503375053406,-1.157031893730164,0.961762547492981,62.87347412109375,95.70939636230467,-36.39251708984375
172933,-0.044189453125,-0.2686309814453125,-0.02874755859375,0.6373783349990845,-0.1759766191244125,0.8469281196594238,63.03868103027344,95.48944091796876,-36.68911743164062
172934,-0.027587890625,-0.33148193359375,-0.234161376953125,0.481546938419342,0.5938140749931335,0.7674679160118103,63.21662902832031,95.2705078125,-36.99363708496094
172935,-0.0052337646484375,-0.3325347900390625,-0.360443115234375,0.3968717157840729,0.6101145148277283,0.7362298369407654,63.64730834960938,95.06413269042967,-37.32701110839844
172936,0.0111846923828125,-0.2919464111328125,-0.27093505859375,0.3401804864406586,0.353263258934021,0.6946863532066345,64.130615234375,94.88079833984376,-37.49162292480469
172937,0.029083251953125,-0.231689453125,-0.0079193115234375,0.1792405992746353,0.1689592003822327,0.5339864492416382,65.19877624511719,94.70391845703124,-37.33273315429688
172938,0.029083251953125,-0.231689453125,-0.0079193115234375,0.1792405992746353,0.1689592003822327,0.5339864492416382,65.19877624511719,94.70391845703124,-37.33273315429688
172939,0.0384368896484375,-0.2353363037109375,0.0543365478515625,0.0289443004876375,0.3421370983123779,0.4080548584461212,65.7120361328125,94.61671447753906,-37.1905517578125
172940,0.0436248779296875,-0.22674560546875,0.05078125,-0.2621378600597382,0.7157493233680725,0.2332212775945663,66.17677307128906,94.53971862792967,-36.8594970703125
172941,0.0518798828125,-0.22369384765625,-0.0524749755859375,-0.6333189010620117,1.052811980247498,0.0965569019317627,66.78511047363281,94.22882080078124,-36.38859558105469
172942,0.06378173828125,-0.257537841796875,-0.1735382080078125,-0.8236784338951111,1.051751017570496,0.0197971407324075,67.28472900390625,93.80181884765624,-35.71156311035156
172943,0.065155029296875,-0.2642669677734375,-0.180908203125,-0.873820960521698,0.8482343554496765,-0.0257607568055391,67.75753784179688,93.42324829101562,-34.91618347167969
172944,0.061126708984375,-0.2578125,-0.0954742431640625,-0.8813071250915527,0.7100056409835815,-0.0824083238840103,68.07534790039062,93.163330078125,-34.00126647949219
172945,0.0577850341796875,-0.264556884765625,-0.0425567626953125,-0.8959252238273621,0.6520915031433105,-0.1404609680175781,68.13459777832031,92.8917999267578,-33.28169250488281
172946,0.0542449951171875,-0.264892578125,-0.01055908203125,-0.9216763973236084,0.620682954788208,-0.1827676892280579,68.08082580566406,92.78004455566406,-32.70556640625
172947,0.0468597412109375,-0.25152587890625,-0.02227783203125,-0.9841613173484802,0.5314452648162842,-0.2208146750926971,68.01040649414062,92.83796691894533,-32.15684509277344
172948,0.0360565185546875,-0.241119384765625,-0.06390380859375,-1.084733724594116,0.2948233783245087,-0.2439207881689072,67.83116149902344,92.95065307617188,-31.6251220703125
172949,0.0178985595703125,-0.20611572265625,-0.083740234375,-1.204848170280457,-0.107005812227726,-0.2580320835113525,67.67008972167969,93.13046264648438,-31.09913635253906
172950,-0.01837158203125,0.1096038818359375,0.05633544921875,-1.24854850769043,-0.7134169340133667,-0.2546879351139069,67.37486267089844,93.4796905517578,-30.01235961914062
172951,-0.01837158203125,0.1096038818359375,0.05633544921875,-1.24854850769043,-0.7134169340133667,-0.2546879351139069,67.37486267089844,93.4796905517578,-30.01235961914062
172952,-0.019866943359375,0.1331939697265625,0.1115875244140625,-1.231739640235901,-0.8662671446800232,-0.2543470561504364,67.24671936035156,93.67416381835938,-29.41371154785156
172953,-0.0214691162109375,0.1563568115234375,0.23529052734375,-1.219475030899048,-0.8392294049263,-0.2716943621635437,67.1126708984375,93.96572875976562,-28.85028076171875
172954,-0.020904541015625,0.19140625,0.395843505859375,-1.17239248752594,-0.5269314646720886,-0.327038049697876,67.12202453613281,94.3553466796875,-28.28184509277344
172955,-0.011199951171875,0.25238037109375,0.570648193359375,-1.115664482116699,-0.0205484181642532,-0.435561865568161,67.10978698730469,94.8603057861328,-27.71018981933594
172956,-0.020751953125,0.3304901123046875,0.724365234375,-1.054975867271423,0.5871148705482483,-0.6151918172836304,66.90310668945312,95.69816589355467,-27.18533325195312
172957,0.0742950439453125,4.706451416015625,1.214599609375,-1.220262050628662,2.280194044113159,-0.8809869885444641,65.59793090820312,97.73741149902344,-27.81651306152344
172958,0.0742950439453125,4.706451416015625,1.214599609375,-1.220262050628662,2.280194044113159,-0.8809869885444641,65.59793090820312,97.73741149902344,-27.81651306152344
172959,0.1105194091796875,8.172943115234375,1.514907836914062,-2.210088491439819,3.756381988525391,4.293736934661865,64.94181823730469,98.82307434082033,-29.12422180175781
172960,-1.2166748046875,8.009506225585938,1.601913452148438,-2.210088491439819,3.756381988525391,4.293736934661865,65.20246887207031,99.59957885742188,-30.18656921386719
172961,-1.29998779296875,7.447952270507812,0.516632080078125,-0.4000677764415741,4.371932983398438,0.0485915057361125,66.87031555175781,99.36065673828124,-29.76544189453125
172962,0.2870635986328125,1.063003540039062,-0.444854736328125,-0.281164824962616,-3.11863112449646,-1.135879993438721,69.32168579101562,98.47503662109376,-26.63670349121094
172963,0.2870635986328125,1.063003540039062,-0.444854736328125,-0.281164824962616,-3.11863112449646,-1.135879993438721,69.32168579101562,98.47503662109376,-26.63670349121094
172964,0.21917724609375,0.5582427978515625,0.2408447265625,-0.3638677000999451,-3.899959802627563,-0.5346136093139648,68.62490844726562,98.5232391357422,-25.7520751953125
172965,0.5294189453125,0.4011383056640625,0.44439697265625,0.222381666302681,-1.228465914726257,0.7364295721054077,66.57322692871094,99.1489715576172,-25.88236999511719
172966,0.5294189453125,0.4011383056640625,0.44439697265625,0.222381666302681,-1.228465914726257,0.7364295721054077,66.57322692871094,99.1489715576172,-25.88236999511719
172967,0.6822967529296875,0.7578582763671875,-0.0216522216796875,0.4343770146369934,-0.1297348290681839,1.535256743431091,66.166259765625,99.13504028320312,-26.14051818847656
172968,0.6317291259765625,1.316757202148438,-0.4700164794921875,0.3680768311023712,-0.1480941325426102,1.793590545654297,66.33544921875,98.8623046875,-26.32511901855469
172969,0.435302734375,1.585220336914062,-0.285491943359375,0.0108316084370017,-0.3938005566596985,0.4300118386745453,67.01789855957031,98.43153381347656,-26.42466735839844
172970,0.19384765625,1.242889404296875,0.0068206787109375,0.0108316084370017,-0.3938005566596985,0.4300118386745453,67.64961242675781,98.00950622558594,-26.43377685546875
172971,-0.0185699462890625,0.8887176513671875,0.02960205078125,0.2135652750730515,-0.3393495678901672,-0.1134312227368355,68.16813659667969,97.68850708007812,-26.42735290527344
172972,-0.0794219970703125,0.689178466796875,-0.0297088623046875,0.2135652750730515,-0.3393495678901672,-0.1134312227368355,68.43568420410156,97.52830505371094,-26.55078125
172973,-0.125518798828125,0.51959228515625,-0.0857086181640625,0.4497328102588654,-0.3081322610378265,-0.2987374365329742,68.56184387207031,97.34262084960938,-26.62686157226562
172974,-0.1558837890625,0.3726043701171875,-0.1681976318359375,0.6173785328865051,-0.195849135518074,-0.3657502830028534,68.63111877441406,97.1618194580078,-26.83982849121094
172975,-0.198211669921875,0.2462005615234375,-0.2288970947265625,0.667905867099762,0.5137163400650024,-0.1560569703578949,68.49055480957031,97.21302795410156,-27.20137023925781
172976,-0.2174072265625,0.1734771728515625,-0.33197021484375,0.667905867099762,0.5137163400650024,-0.1560569703578949,68.38691711425781,97.23886108398438,-27.60772705078125
172977,-0.1833343505859375,0.0885772705078125,-0.3451385498046875,0.928968906402588,0.2208034843206406,0.0037851508241146,68.38160705566406,97.10498046875,-28.21072387695312
172978,-0.1833343505859375,0.0885772705078125,-0.3451385498046875,0.928968906402588,0.2208034843206406,0.0037851508241146,68.38160705566406,97.10498046875,-28.21072387695312
172979,-0.11639404296875,0.0195770263671875,-0.269287109375,1.017168045043945,0.0703473985195159,0.0395687147974968,68.4534912109375,96.96794128417967,-28.47010803222656
172980,-0.0005035400390625,-0.0203094482421875,-0.1907958984375,0.9664638042449952,0.1130884736776352,0.0402435585856437,68.52716064453125,96.78919982910156,-28.79885864257812
172981,0.0846099853515625,-0.0464019775390625,-0.097808837890625,0.795742928981781,0.2738246321678162,0.0143512422218918,68.53445434570312,96.76405334472656,-29.16387939453125
172982,0.095977783203125,-0.10760498046875,0.0052337646484375,0.3844003975391388,0.5003674626350403,-0.0217612218111753,68.69052124023438,96.54278564453124,-30.04878234863281
172983,0.0774993896484375,-0.1248016357421875,-0.0122222900390625,0.2734688222408295,0.4413702189922333,-0.040541835129261,68.69010925292969,96.54161071777344,-30.08049011230469
172984,0.06976318359375,-0.1339263916015625,-0.0435028076171875,0.2470577210187912,0.3025321662425995,-0.0556526109576225,68.77815246582031,96.42942810058594,-29.98051452636719
172985,0.06976318359375,-0.1339263916015625,-0.0435028076171875,0.2470577210187912,0.3025321662425995,-0.0556526109576225,68.77815246582031,96.42942810058594,-29.98051452636719
172986,0.0605926513671875,-0.1426849365234375,-0.058990478515625,0.2584289014339447,0.0854230225086212,-0.1110985577106476,68.82127380371094,96.31195068359376,-29.82559204101562
172987,0.05224609375,-0.150115966796875,-0.0606231689453125,0.2377555668354034,0.102233961224556,-0.1627990305423737,68.84823608398438,96.32502746582033,-29.78181457519531
172988,0.040435791015625,-0.1591033935546875,-0.0761871337890625,0.2377555668354034,0.102233961224556,-0.1627990305423737,68.79443359375,96.18318176269533,-29.60580444335938
172989,0.02996826171875,-0.171142578125,-0.106292724609375,0.1949098408222198,0.1348965615034103,-0.2208580821752548,68.69430541992188,96.22477722167967,-29.56680297851562
172990,0.0225067138671875,-0.1783447265625,-0.133270263671875,0.0860115811228752,0.1267323791980743,-0.3452010750770569,68.63055419921875,96.20710754394533,-29.44139099121094
172991,0.0186614990234375,-0.1812591552734375,-0.1523590087890625,0.0860115811228752,0.1267323791980743,-0.3452010750770569,68.61555480957031,96.21099853515624,-29.45378112792969
172992,0.02337646484375,-0.188720703125,-0.1566009521484375,0.0183332003653049,0.1431827247142792,-0.4170984327793121,68.5345458984375,96.115234375,-29.2667236328125
172993,0.053253173828125,-0.2048187255859375,-0.1735687255859375,-0.0737732872366905,0.2110432684421539,-0.4704433977603912,68.45559692382812,96.10432434082033,-29.009033203125
172994,0.108978271484375,-0.207855224609375,-0.2525482177734375,-0.1772794425487518,0.0613041035830974,-0.4337903261184692,68.314453125,96.01637268066406,-28.88078308105469
172995,0.1839447021484375,-0.157135009765625,-0.354339599609375,-0.1388620138168335,-0.276604175567627,-0.3417347073554993,68.07943725585938,96.20904541015624,-28.75482177734375
172996,0.22259521484375,-0.0142059326171875,-0.37847900390625,-0.1388620138168335,-0.276604175567627,-0.3417347073554993,67.83329772949219,96.47093200683594,-28.52249145507812
172997,0.182891845703125,0.1251068115234375,-0.268768310546875,-0.0706938803195953,-0.5864443182945251,-0.2995936274528503,67.66827392578125,96.61463928222656,-28.44465637207031
172998,0.13623046875,0.182769775390625,-0.044189453125,-0.1035626083612442,-0.3514693379402161,-0.4458320736885071,67.39874267578125,96.79302978515624,-28.43194580078125
172999,0.1164093017578125,0.2246856689453125,0.2185821533203125,-0.3154061436653137,0.303316205739975,-0.5964229106903076,67.0887451171875,96.94650268554688,-28.53192138671875
173000,0.1389617919921875,0.32568359375,0.4274139404296875,-0.3154061436653137,0.303316205739975,-0.5964229106903076,66.76327514648438,97.01119995117188,-28.56729125976562
173001,0.180572509765625,0.515960693359375,0.5199737548828125,-0.5993949770927429,1.119228601455688,-0.7499192357063293,66.46006774902344,97.26260375976562,-28.71290588378906
173002,0.476715087890625,2.122329711914062,0.633544921875,-1.30849301815033,2.562543630599976,-0.5702285766601562,66.02616882324219,97.5689697265625,-28.73692321777344
173003,0.6783294677734375,4.052444458007812,0.7814788818359375,-1.30849301815033,2.562543630599976,-0.5702285766601562,65.51411437988281,97.95834350585938,-28.63980102539062
173004,0.244384765625,5.333450317382812,0.7117919921875,-1.373363614082336,1.914580345153809,-0.4584439992904663,65.26881408691406,98.31169128417967,-28.38796997070312
173005,-0.231842041015625,6.174514770507812,0.842437744140625,-0.8872382640838623,0.7679746747016907,-1.303945660591125,65.11968994140625,98.626708984375,-27.86351013183594
173006,-0.56683349609375,4.591659545898438,1.188751220703125,0.2709963321685791,-0.5173022747039795,-2.257983207702637,64.76168823242188,99.38893127441406,-26.55426025390625
173007,-0.56683349609375,4.591659545898438,1.188751220703125,0.2709963321685791,-0.5173022747039795,-2.257983207702637,64.76168823242188,99.38893127441406,-26.55426025390625
173008,-0.4040374755859375,2.873153686523438,0.9316558837890624,0.1435236036777496,-1.084514260292053,-1.88753879070282,64.13377380371094,99.78514099121094,-26.49000549316406
173009,-0.452239990234375,2.1044921875,0.714080810546875,0.1129387989640236,-0.9892213344573976,-1.509326577186584,63.28738403320312,99.9912109375,-26.59719848632812
173010,-0.4478302001953125,1.76068115234375,0.230224609375,0.3965883553028107,-0.7247563600540161,-1.315364837646484,62.39962768554688,100.1593627929688,-26.80851745605469
173011,-0.371612548828125,1.741928100585938,-0.8492279052734375,0.974774181842804,-1.455020666122437,-0.9973183870315552,61.63368225097656,100.5215454101562,-27.01841735839844
173012,-0.3639678955078125,1.893630981445312,-1.67706298828125,1.401163339614868,-4.243575096130371,-0.4696577787399292,60.807373046875,100.8046417236328,-27.55868530273438
173013,-0.148406982421875,1.448348999023438,-0.289703369140625,0.5203419923782349,0.2526298463344574,0.5750529170036316,59.05160522460938,100.9109344482422,-29.39714050292969
173014,-0.148406982421875,1.448348999023438,-0.289703369140625,0.5203419923782349,0.2526298463344574,0.5750529170036316,59.05160522460938,100.9109344482422,-29.39714050292969
173015,0.06524658203125,1.287063598632812,-0.39190673828125,0.9915609359741212,0.3530589938163757,0.967970609664917,58.6817626953125,100.7191619873047,-30.27987670898438
173016,-0.023406982421875,1.138809204101562,-0.03118896484375,1.500688314437866,0.4174228012561798,1.176759004592896,59.0521240234375,100.1226654052734,-30.65155029296875
173017,-0.026824951171875,0.9512939453125,0.0865631103515625,1.500688314437866,0.4174228012561798,1.176759004592896,59.84623718261719,99.50875854492188,-30.94932556152344
173018,0.0202484130859375,0.723541259765625,-0.025054931640625,0.8226674795150757,0.0653132274746894,1.223141193389893,60.60432434082031,98.8319854736328,-31.39303588867188
173019,0.04595947265625,0.513458251953125,-0.11395263671875,0.6608921885490417,-0.0712235793471336,1.16176164150238,61.37799072265625,98.30363464355467,-31.92716979980469
173020,0.05145263671875,0.3660430908203125,-0.0388336181640625,0.6608921885490417,-0.0712235793471336,1.16176164150238,62.02284240722656,97.99147033691406,-32.27484130859375
173021,0.0482025146484375,0.246063232421875,0.068572998046875,0.7028138041496277,0.0283136628568172,1.038266062736511,62.61375427246094,97.7592315673828,-32.58775329589844
173022,0.0156097412109375,0.01116943359375,0.0779571533203125,0.9996912479400636,0.3449840247631073,0.778565526008606,63.57032775878906,97.25160217285156,-33.01138305664062
173023,0.0156097412109375,0.01116943359375,0.0779571533203125,0.9996912479400636,0.3449840247631073,0.778565526008606,63.57032775878906,97.25160217285156,-33.01138305664062
173024,-0.0089111328125,-0.0726470947265625,0.015472412109375,1.061058759689331,0.3259083330631256,0.6705954074859619,63.93377685546875,97.07522583007812,-33.45957946777344
173025,-0.01837158203125,-0.173065185546875,-0.2515716552734375,0.9665088057518004,-0.3229239881038666,0.5590702295303345,64.767822265625,96.27256774902344,-34.12632751464844
173026,-0.01837158203125,-0.173065185546875,-0.2515716552734375,0.9665088057518004,-0.3229239881038666,0.5590702295303345,64.767822265625,96.27256774902344,-34.12632751464844
173027,-0.0206756591796875,-0.40673828125,-0.3158111572265625,0.0224573723971843,0.4568378627300262,0.4869182407855988,65.25245666503906,95.74388122558594,-34.94363403320312
173028,-0.0206756591796875,-0.40673828125,-0.3158111572265625,0.0224573723971843,0.4568378627300262,0.4869182407855988,65.25245666503906,95.74388122558594,-34.94363403320312
173029,0.046905517578125,-0.4170074462890625,-0.508087158203125,0.049639992415905,0.1834467947483063,0.5044738054275513,65.32823181152344,95.70321655273438,-35.49261474609375
173030,0.046905517578125,-0.4170074462890625,-0.508087158203125,0.049639992415905,0.1834467947483063,0.5044738054275513,65.32823181152344,95.70321655273438,-35.49261474609375
173031,0.063995361328125,-0.3472900390625,-0.17388916015625,0.2624635696411133,0.1116293221712112,0.5022647380828857,65.67121887207031,95.60899353027344,-35.22975158691406
173032,0.07586669921875,-0.3116912841796875,-0.029144287109375,0.5410467386245728,0.3307009637355804,0.4035317599773407,66.07742309570312,95.5799560546875,-34.84619140625
173033,0.083251953125,-0.2985687255859375,0.0201568603515625,0.5410467386245728,0.3307009637355804,0.4035317599773407,66.56988525390625,95.29586791992188,-34.29902648925781
173034,0.08770751953125,-0.2927703857421875,0.0749664306640625,-0.0567956380546093,0.8818780779838562,0.1320307403802872,67.15023803710938,95.06300354003906,-33.91998291015625
173035,0.08917236328125,-0.29827880859375,0.03973388671875,-0.4885164201259613,0.9345471858978271,0.0035396073944866,67.58120727539062,94.71139526367188,-33.82460021972656
173036,0.0933837890625,-0.3140411376953125,-0.0951385498046875,-0.7192338109016418,0.6461015343666077,-0.0805382505059242,68.08207702636719,94.24655151367188,-33.6629638671875
173037,0.1024169921875,-0.32525634765625,-0.1883697509765625,-0.7777426242828369,0.1883017271757126,-0.1365192234516144,68.54974365234375,93.8486785888672,-33.19480895996094
173038,0.1202239990234375,-0.3552093505859375,-0.222320556640625,-0.7777426242828369,0.1883017271757126,-0.1365192234516144,68.89466857910156,93.5346221923828,-32.48448181152344
173039,0.1398468017578125,-0.3778228759765625,-0.195281982421875,-0.9471311569213868,-0.2912579476833344,-0.2281205207109451,69.11135864257812,93.3210906982422,-31.80421447753906
173040,0.156585693359375,-0.3846588134765625,-0.183258056640625,-0.9471311569213868,-0.2912579476833344,-0.2281205207109451,69.065185546875,93.1952667236328,-31.31513977050781
173041,0.158172607421875,-0.3704986572265625,-0.199005126953125,-1.055340647697449,-0.2839409112930298,-0.2788130044937134,69.02793884277344,93.10902404785156,-30.82655334472656
173042,0.1069183349609375,-0.1881561279296875,-0.205657958984375,-1.058678150177002,-0.2190524488687515,-0.3547735214233398,68.79718017578125,93.13375854492188,-30.46073913574219
173043,0.0065460205078125,0.2199554443359375,-0.1111907958984375,-0.8640751242637634,-0.0381729528307914,-0.4626368880271912,68.62869262695312,93.22381591796876,-30.05705261230469
173044,-0.000762939453125,0.288970947265625,0.1174468994140625,-0.7372351288795471,0.2557620108127594,-0.5308039784431458,68.41598510742188,93.5321044921875,-29.6585693359375
173045,-4.57763671875e-05,0.277587890625,0.488067626953125,-0.9373688101768494,0.7688705921173096,-0.567403256893158,68.28981018066406,93.85536193847656,-29.2415771484375
173046,-0.0014495849609375,0.2999725341796875,0.7170867919921875,-1.380580067634583,1.435599565505981,-0.5873782634735107,68.15354919433594,94.17298889160156,-28.75532531738281
173047,-0.01104736328125,0.4268341064453125,0.83087158203125,-1.913536071777344,2.000547170639038,-0.8720086812973022,68.02336120605469,94.70945739746094,-28.30264282226562
173048,-0.052947998046875,0.6387481689453125,1.083786010742188,-1.913536071777344,2.000547170639038,-0.8720086812973022,67.74809265136719,95.403076171875,-27.80192565917969
173049,-0.1614227294921875,1.646499633789062,1.441497802734375,-2.259352684020996,1.786207675933838,-1.316546678543091,67.4498291015625,96.23574829101562,-27.02375793457031
173050,-0.1927642822265625,5.621978759765625,1.848922729492188,-2.624881505966187,1.103132486343384,1.80376935005188,66.99835205078125,97.11775207519533,-26.66867065429688
173051,-0.48455810546875,8.1925048828125,2.624725341796875,-2.624881505966187,1.103132486343384,1.80376935005188,66.38937377929688,98.14031982421876,-27.05117797851562
173052,-1.688369750976562,7.982330322265625,2.6766357421875,-1.951382279396057,3.874442100524902,2.936120748519897,66.18701171875,99.08480834960938,-27.73072814941406
173053,-0.0769500732421875,2.22369384765625,-0.9674072265625,-0.0438947528600692,-4.04874849319458,-1.176010608673096,68.78968811035156,99.15133666992188,-27.20489501953125
173054,-0.0769500732421875,2.22369384765625,-0.9674072265625,-0.0438947528600692,-4.04874849319458,-1.176010608673096,68.78968811035156,99.15133666992188,-27.20489501953125
173055,0.3915557861328125,0.4652252197265625,-1.821136474609375,-0.0438947528600692,-4.04874849319458,-1.176010608673096,69.52911376953125,98.63713073730467,-25.21812438964844
173056,0.766326904296875,0.051513671875,-1.705978393554688,0.0287672001868486,-8.940417289733887,0.4372420310974121,68.93365478515625,98.74896240234376,-23.8095703125
173057,0.6755218505859375,1.075942993164062,0.857391357421875,-0.1539285778999329,2.707069873809814,0.9122756719589232,66.17962646484375,99.5079345703125,-24.19546508789062
173058,0.6755218505859375,1.075942993164062,0.857391357421875,-0.1539285778999329,2.707069873809814,0.9122756719589232,66.17962646484375,99.5079345703125,-24.19546508789062
173059,0.33990478515625,1.489334106445312,-1.00274658203125,-0.1539285778999329,2.707069873809814,0.9122756719589232,64.91261291503906,99.69708251953124,-25.116455078125
173060,0.127197265625,1.60418701171875,-0.841217041015625,0.7935605049133301,1.405544281005859,0.7797855734825134,64.54806518554688,99.66195678710938,-25.60237121582031
173061,0.017333984375,1.384017944335938,0.0880889892578125,1.274645924568176,0.8988152742385864,0.6238572001457214,65.16764831542969,99.28904724121094,-25.34599304199219
173062,-0.068206787109375,1.090805053710938,0.1756134033203125,1.301182985305786,0.9867451190948486,0.5732022523880005,66.02911376953125,98.89044189453124,-25.26458740234375
173063,-0.0903778076171875,0.8326873779296875,0.057647705078125,1.185342669487,0.8877056241035461,0.5413391590118408,66.64251708984375,98.422607421875,-25.57035827636719
173064,-0.086761474609375,0.65057373046875,0.12152099609375,1.113581418991089,0.7865625023841858,0.5436563491821289,67.18722534179688,97.882080078125,-26.00697326660156
173065,-0.10174560546875,0.5277557373046875,0.20440673828125,1.066563010215759,0.8297379016876221,0.518390953540802,67.70401000976562,97.63517761230467,-26.48634338378906
173066,-0.129791259765625,0.4134368896484375,0.18316650390625,0.9558956027030944,0.8108377456665039,0.2695153653621674,68.16227722167969,97.39414978027344,-26.83877563476562
173067,-0.1523895263671875,0.30035400390625,0.08477783203125,0.9558956027030944,0.8108377456665039,0.2695153653621674,68.5889892578125,97.20114135742188,-27.13063049316406
173068,-0.1605377197265625,0.1608428955078125,-0.1648712158203125,0.9389693140983582,0.3664232790470123,0.109734483063221,68.99629211425781,97.02197265625,-27.45280456542969
173069,-0.1472930908203125,0.01641845703125,-0.40704345703125,0.9517128467559814,-0.6007649302482605,-0.0093575492501258,69.29264831542969,96.95051574707033,-27.88409423828125
173070,-0.1133880615234375,-0.0852813720703125,-0.40533447265625,0.9701504111289978,-1.644614934921265,-0.0901272296905517,69.54899597167969,96.67343139648438,-28.28466796875
173071,-0.067962646484375,-0.1356048583984375,-0.2076873779296875,0.8579948544502258,-2.268970727920532,-0.1927074044942856,69.52955627441406,96.5045166015625,-28.77947998046875
173072,-0.01812744140625,-0.1524200439453125,0.01409912109375,0.7216841578483582,-1.676407933235168,-0.2481174021959305,69.34295654296875,96.54908752441406,-29.35507202148438
173073,0.0221405029296875,-0.1610870361328125,0.1532135009765625,0.7216841578483582,-1.676407933235168,-0.2481174021959305,68.94277954101562,96.57136535644533,-30.21601867675781
173074,0.0535125732421875,-0.17364501953125,0.233123779296875,0.5381052494049072,-0.5682123303413391,-0.3535146713256836,68.45265197753906,96.4773406982422,-31.2073974609375
173075,0.06134033203125,-0.165191650390625,0.2198944091796875,0.5194674134254456,1.259149789810181,-0.5309227108955383,67.99798583984375,96.5712890625,-31.85115051269531
173076,0.0622711181640625,-0.154541015625,0.1585845947265625,0.5951738953590393,1.535582184791565,-0.5458012819290161,67.69715881347656,96.49617004394533,-32.05563354492188
173077,0.06591796875,-0.1876068115234375,-0.03521728515625,0.6410055756568909,1.450753808021545,-0.5507811307907104,67.54350280761719,96.29769897460938,-31.3643798828125
173078,0.06591796875,-0.1876068115234375,-0.03521728515625,0.6410055756568909,1.450753808021545,-0.5507811307907104,67.54350280761719,96.29769897460938,-31.3643798828125
173079,0.0657196044921875,-0.2368621826171875,-0.2181854248046875,0.6812658905982971,0.9478541612625122,-0.5396235585212708,67.70768737792969,96.17752075195312,-31.072509765625
173080,0.0601043701171875,-0.2700347900390625,-0.295318603515625,0.6887667179107666,0.1912221610546112,-0.5255982875823975,67.76205444335938,95.98112487792967,-30.68798828125
173081,0.0395660400390625,-0.270904541015625,-0.1486663818359375,0.4679735898971558,-0.7872234582901001,-0.5357062816619873,67.671875,95.72940063476562,-30.25851440429688
173082,0.0395660400390625,-0.270904541015625,-0.1486663818359375,0.4679735898971558,-0.7872234582901001,-0.5357062816619873,67.671875,95.72940063476562,-30.25851440429688
173083,0.03277587890625,-0.2841339111328125,-0.0807647705078125,0.0163922887295484,-0.6202097535133362,-0.5605195164680481,67.47297668457031,95.48086547851562,-30.36788940429688
173084,0.04119873046875,-0.30963134765625,-0.1197357177734375,-0.578750729560852,-0.1893755197525024,-0.5778606534004211,67.27424621582031,95.35430908203124,-30.41172790527344
173085,0.0865478515625,-0.21295166015625,-0.0641326904296875,-0.8973007202148438,-0.0674272403120994,-0.558289110660553,66.72462463378906,95.417236328125,-29.95112609863281
173086,0.0865478515625,-0.21295166015625,-0.0641326904296875,-0.8973007202148438,-0.0674272403120994,-0.558289110660553,66.72462463378906,95.417236328125,-29.95112609863281
173087,0.1016998291015625,0.0024566650390625,0.1932373046875,-0.8173893690109253,0.1605113744735718,-0.6912751197814941,66.45915222167969,95.53016662597656,-29.40628051757812
173088,0.06787109375,0.1837158203125,0.5099029541015625,-0.731475293636322,0.871959924697876,-0.885543942451477,66.233154296875,95.77120971679688,-28.87286376953125
173089,0.0551910400390625,0.3093414306640625,0.6379547119140625,-0.8891197443008423,2.761254072189331,-1.250048398971558,65.50537109375,96.55714416503906,-27.81236267089844
173090,0.0551910400390625,0.3093414306640625,0.6379547119140625,-0.8891197443008423,2.761254072189331,-1.250048398971558,65.50537109375,96.55714416503906,-27.81236267089844
173091,0.007415771484375,0.43603515625,0.4489898681640625,-1.17323112487793,2.711411476135254,-1.49308979511261,65.11148071289062,97.03146362304688,-27.07884216308594
173092,-0.0703125,0.586639404296875,0.50921630859375,-1.391798853874207,1.965577960014343,-1.726191282272339,64.61703491210938,97.67283630371094,-26.5491943359375
173093,-0.719970703125,8.165390014648438,0.2687835693359375,-0.7252019047737122,-4.568779468536377,-1.79839825630188,61.66145324707031,100.1385498046875,-26.90408325195312
173094,-0.719970703125,8.165390014648438,0.2687835693359375,-0.7252019047737122,-4.568779468536377,-1.79839825630188,61.66145324707031,100.1385498046875,-26.90408325195312
173095,-0.719970703125,8.165390014648438,0.2687835693359375,-0.7252019047737122,-4.568779468536377,-1.79839825630188,61.66145324707031,100.1385498046875,-26.90408325195312
173096,-1.704696655273438,8.001388549804688,1.464309692382812,-0.3050179481506348,-5.959406852722168,-0.2164183259010315,60.30889892578125,101.0671844482422,-28.46200561523438
173097,-0.7049560546875,3.124114990234375,0.5493621826171875,-0.6929736733436584,0.1143675893545151,-1.009217619895935,58.42654418945312,101.3813018798828,-30.24819946289062
173098,-0.7049560546875,3.124114990234375,0.5493621826171875,-0.6929736733436584,0.1143675893545151,-1.009217619895935,58.42654418945312,101.3813018798828,-30.24819946289062
173099,-0.263580322265625,1.185028076171875,-0.8632965087890625,-0.8124294877052307,0.8193731904029846,-0.1851248443126678,57.82392883300781,101.2398986816406,-29.57594299316406
173100,-0.212738037109375,0.566650390625,-1.665267944335938,0.1604461371898651,-0.7938446402549744,0.4916685223579407,57.63348388671875,101.3324737548828,-28.55223083496094
173101,-0.1241607666015625,1.057174682617188,-0.0290069580078125,1.578120589256287,-0.5094137191772461,0.700259268283844,58.04765319824219,101.1102600097656,-27.77897644042969
173102,-0.1241607666015625,1.057174682617188,-0.0290069580078125,1.578120589256287,-0.5094137191772461,0.700259268283844,58.04765319824219,101.1102600097656,-27.77897644042969
173103,-0.0196380615234375,1.333816528320312,0.0451507568359375,1.415035724639893,-0.1824318617582321,0.7617892622947693,58.37905883789062,100.6445007324219,-28.29298400878906
173104,-0.025665283203125,1.319442749023438,0.1141815185546875,1.127121925354004,-0.2601567506790161,0.759728729724884,58.98388671875,100.1623687744141,-29.01588439941406
173105,-0.0001373291015625,0.8505706787109375,0.1562652587890625,0.7309146523475647,-0.4572144150733948,0.674176037311554,60.11175537109375,99.10389709472656,-30.23716735839844
173106,-0.0001373291015625,0.8505706787109375,0.1562652587890625,0.7309146523475647,-0.4572144150733948,0.674176037311554,60.11175537109375,99.10389709472656,-30.23716735839844
173107,0.046905517578125,0.640777587890625,0.11370849609375,0.7006899118423462,-0.439121425151825,0.7862932682037354,60.52326965332031,98.84326171875,-30.56915283203125
173108,0.0736083984375,0.453643798828125,0.0463409423828125,0.7417313456535339,-0.3696840405464172,0.9432724714279176,60.813232421875,98.69898986816406,-30.90550231933594
173109,0.0895843505859375,0.07672119140625,-0.15087890625,1.140357255935669,-0.5495787262916565,1.230337023735046,61.33299255371094,98.40455627441406,-31.58938598632812
173110,0.0895843505859375,0.07672119140625,-0.15087890625,1.140357255935669,-0.5495787262916565,1.230337023735046,61.33299255371094,98.40455627441406,-31.58938598632812
173111,0.0738983154296875,-0.0412139892578125,-0.1048431396484375,1.354138851165771,-0.6018078327178955,1.296562671661377,61.66929626464844,98.18771362304688,-31.96702575683594
173112,0.061065673828125,-0.1134033203125,-0.0416107177734375,1.41584849357605,-0.4602158069610596,1.299570918083191,62.1182861328125,97.99810791015624,-32.48135375976562
173113,0.01800537109375,-0.1476287841796875,-0.1113433837890625,1.216823577880859,-0.0137589555233717,1.269485712051392,62.89546203613281,97.25373840332033,-33.585205078125
173114,0.01800537109375,-0.1476287841796875,-0.1113433837890625,1.216823577880859,-0.0137589555233717,1.269485712051392,62.89546203613281,97.25373840332033,-33.585205078125
173115,-0.0030975341796875,-0.23822021484375,-0.2225189208984375,0.8721389174461365,0.3427919745445251,1.207752346992493,63.37968444824219,96.80262756347656,-33.98129272460938
173116,-0.01544189453125,-0.3230438232421875,-0.3922119140625,0.130041092634201,0.4970161616802216,1.060767412185669,63.82447814941406,96.47653198242188,-34.23344421386719
173117,-0.034271240234375,-0.2747802734375,-0.26220703125,-0.0059250006452202,0.2054972350597382,0.977527379989624,65.218017578125,95.785888671875,-34.30848693847656
173118,-0.034271240234375,-0.2747802734375,-0.26220703125,-0.0059250006452202,0.2054972350597382,0.977527379989624,65.218017578125,95.785888671875,-34.30848693847656
173119,-0.0384674072265625,-0.2666015625,-0.1306304931640625,-0.0355204418301582,0.1593939214944839,0.8685987591743469,65.84957885742188,95.65029907226562,-34.17469787597656
173120,-0.0450439453125,-0.306854248046875,-0.1186370849609375,-0.0166082717478275,0.3151824474334717,0.7279993295669556,66.53828430175781,95.59968566894533,-33.834228515625
173121,-0.0476837158203125,-0.411376953125,-0.3646392822265625,-0.1930272430181503,0.7616369128227234,0.3426678776741028,68.03671264648438,95.29307556152344,-33.05372619628906
173122,-0.0476837158203125,-0.411376953125,-0.3646392822265625,-0.1930272430181503,0.7616369128227234,0.3426678776741028,68.03671264648438,95.29307556152344,-33.05372619628906
173123,-0.0318603515625,-0.4454803466796875,-0.5232391357421875,-0.2795032858848572,0.5826197266578674,0.2008902281522751,68.74774169921875,94.9924774169922,-32.64686584472656
173124,-0.0070343017578125,-0.478424072265625,-0.571319580078125,-0.3193204700946808,0.2483842372894287,0.1086132973432541,69.39283752441406,94.54974365234376,-31.9769287109375
173125,0.0540313720703125,-0.37310791015625,-0.2324676513671875,-0.4830883741378784,0.2893689572811127,-0.0359777063131332,69.96417236328125,93.65150451660156,-30.96621704101562
173126,0.0540313720703125,-0.37310791015625,-0.2324676513671875,-0.4830883741378784,0.2893689572811127,-0.0359777063131332,69.96417236328125,93.65150451660156,-30.96621704101562
173127,0.1134796142578125,-0.3000335693359375,-0.1556396484375,-0.663107693195343,0.3390419781208038,-0.224469855427742,69.57243347167969,92.90519714355467,-30.0953369140625
173128,0.1134796142578125,-0.3000335693359375,-0.1556396484375,-0.663107693195343,0.3390419781208038,-0.224469855427742,69.57243347167969,92.90519714355467,-30.0953369140625
173129,0.1476287841796875,-0.2723541259765625,-0.1476898193359375,-0.669313907623291,0.1391067504882812,-0.30361607670784,69.35986328125,92.84129333496094,-29.70521545410156
173130,0.1476287841796875,-0.2723541259765625,-0.1476898193359375,-0.669313907623291,0.1391067504882812,-0.30361607670784,69.35986328125,92.84129333496094,-29.70521545410156
173131,0.2047119140625,-0.065399169921875,0.0433502197265625,-0.7093483805656433,0.0370285920798778,-0.3952003121376038,68.91102600097656,93.14453125,-29.04840087890625
173132,0.1112518310546875,0.1265869140625,0.2052764892578125,-0.8514107465744019,0.4872162640094757,-0.4748075306415558,68.73434448242188,93.40557861328124,-28.6546630859375
173133,-0.0010223388671875,0.2047271728515625,0.41058349609375,-1.108104586601257,0.6957372426986694,-0.4679102003574371,68.46406555175781,93.82795715332033,-27.68864440917969
173134,-0.0010223388671875,0.2047271728515625,0.41058349609375,-1.108104586601257,0.6957372426986694,-0.4679102003574371,68.46406555175781,93.82795715332033,-27.68864440917969
173135,-0.02789306640625,0.278839111328125,0.5091400146484375,-1.457744121551514,0.7280858755111694,-0.4765558838844299,68.47132873535156,94.322998046875,-27.40888977050781
173136,-0.0656890869140625,0.413177490234375,0.69256591796875,-1.775156140327454,0.6441683173179626,-0.5753682255744934,68.54251098632812,94.9440460205078,-26.94392395019531
173137,-0.1068878173828125,0.6158294677734375,1.017959594726562,-1.854517817497253,0.4905430972576141,-0.7346358895301819,68.43818664550781,95.7122039794922,-26.19900512695312
173138,-0.1961517333984375,1.28729248046875,1.512298583984375,-1.593324780464172,0.4938075840473175,-1.56186306476593,68.11027526855469,96.52098083496094,-25.41806030273438
173139,-0.4628448486328125,3.412887573242188,1.866912841796875,-1.593324780464172,0.4938075840473175,-1.56186306476593,67.41717529296875,97.50868225097656,-25.10829162597656
173140,-0.880340576171875,7.8720703125,2.455551147460938,-0.7631277441978455,1.285825252532959,0.3928647339344025,66.74345397949219,98.49446105957033,-25.56333923339844
173141,-1.354827880859375,7.619461059570312,1.50390625,-0.1270306557416916,3.359950542449951,1.227614164352417,67.44302368164062,99.64691162109376,-28.08604431152344
173142,-0.0927581787109375,4.319427490234375,-0.382293701171875,-0.7835201025009155,0.3907288610935211,-0.5369167327880859,68.75137329101562,99.45262145996094,-27.6251220703125
173143,-0.0927581787109375,4.319427490234375,-0.382293701171875,-0.7835201025009155,0.3907288610935211,-0.5369167327880859,68.75137329101562,99.45262145996094,-27.6251220703125
173144,0.2446136474609375,1.717529296875,-0.4048004150390625,-1.495096206665039,-2.084561109542847,-0.4920861124992371,69.34091186523438,99.18899536132812,-26.39480590820312
173145,0.693756103515625,0.32281494140625,-1.237884521484375,-1.777118325233459,-5.219102382659912,0.2418863922357559,68.12477111816406,99.49981689453124,-24.44522094726562
173146,0.693756103515625,0.32281494140625,-1.237884521484375,-1.777118325233459,-5.219102382659912,0.2418863922357559,68.12477111816406,99.49981689453124,-24.44522094726562
173147,0.775634765625,0.4668121337890625,-0.006744384765625,1.142500042915344,0.5713348388671875,1.231419563293457,67.37875366210938,99.75048828125,-23.8251953125
173148,0.6678619384765625,0.9990997314453124,-0.0944061279296875,1.142500042915344,0.5713348388671875,1.231419563293457,66.84764099121094,99.70159912109376,-23.51177978515625
173149,0.129425048828125,1.66485595703125,0.2538909912109375,1.574256539344788,0.7930286526679993,0.7688854932785034,67.68646240234375,98.89842224121094,-23.84133911132812
173150,-0.0034027099609375,1.4163818359375,0.20281982421875,1.038943886756897,0.7510175704956055,0.4271404147148132,68.49310302734375,98.3810577392578,-24.53514099121094
173151,-0.0034027099609375,1.4163818359375,0.20281982421875,1.038943886756897,0.7510175704956055,0.4271404147148132,68.49310302734375,98.3810577392578,-24.53514099121094
173152,-0.0535736083984375,1.08673095703125,0.1283416748046875,0.5163381695747375,0.6256479024887085,0.1953436583280563,69.03971862792969,98.0728759765625,-25.27609252929688
173153,-0.08868408203125,0.59161376953125,0.008819580078125,0.2327235192060471,-0.169738695025444,-0.1215820908546448,69.71572875976562,97.63600158691406,-25.67958068847656
173154,-0.1186981201171875,0.4508209228515625,-0.0617218017578125,0.2327235192060471,-0.169738695025444,-0.1215820908546448,69.85330200195312,97.57736206054688,-25.84855651855469
173155,-0.1186981201171875,0.4508209228515625,-0.0617218017578125,0.2327235192060471,-0.169738695025444,-0.1215820908546448,69.85330200195312,97.57736206054688,-25.84855651855469
173156,-0.141754150390625,0.32489013671875,-0.1911773681640625,0.3885458707809448,-0.6267797350883484,-0.2127428948879242,69.87713623046875,97.4562530517578,-25.89067077636719
173157,-0.217010498046875,0.005401611328125,-0.433013916015625,0.7501085996627808,-1.756029605865479,-0.3548004329204559,69.7073974609375,97.36557006835938,-26.37384033203125
173158,-0.217010498046875,0.005401611328125,-0.433013916015625,0.7501085996627808,-1.756029605865479,-0.3548004329204559,69.7073974609375,97.36557006835938,-26.37384033203125
173159,-0.3072509765625,-0.19287109375,-0.462127685546875,0.8272486925125122,-0.8167217373847961,0.0092931007966399,69.50108337402344,97.33628845214844,-26.86457824707031
173160,-0.2360992431640625,-0.3526458740234375,-0.5446014404296875,0.8272486925125122,-0.8167217373847961,0.0092931007966399,69.13069152832031,97.1898956298828,-27.59712219238281
173161,0.2097320556640625,-0.1868896484375,-0.22503662109375,0.8473986983299255,0.2009094059467316,0.2029224932193756,68.85935974121094,96.67140197753906,-28.84255981445312
173162,0.2097320556640625,-0.1868896484375,-0.22503662109375,0.8473986983299255,0.2009094059467316,0.2029224932193756,68.85935974121094,96.67140197753906,-28.84255981445312
173163,0.2097320556640625,-0.1868896484375,-0.22503662109375,0.8473986983299255,0.2009094059467316,0.2029224932193756,68.85935974121094,96.67140197753906,-28.84255981445312
173164,0.1994476318359375,-0.1534271240234375,-0.1052093505859375,0.8815105557441711,0.1016949340701103,0.1744389086961746,68.8948974609375,96.45587158203124,-29.07058715820312
173165,0.160888671875,-0.144927978515625,0.0381622314453125,0.8217684030532837,0.292442262172699,0.0912470892071723,69.02284240722656,96.15792846679688,-29.72601318359375
173166,0.136932373046875,-0.144622802734375,0.0605926513671875,0.7848625779151917,0.5088637471199036,0.0495062991976738,69.13233947753906,96.064453125,-30.037841796875
173167,0.136932373046875,-0.144622802734375,0.0605926513671875,0.7848625779151917,0.5088637471199036,0.0495062991976738,69.13233947753906,96.064453125,-30.037841796875
173168,0.11199951171875,-0.1442718505859375,0.0205078125,0.7422701120376587,0.6535690426826477,0.0107218865305185,69.12049865722656,95.90785217285156,-30.08877563476562
173169,0.07598876953125,-0.1535491943359375,-0.1710968017578125,0.6692491769790649,0.3550715446472168,-0.0550568588078022,69.22001647949219,95.85856628417967,-30.16365051269531
173170,0.07598876953125,-0.1535491943359375,-0.1710968017578125,0.6692491769790649,0.3550715446472168,-0.0550568588078022,69.22001647949219,95.85856628417967,-30.16365051269531
173171,0.066070556640625,-0.16534423828125,-0.2642364501953125,0.6331284642219543,-0.0569690093398094,-0.085529550909996,69.13339233398438,95.74089050292967,-30.10493469238281
173172,0.063323974609375,-0.1797637939453125,-0.3259429931640625,0.6156901121139526,-0.5142963528633118,-0.1117038950324059,69.16567993164062,95.65359497070312,-30.06938171386719
173173,0.077972412109375,-0.1901397705078125,-0.235076904296875,0.5182881355285645,-0.6905518174171448,-0.2495669573545456,69.03077697753906,95.69180297851562,-30.56388854980469
173174,0.077972412109375,-0.1901397705078125,-0.235076904296875,0.5182881355285645,-0.6905518174171448,-0.2495669573545456,69.03077697753906,95.69180297851562,-30.56388854980469
173175,0.1164398193359375,-0.162506103515625,-0.1777496337890625,0.4497756659984589,-0.5516178607940674,-0.2751016020774841,68.7822265625,95.76301574707033,-30.89930725097656
173176,0.1649932861328125,-0.0787200927734375,-0.131744384765625,0.4497756659984589,-0.5516178607940674,-0.2751016020774841,68.62684631347656,95.73138427734376,-31.24186706542969
173177,0.131561279296875,0.1101226806640625,0.071533203125,0.2174545526504517,-0.224544420838356,-0.3572827577590942,68.15684509277344,95.5554656982422,-31.57499694824219
173178,0.131561279296875,0.1101226806640625,0.071533203125,0.2174545526504517,-0.224544420838356,-0.3572827577590942,68.15684509277344,95.5554656982422,-31.57499694824219
173179,0.1083221435546875,0.1629791259765625,0.2243499755859375,0.0339691527187824,0.1680891364812851,-0.4407784640789032,67.89010620117188,95.67282104492188,-31.88285827636719
173180,0.1165924072265625,0.2587738037109375,0.41522216796875,-0.265578955411911,0.8667398691177368,-0.5355877876281738,67.63555908203125,95.73741149902344,-32.14007568359375
173181,0.2150421142578125,1.3707275390625,0.6326904296875,-1.162199974060059,2.680518865585327,-0.9886023998260498,67.30453491210938,95.98606872558594,-31.92686462402344
173182,0.2150421142578125,1.3707275390625,0.6326904296875,-1.162199974060059,2.680518865585327,-0.9886023998260498,67.30453491210938,95.98606872558594,-31.92686462402344
173183,0.406646728515625,3.101318359375,0.8217926025390625,-1.681291103363037,3.480050802230835,-1.372221708297729,67.09324645996094,96.15716552734376,-31.49609375
173184,0.3155364990234375,4.728622436523438,0.859161376953125,-1.808749198913574,3.142083883285522,-1.057953238487244,66.95846557617188,96.80447387695312,-31.00119018554688
173185,-0.740386962890625,6.084915161132812,0.943695068359375,-0.5048857927322388,-0.2628657221794128,-1.002367734909058,66.89320373535156,98.2297821044922,-29.33328247070312
173186,-0.740386962890625,6.084915161132812,0.943695068359375,-0.5048857927322388,-0.2628657221794128,-1.002367734909058,66.89320373535156,98.2297821044922,-29.33328247070312
173187,-0.7803192138671875,4.704681396484375,1.110641479492188,0.2685132026672363,-1.446125984191895,-1.205826282501221,66.96748352050781,98.56637573242188,-28.74214172363281
173188,-0.5675811767578125,3.120635986328125,0.95574951171875,0.243502676486969,-2.205319404602051,-1.390547752380371,66.73043823242188,98.8881378173828,-28.33393859863281
173189,-0.3796539306640625,1.621063232421875,0.53485107421875,-0.4436978101730347,-2.402494430541992,-1.498038768768311,65.31333923339844,99.33863830566406,-28.72402954101562
173190,-0.3796539306640625,1.621063232421875,0.53485107421875,-0.4436978101730347,-2.402494430541992,-1.498038768768311,65.31333923339844,99.33863830566406,-28.72402954101562
173191,-0.1614227294921875,1.602127075195312,0.1489105224609375,-0.4436978101730347,-2.402494430541992,-1.498038768768311,64.41574096679688,99.29478454589844,-28.94976806640625
173192,0.0816802978515625,2.0621337890625,-1.230941772460938,-0.2415614873170853,-3.249327421188354,-0.7557539939880371,63.2880859375,99.48210144042967,-29.17262268066406
173193,0.1466522216796875,2.231719970703125,-0.075897216796875,0.9974286556243896,-1.761240601539612,0.434410572052002,60.92961120605469,99.89476013183594,-29.79838562011719
173194,0.1466522216796875,2.231719970703125,-0.075897216796875,0.9974286556243896,-1.761240601539612,0.434410572052002,60.92961120605469,99.89476013183594,-29.79838562011719
173195,0.043243408203125,1.617874145507812,-0.4210968017578125,1.434095978736877,0.8777738809585571,0.7773820161819458,59.83589172363281,100.1634674072266,-30.51771545410156
173196,-0.00286865234375,1.489044189453125,-0.431915283203125,1.697535634040833,1.02432119846344,0.9690337777137756,59.3695068359375,100.0248260498047,-31.14549255371094
173197,-0.0899505615234375,1.186019897460938,-0.16943359375,0.9754370450973512,-0.2370684742927551,0.9569539427757264,60.6180419921875,99.02267456054688,-32.32763671875
173198,-0.129730224609375,1.0250244140625,-0.1109771728515625,0.9754370450973512,-0.2370684742927551,0.9569539427757264,61.49354553222656,98.41007995605467,-32.97889709472656
173199,-0.129730224609375,1.0250244140625,-0.1109771728515625,0.9754370450973512,-0.2370684742927551,0.9569539427757264,61.49354553222656,98.41007995605467,-32.97889709472656
173200,-0.095306396484375,0.831817626953125,-0.06396484375,0.9250702857971193,-0.5567005276679993,0.9603888988494872,62.19868469238281,97.91387939453124,-33.46611022949219
173201,-0.03509521484375,0.4517974853515625,-0.0323638916015625,1.251895546913147,-0.8455086350440979,0.8977771401405334,63.20010375976562,97.23458862304688,-34.26731872558594
173202,-0.0216522216796875,0.2553253173828125,-0.0868988037109375,1.361702442169189,-0.9515759348869324,0.7131287455558777,63.55923461914062,96.89874267578124,-34.76846313476562
173203,-0.0216522216796875,0.2553253173828125,-0.0868988037109375,1.361702442169189,-0.9515759348869324,0.7131287455558777,63.55923461914062,96.89874267578124,-34.76846313476562
173204,-0.0123291015625,0.061676025390625,-0.148681640625,1.361702442169189,-0.9515759348869324,0.7131287455558777,63.80366516113281,96.61988830566406,-35.27534484863281
173205,-0.0031280517578125,-0.28082275390625,-0.1804962158203125,1.114341735839844,-0.8953770995140076,0.5535739660263062,64.09173583984375,95.6466064453125,-36.71810913085938
173206,-0.0108184814453125,-0.380584716796875,-0.0863800048828125,0.7613266706466675,0.5603818297386169,0.4919028878211975,64.15495300292969,95.37684631347656,-37.45390319824219
173207,-0.0108184814453125,-0.380584716796875,-0.0863800048828125,0.7613266706466675,0.5603818297386169,0.4919028878211975,64.15495300292969,95.37684631347656,-37.45390319824219
173208,-0.0186614990234375,-0.37689208984375,-0.09991455078125,0.7613266706466675,0.5603818297386169,0.4919028878211975,64.12614440917969,95.04017639160156,-38.09024047851562
173209,-0.057769775390625,-0.2922821044921875,-0.1741180419921875,0.8259394764900208,0.6462147235870361,0.4831147193908691,64.52432250976562,94.48538208007812,-38.61865234375
173210,-0.057769775390625,-0.2922821044921875,-0.1741180419921875,0.8259394764900208,0.6462147235870361,0.4831147193908691,64.52432250976562,94.48538208007812,-38.61865234375
173211,-0.0885772705078125,-0.261505126953125,-0.14227294921875,0.8259394764900208,0.6462147235870361,0.4831147193908691,64.890625,94.29109191894533,-38.87306213378906
173212,-0.1104888916015625,-0.24603271484375,-0.1475372314453125,0.7266565561294556,0.7085584998130798,0.4170153439044952,65.24134826660156,93.979736328125,-39.06742858886719
173213,-0.09326171875,-0.2260284423828125,-0.2230682373046875,0.1284578442573547,0.4377752244472504,0.1424580812454224,65.96987915039062,93.61178588867188,-39.24284362792969
173214,-0.09326171875,-0.2260284423828125,-0.2230682373046875,0.1284578442573547,0.4377752244472504,0.1424580812454224,65.96987915039062,93.61178588867188,-39.24284362792969
173215,-0.057220458984375,-0.2057037353515625,-0.17156982421875,0.1284578442573547,0.4377752244472504,0.1424580812454224,66.29803466796875,93.42420959472656,-39.35684204101562
173216,-0.0138092041015625,-0.1702117919921875,-0.0155029296875,-0.241856575012207,0.5666048526763916,-0.0629126504063606,66.59315490722656,93.27174377441406,-39.24517822265625
173217,0.044952392578125,-0.11053466796875,0.2052001953125,-0.4840936958789825,1.152819275856018,-0.1974624693393707,67.02310180664062,93.23477172851562,-38.87745666503906
173218,0.044952392578125,-0.11053466796875,0.2052001953125,-0.4840936958789825,1.152819275856018,-0.1974624693393707,67.02310180664062,93.23477172851562,-38.87745666503906
173219,0.055206298828125,-0.093231201171875,0.19952392578125,-0.4840936958789825,1.152819275856018,-0.1974624693393707,67.2249755859375,93.27742004394533,-38.65116882324219
173220,0.0626983642578125,-0.0906829833984375,0.1657867431640625,-0.623297393321991,1.317548394203186,-0.2500101029872894,67.42539978027344,93.47805786132812,-38.11737060546875
173221,0.08184814453125,-0.153778076171875,-0.2718353271484375,-1.157598614692688,0.5069769024848938,-0.3701969683170319,68.28166198730469,93.65692138671876,-36.24601745605469
173222,0.08184814453125,-0.153778076171875,-0.2718353271484375,-1.157598614692688,0.5069769024848938,-0.3701969683170319,68.28166198730469,93.65692138671876,-36.24601745605469
173223,0.08184814453125,-0.153778076171875,-0.2718353271484375,-1.157598614692688,0.5069769024848938,-0.3701969683170319,68.28166198730469,93.65692138671876,-36.24601745605469
173224,0.1081390380859375,-0.1912078857421875,-0.5097198486328125,-1.189985036849976,-0.709216296672821,-0.345978707075119,68.47454833984375,93.6591339111328,-35.52931213378906
173225,0.110748291015625,0.0092315673828125,-0.0939483642578125,-1.081558704376221,-1.497766017913818,-0.4565078914165497,68.46768188476562,94.08999633789062,-34.12017822265625
173226,0.110748291015625,0.0092315673828125,-0.0939483642578125,-1.081558704376221,-1.497766017913818,-0.4565078914165497,68.46768188476562,94.08999633789062,-34.12017822265625
173227,0.0840301513671875,0.088958740234375,0.0197906494140625,-1.081558704376221,-1.497766017913818,-0.4565078914165497,68.06636047363281,94.38626098632812,-33.60856628417969
173228,0.0759735107421875,0.1336822509765625,-0.0537109375,-0.9620802402496338,-0.2564805150032043,-0.4561097323894501,67.5809326171875,94.6034698486328,-33.424072265625
173229,0.084991455078125,0.2126007080078125,-0.2610321044921875,-0.8846904039382935,-0.2292174696922302,-0.4849810600280762,66.50361633300781,95.49815368652344,-33.17387390136719
173230,0.084991455078125,0.2126007080078125,-0.2610321044921875,-0.8846904039382935,-0.2292174696922302,-0.4849810600280762,66.50361633300781,95.49815368652344,-33.17387390136719
173231,0.0782928466796875,0.2499847412109375,-0.0069427490234375,-0.957270324230194,-0.2220719456672668,-0.5753844976425171,65.99456787109375,95.8063507080078,-32.69482421875
173232,0.1034393310546875,0.4346771240234375,0.467254638671875,-1.694602966308594,1.723204016685486,-0.9733613729476928,65.46461486816406,96.09561157226562,-32.28993225097656
173233,0.21722412109375,6.810043334960938,0.9008941650390624,-2.679015636444092,3.925172805786133,0.7042407393455505,63.34600830078125,97.7313232421875,-32.15283203125
173234,0.21722412109375,6.810043334960938,0.9008941650390624,-2.679015636444092,3.925172805786133,0.7042407393455505,63.34600830078125,97.7313232421875,-32.15283203125
173235,0.21722412109375,6.810043334960938,0.9008941650390624,-2.679015636444092,3.925172805786133,0.7042407393455505,63.34600830078125,97.7313232421875,-32.15283203125
173236,-0.4872894287109375,8.056060791015625,0.4412078857421875,-2.202221393585205,1.710847735404968,0.5063201785087585,63.13420104980469,98.4979248046875,-31.71290588378906
173237,-0.4942474365234375,4.767120361328125,0.909271240234375,-0.2829930782318115,-1.526267766952515,-1.175095796585083,64.43629455566406,99.20100402832033,-29.67739868164062
173238,-0.4942474365234375,4.767120361328125,0.909271240234375,-0.2829930782318115,-1.526267766952515,-1.175095796585083,64.43629455566406,99.20100402832033,-29.67739868164062
173239,-0.0966949462890625,2.617935180664062,0.76983642578125,-0.1494408845901489,-2.341914415359497,-0.3478676974773407,64.80250549316406,99.17962646484376,-28.89488220214844
173240,-0.1318206787109375,1.758712768554688,0.7748565673828125,0.0349382758140564,-1.756465196609497,0.1540622711181641,64.51318359375,99.24430847167967,-28.56967163085938
173241,0.0697784423828125,1.29522705078125,-0.062469482421875,0.4616920053958893,-0.2766531705856323,0.7786153554916382,63.37136840820312,99.20587158203124,-28.61447143554688
173242,0.0697784423828125,1.29522705078125,-0.062469482421875,0.4616920053958893,-0.2766531705856323,0.7786153554916382,63.37136840820312,99.20587158203124,-28.61447143554688
173243,0.1689300537109375,1.615432739257812,-0.9452667236328124,0.6238539814949036,-0.820399820804596,0.8062142133712769,63.48933410644531,99.07467651367188,-28.81829833984375
173244,0.216522216796875,1.761734008789062,-0.894927978515625,0.396300733089447,-1.946730494499207,0.5369702577590942,63.69160461425781,98.87437438964844,-29.07473754882812
173245,-0.0346221923828125,1.065826416015625,0.1147613525390625,-0.2671222388744354,-0.0870595350861549,0.4317764341831207,63.97491455078125,98.4702606201172,-29.89071655273438
173246,-0.0346221923828125,1.065826416015625,0.1147613525390625,-0.2671222388744354,-0.0870595350861549,0.4317764341831207,63.97491455078125,98.4702606201172,-29.89071655273438
173247,-0.0801849365234375,0.90216064453125,0.0152435302734375,-0.3003771305084229,0.6380744576454163,0.6199260950088501,64.25276184082031,98.22872924804688,-29.90763854980469
173248,-0.1042938232421875,0.82177734375,-0.0774383544921875,-0.1092122420668602,0.8078456521034241,0.6941388249397278,64.65452575683594,98.05023193359376,-29.82778930664062
173249,-0.134674072265625,0.6633148193359375,0.0615997314453125,0.572119951248169,0.6803327202796936,0.658328115940094,65.85922241210938,97.57243347167967,-29.62774658203125
173250,-0.134674072265625,0.6633148193359375,0.0615997314453125,0.572119951248169,0.6803327202796936,0.658328115940094,65.85922241210938,97.57243347167967,-29.62774658203125
173251,-0.13641357421875,0.579193115234375,0.1340179443359375,0.7937127947807312,0.8027028441429138,0.5988115072250366,66.31185913085938,97.4070281982422,-29.55360412597656
173252,-0.143218994140625,0.481353759765625,0.11248779296875,0.8737636804580688,0.9139276146888732,0.5201273560523987,66.75660705566406,97.07310485839844,-29.55488586425781
173253,-0.167999267578125,0.2613067626953125,-0.078094482421875,0.7961291074752808,0.6519431471824646,0.2875734567642212,67.51753234863281,96.7165069580078,-30.10873413085938
173254,-0.167999267578125,0.2613067626953125,-0.078094482421875,0.7961291074752808,0.6519431471824646,0.2875734567642212,67.51753234863281,96.7165069580078,-30.10873413085938
173255,-0.173095703125,0.16070556640625,-0.1571044921875,0.7422274947166443,0.2490516304969788,0.1476656198501587,67.7706298828125,96.5016632080078,-30.32240295410156
173256,-0.1562347412109375,0.0482177734375,-0.2173919677734375,0.712811291217804,-0.2442286461591721,0.013489443808794,68.02151489257812,96.5140380859375,-30.57066345214844
173257,-0.048980712890625,-0.14349365234375,-0.1677093505859375,0.6815399527549744,-1.136479258537292,-0.1057003289461136,68.00010681152344,96.28143310546876,-31.39012145996094
173258,0.015350341796875,-0.17694091796875,-0.0293426513671875,0.6288338303565979,-1.084749698638916,-0.1070750504732132,67.78695678710938,96.13917541503906,-31.73564147949219
173259,0.015350341796875,-0.17694091796875,-0.0293426513671875,0.6288338303565979,-1.084749698638916,-0.1070750504732132,67.78695678710938,96.13917541503906,-31.73564147949219
173260,0.076324462890625,-0.16790771484375,0.083160400390625,0.5253380537033081,-0.5801238417625427,-0.1215522661805153,67.51177978515625,96.0930633544922,-32.23782348632812
173261,0.132843017578125,-0.123687744140625,0.075469970703125,0.4838084876537323,0.6749811172485352,-0.1922362893819809,67.06094360351562,96.07658386230467,-32.78831481933594
173262,0.132843017578125,-0.123687744140625,0.075469970703125,0.4838084876537323,0.6749811172485352,-0.1922362893819809,67.06094360351562,96.07658386230467,-32.78831481933594
173263,0.1375579833984375,-0.116668701171875,0.0561065673828125,0.5622242093086243,0.8842834830284119,-0.1917523890733719,66.98170471191406,95.9932861328125,-32.72784423828125
173264,0.1311492919921875,-0.1090087890625,0.0659332275390625,0.618133008480072,0.9403062462806702,-0.1765686422586441,67.06028747558594,95.83171081542967,-32.55549621582031
173265,0.111663818359375,-0.114349365234375,0.030242919921875,0.5129519701004028,0.7869774103164673,-0.1600306779146194,67.22959899902344,95.5683135986328,-32.41912841796875
173266,0.111663818359375,-0.114349365234375,0.030242919921875,0.5129519701004028,0.7869774103164673,-0.1600306779146194,67.22959899902344,95.5683135986328,-32.41912841796875
173267,0.095550537109375,-0.1202545166015625,0.0191192626953125,0.3630927205085754,0.6253304481506348,-0.1662155985832214,67.36836242675781,95.47662353515624,-32.18766784667969
173268,0.079986572265625,-0.1204681396484375,0.0223388671875,0.1739299893379211,0.464069128036499,-0.1853512227535248,67.47151184082031,95.3393096923828,-32.00009155273438
173269,0.042144775390625,-0.11029052734375,0.058013916015625,-0.1918623745441437,0.3078007102012634,-0.2873569428920746,67.50312805175781,95.22616577148438,-31.746337890625
173270,0.042144775390625,-0.11029052734375,0.058013916015625,-0.1918623745441437,0.3078007102012634,-0.2873569428920746,67.50312805175781,95.22616577148438,-31.746337890625
173271,0.02447509765625,-0.1129608154296875,0.0361480712890625,-0.3243245482444763,0.2919953763484955,-0.3572670519351959,67.47291564941406,95.2278289794922,-31.55210876464844
173272,0.0105743408203125,-0.1192626953125,-0.0472869873046875,-0.3832672238349915,0.1767705082893372,-0.4227238297462463,67.47840881347656,95.24722290039062,-31.14884948730469
173273,0.0279693603515625,-0.126800537109375,-0.1838531494140625,-0.2545393407344818,-0.4394343495368958,-0.5161176919937134,67.32106018066406,95.49354553222656,-30.58245849609375
173274,0.0279693603515625,-0.126800537109375,-0.1838531494140625,-0.2545393407344818,-0.4394343495368958,-0.5161176919937134,67.32106018066406,95.49354553222656,-30.58245849609375
173275,0.0938568115234375,-0.08349609375,-0.1597137451171875,-0.1458360254764557,-0.7145093083381653,-0.5586142539978027,67.03436279296875,95.663330078125,-30.50892639160156
173276,0.140777587890625,0.0252685546875,-0.1138458251953125,-0.0967648923397064,-0.8538584113121033,-0.6195199489593506,66.67935180664062,95.7736358642578,-30.55172729492188
173277,0.1437835693359375,0.1448211669921875,0.014373779296875,-0.2763245403766632,-0.668123722076416,-0.7583639025688171,65.759765625,96.16253662109376,-30.76541137695312
173278,0.1437835693359375,0.1448211669921875,0.014373779296875,-0.2763245403766632,-0.668123722076416,-0.7583639025688171,65.759765625,96.16253662109376,-30.76541137695312
173279,0.144989013671875,0.2105865478515625,0.0142059326171875,-0.4154491424560547,-0.5018444657325745,-0.8474279642105103,65.14256286621094,96.46571350097656,-30.79019165039062
173280,0.154388427734375,0.33203125,0.0684814453125,-0.5504232048988342,-0.3599896132946014,-0.9806456565856934,64.47514343261719,96.76771545410156,-30.78500366210938
173281,0.1817169189453125,1.01019287109375,0.7022552490234375,-1.456366896629333,0.8225317001342773,-1.592863798141479,63.07920837402344,97.518798828125,-30.5496826171875
173282,0.1817169189453125,1.01019287109375,0.7022552490234375,-1.456366896629333,0.8225317001342773,-1.592863798141479,63.07920837402344,97.518798828125,-30.5496826171875
173283,0.1921844482421875,2.970230102539062,0.700164794921875,-2.104066371917725,1.937224149703979,-2.613029003143311,62.17500305175781,98.13629150390624,-30.35360717773438
173284,0.2496337890625,5.36175537109375,-0.367279052734375,-1.648422122001648,0.9592679738998412,-3.737029075622559,61.09843444824219,98.79629516601562,-29.86180114746094
173285,-0.5379791259765625,7.128646850585938,1.561294555664062,-0.9982001781463624,-2.869966506958008,-5.290263175964355,57.85934448242188,100.4072418212891,-29.11965942382812
173286,-0.5379791259765625,7.128646850585938,1.561294555664062,-0.9982001781463624,-2.869966506958008,-5.290263175964355,57.85934448242188,100.4072418212891,-29.11965942382812
173287,-1.1937255859375,5.442718505859375,1.987701416015625,-0.8543412685394287,-1.610388994216919,-4.507881641387939,55.46195983886719,101.1027679443359,-29.19583129882812
173288,-1.943267822265625,2.926605224609375,1.4986572265625,0.1149659976363182,0.1710319370031357,-2.436902523040771,53.0091552734375,101.5026092529297,-29.48243713378906
173289,-1.349685668945312,1.346023559570312,-1.075515747070312,1.962279081344604,2.431239128112793,1.119273543357849,50.78572082519531,102.0682220458984,-29.95610046386719
173290,-1.349685668945312,1.346023559570312,-1.075515747070312,1.962279081344604,2.431239128112793,1.119273543357849,50.78572082519531,102.0682220458984,-29.95610046386719
173291,-0.8673858642578125,1.794952392578125,-1.400741577148438,2.262755393981934,0.2770891189575195,1.375014781951904,51.14726257324219,102.0577087402344,-30.35830688476562
173292,-0.4442138671875,2.039230346679688,-0.90899658203125,1.52737557888031,-0.4438000917434692,1.187098145484924,51.847412109375,101.6295471191406,-31.08441162109375
173293,-0.0074462890625,1.714981079101562,-0.376678466796875,0.4642552733421326,-1.684641122817993,1.085540890693665,53.15397644042969,100.6989593505859,-32.69444274902344
173294,-0.0074462890625,1.714981079101562,-0.376678466796875,0.4642552733421326,-1.684641122817993,1.085540890693665,53.15397644042969,100.6989593505859,-32.69444274902344
173295,0.0860137939453125,1.5435791015625,-0.029632568359375,0.4720844626426697,-1.903949499130249,1.323379278182983,53.54693603515625,100.3695068359375,-32.97723388671875
173296,0.0785980224609375,1.405288696289062,0.312103271484375,0.4743590652942657,-1.341830492019653,1.432124137878418,53.94514465332031,99.8707275390625,-33.05874633789062
173297,0.07843017578125,1.09375,0.2446136474609375,0.4351434707641602,0.2562583982944489,1.407182335853577,54.71072387695312,99.391357421875,-33.19685363769531
173298,0.07843017578125,1.09375,0.2446136474609375,0.4351434707641602,0.2562583982944489,1.407182335853577,54.71072387695312,99.391357421875,-33.19685363769531
173299,0.089508056640625,0.9285430908203124,0.0133056640625,0.5006670951843262,0.4744964838027954,1.37172257900238,55.38665771484375,99.19183349609376,-33.20254516601562
173300,0.0561981201171875,0.746490478515625,-0.1903228759765625,0.8224528431892395,-0.00192200334277,1.319492697715759,56.12396240234375,98.79055786132812,-33.18905639648438
173301,-0.027679443359375,0.4842681884765625,0.246673583984375,1.12001097202301,-0.1598844677209854,0.9839900732040404,57.64743041992188,98.25050354003906,-33.70697021484375
173302,-0.027679443359375,0.4842681884765625,0.246673583984375,1.12001097202301,-0.1598844677209854,0.9839900732040404,57.64743041992188,98.25050354003906,-33.70697021484375
173303,-0.0497894287109375,0.314849853515625,0.2411956787109375,0.9819633960723876,0.1031540855765343,0.8301986455917358,58.2593994140625,97.82615661621094,-34.13027954101562
173304,-0.0716705322265625,0.1692352294921875,0.1648101806640625,0.8034506440162659,0.2502617835998535,0.6931366920471191,58.79522705078125,97.52871704101562,-34.73860168457031
173305,-0.0587158203125,-0.092559814453125,-0.1847076416015625,0.600281834602356,-0.2087313681840897,0.4541341960430145,59.76499938964844,96.88713073730467,-35.32730102539062
173306,-0.0587158203125,-0.092559814453125,-0.1847076416015625,0.600281834602356,-0.2087313681840897,0.4541341960430145,59.76499938964844,96.88713073730467,-35.32730102539062
173307,-0.0349884033203125,-0.1602783203125,-0.3495635986328125,0.6157857179641724,-0.9729076027870178,0.4215171337127686,60.13264465332031,96.66517639160156,-35.53269958496094
173308,-0.032440185546875,-0.198211669921875,-0.3177642822265625,0.6387386918067932,-1.690926432609558,0.4553968012332916,60.32817077636719,96.5032196044922,-35.76498413085938
173309,-0.4050445556640625,-0.708770751953125,0.1792449951171875,-0.3208525776863098,1.332316398620605,1.598950982093811,60.08602905273438,96.39401245117188,-36.47030639648438
173310,-0.4050445556640625,-0.708770751953125,0.1792449951171875,-0.3208525776863098,1.332316398620605,1.598950982093811,60.08602905273438,96.39401245117188,-36.47030639648438
173311,-0.1905670166015625,-0.560089111328125,-0.1929779052734375,-0.3208525776863098,1.332316398620605,1.598950982093811,60.11503601074219,96.47756958007812,-36.878662109375
173312,0.0025482177734375,-0.323150634765625,-0.3597869873046875,-0.1356558352708817,1.039525985717773,1.725568532943726,60.65486145019531,96.6243133544922,-36.87284851074219
173313,0.0196685791015625,-0.23101806640625,-0.0186614990234375,0.3897866308689117,0.4445913136005402,1.301681280136108,62.85104370117188,96.60850524902344,-35.87382507324219
173314,0.0196685791015625,-0.23101806640625,-0.0186614990234375,0.3897866308689117,0.4445913136005402,1.301681280136108,62.85104370117188,96.60850524902344,-35.87382507324219
173315,0.0224151611328125,-0.2279815673828125,-0.0245208740234375,0.2414456456899643,0.5446441173553467,1.02142608165741,64.09422302246094,96.3691864013672,-35.51905822753906
173316,0.0201416015625,-0.2044525146484375,-0.0152435302734375,0.0252345167100429,0.6982927918434143,0.7431257963180542,65.21626281738281,96.03231811523438,-35.00471496582031
173317,0.0270233154296875,-0.1680908203125,0.05859375,-0.4757665395736694,0.9232527017593384,0.2730605602264404,67.15483093261719,94.52398681640624,-34.15733337402344
173318,0.0270233154296875,-0.1680908203125,0.05859375,-0.4757665395736694,0.9232527017593384,0.2730605602264404,67.15483093261719,94.52398681640624,-34.15733337402344
173319,0.04071044921875,-0.1646728515625,0.059539794921875,-0.4757665395736694,0.9232527017593384,0.2730605602264404,67.72358703613281,93.87489318847656,-33.89541625976562
173320,0.0525360107421875,-0.1711883544921875,0.0659027099609375,-0.727594792842865,0.9139904975891112,0.0822985991835594,68.01057434082031,93.30284118652344,-33.46612548828125
173321,0.052398681640625,-0.1887969970703125,0.0843963623046875,-1.093942999839783,0.7287463545799255,-0.1953825503587723,68.26849365234375,92.86677551269533,-32.41752624511719
173322,0.052398681640625,-0.1887969970703125,0.0843963623046875,-1.093942999839783,0.7287463545799255,-0.1953825503587723,68.26849365234375,92.86677551269533,-32.41752624511719
173323,0.0535736083984375,-0.1951141357421875,0.054962158203125,-1.214094161987305,0.5308260321617126,-0.3021065890789032,68.23800659179688,92.86203002929688,-31.88577270507812
173324,0.0706939697265625,-0.2136077880859375,-0.1136474609375,-1.293794512748718,0.1222793087363243,-0.3824264705181122,68.03880310058594,93.00921630859376,-31.27690124511719
173325,0.1758880615234375,-0.0008697509765625,-0.49346923828125,-0.9154107570648192,-2.240562915802002,-0.4836095571517944,67.68154907226562,93.5606689453125,-30.1163330078125
173326,0.1758880615234375,-0.0008697509765625,-0.49346923828125,-0.9154107570648192,-2.240562915802002,-0.4836095571517944,67.68154907226562,93.5606689453125,-30.1163330078125
173327,0.0706787109375,0.210052490234375,0.002777099609375,-1.029803872108459,-0.2869697213172913,-0.5323416590690613,66.92776489257812,93.95864868164062,-29.362060546875
173328,0.0706787109375,0.210052490234375,0.002777099609375,-1.029803872108459,-0.2869697213172913,-0.5323416590690613,66.92776489257812,93.95864868164062,-29.362060546875
173329,0.0540924072265625,0.289337158203125,-0.0749969482421875,-0.9195245504379272,0.4414088129997253,-0.5892485976219177,66.25044250488281,94.6636199951172,-28.89521789550781
173330,0.0540924072265625,0.289337158203125,-0.0749969482421875,-0.9195245504379272,0.4414088129997253,-0.5892485976219177,66.25044250488281,94.6636199951172,-28.89521789550781
173331,0.0546875,0.2987060546875,-0.0272979736328125,-0.8055819869041443,0.5383681058883667,-0.7010592818260193,66.04730224609375,94.9615478515625,-28.31785583496094
173332,0.0504913330078125,0.30615234375,0.3066864013671875,-0.8707095980644226,0.6897438168525696,-0.8474801778793335,65.84649658203125,95.43904113769533,-27.76385498046875
173333,0.0234222412109375,0.4831085205078125,0.8168182373046875,-1.606078147888184,2.011818885803223,-1.449570059776306,64.98344421386719,96.74787902832033,-26.92991638183594
173334,0.0234222412109375,0.4831085205078125,0.8168182373046875,-1.606078147888184,2.011818885803223,-1.449570059776306,64.98344421386719,96.74787902832033,-26.92991638183594
173335,0.0335845947265625,1.8013916015625,1.03277587890625,-1.749066710472107,1.335979223251343,-0.4077771008014679,64.06768798828125,97.63542175292967,-27.01040649414062
173336,0.2247467041015625,6.631484985351562,1.08367919921875,-2.1111900806427,-0.3233365118503571,2.515733242034912,63.14175415039062,98.5077667236328,-27.38133239746094
173337,-1.7457275390625,7.97515869140625,1.274581909179688,-1.116604328155518,-0.1483457982540131,0.8102526664733887,62.16220092773438,100.1836090087891,-28.86238098144531
173338,-1.7457275390625,7.97515869140625,1.274581909179688,-1.116604328155518,-0.1483457982540131,0.8102526664733887,62.16220092773438,100.1836090087891,-28.86238098144531
173339,-0.734344482421875,6.292831420898438,0.25091552734375,0.1753470450639725,-0.2500497996807098,-1.126118421554565,62.74642944335938,100.4300689697266,-28.8748779296875
173340,0.0860748291015625,2.640029907226562,-0.237518310546875,0.7765021324157715,-1.271483659744263,-0.491828054189682,63.23580932617188,100.2885437011719,-28.3787841796875
173341,0.1490020751953125,0.4775238037109375,-0.322021484375,1.085154294967651,-1.256569385528564,1.109011888504028,62.57347106933594,100.1408386230469,-27.72703552246094
173342,0.2501220703125,0.326080322265625,-0.156005859375,1.085154294967651,-1.256569385528564,1.109011888504028,62.38919067382812,100.0203094482422,-27.87991333007812
173343,0.2501220703125,0.326080322265625,-0.156005859375,1.085154294967651,-1.256569385528564,1.109011888504028,62.38919067382812,100.0203094482422,-27.87991333007812
173344,0.351287841796875,0.5602874755859375,0.0241851806640625,0.7859742045402527,-0.2237073928117752,1.242937445640564,62.48486328125,99.8286590576172,-28.32998657226562
173345,0.2917938232421875,1.410659790039062,-0.019012451171875,-0.04315971955657,0.8367974162101746,1.147152662277222,63.3096923828125,99.08380126953124,-29.12937927246094
173346,0.2917938232421875,1.410659790039062,-0.019012451171875,-0.04315971955657,0.8367974162101746,1.147152662277222,63.3096923828125,99.08380126953124,-29.12937927246094
173347,0.2299041748046875,1.569107055664062,-0.0853424072265625,-0.04315971955657,0.8367974162101746,1.147152662277222,64.076171875,98.70361328125,-29.34066772460938
173348,0.1378021240234375,1.399642944335938,-0.114227294921875,0.1288818120956421,0.2617543637752533,0.8866336941719055,65.00865173339844,98.25595092773438,-29.32511901855469
173349,-0.0446319580078125,0.8354644775390625,0.05267333984375,0.9502733945846558,-0.1900176107883453,0.8844632506370544,66.51036071777344,97.42237854003906,-29.05819702148438
173350,-0.0446319580078125,0.8354644775390625,0.05267333984375,0.9502733945846558,-0.1900176107883453,0.8844632506370544,66.51036071777344,97.42237854003906,-29.05819702148438
173351,-0.04376220703125,0.6462249755859375,0.0599822998046875,1.338174223899841,0.0252345167100429,0.9928560256958008,66.92218017578125,97.2714385986328,-29.23507690429688
173352,-0.0579071044921875,0.501220703125,0.0919036865234375,1.338174223899841,0.0252345167100429,0.9928560256958008,67.32112121582031,97.10101318359376,-29.59817504882812
173353,-0.089935302734375,0.2716522216796875,0.124481201171875,0.8528682589530945,0.5697356462478638,0.7194138169288635,68.27798461914062,96.40269470214844,-30.52346801757812
173354,-0.089935302734375,0.2716522216796875,0.124481201171875,0.8528682589530945,0.5697356462478638,0.7194138169288635,68.27798461914062,96.40269470214844,-30.52346801757812
173355,-0.105072021484375,0.1723785400390625,0.06378173828125,0.8528682589530945,0.5697356462478638,0.7194138169288635,68.71842956542969,95.931396484375,-30.97145080566406
173356,-0.11590576171875,0.0613555908203125,-0.0684051513671875,0.6569762825965881,0.4527405798435211,0.5338418483734131,69.2166748046875,95.531494140625,-31.42901611328125
173357,-0.0749053955078125,-0.1700592041015625,-0.320098876953125,0.5493094325065613,-0.6561318039894104,0.2947690486907959,70.17669677734375,95.01747131347656,-32.10356140136719
173358,-0.0749053955078125,-0.1700592041015625,-0.320098876953125,0.5493094325065613,-0.6561318039894104,0.2947690486907959,70.17669677734375,95.01747131347656,-32.10356140136719
173359,-0.0509796142578125,-0.209930419921875,-0.276947021484375,0.6214326620101929,-1.248342633247375,0.2729873359203339,70.38824462890625,94.79533386230467,-32.36366271972656
173360,-0.03631591796875,-0.21624755859375,-0.1935272216796875,0.7690958976745605,-1.531188130378723,0.2655869424343109,70.47250366210938,94.74951171875,-32.58804321289062
173361,-0.0250244140625,-0.259521484375,0.0510711669921875,0.9275236129760742,-0.6819795966148376,0.0962807312607765,70.19230651855469,94.51922607421876,-33.54132080078125
173362,-0.0250244140625,-0.259521484375,0.0510711669921875,0.9275236129760742,-0.6819795966148376,0.0962807312607765,70.19230651855469,94.51922607421876,-33.54132080078125
173363,-0.0150299072265625,-0.2642059326171875,0.1312103271484375,0.8555260896682739,0.4899491965770721,-0.0611602924764156,70.00547790527344,94.52845764160156,-34.32945251464844
173364,0.011077880859375,-0.2408294677734375,0.089447021484375,0.8037659525871277,1.297905087471008,-0.1788800060749054,69.81431579589844,94.5509033203125,-34.85520935058594
173365,0.044158935546875,-0.2301177978515625,0.0070648193359375,0.6835026741027832,1.462591052055359,-0.3633598387241364,70.00204467773438,94.38897705078124,-35.23594665527344
173366,0.044158935546875,-0.2301177978515625,0.0070648193359375,0.6835026741027832,1.462591052055359,-0.3633598387241364,70.00204467773438,94.38897705078124,-35.23594665527344
173367,0.046234130859375,-0.2436981201171875,0.0062103271484375,0.6835026741027832,1.462591052055359,-0.3633598387241364,70.32719421386719,94.15145874023438,-34.86454772949219
173368,0.0425262451171875,-0.2422943115234375,0.04388427734375,0.538109540939331,1.349636554718018,-0.4139252603054047,70.68869018554688,93.9026336669922,-34.53138732910156
173369,0.04669189453125,-0.2148895263671875,0.052276611328125,-0.0615994483232498,0.830258309841156,-0.5935930609703064,71.17205810546875,93.31309509277344,-33.58486938476562
173370,0.04669189453125,-0.2148895263671875,0.052276611328125,-0.0615994483232498,0.830258309841156,-0.5935930609703064,71.17205810546875,93.31309509277344,-33.58486938476562
173371,0.0549163818359375,-0.1969451904296875,0.029541015625,-0.0615994483232498,0.830258309841156,-0.5935930609703064,71.38328552246094,93.13150024414062,-33.08993530273438
173372,0.0703887939453125,-0.1652984619140625,0.0054473876953125,-0.4433712959289551,0.3533980250358582,-0.7591593861579895,71.38511657714844,92.88218688964844,-32.74868774414062
173373,0.127227783203125,-0.0619659423828125,0.0034637451171875,-0.6279632449150085,0.202746719121933,-0.8959805965423584,71.12278747558594,92.70979309082033,-31.85652160644531
173374,0.1618499755859375,0.015869140625,-0.02996826171875,-0.731633186340332,0.0368866436183452,-1.067674040794373,70.85848999023438,92.94435119628906,-31.53388977050781
173375,0.1618499755859375,0.015869140625,-0.02996826171875,-0.731633186340332,0.0368866436183452,-1.067674040794373,70.85848999023438,92.94435119628906,-31.53388977050781
173376,0.1814727783203125,0.1185455322265625,-0.1730804443359375,-0.6306520104408264,-0.4381728172302246,-1.225485801696777,70.42477416992188,93.07952880859376,-31.2362060546875
173377,0.15826416015625,0.249969482421875,-0.01739501953125,-0.2695124447345734,-1.510620594024658,-1.567450284957886,69.20588684082031,93.94349670410156,-30.71554565429688
173378,0.15826416015625,0.249969482421875,-0.01739501953125,-0.2695124447345734,-1.510620594024658,-1.567450284957886,69.20588684082031,93.94349670410156,-30.71554565429688
173379,0.1544189453125,0.29833984375,0.11865234375,-0.1681567877531052,-1.698200106620789,-1.766084551811218,68.4141845703125,94.4151611328125,-30.7579345703125
173380,0.1638641357421875,0.3957977294921875,0.18145751953125,-0.0764154121279716,-1.711895704269409,-1.994924187660217,67.34042358398438,94.84812927246094,-30.92276000976562
173381,0.652618408203125,4.202163696289062,-0.3969268798828125,-0.2061081677675247,-2.45148754119873,-2.871013164520264,64.4520263671875,96.18603515625,-31.71133422851562
173382,0.652618408203125,4.202163696289062,-0.3969268798828125,-0.2061081677675247,-2.45148754119873,-2.871013164520264,64.4520263671875,96.18603515625,-31.71133422851562
173383,1.007125854492188,7.84283447265625,-0.8184814453125,1.00519847869873,-4.062470436096191,-3.033661842346191,62.62496948242188,96.7442626953125,-32.29302978515625
173384,-0.0525665283203125,8.0809326171875,1.096603393554688,1.00519847869873,-4.062470436096191,-3.033661842346191,60.38592529296875,97.46466064453124,-33.05523681640625
173385,-2.066925048828125,2.99505615234375,-1.39373779296875,-0.0778010562062263,3.582192420959473,-1.873564720153809,54.7022705078125,99.0079345703125,-36.73658752441406
173386,-2.066925048828125,2.99505615234375,-1.39373779296875,-0.0778010562062263,3.582192420959473,-1.873564720153809,54.7022705078125,99.0079345703125,-36.73658752441406
173387,-1.574966430664062,0.886993408203125,-1.552139282226562,-0.0161243751645088,2.244989395141602,0.1106740534305573,53.05686950683594,99.40501403808594,-38.14274597167969
173388,-0.8585968017578125,1.136795043945312,-0.7567138671875,0.2507251501083374,1.121659278869629,0.5025121569633484,52.99079895019531,99.5458526611328,-38.35238647460938
173389,-0.1131134033203125,1.182830810546875,-0.0740203857421875,0.4948390424251556,0.1258905529975891,0.2723212540149689,54.85466003417969,99.13250732421876,-37.68638610839844
173390,-0.1131134033203125,1.182830810546875,-0.0740203857421875,0.4948390424251556,0.1258905529975891,0.2723212540149689,54.85466003417969,99.13250732421876,-37.68638610839844
173391,-0.0104522705078125,1.393020629882812,-0.23516845703125,0.7182774543762207,-0.1628547012805939,0.6164983510971069,55.55279541015625,98.70719909667967,-37.44773864746094
173392,0.09063720703125,1.513809204101562,-0.402252197265625,0.971623420715332,-0.5989795327186584,1.108682990074158,55.96044921875,98.5537567138672,-37.51327514648438
173393,0.1160125732421875,1.451385498046875,0.03118896484375,0.921627640724182,-0.5292840600013733,1.477866649627686,56.29194641113281,97.8832550048828,-38.09623718261719
173394,0.1160125732421875,1.451385498046875,0.03118896484375,0.921627640724182,-0.5292840600013733,1.477866649627686,56.29194641113281,97.8832550048828,-38.09623718261719
173395,0.1175384521484375,1.28350830078125,0.3162841796875,0.6038086414337158,0.3858859241008759,1.409177541732788,56.63302612304688,97.60113525390624,-38.53022766113281
173396,0.1312103271484375,1.000946044921875,0.178497314453125,0.328155517578125,0.9971844553947448,1.393566131591797,57.09953308105469,97.27476501464844,-38.8741455078125
173397,0.0350189208984375,0.53021240234375,0.0048065185546875,0.551933228969574,0.5935461521148682,1.251360535621643,58.68515014648438,96.63436889648438,-39.0902099609375
173398,0.00714111328125,0.387298583984375,0.133148193359375,0.8032916784286499,0.4230069220066071,1.057688474655151,59.76081848144531,96.22776794433594,-38.99942016601562
173399,0.00714111328125,0.387298583984375,0.133148193359375,0.8032916784286499,0.4230069220066071,1.057688474655151,59.76081848144531,96.22776794433594,-38.99942016601562
173400,-0.0094757080078125,0.25146484375,0.189727783203125,0.9093992114067078,0.3611717820167542,0.868972659111023,60.75318908691406,95.97914123535156,-38.88897705078125
173401,-0.025421142578125,0.0041351318359375,0.0744476318359375,0.6950591802597046,0.227873370051384,0.623959481716156,62.69131469726562,94.59686279296876,-39.28654479980469
173402,-0.025421142578125,0.0041351318359375,0.0744476318359375,0.6950591802597046,0.227873370051384,0.623959481716156,62.69131469726562,94.59686279296876,-39.28654479980469
173403,-0.0214691162109375,-0.0901336669921875,-0.0605010986328125,0.5266531705856323,-0.1133132427930832,0.5459277629852295,63.25654602050781,94.19534301757812,-39.46270751953125
173404,0.0003662109375,-0.14703369140625,-0.13433837890625,0.4143284857273102,-0.566068708896637,0.5158865451812744,63.56648254394531,93.783203125,-39.602294921875
173405,0.024322509765625,-0.143157958984375,-0.1579742431640625,0.5571063756942749,-1.428230166435242,0.5832927227020264,63.79026794433594,93.36949157714844,-39.83651733398438
173406,0.024322509765625,-0.143157958984375,-0.1579742431640625,0.5571063756942749,-1.428230166435242,0.5832927227020264,63.79026794433594,93.36949157714844,-39.83651733398438
173407,0.027618408203125,-0.148284912109375,-0.1099395751953125,0.674551784992218,-1.646074771881104,0.6074124574661255,63.72186279296875,93.28805541992188,-40.09550476074219
173408,0.034088134765625,-0.1803741455078125,-0.1191558837890625,0.7289609909057617,-1.746627569198608,0.6348485946655273,63.56509399414062,93.22776794433594,-40.316162109375
173409,-0.0098724365234375,-0.562164306640625,0.0515594482421875,-0.1590655446052551,0.9872769713401794,0.5299954414367676,63.38031005859375,92.95223999023438,-40.80615234375
173410,0.051116943359375,-0.6217041015625,-0.8711700439453125,-0.6299603581428528,1.329250574111938,0.463023841381073,63.63075256347656,92.87890625,-40.82200622558594
173411,0.051116943359375,-0.6217041015625,-0.8711700439453125,-0.6299603581428528,1.329250574111938,0.463023841381073,63.63075256347656,92.87890625,-40.82200622558594
173412,0.0504302978515625,-0.48516845703125,-0.5734405517578125,-0.6742596626281738,0.5214242935180664,0.5159794688224792,64.41397094726562,92.59831237792967,-40.14547729492188
173413,0.036865234375,-0.4177398681640625,0.05157470703125,-0.4933266341686249,0.8076823949813843,0.5119999051094055,65.61685180664062,91.79141235351562,-38.5985107421875
173414,0.036865234375,-0.4177398681640625,0.05157470703125,-0.4933266341686249,0.8076823949813843,0.5119999051094055,65.61685180664062,91.79141235351562,-38.5985107421875
173415,0.0401458740234375,-0.4110565185546875,-0.00848388671875,-0.4721052348613739,1.178995013237,0.5117546319961548,65.98126220703125,91.40768432617188,-38.00253295898438
173416,0.0533447265625,-0.4256591796875,-0.124603271484375,-0.5413604378700256,1.374513387680054,0.5235883593559265,66.41361999511719,91.01345825195312,-37.36412048339844
173417,0.076080322265625,-0.498260498046875,-0.4019012451171875,-0.9681482911109924,1.299232482910156,0.5679526329040527,66.98194885253906,90.51959228515624,-36.10249328613281
173418,0.076080322265625,-0.498260498046875,-0.4019012451171875,-0.9681482911109924,1.299232482910156,0.5679526329040527,66.98194885253906,90.51959228515624,-36.10249328613281
173419,0.1024627685546875,-0.6424102783203125,-0.520477294921875,-1.217129588127136,0.9619271159172058,0.6774288415908813,67.22183227539062,90.7411651611328,-35.41279602050781
173420,0.0481719970703125,-0.838409423828125,-0.564544677734375,-1.391958951950073,0.4706183671951294,0.4993757307529449,67.47019958496094,90.85910034179688,-34.8603515625
173421,-0.2086181640625,-0.2178497314453125,-0.4050445556640625,-1.083522319793701,-0.8518331050872803,-0.2782478630542755,67.94235229492188,91.24266052246094,-33.42091369628906
173422,-0.2086181640625,-0.2178497314453125,-0.4050445556640625,-1.083522319793701,-0.8518331050872803,-0.2782478630542755,67.94235229492188,91.24266052246094,-33.42091369628906
173423,-0.104217529296875,0.12677001953125,-0.091033935546875,-0.967069149017334,-0.5263261198997498,-0.1755952537059784,67.86579895019531,91.521728515625,-32.87359619140625
173424,-0.046356201171875,0.246063232421875,0.168426513671875,-1.16983425617218,0.0260795373469591,-0.1081847921013832,67.67657470703125,91.8444366455078,-32.43696594238281
173425,-0.032958984375,0.3625640869140625,0.6074066162109375,-2.097501993179321,1.157097101211548,-0.0833098068833351,67.79142761230469,92.18109130859376,-31.36772155761719
173426,-0.032958984375,0.3625640869140625,0.6074066162109375,-2.097501993179321,1.157097101211548,-0.0833098068833351,67.79142761230469,92.18109130859376,-31.36772155761719
173427,-0.0077972412109375,0.62188720703125,0.935272216796875,-2.320637464523315,0.6225551962852478,-0.690608024597168,68.75273132324219,92.9549560546875,-28.88223266601562
173428,-0.0831146240234375,0.85394287109375,1.068145751953125,-2.320637464523315,0.6225551962852478,-0.690608024597168,69.08219909667969,94.1228485107422,-27.51063537597656
173429,-0.0318756103515625,2.889007568359375,1.44610595703125,-2.088308334350586,0.3789174854755402,-1.123050451278687,68.86325073242188,95.58656311035156,-27.00576782226562
173430,-0.0318756103515625,2.889007568359375,1.44610595703125,-2.088308334350586,0.3789174854755402,-1.123050451278687,68.86325073242188,95.58656311035156,-27.00576782226562
173431,0.3901519775390625,7.775222778320312,1.846450805664062,-0.9527642726898192,0.7014992833137512,5.748630046844482,68.32589721679688,97.1289520263672,-27.63723754882812
173432,-0.81866455078125,8.087936401367188,2.781051635742188,-0.9527642726898192,0.7014992833137512,5.748630046844482,68.37127685546875,98.2108917236328,-29.24139404296875
173433,0.380126953125,4.159500122070312,-0.5455169677734375,-0.0156948063522577,0.8140950202941895,0.4088039994239807,71.82685852050781,97.06634521484376,-29.7049560546875
173434,0.380126953125,4.159500122070312,-0.5455169677734375,-0.0156948063522577,0.8140950202941895,0.4088039994239807,71.82685852050781,97.06634521484376,-29.7049560546875
173435,0.512939453125,1.374267578125,-0.45098876953125,-1.171043276786804,-2.861625671386719,0.0722603499889373,72.92027282714844,96.16934204101562,-28.34382629394531
173436,0.4404296875,0.6211090087890625,-0.0420989990234375,-1.853388547897339,-4.290467739105225,0.1532401591539383,72.85104370117188,95.96963500976562,-27.3131103515625
173437,0.8907928466796875,0.12811279296875,-0.95037841796875,-1.638945579528809,-4.061544418334961,0.8061798810958862,71.59619140625,96.11228942871094,-26.4090576171875
173438,0.9103240966796876,0.7643280029296875,-0.3115234375,-0.8388440608978271,-0.9595475792884828,0.7542029619216919,71.0660400390625,96.3365478515625,-26.19801330566406
173439,0.9103240966796876,0.7643280029296875,-0.3115234375,-0.8388440608978271,-0.9595475792884828,0.7542029619216919,71.0660400390625,96.3365478515625,-26.19801330566406
173440,0.526519775390625,1.25958251953125,-0.0850982666015625,0.4290592074394226,1.747786045074463,0.5562648177146912,70.89117431640625,96.09065246582033,-25.95259094238281
173441,0.2896270751953125,1.323394775390625,-0.063323974609375,1.314605593681335,1.953820705413818,0.3934775292873383,71.62490844726562,95.58799743652344,-25.96757507324219
173442,0.2896270751953125,1.323394775390625,-0.063323974609375,1.314605593681335,1.953820705413818,0.3934775292873383,71.62490844726562,95.58799743652344,-25.96757507324219
173443,0.113067626953125,1.307952880859375,0.0595703125,0.9052582383155824,1.313128590583801,0.2321924865245819,72.21379089355469,95.06536865234376,-26.02621459960938
173444,0.0106048583984375,1.067276000976562,0.17266845703125,0.3961963355541229,0.8887173533439636,-0.0592220425605773,72.70597839355469,94.83430480957033,-26.33100891113281
173445,-0.0001220703125,0.5317535400390625,0.1204986572265625,0.0842616185545921,0.2884147465229034,-0.2626113891601562,73.30616760253906,94.72183227539062,-26.53041076660156
173446,-0.0001220703125,0.5317535400390625,0.1204986572265625,0.0842616185545921,0.2884147465229034,-0.2626113891601562,73.30616760253906,94.72183227539062,-26.53041076660156
173447,-0.0133819580078125,0.3687744140625,0.01153564453125,0.0842616185545921,0.2884147465229034,-0.2626113891601562,73.30780029296875,94.785888671875,-26.41316223144531
173448,-0.02099609375,0.2407073974609375,-0.0916290283203125,0.2954383194446564,-0.1026403605937958,-0.2435183823108673,73.37588500976562,94.81866455078124,-26.24635314941406
173449,-0.0436859130859375,0.0322418212890625,-0.1145172119140625,0.7842820286750793,-1.103664517402649,-0.2479541450738907,73.05885314941406,94.72642517089844,-26.87522888183594
173450,-0.0436859130859375,0.0322418212890625,-0.1145172119140625,0.7842820286750793,-1.103664517402649,-0.2479541450738907,73.05885314941406,94.72642517089844,-26.87522888183594
173451,-0.0436859130859375,0.0322418212890625,-0.1145172119140625,0.7842820286750793,-1.103664517402649,-0.2479541450738907,73.05885314941406,94.72642517089844,-26.87522888183594
173452,-0.0496826171875,-0.0259857177734375,-0.14947509765625,0.8952785730361938,-1.173998355865479,-0.2857651710510254,72.77139282226562,94.73214721679688,-27.4071044921875
173453,-0.05303955078125,-0.156494140625,-0.2409515380859375,1.029316544532776,-0.8020796775817871,-0.3423043489456177,72.1861572265625,94.73123168945312,-28.74623107910156
173454,-0.05303955078125,-0.156494140625,-0.2409515380859375,1.029316544532776,-0.8020796775817871,-0.3423043489456177,72.1861572265625,94.73123168945312,-28.74623107910156
173455,-0.0532989501953125,-0.2467803955078125,-0.241729736328125,1.029316544532776,-0.8020796775817871,-0.3423043489456177,71.91973876953125,94.6416473388672,-29.37306213378906
173456,-0.052154541015625,-0.320556640625,-0.250946044921875,0.8048983812332153,-0.0629640519618988,-0.3030285835266113,71.54060363769531,94.62464904785156,-29.94400024414062
173457,-0.00042724609375,-0.2635955810546875,-0.284423828125,0.5200144052505493,0.5024625658988953,-0.2010481506586075,71.10406494140625,94.69956970214844,-30.74594116210938
173458,-0.00042724609375,-0.2635955810546875,-0.284423828125,0.5200144052505493,0.5024625658988953,-0.2010481506586075,71.10406494140625,94.69956970214844,-30.74594116210938
173459,0.013519287109375,-0.2110595703125,-0.15631103515625,0.5308519005775452,0.3804551959037781,-0.1840563863515854,71.01309204101562,94.63714599609376,-30.87969970703125
173460,0.0255126953125,-0.1753997802734375,-0.0552825927734375,0.5534242987632751,0.2630955576896667,-0.1925625205039978,71.14877319335938,94.46615600585938,-30.94270324707031
173461,0.0431365966796875,-0.12933349609375,0.0230560302734375,0.53235924243927,0.2599388957023621,-0.2480529546737671,71.07716369628906,94.4139404296875,-31.07534790039062
173462,0.0431365966796875,-0.12933349609375,0.0230560302734375,0.53235924243927,0.2599388957023621,-0.2480529546737671,71.07716369628906,94.4139404296875,-31.07534790039062
173463,0.0484619140625,-0.1168365478515625,0.0353851318359375,0.4548135697841644,0.2916624844074249,-0.2872626781463623,71.06803894042969,94.20016479492188,-31.097900390625
173464,0.0531768798828125,-0.1074066162109375,0.0429840087890625,0.3348000943660736,0.3204589784145355,-0.3224571347236633,71.03768920898438,94.26091003417967,-31.2315673828125
173465,0.055816650390625,-0.1020050048828125,0.032379150390625,-0.0187033805996179,0.266100138425827,-0.3947891294956207,70.94583129882812,94.12887573242188,-31.01493835449219
173466,0.055816650390625,-0.1020050048828125,0.032379150390625,-0.0187033805996179,0.266100138425827,-0.3947891294956207,70.94583129882812,94.12887573242188,-31.01493835449219
173467,0.057769775390625,-0.1077880859375,0.02227783203125,-0.2175054252147675,0.185280904173851,-0.4332073628902435,70.93000793457031,94.07334899902344,-30.8779296875
173468,0.0646209716796875,-0.1197509765625,-0.0323638916015625,-0.3996406197547913,0.0591623894870281,-0.4551864266395569,70.73829650878906,94.07183837890624,-30.73696899414062
173469,0.1361846923828125,-0.0758209228515625,-0.3238067626953125,-0.5314923524856567,-0.8885887265205383,-0.4266061782836914,70.37785339355469,94.39874267578124,-30.16470336914062
173470,0.12884521484375,0.0963592529296875,-0.2355499267578125,-0.4388769567012787,-1.443436503410339,-0.477182000875473,70.10345458984375,94.58433532714844,-30.1124267578125
173471,0.12884521484375,0.0963592529296875,-0.2355499267578125,-0.4388769567012787,-1.443436503410339,-0.477182000875473,70.10345458984375,94.58433532714844,-30.1124267578125
173472,0.086151123046875,0.156829833984375,0.1211700439453125,-0.3126338124275208,-1.334333181381226,-0.5821001529693604,69.75039672851562,94.76611328125,-29.98100280761719
173473,0.0894012451171875,0.375823974609375,0.69659423828125,-0.5730169415473938,0.7798947095870972,-0.872546374797821,68.66664123535156,95.41310119628906,-30.18569946289062
173474,0.0894012451171875,0.375823974609375,0.69659423828125,-0.5730169415473938,0.7798947095870972,-0.872546374797821,68.66664123535156,95.41310119628906,-30.18569946289062
173475,0.1352691650390625,0.6270904541015625,0.919525146484375,-1.306028246879578,2.302872657775879,-1.184869647026062,68.11351013183594,95.78343200683594,-30.1839599609375
173476,0.1126708984375,1.579971313476562,0.9925384521484376,-2.507423639297485,4.645040988922119,-2.643471002578735,67.65850830078125,96.1166534423828,-29.90803527832031
173477,0.3723602294921875,6.162765502929688,0.38714599609375,-2.432658195495605,2.807557106018066,-2.067155122756958,66.71684265136719,97.88780212402344,-28.16244506835938
173478,0.3723602294921875,6.162765502929688,0.38714599609375,-2.432658195495605,2.807557106018066,-2.067155122756958,66.71684265136719,97.88780212402344,-28.16244506835938
173479,-0.4127197265625,7.598526000976562,0.6480712890625,-1.66338586807251,-0.8543263673782349,-1.546663522720337,66.08985900878906,98.7789306640625,-27.1483154296875
173480,-0.7606964111328125,6.74639892578125,1.490921020507812,-0.4655008614063263,-3.297051906585693,-1.337556719779968,65.50889587402344,99.48696899414062,-26.25408935546875
173481,-0.201629638671875,2.34832763671875,1.39276123046875,-0.1087872013449669,-3.148307323455811,-1.236505627632141,64.30131530761719,99.89382934570312,-25.74755859375
173482,-0.201629638671875,2.34832763671875,1.39276123046875,-0.1087872013449669,-3.148307323455811,-1.236505627632141,64.30131530761719,99.89382934570312,-25.74755859375
173483,-0.0794677734375,1.636032104492188,0.93670654296875,-0.0720454305410385,-1.906378626823425,-1.006989359855652,63.50042724609375,99.83543395996094,-25.62403869628906
173484,0.0873565673828125,1.496856689453125,-0.0151214599609375,0.4387243688106537,-1.026714682579041,-0.592364490032196,62.61564636230469,99.93092346191406,-25.63284301757812
173485,0.276824951171875,2.213699340820312,-1.139297485351562,2.263903856277466,0.4670665264129639,0.2747521996498108,60.94052124023438,100.5210876464844,-26.41517639160156
173486,0.276824951171875,2.213699340820312,-1.139297485351562,2.263903856277466,0.4670665264129639,0.2747521996498108,60.94052124023438,100.5210876464844,-26.41517639160156
173487,0.1998443603515625,2.06146240234375,-1.185623168945312,1.066496729850769,0.4725632965564728,0.4999014437198639,60.37040710449219,100.6764984130859,-27.52265930175781
173488,0.2902069091796875,1.626617431640625,-0.9058837890625,1.066496729850769,0.4725632965564728,0.4999014437198639,59.99516296386719,100.4208831787109,-28.95491027832031
173489,0.1193389892578125,1.249069213867188,0.0969085693359375,0.303009420633316,0.4211997091770172,0.908492386341095,60.694091796875,99.31771850585938,-30.76124572753906
173490,0.1193389892578125,1.249069213867188,0.0969085693359375,0.303009420633316,0.4211997091770172,0.908492386341095,60.694091796875,99.31771850585938,-30.76124572753906
173491,0.0817413330078125,1.09619140625,0.010955810546875,0.303009420633316,0.4211997091770172,0.908492386341095,61.34700012207031,98.94735717773438,-31.07733154296875
173492,0.024993896484375,0.9675750732421876,0.0248260498046875,0.4655349254608154,0.1787012964487076,1.027628064155579,62.12417602539062,98.55499267578124,-31.20640563964844
173493,-0.100616455078125,0.807861328125,0.1532745361328125,1.028809785842896,-0.1026483476161957,0.94950532913208,63.47056579589844,97.70120239257812,-31.29537963867188
173494,-0.100616455078125,0.807861328125,0.1532745361328125,1.028809785842896,-0.1026483476161957,0.94950532913208,63.47056579589844,97.70120239257812,-31.29537963867188
173495,-0.147735595703125,0.6859283447265625,0.2080230712890625,1.278271198272705,0.0200139209628105,0.4948701858520508,63.99612426757812,97.50180053710938,-31.63259887695312
173496,-0.1627960205078125,0.51885986328125,0.1828155517578125,1.278271198272705,0.0200139209628105,0.4948701858520508,64.47267150878906,97.16583251953124,-32.12068176269531
173497,-0.1532135009765625,0.1291046142578125,-0.077056884765625,1.153032064437866,-0.1741084158420563,0.0400771126151084,65.21121215820312,96.56675720214844,-33.26177978515625
173498,-0.1532135009765625,0.1291046142578125,-0.077056884765625,1.153032064437866,-0.1741084158420563,0.0400771126151084,65.21121215820312,96.56675720214844,-33.26177978515625
173499,-0.1312255859375,-0.0801849365234375,-0.3261260986328125,1.073517560958862,-0.7460712790489197,-0.0819353461265564,65.45281982421875,96.2575225830078,-33.99371337890625
173500,-0.132598876953125,-0.2224578857421875,-0.367431640625,0.6951348185539246,-0.7847398519515991,-0.0089178616181015,65.49432373046875,95.97781372070312,-34.50885009765625
173501,-0.4366912841796875,-0.5845947265625,-0.2634124755859375,0.2420989125967026,0.7841001152992249,0.1328246295452118,65.00480651855469,95.8900909423828,-35.99981689453125
173502,-0.4366912841796875,-0.5845947265625,-0.2634124755859375,0.2420989125967026,0.7841001152992249,0.1328246295452118,65.00480651855469,95.8900909423828,-35.99981689453125
173503,-0.19775390625,-0.5027008056640625,-0.46575927734375,0.1736277192831039,1.190903306007385,0.3204475045204163,64.87557983398438,95.81546020507812,-36.31129455566406
173504,-0.03192138671875,-0.3632659912109375,-0.272857666015625,0.3285118341445923,0.9665167927742004,0.4614826738834381,64.96170043945312,95.73411560058594,-36.46878051757812
173505,0.0270538330078125,-0.2318572998046875,0.06500244140625,0.5624995827674866,0.8128960728645325,0.4864391386508942,65.86773681640625,95.75274658203124,-36.08358764648438
173506,0.0270538330078125,-0.2318572998046875,0.06500244140625,0.5624995827674866,0.8128960728645325,0.4864391386508942,65.86773681640625,95.75274658203124,-36.08358764648438
173507,0.0348052978515625,-0.215362548828125,0.0881805419921875,0.5496609807014465,0.9828941822052002,0.3780650198459625,66.2989501953125,95.68569946289062,-35.923828125
173508,0.0357666015625,-0.2129364013671875,0.091552734375,0.5496609807014465,0.9828941822052002,0.3780650198459625,66.84344482421875,95.6598663330078,-35.79350280761719
173509,0.045806884765625,-0.226531982421875,0.0050506591796875,0.348073810338974,1.223440527915955,0.2638643980026245,67.88804626464844,95.22921752929688,-35.20791625976562
173510,0.045806884765625,-0.226531982421875,0.0050506591796875,0.348073810338974,1.223440527915955,0.2638643980026245,67.88804626464844,95.22921752929688,-35.20791625976562
173511,0.0515289306640625,-0.2157745361328125,-0.0489654541015625,0.1136117801070213,1.244737267494202,0.1668307930231094,68.51602172851562,94.78250122070312,-34.84660339355469
173512,0.0540771484375,-0.1900177001953125,-0.0729217529296875,-0.2742712497711182,1.246891736984253,0.0453048981726169,69.17417907714844,94.469970703125,-34.30506896972656
173513,0.061279296875,-0.17987060546875,-0.0887603759765625,-1.131961107254028,0.8736377358436584,-0.1941747963428497,70.1685791015625,93.8000030517578,-32.95085144042969
173514,0.061279296875,-0.17987060546875,-0.0887603759765625,-1.131961107254028,0.8736377358436584,-0.1941747963428497,70.1685791015625,93.8000030517578,-32.95085144042969
173515,0.0642242431640625,-0.1800994873046875,-0.0823516845703125,-1.131961107254028,0.8736377358436584,-0.1941747963428497,70.45295715332031,93.59457397460938,-32.26335144042969
173516,0.0597076416015625,-0.178680419921875,-0.0337371826171875,-1.25511634349823,0.6761038899421692,-0.266740083694458,70.61264038085938,93.36247253417967,-31.46792602539062
