time_idx,accelerometerAccelerationX(G),accelerometerAccelerationY(G),accelerometerAccelerationZ(G),gyroRotationX(rad/s),gyroRotationY(rad/s),gyroRotationZ(rad/s),magnetometerX(µT),magnetometerY(µT),magnetometerZ(µT)
54989,-0.0442352294921875,1.314300537109375,-0.2245330810546875,-0.9403120875358582,0.160731628537178,-0.4002326428890228,29.18582153320312,85.84553527832031,-8.730026245117188
54990,-0.1133575439453125,1.351150512695312,-0.306243896484375,-0.7306651473045349,0.0145453866571188,-0.2700463831424713,28.6048583984375,85.48013305664062,-7.77008056640625
54991,-0.1133575439453125,1.351150512695312,-0.306243896484375,-0.7306651473045349,0.0145453866571188,-0.2700463831424713,28.6048583984375,85.48013305664062,-7.77008056640625
54992,-0.1511383056640625,1.3348388671875,-0.3908843994140625,-0.5143021941184998,-0.0732305347919464,-0.1493974775075912,28.36399841308594,85.26939392089844,-7.427566528320312
54993,-0.1509552001953125,1.29180908203125,-0.458404541015625,-0.2044306397438049,-0.0208418983966112,0.0010357033461332,28.21446228027344,85.00820922851562,-7.107223510742188
54994,-0.02685546875,1.292083740234375,-0.5335845947265625,0.3599350154399872,0.3243796825408936,0.3738273978233337,28.08834838867188,84.79508972167969,-6.694747924804688
54995,-0.02685546875,1.292083740234375,-0.5335845947265625,0.3599350154399872,0.3243796825408936,0.3738273978233337,28.08834838867188,84.79508972167969,-6.694747924804688
54996,0.043731689453125,1.345779418945312,-0.5500335693359375,0.4973477125167847,0.4683970212936401,0.5428259968757629,28.10951232910156,84.82958984375,-6.560546875
54997,0.094146728515625,1.415283203125,-0.5289764404296875,0.5474785566329956,0.5268211960792542,0.6038142442703247,28.14804077148438,84.99569702148438,-6.706497192382812
54998,0.101165771484375,1.451766967773438,-0.46221923828125,0.54693603515625,0.5183358192443848,0.6031167507171631,28.29579162597656,85.10682678222656,-6.978302001953125
54999,0.0416717529296875,1.441146850585938,-0.394256591796875,0.5575340986251831,0.5064266920089722,0.5597754120826721,28.55152893066406,85.38186645507812,-7.269088745117188
55000,-0.0248565673828125,1.376190185546875,-0.3641204833984375,0.6244707703590393,0.5234001278877258,0.5191537141799927,28.7081298828125,85.66644287109375,-7.567611694335938
55001,-0.057342529296875,1.3170166015625,-0.3736114501953125,0.713397204875946,0.5511853694915771,0.4713352918624878,28.92393493652344,85.883056640625,-7.865692138671875
55002,-0.1304931640625,1.190093994140625,-0.318023681640625,0.7732077836990356,0.4811200201511383,0.3171771466732025,29.38124084472656,86.23248291015625,-8.664291381835938
55003,-0.1304931640625,1.190093994140625,-0.318023681640625,0.7732077836990356,0.4811200201511383,0.3171771466732025,29.38124084472656,86.23248291015625,-8.664291381835938
55004,-0.18011474609375,1.13232421875,-0.2723388671875,0.7245422601699829,0.400038480758667,0.2110496610403061,29.4849853515625,86.41490173339844,-9.124679565429688
55005,-0.2203521728515625,1.107315063476562,-0.237823486328125,0.6445680856704712,0.2312782257795334,0.133350595831871,29.56817626953125,86.59165954589844,-9.595169067382812
55006,-0.2896881103515625,1.15960693359375,-0.07745361328125,0.6173204779624939,-0.1737773865461349,0.1785763949155807,29.91038513183594,86.73719787597656,-10.5997314453125
55007,-0.2896881103515625,1.15960693359375,-0.07745361328125,0.6173204779624939,-0.1737773865461349,0.1785763949155807,29.91038513183594,86.73719787597656,-10.5997314453125
55008,-0.3104095458984375,1.186599731445312,0.04998779296875,0.6824829578399658,-0.200894221663475,0.2827187776565552,30.00187683105469,86.78254699707031,-10.89247131347656
55009,-0.3119964599609375,1.214447021484375,0.13323974609375,0.7382863163948059,-0.2034055888652802,0.4185967147350311,30.12962341308594,86.88041687011719,-11.16552734375
55010,-0.2606048583984375,1.201766967773438,0.24481201171875,0.9249821305274964,-0.1633058339357376,0.6470959186553955,30.52615356445312,87.21885681152344,-11.65361022949219
55011,-0.2606048583984375,1.201766967773438,0.24481201171875,0.9249821305274964,-0.1633058339357376,0.6470959186553955,30.52615356445312,87.21885681152344,-11.65361022949219
55012,-0.2255706787109375,1.122222900390625,0.2618560791015625,0.964143931865692,-0.147659495472908,0.6492853164672852,30.79985046386719,87.39730834960938,-11.85298156738281
55013,-0.1979217529296875,0.9889678955078124,0.2336578369140625,0.9172046780586244,-0.1406199634075165,0.618215799331665,31.21563720703125,87.56466674804688,-12.10052490234375
55014,-0.1541595458984375,0.67413330078125,0.196044921875,0.7605285048484802,-0.1864263415336609,0.5226613283157349,31.90074157714844,87.96034240722656,-12.50804138183594
55015,-0.1541595458984375,0.67413330078125,0.196044921875,0.7605285048484802,-0.1864263415336609,0.5226613283157349,31.90074157714844,87.96034240722656,-12.50804138183594
55016,-0.1268768310546875,0.5296478271484375,0.1874237060546875,0.6982060074806213,-0.1479963809251785,0.5315994620323181,32.22506713867188,88.08123779296875,-12.76240539550781
55017,-0.083892822265625,0.4407958984375,0.1763916015625,0.6235626339912415,-0.0698919966816902,0.5500178337097168,32.53788757324219,88.19737243652344,-13.26951599121094
55018,0.0017547607421875,0.4267730712890625,0.174835205078125,0.4036417305469513,0.2413913160562515,0.5675462484359741,33.17149353027344,88.61415100097656,-14.22135925292969
55019,0.0017547607421875,0.4267730712890625,0.174835205078125,0.4036417305469513,0.2413913160562515,0.5675462484359741,33.17149353027344,88.61415100097656,-14.22135925292969
55020,-0.000640869140625,0.4938507080078125,0.16571044921875,0.2920337319374084,0.4432514607906342,0.5442438721656799,33.46330261230469,88.80545043945312,-14.42634582519531
55021,-0.065948486328125,0.61602783203125,0.1161651611328125,0.2410930395126343,0.4493966996669769,0.497201532125473,33.63261413574219,88.72149658203125,-14.547119140625
55022,-0.0886077880859375,0.6625823974609375,0.076171875,0.188251405954361,0.2865244448184967,0.4159210324287415,33.85676574707031,88.78666687011719,-14.73138427734375
55023,-0.0634307861328125,0.673309326171875,0.04339599609375,0.0972410663962364,0.15339195728302,0.3343079388141632,34.03883361816406,88.90707397460938,-14.95616149902344
55024,-0.0537567138671875,0.7332305908203125,0.01959228515625,0.0302934572100639,0.0398416891694068,0.2720959782600403,34.16790771484375,89.05662536621094,-15.19818115234375
55025,-0.0576171875,0.8188323974609375,0.0651092529296875,-0.0067676249891519,0.0218152832239866,0.1995882093906403,34.2325439453125,89.01338195800781,-15.15876770019531
55026,-0.0961761474609375,0.9010772705078124,0.10009765625,-0.1194933727383614,0.2538338601589203,0.0436654537916183,34.43659973144531,89.06120300292969,-15.28468322753906
55027,-0.0961761474609375,0.9010772705078124,0.10009765625,-0.1194933727383614,0.2538338601589203,0.0436654537916183,34.43659973144531,89.06120300292969,-15.28468322753906
55028,-0.1182861328125,0.9137115478515624,0.11553955078125,-0.157709464430809,0.2923857867717743,-0.0187904648482799,34.41763305664062,89.19093322753906,-15.28370666503906
55029,-0.1217498779296875,0.9338531494140624,0.15765380859375,-0.2041118592023849,0.3170852661132812,-0.0706688463687896,34.40061950683594,89.20693969726562,-15.16311645507812
55030,-0.1262054443359375,0.93280029296875,0.1756439208984375,-0.3792770206928253,0.3041889071464539,-0.170354962348938,34.28457641601562,89.19331359863281,-15.05403137207031
55031,-0.1262054443359375,0.93280029296875,0.1756439208984375,-0.3792770206928253,0.3041889071464539,-0.170354962348938,34.28457641601562,89.19331359863281,-15.05403137207031
55032,-0.1483612060546875,0.909515380859375,0.1635284423828125,-0.4456999897956848,0.2270539253950119,-0.2218607515096664,34.21559143066406,89.16812133789062,-15.05903625488281
55033,-0.17474365234375,0.8797149658203125,0.148773193359375,-0.4709835052490234,0.1331450045108795,-0.2690000534057617,34.226806640625,89.07212829589844,-14.93061828613281
55034,-0.18701171875,0.7738494873046875,0.1747589111328125,-0.529381275177002,0.0413860566914081,-0.3520861268043518,33.83824157714844,88.88211059570312,-14.68202209472656
55035,-0.18701171875,0.7738494873046875,0.1747589111328125,-0.529381275177002,0.0413860566914081,-0.3520861268043518,33.83824157714844,88.88211059570312,-14.68202209472656
55036,-0.1908416748046875,0.733001708984375,0.2208251953125,-0.6365434527397156,0.1395533680915833,-0.3935539424419403,33.69776916503906,88.77134704589844,-14.25152587890625
55037,-0.2011871337890625,0.7206573486328125,0.22998046875,-0.7824476361274719,0.2603564858436584,-0.4522963762283325,33.49003601074219,88.55465698242188,-13.90815734863281
55038,-0.25726318359375,0.742523193359375,0.1482696533203125,-1.004376888275146,0.1945588290691376,-0.6033037304878235,33.10835266113281,88.38557434082031,-13.55870056152344
55039,-0.25726318359375,0.742523193359375,0.1482696533203125,-1.004376888275146,0.1945588290691376,-0.6033037304878235,33.10835266113281,88.38557434082031,-13.55870056152344
55040,-0.278350830078125,0.79351806640625,0.084259033203125,-1.039503693580627,0.000548078562133,-0.6716111302375793,32.86636352539062,88.34141540527344,-13.32611083984375
55041,-0.2596282958984375,0.854278564453125,0.03143310546875,-1.050915360450745,-0.228934645652771,-0.7185730338096619,32.60707092285156,88.2142333984375,-12.93461608886719
55042,-0.14544677734375,0.9496002197265624,0.0049285888671875,-1.060973525047302,-0.5606321692466736,-0.7261673212051392,31.98695373535156,87.87321472167969,-12.06582641601562
55043,-0.14544677734375,0.9496002197265624,0.0049285888671875,-1.060973525047302,-0.5606321692466736,-0.7261673212051392,31.98695373535156,87.87321472167969,-12.06582641601562
55044,-0.1004638671875,0.9889373779296876,0.01806640625,-1.056914091110229,-0.5757972598075867,-0.6679511666297913,31.578125,87.68109130859375,-11.49725341796875
55045,-0.0796051025390625,1.032928466796875,-0.0067291259765625,-1.072773694992065,-0.5353994965553284,-0.6155060529708862,31.29141235351562,87.49095153808594,-10.80294799804688
55046,-0.0437164306640625,1.17486572265625,-0.1076202392578125,-1.044840931892395,-0.478155642747879,-0.5703681707382202,30.68255615234375,87.04969787597656,-9.423019409179688
55047,-0.0437164306640625,1.17486572265625,-0.1076202392578125,-1.044840931892395,-0.478155642747879,-0.5703681707382202,30.68255615234375,87.04969787597656,-9.423019409179688
55048,-0.03692626953125,1.2471923828125,-0.1624908447265625,-0.9473159313201904,-0.5265799164772034,-0.5662564635276794,30.268310546875,86.9827880859375,-8.981674194335938
55049,-0.0546875,1.316314697265625,-0.2181549072265625,-0.7876325249671936,-0.600875735282898,-0.5372485518455505,29.9239501953125,86.849609375,-8.330184936523438
55050,-0.0968170166015625,1.362396240234375,-0.390838623046875,-0.3598937392234802,-0.7361757755279541,-0.382102370262146,29.48649597167969,86.47685241699219,-7.268310546875
55051,-0.0968170166015625,1.362396240234375,-0.390838623046875,-0.3598937392234802,-0.7361757755279541,-0.382102370262146,29.48649597167969,86.47685241699219,-7.268310546875
55052,-0.094757080078125,1.353302001953125,-0.4955291748046875,-0.085540197789669,-0.7465716600418091,-0.2733327448368073,29.38414001464844,86.2843017578125,-6.888580322265625
55053,-0.053558349609375,1.349349975585938,-0.57196044921875,0.2136566191911697,-0.6321015357971191,-0.1502417027950287,29.21882629394531,86.14385986328125,-6.432846069335938
55054,0.0540924072265625,1.395462036132812,-0.66339111328125,0.6963487267494202,-0.2433977425098419,0.1199037656188011,29.18710327148438,86.03076171875,-6.3111572265625
55055,0.0540924072265625,1.395462036132812,-0.66339111328125,0.6963487267494202,-0.2433977425098419,0.1199037656188011,29.18710327148438,86.03076171875,-6.3111572265625
55056,0.0882415771484375,1.446182250976562,-0.6185302734375,0.7782864570617676,-0.1052297502756119,0.2228775471448898,29.21136474609375,86.18576049804688,-6.323699951171875
55057,0.1129913330078125,1.47857666015625,-0.5279998779296875,0.7646268606185913,-0.0405170656740665,0.288553774356842,29.26365661621094,86.19065856933594,-6.524932861328125
55058,0.098968505859375,1.458847045898438,-0.402984619140625,0.7768669724464417,0.0135174067690968,0.4224404692649841,29.65451049804688,86.40760803222656,-7.353408813476562
55059,0.098968505859375,1.458847045898438,-0.402984619140625,0.7768669724464417,0.0135174067690968,0.4224404692649841,29.65451049804688,86.40760803222656,-7.353408813476562
55060,0.091400146484375,1.432937622070312,-0.38092041015625,0.8707665801048279,0.0960508957505226,0.4839645326137543,29.88983154296875,86.54570007324219,-7.584854125976562
55061,0.0749053955078125,1.407913208007812,-0.3381500244140625,0.9476858377456664,0.1564694941043854,0.5066938400268555,30.11137390136719,86.76026916503906,-7.876785278320312
55062,-0.0125274658203125,1.349868774414062,-0.2083587646484375,0.9624557495117188,0.0856744274497032,0.3721591830253601,30.63824462890625,86.96287536621094,-8.834701538085938
55063,-0.0125274658203125,1.349868774414062,-0.2083587646484375,0.9624557495117188,0.0856744274497032,0.3721591830253601,30.63824462890625,86.96287536621094,-8.834701538085938
55064,-0.068359375,1.344802856445312,-0.1234283447265625,0.92029869556427,-0.0732001811265945,0.2734009027481079,30.90773010253906,87.08677673339844,-9.501220703125
55065,-0.1108245849609375,1.378692626953125,-0.018646240234375,0.8840408325195312,-0.2089963555335999,0.1992007195949554,31.1689453125,87.24856567382812,-10.07598876953125
55066,-0.195648193359375,1.4112548828125,0.1020355224609375,0.939499855041504,-0.1291417330503464,0.1893052160739899,31.55078125,87.7305908203125,-10.92140197753906
55067,-0.195648193359375,1.4112548828125,0.1020355224609375,0.939499855041504,-0.1291417330503464,0.1893052160739899,31.55078125,87.7305908203125,-10.92140197753906
55068,-0.222991943359375,1.38653564453125,0.0906829833984375,1.020051717758179,-0.0555122606456279,0.1908466517925262,31.68283081054688,87.95231628417969,-11.20280456542969
55069,-0.24072265625,1.306365966796875,0.0750885009765625,1.123714447021484,-0.1005002409219742,0.2167325764894485,31.93223571777344,88.19256591796875,-11.61726379394531
55070,-0.248931884765625,1.098953247070312,0.10382080078125,1.268729448318481,-0.2520982921123505,0.23931485414505,32.25300598144531,88.5980224609375,-12.54499816894531
55071,-0.248931884765625,1.098953247070312,0.10382080078125,1.268729448318481,-0.2520982921123505,0.23931485414505,32.25300598144531,88.5980224609375,-12.54499816894531
55072,-0.2442626953125,1.002182006835938,0.1125640869140625,1.242600560188293,-0.3118223249912262,0.2449487596750259,32.30372619628906,88.79669189453125,-12.91123962402344
55073,-0.235198974609375,0.9147796630859376,0.131591796875,1.170536041259766,-0.3469478487968445,0.241687998175621,32.54270935058594,88.937744140625,-13.22515869140625
55074,-0.203338623046875,0.7701263427734375,0.16168212890625,1.091363906860352,-0.3048352599143982,0.1761065870523453,32.93141174316406,89.18217468261719,-14.046630859375
55075,-0.203338623046875,0.7701263427734375,0.16168212890625,1.091363906860352,-0.3048352599143982,0.1761065870523453,32.93141174316406,89.18217468261719,-14.046630859375
55076,-0.1828765869140625,0.70159912109375,0.172637939453125,1.081575274467468,-0.1984571665525436,0.1145747825503349,33.055908203125,89.3741455078125,-14.49468994140625
55077,-0.14794921875,0.6367950439453125,0.1472930908203125,1.050832271575928,-0.0908316373825073,0.0674847662448883,33.23817443847656,89.4044189453125,-14.84039306640625
55078,-0.0989532470703125,0.530120849609375,0.0665283203125,0.9001356363296509,-0.083962008357048,-0.0172149389982223,33.43901062011719,89.30068969726562,-15.53604125976562
55079,-0.0989532470703125,0.530120849609375,0.0665283203125,0.9001356363296509,-0.083962008357048,-0.0172149389982223,33.43901062011719,89.30068969726562,-15.53604125976562
55080,-0.09234619140625,0.47882080078125,0.031829833984375,0.7868527770042419,-0.1606123149394989,-0.0460242182016372,33.50093078613281,89.25331115722656,-16.01199340820312
55081,-0.0980224609375,0.4222412109375,-0.0262451171875,0.6698681116104126,-0.2931288182735443,-0.0755855739116668,33.46743774414062,89.18368530273438,-16.38633728027344
55082,-0.103607177734375,0.3758087158203125,-0.0426788330078125,0.5480668544769287,-0.4369773268699646,-0.1100378185510635,33.44129943847656,88.98976135253906,-16.72842407226562
55083,-0.1107635498046875,0.3455963134765625,0.00640869140625,0.4251190721988678,-0.4623828232288361,-0.1579877734184265,33.35903930664062,88.94477844238281,-17.04383850097656
55084,-0.1001129150390625,0.3327178955078125,0.080078125,0.2763780653476715,-0.2868192493915558,-0.2008742541074753,33.32804870605469,88.97976684570312,-17.24954223632812
55085,-0.0671234130859375,0.332550048828125,0.1074066162109375,0.122015655040741,-0.1005186140537262,-0.2099548280239105,33.26016235351562,88.93862915039062,-17.36260986328125
55086,-0.0748443603515625,0.537750244140625,0.2292022705078125,-0.2785954177379608,-0.022969763725996,-0.1008640304207802,33.02682495117188,88.88734436035156,-17.37678527832031
55087,-0.0748443603515625,0.537750244140625,0.2292022705078125,-0.2785954177379608,-0.022969763725996,-0.1008640304207802,33.02682495117188,88.88734436035156,-17.37678527832031
55088,-0.1432342529296875,0.6968536376953125,0.3074493408203125,-0.5407889485359192,0.0904007330536842,-0.0833710581064224,33.16059875488281,88.85472106933594,-17.31471252441406
55089,-0.2203369140625,0.8536376953125,0.326873779296875,-0.790802538394928,0.1906775385141373,-0.1142163202166557,33.21133422851562,88.81855773925781,-17.15089416503906
55090,-0.2772979736328125,0.9496002197265624,0.345489501953125,-1.005047917366028,0.2247923612594604,-0.1787079572677612,33.19302368164062,88.99423217773438,-16.95695495605469
55091,-0.310089111328125,0.9835662841796876,0.372161865234375,-1.156823873519897,0.2187621742486954,-0.231712594628334,33.17095947265625,89.02644348144531,-16.64840698242188
55092,-0.3136444091796875,0.98663330078125,0.39447021484375,-1.230049967765808,0.1994843482971191,-0.2592443525791168,33.11375427246094,89.01786804199219,-16.43006896972656
55093,-0.3062591552734375,0.969482421875,0.4110260009765625,-1.294623613357544,0.1562444567680359,-0.2833422422409058,33.02976989746094,88.84577941894531,-15.93724060058594
55094,-0.2691802978515625,0.9763946533203124,0.3662261962890625,-1.481220602989197,0.0056355153210461,-0.3528387546539307,32.640380859375,88.74916076660156,-15.08740234375
55095,-0.2691802978515625,0.9763946533203124,0.3662261962890625,-1.481220602989197,0.0056355153210461,-0.3528387546539307,32.640380859375,88.74916076660156,-15.08740234375
55096,-0.2568206787109375,0.98358154296875,0.3230438232421875,-1.543828129768372,-0.0997508317232132,-0.4044279158115387,32.48750305175781,88.57534790039062,-14.61465454101562
55097,-0.243072509765625,1.002471923828125,0.271942138671875,-1.569212794303894,-0.1576207876205444,-0.4399025440216064,32.20619201660156,88.30781555175781,-14.08262634277344
55098,-0.234893798828125,1.029281616210938,0.193878173828125,-1.549299597740173,-0.1558188945055008,-0.4444573521614075,32.00433349609375,88.06849670410156,-13.41661071777344
55099,-0.225341796875,1.0389404296875,0.1009368896484375,-1.504574656486511,-0.1522587835788727,-0.4236801564693451,31.8040771484375,87.75096130371094,-12.74403381347656
55100,-0.2255096435546875,1.047470092773438,0.0210723876953125,-1.435198545455933,-0.0357742421329021,-0.3835809528827667,31.44441223144531,87.4873046875,-11.94783020019531
55101,-0.2120208740234375,1.047042846679688,-0.08538818359375,-1.341481328010559,-0.0061718756332993,-0.3512443006038666,31.27955627441406,87.12718200683594,-11.28602600097656
55102,-0.1444244384765625,1.128189086914062,-0.1597747802734375,-1.221718788146973,-0.0787992104887962,-0.4198534786701202,30.61984252929688,86.64031982421875,-10.22889709472656
55103,-0.1444244384765625,1.128189086914062,-0.1597747802734375,-1.221718788146973,-0.0787992104887962,-0.4198534786701202,30.61984252929688,86.64031982421875,-10.22889709472656
55104,-0.0879058837890625,1.175735473632812,-0.208465576171875,-1.197885870933533,-0.070549264550209,-0.4629490077495575,30.4161376953125,86.46244812011719,-9.61138916015625
55105,-0.0410308837890625,1.214447021484375,-0.254974365234375,-1.146876215934753,0.0217002350836992,-0.4755401611328125,30.15885925292969,86.23591613769531,-9.00445556640625
55106,-0.0429534912109375,1.254806518554688,-0.2927703857421875,-0.8947123885154724,0.1342107951641083,-0.3754684329032898,29.66044616699219,85.81747436523438,-7.92950439453125
55107,-0.0429534912109375,1.254806518554688,-0.2927703857421875,-0.8947123885154724,0.1342107951641083,-0.3754684329032898,29.66044616699219,85.81747436523438,-7.92950439453125
55108,-0.0830841064453125,1.27386474609375,-0.312896728515625,-0.7387901544570923,0.135367676615715,-0.2948119342327118,29.40174865722656,85.59751892089844,-7.519561767578125
55109,-0.120513916015625,1.289016723632812,-0.3795166015625,-0.5348666310310364,0.1347807198762894,-0.1904591619968414,29.19107055664062,85.39375305175781,-7.18536376953125
55110,-0.118011474609375,1.300506591796875,-0.4687957763671875,-0.2608219981193542,0.1429291963577271,-0.0718720629811286,28.96827697753906,85.22270202636719,-6.6473388671875
55111,-0.078338623046875,1.308242797851562,-0.538360595703125,0.0679497569799423,0.2038806974887848,0.0953195914626121,28.87898254394531,84.96772766113281,-6.2684326171875
55112,-0.0247650146484375,1.351028442382812,-0.5748748779296875,0.3834600448608398,0.3520786762237549,0.269915372133255,28.83872985839844,84.99105834960938,-6.153396606445312
55113,0.0222625732421875,1.415206909179688,-0.5852813720703125,0.6122127771377563,0.532291054725647,0.4128232598304749,28.78199768066406,84.88235473632812,-6.306121826171875
55114,0.04510498046875,1.483306884765625,-0.564361572265625,0.7230806946754456,0.632398784160614,0.4884839355945587,28.7742919921875,85.03131103515625,-6.40234375
55115,0.0265350341796875,1.528762817382812,-0.5009002685546875,0.7473384141921997,0.6242979764938354,0.4862793684005737,28.88958740234375,85.25129699707031,-6.722305297851562
55116,-0.032562255859375,1.509384155273438,-0.444580078125,0.786250114440918,0.5740401148796082,0.4720346331596375,28.95413208007812,85.48509216308594,-7.166519165039062
55117,-0.0668792724609375,1.432449340820312,-0.421722412109375,0.8953297138214111,0.6115432977676392,0.4553086757659912,29.09553527832031,85.63461303710938,-7.494430541992188
55118,-0.1022796630859375,1.2103271484375,-0.38812255859375,1.052306056022644,0.6411650776863098,0.3525825440883636,29.5206298828125,86.09925842285156,-8.3631591796875
55119,-0.1022796630859375,1.2103271484375,-0.38812255859375,1.052306056022644,0.6411650776863098,0.3525825440883636,29.5206298828125,86.09925842285156,-8.3631591796875
55120,-0.1465606689453125,1.093215942382812,-0.3760833740234375,1.020007967948914,0.5474404692649841,0.2714331150054932,29.66969299316406,86.31736755371094,-8.880386352539062
55121,-0.1940765380859375,1.016342163085938,-0.3705902099609375,0.9355655312538148,0.3468924462795258,0.1850018054246902,29.77445983886719,86.55126953125,-9.447952270507812
55122,-0.23828125,0.9775543212890624,-0.2331695556640625,0.6705778241157532,-0.1480624377727509,0.1632459163665771,30.10650634765625,86.72944641113281,-10.69111633300781
55123,-0.23828125,0.9775543212890624,-0.2331695556640625,0.6705778241157532,-0.1480624377727509,0.1632459163665771,30.10650634765625,86.72944641113281,-10.69111633300781
55124,-0.228118896484375,1.00616455078125,-0.1154327392578125,0.5760366916656494,-0.2780534625053406,0.2505917251110077,30.29771423339844,86.72193908691406,-10.99343872070312
55125,-0.20477294921875,1.071533203125,-0.00677490234375,0.5296342968940735,-0.3384400904178619,0.3804882168769836,30.44418334960938,86.79168701171875,-11.38517761230469
55126,-0.1586761474609375,1.222030639648438,0.1318359375,0.799847424030304,-0.3768644630908966,0.7265335321426392,30.95710754394531,87.0240478515625,-11.83302307128906
55127,-0.1586761474609375,1.222030639648438,0.1318359375,0.799847424030304,-0.3768644630908966,0.7265335321426392,30.95710754394531,87.0240478515625,-11.83302307128906
55128,-0.1302490234375,1.238174438476562,0.186614990234375,1.033226013183594,-0.4097081422805786,0.8032815456390381,31.19061279296875,87.27340698242188,-12.06794738769531
55129,-0.10150146484375,1.191024780273438,0.239837646484375,1.178382515907288,-0.4303106367588043,0.7723944783210754,31.55000305175781,87.56907653808594,-12.23701477050781
55130,-0.01190185546875,0.9037017822265624,0.2804107666015625,1.049328923225403,-0.3110145926475525,0.5860099792480469,32.33126831054688,88.14535522460938,-12.76066589355469
55131,-0.01190185546875,0.9037017822265624,0.2804107666015625,1.049328923225403,-0.3110145926475525,0.5860099792480469,32.33126831054688,88.14535522460938,-12.76066589355469
55132,0.0273590087890625,0.7002105712890625,0.235076904296875,0.8942793607711792,-0.2996024191379547,0.5019693970680237,32.72061157226562,88.32583618164062,-13.10385131835938
55133,0.0377960205078125,0.5421295166015625,0.225311279296875,0.7559433579444885,-0.280601292848587,0.4578897953033447,33.19468688964844,88.42814636230469,-13.36219787597656
55134,0.0469970703125,0.42681884765625,0.2025299072265625,0.645635187625885,-0.2210221290588379,0.4505218863487244,33.4639892578125,88.3408203125,-13.79231262207031
55135,0.0440521240234375,0.3680572509765625,0.18206787109375,0.5565258264541626,-0.1565030515193939,0.4677229821681976,33.65887451171875,88.34141540527344,-13.98338317871094
55136,0.01641845703125,0.4130706787109375,0.1826934814453125,0.4526273906230927,-0.0624021254479885,0.4701360762119293,33.96000671386719,88.346435546875,-14.21286010742188
55137,-0.0584564208984375,0.5990753173828125,0.17340087890625,0.329537957906723,0.0185542423278093,0.4220308661460876,34.20872497558594,88.32441711425781,-14.30154418945312
55138,-0.12835693359375,0.7185516357421875,0.1263580322265625,0.225309818983078,-0.0087657943367958,0.3687998652458191,34.43484497070312,88.50309753417969,-14.2198486328125
55139,-0.146240234375,0.7369232177734375,0.0720672607421875,0.1309284567832947,-0.0835883691906929,0.314452737569809,34.55506896972656,88.61717224121094,-14.25761413574219
55140,-0.155364990234375,0.7467803955078125,0.0718841552734375,0.0534765422344207,-0.1159819960594177,0.2537523806095123,34.65171813964844,88.70936584472656,-14.51051330566406
55141,-0.186004638671875,0.7835693359375,0.1015167236328125,-0.0198000706732273,-0.0343116335570812,0.1597531735897064,34.82521057128906,88.90126037597656,-14.54476928710938
55142,-0.22174072265625,0.815277099609375,0.0919647216796875,-0.0750649198889732,0.070800669491291,0.042089395225048,34.90353393554688,88.90591430664062,-14.61576843261719
55143,-0.22174072265625,0.815277099609375,0.0919647216796875,-0.0750649198889732,0.070800669491291,0.042089395225048,34.90353393554688,88.90591430664062,-14.61576843261719
55144,-0.2480316162109375,0.8488311767578125,0.085357666015625,-0.1707712113857269,0.1519450545310974,-0.1843828856945038,35.0020751953125,88.95248413085938,-15.11709594726562
55145,-0.230194091796875,0.8596038818359375,0.10986328125,-0.2422837466001511,0.1512142866849899,-0.2594113349914551,34.94346618652344,88.97476196289062,-15.20162963867188
55146,-0.212677001953125,0.8683319091796875,0.1623687744140625,-0.327528327703476,0.1765300333499908,-0.3119187355041504,34.83354187011719,88.81051635742188,-15.14839172363281
55147,-0.200958251953125,0.875640869140625,0.199310302734375,-0.4222297966480255,0.2221987098455429,-0.3530717790126801,34.77732849121094,88.74803161621094,-14.99713134765625
55148,-0.201416015625,0.890594482421875,0.2183074951171875,-0.5153064727783203,0.2752142548561096,-0.3827652335166931,34.48539733886719,88.69859313964844,-14.87530517578125
55149,-0.2130279541015625,0.9094696044921876,0.218475341796875,-0.5988240242004395,0.2999686002731323,-0.413144439458847,34.33734130859375,88.53860473632812,-14.80903625488281
55150,-0.2270050048828125,0.90887451171875,0.2019195556640625,-0.6604980230331421,0.2786374986171722,-0.4420016407966614,34.24151611328125,88.41438293457031,-14.65151977539062
55151,-0.2380523681640625,0.8919219970703125,0.172576904296875,-0.685011625289917,0.2083627879619598,-0.4726903140544891,34.07638549804688,88.38525390625,-14.55744934082031
55152,-0.2386932373046875,0.8538970947265625,0.15948486328125,-0.6718369722366333,0.1393512338399887,-0.4919551014900208,33.80561828613281,88.22723388671875,-14.34329223632812
55153,-0.2322235107421875,0.8203277587890625,0.15936279296875,-0.6622722148895264,0.1470160782337189,-0.507036030292511,33.57933044433594,88.1558837890625,-14.0531005859375
55154,-0.2346038818359375,0.758819580078125,0.1020965576171875,-0.7742688059806824,0.3160682022571564,-0.5124489068984985,33.08383178710938,87.81544494628906,-13.54226684570312
55155,-0.2346038818359375,0.758819580078125,0.1020965576171875,-0.7742688059806824,0.3160682022571564,-0.5124489068984985,33.08383178710938,87.81544494628906,-13.54226684570312
55156,-0.2352752685546875,0.76068115234375,0.0472564697265625,-0.8884052038192749,0.3401479721069336,-0.5223987698554993,32.77981567382812,87.62199401855469,-13.44425964355469
55157,-0.228118896484375,0.78363037109375,-0.0196990966796875,-1.001878023147583,0.240015521645546,-0.5340660810470581,32.49276733398438,87.62481689453125,-13.17671203613281
55158,-0.221343994140625,0.82586669921875,-0.0668182373046875,-1.107071757316589,0.0802309215068817,-0.5546261668205261,32.17657470703125,87.58998107910156,-12.88652038574219
55159,-0.221343994140625,0.82586669921875,-0.0668182373046875,-1.107071757316589,0.0802309215068817,-0.5546261668205261,32.17657470703125,87.58998107910156,-12.88652038574219
55160,-0.18621826171875,0.9197998046875,-0.0915069580078125,-1.278802037239075,-0.1880242377519608,-0.5204176306724548,31.77072143554688,87.07376098632812,-12.04234313964844
55161,-0.1604766845703125,0.9863433837890624,-0.0727386474609375,-1.330100655555725,-0.1897286474704742,-0.4736458659172058,31.43531799316406,86.89547729492188,-11.462890625
55162,-0.1259918212890625,1.062744140625,-0.05499267578125,-1.350605607032776,-0.1219727769494057,-0.4363006055355072,31.19488525390625,86.77542114257812,-10.75282287597656
55163,-0.1044921875,1.142898559570312,-0.0644073486328125,-1.358763694763184,-0.0635968223214149,-0.4477692544460297,30.80026245117188,86.69474792480469,-10.18251037597656
55164,-0.077789306640625,1.225143432617188,-0.10174560546875,-1.322674870491028,-0.0757397711277008,-0.49444380402565,30.56552124023438,86.59577941894531,-9.662567138671877
55165,-0.0689849853515625,1.30609130859375,-0.156219482421875,-1.204906702041626,-0.1512885838747025,-0.5280808806419373,30.3212890625,86.43582153320312,-8.984420776367188
55166,-0.060577392578125,1.37396240234375,-0.2393798828125,-0.981648087501526,-0.269019216299057,-0.5130553245544434,30.10894775390625,86.33758544921875,-8.371826171875
55167,-0.0529327392578125,1.459930419921875,-0.349884033203125,-0.6453739404678345,-0.4193839430809021,-0.4693192839622498,29.74253845214844,86.13505554199219,-7.678375244140625
55168,-0.0169830322265625,1.514175415039062,-0.4557647705078125,-0.2405463010072708,-0.523986279964447,-0.3850134611129761,29.397705078125,85.93138122558594,-7.147430419921875
55169,0.0214691162109375,1.552764892578125,-0.538482666015625,0.1711397916078568,-0.5145506858825684,-0.2520087957382202,29.11653137207031,85.73646545410156,-6.73138427734375
55170,0.124481201171875,1.60198974609375,-0.6602935791015625,0.7537640929222107,-0.2697904706001282,0.0449128784239292,28.82081604003906,85.44546508789062,-6.4141845703125
55171,0.124481201171875,1.60198974609375,-0.6602935791015625,0.7537640929222107,-0.2697904706001282,0.0449128784239292,28.82081604003906,85.44546508789062,-6.4141845703125
55172,0.188934326171875,1.596160888671875,-0.6563568115234375,0.8149025440216064,-0.2369891107082367,0.1623071432113647,28.691162109375,85.43360900878906,-6.498748779296875
55173,0.2292327880859375,1.541534423828125,-0.601348876953125,0.776165783405304,-0.2801243364810944,0.2566594779491425,28.72125244140625,85.3717041015625,-6.744171142578125
55174,0.2221527099609375,1.430435180664062,-0.53936767578125,0.7663413882255554,-0.3062027990818024,0.3422023355960846,28.88766479492188,85.45893859863281,-6.911346435546875
55175,0.1930084228515625,1.32147216796875,-0.485626220703125,0.8229117393493652,-0.263081967830658,0.4249717891216278,29.09521484375,85.554443359375,-7.062118530273438
55176,0.17205810546875,1.260345458984375,-0.425018310546875,0.8650479912757874,-0.1721448600292206,0.474492996931076,29.20941162109375,85.72320556640625,-7.4921875
55177,0.1585693359375,1.21392822265625,-0.3810882568359375,0.8526256680488586,-0.0829159244894981,0.4696173071861267,29.46273803710938,85.85246276855469,-7.973495483398438
55178,0.0974273681640625,1.204498291015625,-0.2933197021484375,0.7108972668647766,-0.1243528425693512,0.245035856962204,30.33609008789062,86.421630859375,-9.311965942382812
55179,0.0974273681640625,1.204498291015625,-0.2933197021484375,0.7108972668647766,-0.1243528425693512,0.245035856962204,30.33609008789062,86.421630859375,-9.311965942382812
55180,0.0596771240234375,1.224853515625,-0.228729248046875,0.6601169109344482,-0.2121535390615463,0.0877692699432373,30.59440612792969,86.59233093261719,-9.753036499023438
55181,0.01556396484375,1.287002563476562,-0.1651763916015625,0.6178197860717773,-0.3252675831317902,-0.0702568516135215,30.72726440429688,86.80015563964844,-10.10136413574219
55182,-0.107757568359375,1.418548583984375,0.029541015625,0.6059978008270264,-0.5588536858558655,-0.2840974926948547,30.98678588867188,87.03509521484375,-10.55828857421875
55183,-0.107757568359375,1.418548583984375,0.029541015625,0.6059978008270264,-0.5588536858558655,-0.2840974926948547,30.98678588867188,87.03509521484375,-10.55828857421875
55184,-0.1663055419921875,1.422027587890625,0.127044677734375,0.7072599530220032,-0.4855773448944092,-0.2666394114494324,31.04719543457031,87.08796691894531,-10.74429321289062
55185,-0.22406005859375,1.348297119140625,0.128631591796875,0.773028552532196,-0.3594359159469604,-0.1451119184494019,31.17546081542969,87.17530822753906,-10.89872741699219
55186,-0.2845458984375,1.248321533203125,0.0685882568359375,0.8484601974487305,-0.3900029063224792,0.0187329407781362,31.34147644042969,87.14839172363281,-10.97341918945312
55187,-0.3458709716796875,1.152236938476562,0.0044097900390625,0.958858609199524,-0.6361612677574158,0.1740980297327042,31.48033142089844,87.32026672363281,-11.12443542480469
55188,-0.3910675048828125,1.041152954101562,0.0233154296875,1.059346914291382,-0.9424557089805604,0.3111384510993958,31.73225402832031,87.53147888183594,-11.35041809082031
55189,-0.400726318359375,0.920013427734375,0.1258087158203125,1.124976754188538,-1.075752973556519,0.4044585227966309,31.98471069335938,87.83042907714844,-11.60368347167969
55190,-0.401336669921875,0.82855224609375,0.2320098876953125,1.182125568389893,-1.018376588821411,0.42218878865242,32.27915954589844,88.03077697753906,-11.71354675292969
55191,-0.376983642578125,0.7422637939453125,0.288421630859375,1.264704346656799,-0.86686772108078,0.3853245079517365,32.68475341796875,88.22306823730469,-11.95877075195312
55192,-0.3359375,0.6547088623046875,0.33184814453125,1.350451469421387,-0.681952714920044,0.3090920746326447,32.94981384277344,88.433837890625,-12.12211608886719
55193,-0.2816162109375,0.5696258544921875,0.3433380126953125,1.373121023178101,-0.4452544450759888,0.2104064971208572,33.1715087890625,88.7227783203125,-12.43353271484375
55194,-0.2329254150390625,0.488006591796875,0.3258209228515625,1.27252995967865,-0.2174026221036911,0.1038286611437798,33.53520202636719,88.72198486328125,-12.90531921386719
55195,-0.2005767822265625,0.4223480224609375,0.301544189453125,1.093969821929932,-0.0622463300824165,0.0057809236459434,33.769287109375,88.787353515625,-13.34535217285156
55196,-0.20135498046875,0.3648529052734375,0.280792236328125,0.8872885704040527,0.050215233117342,-0.0762921050190925,33.87734985351562,88.78059387207031,-13.67160034179688
55197,-0.2327117919921875,0.3077850341796875,0.2412567138671875,0.6733408570289612,0.1020755022764206,-0.1289729028940201,33.97846984863281,88.72482299804688,-14.13069152832031
55198,-0.268218994140625,0.2712554931640625,0.18377685546875,0.4872796535491943,0.083981454372406,-0.1475796103477478,34.01568603515625,88.55305480957031,-14.58926391601562
55199,-0.2895965576171875,0.2828521728515625,0.148101806640625,0.3158117532730103,0.011255850084126,-0.1451790332794189,33.89414978027344,88.59963989257812,-15.03887939453125
55200,-0.266265869140625,0.369384765625,0.135772705078125,0.1078276634216309,-0.0754787772893905,-0.1079986393451691,33.81275939941406,88.55754089355469,-15.12496948242188
55201,-0.224609375,0.5217132568359375,0.1631317138671875,-0.1450304239988327,-0.1235600188374519,-0.0585173703730106,33.77210998535156,88.42724609375,-15.17744445800781
55202,-0.22296142578125,0.6275787353515625,0.208587646484375,-0.3629206717014313,-0.0874001532793045,-0.0575860626995563,33.697509765625,88.39932250976562,-15.42796325683594
55203,-0.2395477294921875,0.7245025634765625,0.2560882568359375,-0.4967394471168518,-0.0021656826138496,-0.0580510534346103,33.61798095703125,88.35052490234375,-15.48786926269531
55204,-0.263580322265625,0.814361572265625,0.3155517578125,-0.5869178175926208,0.1168022528290749,-0.0916012898087501,33.55171203613281,88.31314086914062,-15.3153076171875
55205,-0.288909912109375,0.8725738525390625,0.382965087890625,-0.6928735375404358,0.2508718967437744,-0.1364949941635132,33.51832580566406,88.28817749023438,-15.02030944824219
55206,-0.279327392578125,0.93438720703125,0.456817626953125,-0.9963740706443788,0.452337920665741,-0.1810661852359772,33.38699340820312,88.24810791015625,-14.17567443847656
55207,-0.279327392578125,0.93438720703125,0.456817626953125,-0.9963740706443788,0.452337920665741,-0.1810661852359772,33.38699340820312,88.24810791015625,-14.17567443847656
55208,-0.2358245849609375,0.9524078369140624,0.4515228271484375,-1.168500542640686,0.4180182814598083,-0.1754205524921417,33.26753234863281,88.24925231933594,-14.00894165039062
55209,-0.1984710693359375,0.970672607421875,0.4328155517578125,-1.308714866638184,0.3334845006465912,-0.1662321239709854,33.15829467773438,88.25132751464844,-13.90513610839844
55210,-0.1707611083984375,0.941162109375,0.320037841796875,-1.430327653884888,0.1632110327482224,-0.2284273207187653,32.83291625976562,87.95797729492188,-13.18806457519531
55211,-0.1707611083984375,0.941162109375,0.320037841796875,-1.430327653884888,0.1632110327482224,-0.2284273207187653,32.83291625976562,87.95797729492188,-13.18806457519531
55212,-0.174774169921875,0.912445068359375,0.226898193359375,-1.438563942909241,0.0391918756067752,-0.2800534963607788,32.65457153320312,87.63314819335938,-12.66590881347656
55213,-0.183197021484375,0.886688232421875,0.1171112060546875,-1.452546358108521,-0.109236478805542,-0.3231754004955292,32.41885375976562,87.37892150878906,-12.03483581542969
55214,-0.1863555908203125,0.864166259765625,0.011199951171875,-1.456378936767578,-0.2118986696004868,-0.3200307488441467,32.06878662109375,87.07582092285156,-11.52713012695312
55215,-0.1945037841796875,0.859375,-0.04461669921875,-1.420793175697327,-0.0975856781005859,-0.2935541272163391,31.73384094238281,86.81550598144531,-10.94509887695312
55216,-0.1882781982421875,0.8546142578125,-0.111297607421875,-1.357175588607788,0.2372951060533524,-0.2658351361751556,31.4486083984375,86.57679748535156,-10.25032043457031
55217,-0.1588134765625,0.8516387939453125,-0.1593475341796875,-1.292232036590576,0.4329240024089813,-0.248775988817215,31.20877075195312,86.27949523925781,-9.59979248046875
55218,-0.12811279296875,0.92059326171875,-0.1446380615234375,-1.267591714859009,0.5345768332481384,-0.2889721393585205,30.90097045898438,86.12130737304688,-9.0841064453125
55219,-0.1038055419921875,1.037155151367188,-0.1468963623046875,-1.29961109161377,0.5848680138587952,-0.3764625787734985,30.64360046386719,85.99505615234375,-8.644638061523438
55220,-0.092864990234375,1.146774291992188,-0.1752166748046875,-1.335029602050781,0.5686613321304321,-0.455251932144165,30.50810241699219,85.72805786132812,-8.092620849609375
55221,-0.0941925048828125,1.225601196289062,-0.201202392578125,-1.314385294914246,0.5049632787704468,-0.4599548280239105,30.20431518554688,85.56547546386719,-7.528366088867188
55222,-0.1033172607421875,1.276840209960938,-0.207550048828125,-1.204188704490662,0.4889675676822662,-0.4245632588863373,29.77030944824219,85.38607788085938,-7.198501586914062
55223,-0.113433837890625,1.293655395507812,-0.2257537841796875,-1.021325945854187,0.4708380997180939,-0.3302644491195679,29.47796630859375,85.20281982421875,-6.8087158203125
55224,-0.12872314453125,1.313186645507812,-0.2488250732421875,-0.8068238496780396,0.4617809355258942,-0.214870497584343,29.157470703125,84.83245849609375,-6.330810546875
55225,-0.144561767578125,1.34808349609375,-0.297515869140625,-0.5636652112007141,0.4407054781913757,-0.0860890820622444,28.94248962402344,84.78669738769531,-6.068511962890625
55226,-0.0966033935546875,1.451324462890625,-0.4301300048828125,0.0092707304283976,0.4867693781852722,0.2021736055612564,28.49261474609375,84.77189636230469,-5.616043090820312
55227,-0.0966033935546875,1.451324462890625,-0.4301300048828125,0.0092707304283976,0.4867693781852722,0.2021736055612564,28.49261474609375,84.77189636230469,-5.616043090820312
55228,-0.0370941162109375,1.518478393554688,-0.4687347412109375,0.3017742335796356,0.5958207845687866,0.383078932762146,28.43464660644531,84.78782653808594,-5.553436279296875
55229,0.0007476806640625,1.6199951171875,-0.463836669921875,0.5450848937034607,0.7396237254142761,0.503142774105072,28.40336608886719,84.86053466796875,-5.52764892578125
55230,0.0193634033203125,1.682540893554688,-0.425262451171875,0.7054522037506104,0.8300598859786987,0.5497161149978638,28.41639709472656,84.98013305664062,-5.640167236328125
55231,-0.0002593994140625,1.680099487304688,-0.38800048828125,0.7906166315078735,0.835868775844574,0.5525619983673096,28.56771850585938,85.30746459960938,-6.00408935546875
55232,-0.06646728515625,1.630035400390625,-0.36968994140625,0.8841047883033752,0.8273307085037231,0.5178969502449036,28.7659912109375,85.67970275878906,-6.56982421875
55233,-0.112548828125,1.537124633789062,-0.4071502685546875,1.008137226104736,0.8455619215965271,0.4701970517635345,28.93386840820312,85.88911437988281,-7.090194702148438
55234,-0.1202239990234375,1.434219360351562,-0.4359283447265625,1.113930821418762,0.8523321747779846,0.4230375289916992,29.07708740234375,86.01104736328125,-7.582046508789062
55235,-0.1239471435546875,1.331253051757812,-0.414642333984375,1.16370952129364,0.8110454678535461,0.3719317615032196,29.19320678710938,86.24154663085938,-8.20867919921875
55236,-0.1283111572265625,1.196121215820312,-0.370086669921875,1.161694049835205,0.6666635274887085,0.3003920614719391,29.33404541015625,86.45582580566406,-8.8948974609375
55237,-0.1419830322265625,1.078201293945312,-0.307861328125,1.109806537628174,0.4584778249263763,0.2421274185180664,29.53434753417969,86.58499145507812,-9.327987670898438
55238,-0.141326904296875,0.9972686767578124,-0.2671356201171875,1.064150929450989,0.2193917483091354,0.243054986000061,29.68179321289062,86.728271484375,-9.96368408203125
55239,-0.12957763671875,0.9713592529296876,-0.203857421875,1.033829808235168,-0.0281131267547607,0.2870429456233978,29.86724853515625,86.81832885742188,-10.53990173339844
55240,-0.1164093017578125,0.979095458984375,-0.1541748046875,0.9890152215957642,-0.3046371340751648,0.362266331911087,29.95034790039062,86.79374694824219,-11.37538146972656
55241,-0.1049346923828125,1.003265380859375,-0.1096954345703125,0.9044353365898132,-0.5820130705833435,0.4385009109973907,30.20991516113281,86.89157104492188,-11.95944213867188
55242,-0.0757904052734375,1.048553466796875,-0.0306243896484375,0.6083908677101135,-0.9206212162971495,0.5625951886177063,30.68563842773438,87.04910278320312,-12.70835876464844
55243,-0.0757904052734375,1.048553466796875,-0.0306243896484375,0.6083908677101135,-0.9206212162971495,0.5625951886177063,30.68563842773438,87.04910278320312,-12.70835876464844
55244,-0.095245361328125,1.091522216796875,0.0330963134765625,0.5300984978675842,-0.9759225845336914,0.6203737854957581,30.99180603027344,87.23846435546875,-12.77088928222656
55245,-0.122039794921875,1.140579223632812,0.0973052978515625,0.5810354351997375,-0.9684652090072632,0.6588612794876099,31.35118103027344,87.41015625,-12.83172607421875
55246,-0.13494873046875,1.133132934570312,0.1482696533203125,0.6916045546531677,-0.8911392092704773,0.6333659887313843,31.73994445800781,87.64010620117188,-12.88764953613281
55247,-0.111114501953125,1.066986083984375,0.1707763671875,0.7546655535697937,-0.7398719787597656,0.5839012861251831,32.05439758300781,87.93653869628906,-12.95208740234375
55248,-0.0685577392578125,0.959716796875,0.1608734130859375,0.796414315700531,-0.564704418182373,0.4990074038505554,32.37022399902344,88.10282897949219,-13.0457763671875
55249,-0.0096588134765625,0.7796783447265625,0.128814697265625,0.8293768167495728,-0.4539645612239838,0.4268408119678497,32.66018676757812,88.22824096679688,-13.19508361816406
55250,0.0384979248046875,0.634490966796875,0.15362548828125,0.8300886750221252,-0.3163702189922333,0.4138619005680084,32.9486083984375,88.46104431152344,-13.28392028808594
55251,0.07293701171875,0.5629425048828125,0.201202392578125,0.8075883984565735,-0.1037394478917122,0.463327169418335,33.2144775390625,88.54238891601562,-13.4427490234375
55252,0.0940704345703125,0.52667236328125,0.2096099853515625,0.7640047073364258,0.0895967260003089,0.5090797543525696,33.49497985839844,88.62266540527344,-13.70341491699219
55253,0.09320068359375,0.51080322265625,0.1701507568359375,0.6915957927703857,0.122978650033474,0.5436998009681702,33.722900390625,88.67161560058594,-13.81513977050781
55254,0.0641021728515625,0.5174407958984375,0.152923583984375,0.5775530934333801,0.0481542125344276,0.5420398116111755,34.02963256835938,88.72959899902344,-14.13934326171875
55255,-0.0012969970703125,0.5634307861328125,0.1580810546875,0.4316754937171936,-0.0865250378847122,0.4863291680812836,34.28643798828125,88.78689575195312,-14.5125732421875
55256,-0.0988311767578125,0.6630096435546875,0.1657257080078125,0.2840493023395538,-0.2289956361055374,0.3759360909461975,34.61958312988281,88.9605712890625,-14.84028625488281
55257,-0.1817169189453125,0.746368408203125,0.1587371826171875,0.1455886214971542,-0.3730417490005493,0.232574388384819,34.83821105957031,88.95167541503906,-14.93589782714844
55258,-0.2530059814453125,0.7765655517578125,0.16851806640625,0.0355207100510597,-0.4371480345726013,0.0888121575117111,35.03114318847656,88.97242736816406,-15.11959838867188
55259,-0.299835205078125,0.788543701171875,0.2192840576171875,-0.0334327928721904,-0.3529734909534454,-0.0514868944883346,35.03988647460938,89.06953430175781,-15.27195739746094
55260,-0.3301544189453125,0.7961578369140625,0.2650146484375,-0.0856725573539733,-0.152833491563797,-0.1750924587249756,35.07484436035156,89.19479370117188,-15.23509216308594
55261,-0.3368988037109375,0.790130615234375,0.307861328125,-0.1425044238567352,0.1186198592185974,-0.284412294626236,35.01254272460938,89.14505004882812,-15.20298767089844
55262,-0.3241119384765625,0.7794189453125,0.35943603515625,-0.2499999850988388,0.4001758992671967,-0.341233491897583,35.07086181640625,89.06846618652344,-15.29597473144531
55263,-0.307342529296875,0.788482666015625,0.3816986083984375,-0.4094082713127136,0.6297550201416016,-0.3368693590164185,35.00006103515625,88.99923706054688,-15.21406555175781
55264,-0.3055419921875,0.8179473876953125,0.3698577880859375,-0.586678683757782,0.7111042141914368,-0.3142341077327728,34.93418884277344,89.09144592285156,-15.08816528320312
55265,-0.32708740234375,0.85528564453125,0.36895751953125,-0.7403491735458374,0.6750503182411194,-0.3035928905010223,34.88137817382812,89.09312438964844,-15.0413818359375
55266,-0.3518524169921875,0.8374786376953125,0.344757080078125,-0.8991550803184509,0.4090673923492432,-0.3803963363170624,34.59146118164062,89.02755737304688,-14.51077270507812
55267,-0.3518524169921875,0.8374786376953125,0.344757080078125,-0.8991550803184509,0.4090673923492432,-0.3803963363170624,34.59146118164062,89.02755737304688,-14.51077270507812
55268,-0.3480072021484375,0.808349609375,0.3172607421875,-0.9151883721351624,0.2293301224708557,-0.4358156621456146,34.37586975097656,88.91316223144531,-14.16635131835938
55269,-0.329376220703125,0.7750091552734375,0.2855682373046875,-0.9240958690643312,0.0375196784734726,-0.4917502999305725,34.23898315429688,88.79856872558594,-14.00248718261719
55270,-0.275360107421875,0.768646240234375,0.2286834716796875,-1.002528667449951,-0.0684759989380836,-0.5982282757759094,33.62063598632812,88.41520690917969,-13.3067626953125
55271,-0.275360107421875,0.768646240234375,0.2286834716796875,-1.002528667449951,-0.0684759989380836,-0.5982282757759094,33.62063598632812,88.41520690917969,-13.3067626953125
55272,-0.260223388671875,0.794952392578125,0.1201934814453125,-1.078521609306335,0.1136575862765312,-0.6251049041748047,33.42572021484375,88.21653747558594,-12.68545532226562
55273,-0.2400665283203125,0.8438262939453125,-0.0489349365234375,-1.12623143196106,0.2199765741825104,-0.6402359008789062,33.15904235839844,87.98831176757812,-12.07099914550781
55274,-0.1539764404296875,0.8957366943359375,-0.2253570556640625,-1.104802012443542,-0.1844761073589325,-0.5621991753578186,32.47941589355469,87.61346435546875,-11.08372497558594
55275,-0.1539764404296875,0.8957366943359375,-0.2253570556640625,-1.104802012443542,-0.1844761073589325,-0.5621991753578186,32.47941589355469,87.61346435546875,-11.08372497558594
55276,-0.110321044921875,0.944244384765625,-0.2427825927734375,-1.083011507987976,-0.3461430370807648,-0.4447441697120667,32.14306640625,87.48196411132812,-10.67909240722656
55277,-0.0862579345703125,0.9680328369140624,-0.1856536865234375,-1.108579397201538,-0.327895313501358,-0.4207299053668976,31.72972106933594,87.37275695800781,-10.38839721679688
55278,-0.023895263671875,0.938232421875,-0.069091796875,-1.180650353431702,-0.1586181372404099,-0.4430277645587921,31.50752258300781,87.2939453125,-9.944625854492188
55279,0.0223236083984375,0.94970703125,-0.026611328125,-1.297916889190674,-0.0458319373428821,-0.47714763879776,31.24679565429688,87.09141540527344,-9.343948364257812
55280,0.0103912353515625,1.03466796875,-0.0917816162109375,-1.441938161849976,-0.1136506646871567,-0.500167191028595,30.98776245117188,86.96720886230469,-8.789230346679688
55281,-0.0547332763671875,1.198776245117188,-0.243316650390625,-1.474102258682251,-0.3022935390472412,-0.5038074851036072,30.72981262207031,86.77769470214844,-8.077102661132812
55282,-0.0674285888671875,1.337158203125,-0.3700714111328125,-1.215444087982178,-0.465676337480545,-0.5187078714370728,30.53524780273438,86.66908264160156,-7.520889282226562
55283,-0.0243988037109375,1.403335571289062,-0.4447174072265625,-0.7786118984222412,-0.4473407566547394,-0.4819501340389252,30.22409057617188,86.46588134765625,-6.948272705078125
55284,0.0023193359375,1.48577880859375,-0.5496368408203125,-0.3080313205718994,-0.3220235705375671,-0.4059674739837646,29.91831970214844,86.13972473144531,-6.30908203125
55285,0.007781982421875,1.5848388671875,-0.6605072021484375,0.1326166391372681,-0.2005440145730972,-0.2784449458122253,29.66917419433594,85.85850524902344,-5.756134033203125
55286,0.01123046875,1.670333862304688,-0.757781982421875,0.503976583480835,-0.0829318985342979,-0.1435787379741669,29.40220642089844,85.71913146972656,-5.4017333984375
55287,0.046234130859375,1.699722290039062,-0.7990264892578125,0.75681471824646,-0.0101461112499237,0.0012175972806289,29.20402526855469,85.57496643066406,-5.2532958984375
55288,0.0998382568359375,1.686798095703125,-0.767852783203125,0.8742702603340149,0.0266571771353483,0.143235981464386,29.14973449707031,85.54348754882812,-5.245620727539062
55289,0.1325531005859375,1.636016845703125,-0.677734375,0.925003707408905,0.0017009610310196,0.2479613274335861,29.12641906738281,85.45921325683594,-5.38690185546875
55290,0.1652374267578125,1.38128662109375,-0.541534423828125,1.063755750656128,-0.0142423193901777,0.4533395171165466,29.348388671875,85.80619812011719,-6.118988037109375
55291,0.1652374267578125,1.38128662109375,-0.541534423828125,1.063755750656128,-0.0142423193901777,0.4533395171165466,29.348388671875,85.80619812011719,-6.118988037109375
55292,0.1805877685546875,1.288055419921875,-0.493255615234375,1.111812710762024,0.0171797852963209,0.5357009768486023,29.51242065429688,85.96153259277344,-6.765579223632812
55293,0.1966552734375,1.228836059570312,-0.419097900390625,1.11913275718689,0.02342782728374,0.5874733328819275,29.77877807617188,86.19721984863281,-7.14959716796875
55294,0.1910247802734375,1.196807861328125,-0.338653564453125,1.081369042396545,0.0431032627820968,0.5694836974143982,30.07760620117188,86.46852111816406,-7.586685180664062
55295,0.147186279296875,1.209869384765625,-0.284271240234375,1.019843935966492,0.0010354369878768,0.463879257440567,30.46891784667969,86.80215454101562,-8.30340576171875
55296,0.097381591796875,1.248748779296875,-0.2114715576171875,0.8911690711975098,-0.176971048116684,0.3160264194011688,30.87686157226562,86.96347045898438,-8.94830322265625
55297,0.0412445068359375,1.30853271484375,-0.0720977783203125,0.7094637155532837,-0.3571964800357819,0.1528361439704895,31.1376953125,87.16012573242188,-9.512802124023438
55298,0.001129150390625,1.371612548828125,0.072021484375,0.5679734349250793,-0.4103734195232391,0.0086169242858886,31.37059020996094,87.36468505859375,-9.905197143554688
55299,-0.0394287109375,1.4107666015625,0.1428070068359375,0.557770311832428,-0.3797095119953156,-0.0877767205238342,31.62727355957031,87.67469787597656,-10.32310485839844
55300,-0.087371826171875,1.437255859375,0.1531524658203125,0.7166275978088379,-0.3533455431461334,-0.1214931383728981,31.78207397460938,87.8770751953125,-10.62060546875
55301,-0.119476318359375,1.436569213867188,0.0989532470703125,0.9759465456008912,-0.3719602525234222,-0.1137095242738724,31.98348999023438,87.84046936035156,-10.72560119628906
55302,-0.158843994140625,1.3604736328125,0.0097808837890625,1.23893928527832,-0.5056011080741882,-0.058889415115118,32.10957336425781,87.86465454101562,-10.94941711425781
55303,-0.213348388671875,1.22357177734375,-0.0461273193359375,1.435618042945862,-0.6829397082328796,0.0596822388470172,32.17594909667969,87.94190979003906,-11.24836730957031
55304,-0.2392578125,1.094436645507812,-0.053375244140625,1.544940710067749,-0.8990296721458435,0.2065478414297104,32.23907470703125,88.07308959960938,-11.70927429199219
55305,-0.2247467041015625,0.9852447509765624,-0.014007568359375,1.578397274017334,-1.111963987350464,0.3226779103279114,32.43174743652344,88.0662841796875,-12.09393310546875
55306,-0.1890411376953125,0.882598876953125,0.04583740234375,1.550446033477783,-1.304197072982788,0.3563786149024963,32.56671142578125,88.34449768066406,-12.40966796875
55307,-0.1968841552734375,0.8158111572265625,0.1439361572265625,1.480363845825195,-1.350901246070862,0.3424356281757355,32.76536560058594,88.56932067871094,-12.80337524414062
55308,-0.2320098876953125,0.75372314453125,0.2269134521484375,1.385657668113708,-1.211618185043335,0.2670894861221313,33.09883117675781,88.69406127929688,-13.29869079589844
55309,-0.241546630859375,0.6883087158203125,0.27777099609375,1.286044239997864,-0.9965178370475768,0.1441015154123306,33.36839294433594,88.86441040039062,-13.45268249511719
55310,-0.2700042724609375,0.5596771240234375,0.3360748291015625,1.069564580917358,-0.4701637625694275,-0.0964407846331596,34.01739501953125,89.02381896972656,-13.6195068359375
55311,-0.2700042724609375,0.5596771240234375,0.3360748291015625,1.069564580917358,-0.4701637625694275,-0.0964407846331596,34.01739501953125,89.02381896972656,-13.6195068359375
55312,-0.288909912109375,0.494293212890625,0.346710205078125,0.93217271566391,-0.2304846048355103,-0.1708076894283295,34.19168090820312,89.10040283203125,-13.97027587890625
55313,-0.31072998046875,0.4326019287109375,0.3271026611328125,0.7957144379615784,-0.0448297895491123,-0.1994981914758682,34.4012451171875,89.05145263671875,-14.23971557617188
55314,-0.3513336181640625,0.3388214111328125,0.23846435546875,0.4877281188964844,0.1257930845022202,-0.2212053537368774,34.45126342773438,88.73454284667969,-14.417724609375
55315,-0.3513336181640625,0.3388214111328125,0.23846435546875,0.4877281188964844,0.1257930845022202,-0.2212053537368774,34.45126342773438,88.73454284667969,-14.417724609375
55316,-0.3677520751953125,0.3092803955078125,0.183197021484375,0.3347415030002594,0.0833478868007659,-0.1858630776405334,34.54893493652344,88.704345703125,-14.75752258300781
55317,-0.369476318359375,0.33807373046875,0.1903839111328125,0.1512081623077393,0.070677101612091,-0.1129651665687561,34.50534057617188,88.62681579589844,-15.18594360351562
55318,-0.352142333984375,0.597747802734375,0.28570556640625,-0.3281158208847046,0.304321825504303,-0.0084896245971322,34.30975341796875,88.47625732421875,-15.832275390625
55319,-0.352142333984375,0.597747802734375,0.28570556640625,-0.3281158208847046,0.304321825504303,-0.0084896245971322,34.30975341796875,88.47625732421875,-15.832275390625
55320,-0.3409423828125,0.6951751708984375,0.3431549072265625,-0.5517928600311279,0.4756954312324524,-0.0341569036245346,34.27137756347656,88.44573974609375,-15.93974304199219
55321,-0.33013916015625,0.7948760986328125,0.39996337890625,-0.7513488531112671,0.6600762009620667,-0.0691335275769233,34.14219665527344,88.34803771972656,-15.93795776367188
55322,-0.3170928955078125,0.9118804931640624,0.4061431884765625,-1.132149934768677,0.712064802646637,-0.1752098947763443,33.97853088378906,88.48745727539062,-15.91104125976562
55323,-0.3170928955078125,0.9118804931640624,0.4061431884765625,-1.132149934768677,0.712064802646637,-0.1752098947763443,33.97853088378906,88.48745727539062,-15.91104125976562
55324,-0.2967681884765625,0.9167938232421876,0.4105377197265625,-1.295380234718323,0.546329915523529,-0.2185088992118835,33.93632507324219,88.53694152832031,-15.94940185546875
55325,-0.25970458984375,0.91436767578125,0.430084228515625,-1.444293737411499,0.3657366931438446,-0.2396035343408585,33.81280517578125,88.51797485351562,-15.71908569335938
55326,-0.175262451171875,0.952850341796875,0.3940887451171875,-1.672682166099548,0.0609472393989563,-0.331783801317215,33.36473083496094,88.44110107421875,-15.08465576171875
55327,-0.175262451171875,0.952850341796875,0.3940887451171875,-1.672682166099548,0.0609472393989563,-0.331783801317215,33.36473083496094,88.44110107421875,-15.08465576171875
55328,-0.146331787109375,0.9853363037109376,0.34979248046875,-1.722780823707581,-0.0534752085804939,-0.3875341415405273,33.11204528808594,88.37570190429688,-14.50300598144531
55329,-0.1666259765625,1.0445556640625,0.27398681640625,-1.721657991409302,-0.1128730252385139,-0.4432466626167297,32.98835754394531,88.25106811523438,-13.90287780761719
55330,-0.195587158203125,1.097137451171875,0.1447906494140625,-1.683270692825317,-0.0647419765591621,-0.4834886491298676,32.61711120605469,88.09417724609375,-13.18434143066406
55331,-0.2175750732421875,1.096710205078125,-0.0189208984375,-1.569650888442993,0.0575791411101818,-0.4692324697971344,32.25382995605469,87.7608642578125,-12.51669311523438
55332,-0.2413330078125,1.05755615234375,-0.1548614501953125,-1.368414759635925,0.347023993730545,-0.4021333158016205,31.84817504882812,87.323974609375,-12.05433654785156
55333,-0.22113037109375,0.9615325927734376,-0.19647216796875,-1.189431071281433,0.4594325721263885,-0.3286585807800293,31.4561767578125,86.99501037597656,-11.35130310058594
55334,-0.1727447509765625,1.000778198242188,-0.1801605224609375,-1.227803230285645,0.4334861934185028,-0.2819651067256927,30.64230346679688,86.24101257324219,-9.732131958007812
55335,-0.1751556396484375,1.081710815429688,-0.245086669921875,-1.30767810344696,0.4073515236377716,-0.3085607588291168,30.35179138183594,86.04782104492188,-9.177261352539062
55336,-0.1751556396484375,1.081710815429688,-0.245086669921875,-1.30767810344696,0.4073515236377716,-0.3085607588291168,30.35179138183594,86.04782104492188,-9.177261352539062
55337,-0.1881866455078125,1.167037963867188,-0.3107452392578125,-1.297590851783752,0.4482978880405426,-0.3514983654022217,30.116943359375,85.86029052734375,-8.423690795898438
55338,-0.1859130859375,1.218521118164062,-0.34747314453125,-1.185268640518188,0.5522450804710388,-0.3220121264457703,29.83036804199219,85.67268371582031,-7.886138916015625
55339,-0.189300537109375,1.263336181640625,-0.377227783203125,-1.02528715133667,0.6827370524406433,-0.2493001073598862,29.54267883300781,85.46524047851562,-7.595291137695312
55340,-0.1701812744140625,1.316986083984375,-0.4336700439453125,-0.8197875618934631,0.7128094434738159,-0.1288226991891861,29.26914978027344,85.37063598632812,-7.363037109375
55341,-0.1430511474609375,1.376113891601562,-0.4800262451171875,-0.5671411752700806,0.6932607889175415,0.0402350388467311,28.98980712890625,85.13916015625,-7.036712646484375
55342,-0.0886383056640625,1.412139892578125,-0.508941650390625,-0.2713702619075775,0.7404575943946838,0.2273181080818176,28.80378723144531,84.91433715820312,-6.835739135742188
55343,0.000518798828125,1.434600830078125,-0.5314483642578125,0.0134731978178024,0.8117890357971191,0.4098019003868103,28.72727966308594,84.92794799804688,-6.931243896484375
55344,0.086151123046875,1.478424072265625,-0.532012939453125,0.2314103245735168,0.8837186098098755,0.5497768521308899,28.71601867675781,85.02488708496094,-7.071197509765625
55345,0.1298675537109375,1.563858032226562,-0.5204010009765625,0.3860824406147003,0.9304980635643004,0.5711377859115601,28.8017578125,85.08134460449219,-7.173583984375
55346,0.1442413330078125,1.603790283203125,-0.4988555908203125,0.5039870142936707,0.8930811882019043,0.5089977383613586,28.83424377441406,85.22628784179688,-7.48046875
55347,0.115753173828125,1.57025146484375,-0.456085205078125,0.6402729153633118,0.806275486946106,0.4212489724159241,28.92726135253906,85.455078125,-7.989089965820312
55348,0.0475006103515625,1.48590087890625,-0.4384918212890625,0.8178117275238037,0.7697478532791138,0.3646450638771057,28.99870300292969,85.62966918945312,-8.398849487304688
55349,0.01470947265625,1.388397216796875,-0.4699859619140625,0.9893670082092284,0.7508279085159302,0.3160309195518494,29.14996337890625,85.81674194335938,-8.870498657226562
55350,-0.0291900634765625,1.192520141601562,-0.4365081787109375,1.051977157592773,0.5477592349052429,0.2023544311523438,29.31752014160156,86.02682495117188,-9.971160888671877
55351,-0.0758514404296875,1.097076416015625,-0.3748626708984375,0.9186699390411376,0.3560736775398254,0.1182805672287941,29.52578735351562,86.19566345214844,-10.6124267578125
55352,-0.0758514404296875,1.097076416015625,-0.3748626708984375,0.9186699390411376,0.3560736775398254,0.1182805672287941,29.52578735351562,86.19566345214844,-10.6124267578125
55353,-0.1119384765625,1.002655029296875,-0.333282470703125,0.75135737657547,0.0804626196622848,0.0748207122087478,29.53224182128906,86.22247314453125,-11.06785583496094
55354,-0.1542816162109375,0.9566650390625,-0.283721923828125,0.6728894710540771,-0.2197637856006622,0.0882853865623474,29.67147827148438,86.332275390625,-11.62675476074219
55355,-0.1851348876953125,0.9506988525390624,-0.1910400390625,0.6529080271720886,-0.454018622636795,0.1655439585447311,29.71221923828125,86.42184448242188,-11.97418212890625
55356,-0.214080810546875,0.9847259521484376,-0.0709686279296875,0.6127893924713135,-0.5994674563407898,0.2828586101531982,29.85427856445312,86.47027587890625,-12.34126281738281
55357,-0.218994140625,1.031478881835938,0.0509033203125,0.5447213649749756,-0.6604698300361633,0.4071725606918335,30.0810546875,86.48432922363281,-12.49208068847656
55358,-0.206512451171875,1.07421875,0.1658935546875,0.5480364561080933,-0.6947417855262756,0.5142995715141296,30.65939331054688,86.88444519042969,-12.70294189453125
55359,-0.206512451171875,1.07421875,0.1658935546875,0.5480364561080933,-0.6947417855262756,0.5142995715141296,30.65939331054688,86.88444519042969,-12.70294189453125
55360,-0.193145751953125,1.04779052734375,0.17486572265625,0.6568489670753479,-0.7160297632217407,0.5247303247451782,31.00155639648438,87.18035888671875,-12.7685546875
55361,-0.161865234375,1.00323486328125,0.17767333984375,0.7416977882385254,-0.7104676961898804,0.4851216971874237,31.38046264648438,87.46250915527344,-12.87068176269531
55362,-0.058746337890625,0.8523712158203125,0.195098876953125,0.7129780054092407,-0.6504288911819458,0.3445049226284027,31.88858032226562,87.84112548828125,-13.38201904296875
55363,-0.058746337890625,0.8523712158203125,0.195098876953125,0.7129780054092407,-0.6504288911819458,0.3445049226284027,31.88858032226562,87.84112548828125,-13.38201904296875
55364,0.0109405517578125,0.7341766357421875,0.1728363037109375,0.6499383449554443,-0.5869830846786499,0.3324988484382629,32.10397338867188,87.98275756835938,-13.39816284179688
55365,0.0604248046875,0.6287994384765625,0.1845855712890625,0.5823507905006409,-0.4649724662303925,0.3539673984050751,32.22842407226562,88.03816223144531,-13.43582153320312
55366,0.09381103515625,0.568939208984375,0.2125701904296875,0.4824249744415283,-0.2240530699491501,0.4008171856403351,32.34219360351562,88.07691955566406,-13.46342468261719
55367,0.0940093994140625,0.56597900390625,0.2285614013671875,0.3579078018665314,0.0638285130262374,0.4211933016777039,32.55186462402344,87.92140197753906,-13.62715148925781
55368,0.0428009033203125,0.600067138671875,0.199798583984375,0.2443857789039612,0.2071262896060944,0.4076324999332428,32.70478820800781,87.91575622558594,-13.72991943359375
55369,-0.0442352294921875,0.671630859375,0.198883056640625,0.1497261077165604,0.2075723707675934,0.3344544172286987,32.87030029296875,87.94224548339844,-13.80656433105469
55370,-0.20806884765625,0.7163848876953125,0.179473876953125,-0.0083117261528968,0.00645044259727,0.1487497985363007,33.41497802734375,88.263671875,-14.38650512695312
55371,-0.20806884765625,0.7163848876953125,0.179473876953125,-0.0083117261528968,0.00645044259727,0.1487497985363007,33.41497802734375,88.263671875,-14.38650512695312
55372,-0.2599945068359375,0.7722625732421875,0.1421966552734375,-0.0711737796664238,-0.1632131636142731,0.0547431409358978,33.52133178710938,88.28521728515625,-14.47991943359375
55373,-0.2847747802734375,0.8163604736328125,0.1333770751953125,-0.1525557190179825,-0.2570041120052338,-0.0537801422178745,33.61248779296875,88.33323669433594,-14.59576416015625
55374,-0.3097381591796875,0.8334197998046875,0.1631317138671875,-0.2422901391983032,-0.1718423366546631,-0.1431435793638229,33.63015747070312,88.29154968261719,-14.53646850585938
55375,-0.3341827392578125,0.8448638916015625,0.1968841552734375,-0.3484053909778595,0.1030041426420212,-0.1957013309001923,33.54141235351562,88.20185852050781,-14.39710998535156
55376,-0.3536529541015625,0.86102294921875,0.1899566650390625,-0.4408205449581146,0.392232745885849,-0.2208367735147476,33.43873596191406,88.25114440917969,-14.35458374023438
55377,-0.3565216064453125,0.8661651611328125,0.1864013671875,-0.5244613885879517,0.5992948412895203,-0.2412475049495697,33.25917053222656,88.20297241210938,-14.21260070800781
55378,-0.328521728515625,0.845855712890625,0.24774169921875,-0.6970241069793701,0.8470255732536316,-0.2527006864547729,33.10978698730469,88.13699340820312,-14.09439086914062
55379,-0.328521728515625,0.845855712890625,0.24774169921875,-0.6970241069793701,0.8470255732536316,-0.2527006864547729,33.10978698730469,88.13699340820312,-14.09439086914062
55380,-0.3191986083984375,0.8403472900390625,0.2807769775390625,-0.7953479886054993,0.9075459241867064,-0.2680314481258392,32.94635009765625,87.97918701171875,-14.11865234375
55381,-0.3255462646484375,0.83465576171875,0.2783660888671875,-0.8596487045288086,0.8725525140762329,-0.2893993258476257,32.88735961914062,87.91581726074219,-13.98135375976562
55382,-0.32061767578125,0.7958221435546875,0.2335052490234375,-0.8972418904304504,0.4908541440963745,-0.3575842380523682,32.56582641601562,87.80215454101562,-13.49343872070312
55383,-0.32061767578125,0.7958221435546875,0.2335052490234375,-0.8972418904304504,0.4908541440963745,-0.3575842380523682,32.56582641601562,87.80215454101562,-13.49343872070312
55384,-0.301544189453125,0.7760467529296875,0.21533203125,-0.9347444772720336,0.3336996734142303,-0.3980927765369415,32.38800048828125,87.78840637207031,-13.23916625976562
55385,-0.2759857177734375,0.7525482177734375,0.1713714599609375,-0.9843075275421144,0.2777799367904663,-0.4349152445793152,32.26242065429688,87.60739135742188,-12.92628479003906
55386,-0.254974365234375,0.7284088134765625,0.0949249267578125,-1.035557627677917,0.2379499822854996,-0.4441284537315369,31.90533447265625,87.52784729003906,-12.64360046386719
55387,-0.2289886474609375,0.720245361328125,0.002655029296875,-1.073037624359131,0.1605997979640961,-0.4400972127914429,31.807373046875,87.387451171875,-12.31159973144531
55388,-0.1803436279296875,0.72796630859375,-0.07635498046875,-1.10491144657135,-0.0080896178260445,-0.4053671956062317,31.51467895507812,87.23696899414062,-11.81181335449219
55389,-0.11236572265625,0.78533935546875,-0.1008453369140625,-1.183995127677917,-0.3077847063541412,-0.3500988781452179,31.07853698730469,86.76942443847656,-10.65916442871094
55390,-0.11236572265625,0.78533935546875,-0.1008453369140625,-1.183995127677917,-0.3077847063541412,-0.3500988781452179,31.07853698730469,86.76942443847656,-10.65916442871094
55391,-0.08282470703125,0.83734130859375,-0.0949859619140625,-1.223092436790466,-0.3922005295753479,-0.3538014888763428,30.82502746582031,86.58064270019531,-10.18838500976562
55392,-0.063232421875,0.9189605712890624,-0.077056884765625,-1.240870118141174,-0.4208926260471344,-0.3927091956138611,30.61357116699219,86.409423828125,-9.63934326171875
55393,-0.0543365478515625,1.022537231445312,-0.0584869384765625,-1.244305491447449,-0.4460720121860504,-0.4397278428077698,30.36360168457031,86.39472961425781,-9.07977294921875
55394,-0.0565338134765625,1.1297607421875,-0.043426513671875,-1.25649619102478,-0.4993038177490234,-0.4842204749584198,30.25961303710938,86.25825500488281,-8.572433471679688
55395,-0.0731353759765625,1.210037231445312,-0.0256805419921875,-1.237466812133789,-0.5795930624008179,-0.5130656957626343,29.99122619628906,85.92799377441406,-7.847549438476562
55396,-0.081634521484375,1.279296875,-0.045684814453125,-1.130498766899109,-0.6509519219398499,-0.5219156742095947,29.8211669921875,85.82157897949219,-7.147750854492188
55397,-0.0749053955078125,1.342010498046875,-0.13861083984375,-0.8880869746208191,-0.7475405335426331,-0.502327024936676,29.54927062988281,85.602294921875,-6.42706298828125
55398,-0.0609893798828125,1.365097045898438,-0.2460174560546875,-0.5113474130630493,-0.8086994886398315,-0.4599731862545013,29.28274536132812,85.3525390625,-5.875900268554688
55399,-0.0486602783203125,1.353164672851562,-0.3443756103515625,-0.0636751130223274,-0.7388501167297363,-0.3794613182544708,29.18031311035156,85.20301818847656,-5.332443237304688
55400,-0.0565185546875,1.362548828125,-0.4556732177734375,0.4027069807052612,-0.5450074076652527,-0.2885292768478394,28.97514343261719,85.02903747558594,-4.769424438476562
55401,-0.051239013671875,1.40484619140625,-0.5785980224609375,0.8147121071815491,-0.3435781300067902,-0.1673865914344788,28.99037170410156,84.83172607421875,-4.475616455078125
55402,0.0255279541015625,1.556655883789062,-0.715972900390625,1.201003074645996,-0.0642836466431617,0.1289875358343124,28.68437194824219,84.86180114746094,-4.635498046875
55403,0.0255279541015625,1.556655883789062,-0.715972900390625,1.201003074645996,-0.0642836466431617,0.1289875358343124,28.68437194824219,84.86180114746094,-4.635498046875
55404,0.0812225341796875,1.61822509765625,-0.642181396484375,1.03656280040741,0.005061337724328,0.2199973464012146,28.63484191894531,84.86650085449219,-4.956298828125
55405,0.096954345703125,1.612152099609375,-0.504669189453125,0.725053608417511,0.0301073025912046,0.2372788637876511,28.6033935546875,84.97450256347656,-5.263946533203125
55406,0.0482635498046875,1.554336547851562,-0.381591796875,0.4912967681884766,-0.0142391230911016,0.2590909600257874,28.70979309082031,85.05410766601562,-5.841415405273438
55407,0.013275146484375,1.48602294921875,-0.2695770263671875,0.4480973482131958,0.002837331732735,0.297932893037796,28.83222961425781,85.26980590820312,-6.185882568359375
55408,0.0010528564453125,1.466323852539062,-0.192108154296875,0.5265149474143982,0.1105334386229515,0.3279248774051666,29.04208374023438,85.48727416992188,-6.496337890625
55409,-0.0194549560546875,1.480010986328125,-0.1267852783203125,0.6378691792488098,0.2231537252664566,0.3169033825397491,29.27732849121094,85.79721069335938,-6.851287841796875
55410,-0.0379486083984375,1.46533203125,-0.0736846923828125,0.7014803290367126,0.2611983120441437,0.2498772144317627,29.45487976074219,86.024658203125,-7.239059448242188
55411,-0.0379486083984375,1.46533203125,-0.0736846923828125,0.7014803290367126,0.2611983120441437,0.2498772144317627,29.45487976074219,86.024658203125,-7.239059448242188
55412,-0.1291046142578125,1.435745239257812,0.0328521728515625,0.6887251734733582,0.0677124708890914,0.0960176065564155,29.86526489257812,86.29385375976562,-8.128570556640625
55413,-0.1663970947265625,1.450485229492188,0.120819091796875,0.7179282903671265,-0.0527052879333496,0.07681754976511,30.01840209960938,86.3228759765625,-8.442092895507812
55414,-0.1946868896484375,1.416229248046875,0.176605224609375,0.8143259286880493,-0.0904012694954872,0.1095094531774521,30.25239562988281,86.48393249511719,-8.855545043945312
55415,-0.2257232666015625,1.318145751953125,0.1558685302734375,0.9315924048423768,-0.112265020608902,0.2102168798446655,30.42500305175781,86.49351501464844,-9.184127807617188
55416,-0.2620086669921875,1.201263427734375,0.1178436279296875,1.065389275550842,-0.2249007523059845,0.3401362597942352,30.61441040039062,86.66244506835938,-9.5396728515625
55417,-0.2410125732421875,1.111236572265625,0.1236419677734375,1.15766167640686,-0.3346647918224335,0.4167801737785339,30.87806701660156,86.92176818847656,-9.979339599609377
55418,-0.2337799072265625,0.95025634765625,0.12347412109375,0.9952166080474854,-0.4280794262886047,0.4521504342556,31.37303161621094,87.44891357421875,-10.83311462402344
55419,-0.2337799072265625,0.95025634765625,0.12347412109375,0.9952166080474854,-0.4280794262886047,0.4521504342556,31.37303161621094,87.44891357421875,-10.83311462402344
55420,-0.2559051513671875,0.8726959228515625,0.0806732177734375,0.8952796459197998,-0.573600709438324,0.4421827495098114,31.48033142089844,87.62117004394531,-11.00474548339844
55421,-0.2594451904296875,0.77587890625,0.03826904296875,0.8368216753005981,-0.8192687630653381,0.3908388614654541,31.83265686035156,87.66830444335938,-11.11808776855469
55422,-0.2617950439453125,0.6786041259765625,0.0502471923828125,0.8451855778694153,-1.029866456985474,0.3379343748092651,32.11767578125,87.78950500488281,-11.22872924804688
55423,-0.261932373046875,0.6085052490234375,0.1226806640625,0.9240487217903136,-1.05942177772522,0.2591737806797028,32.38774108886719,87.81170654296875,-11.34144592285156
55424,-0.257659912109375,0.5437164306640625,0.1952667236328125,1.04717218875885,-0.8635392785072327,0.1602727621793747,32.62187194824219,87.95021057128906,-11.51849365234375
55425,-0.2269134521484375,0.4593658447265625,0.2151031494140625,1.152191638946533,-0.5745894908905029,0.0622441992163658,32.79524230957031,88.09658813476562,-11.68661499023438
55426,-0.190185546875,0.4046478271484375,0.2095184326171875,1.171544551849365,-0.2991518080234528,-0.0157320909202098,33.01243591308594,88.18589782714844,-11.94168090820312
55427,-0.1482696533203125,0.352508544921875,0.163299560546875,1.118547916412354,-0.1393997073173523,-0.0691207498311996,33.13958740234375,88.33815002441406,-12.47190856933594
55428,-0.1323699951171875,0.338287353515625,0.144744873046875,0.9671463966369628,-0.1207980588078499,-0.0929397940635681,33.10939025878906,88.31105041503906,-12.87338256835938
55429,-0.1508331298828125,0.350311279296875,0.154022216796875,0.7523350119590759,-0.1737507581710815,-0.1114061549305916,33.27047729492188,88.36270141601562,-13.26121520996094
55430,-0.195159912109375,0.3702392578125,0.144073486328125,0.5371540188789368,-0.3121570944786072,-0.1282783448696136,33.37405395507812,88.34883117675781,-13.47659301757812
55431,-0.2285614013671875,0.4300537109375,0.1114349365234375,0.3741360604763031,-0.5039235949516296,-0.1082915887236595,33.47288513183594,88.516845703125,-13.69329833984375
55432,-0.198486328125,0.5127410888671875,0.0960540771484375,0.2546147108078003,-0.6527647376060486,-0.0742731690406799,33.4971923828125,88.56608581542969,-13.90701293945312
55433,-0.1637420654296875,0.5498046875,0.1660919189453125,0.1346520930528641,-0.58705735206604,-0.0427301526069641,33.49520874023438,88.58236694335938,-14.10707092285156
55434,-0.1483917236328125,0.568206787109375,0.27044677734375,-0.0316143855452537,-0.2447322458028793,0.0160039998590946,33.44929504394531,88.59458923339844,-14.11036682128906
55435,-0.1483917236328125,0.568206787109375,0.27044677734375,-0.0316143855452537,-0.2447322458028793,0.0160039998590946,33.44929504394531,88.59458923339844,-14.11036682128906
55436,-0.1931915283203125,0.707611083984375,0.2653961181640625,-0.4364617466926575,0.3088100254535675,0.0603384412825107,33.52897644042969,88.47114562988281,-14.02719116210938
55437,-0.25042724609375,0.7977447509765625,0.28521728515625,-0.5988975167274475,0.353716254234314,0.0296404492110014,33.55746459960938,88.62353515625,-13.87115478515625
55438,-0.3058319091796875,0.8746337890625,0.35272216796875,-0.7343038320541382,0.4069611132144928,-0.019375029951334,33.64859008789062,88.53768920898438,-13.45658874511719
55439,-0.3400726318359375,0.9087066650390624,0.4320220947265625,-0.8564803004264832,0.517196774482727,-0.0653880611062049,33.666259765625,88.54258728027344,-13.18122863769531
55440,-0.34417724609375,0.9145660400390624,0.4859619140625,-0.981496274471283,0.6500831842422485,-0.1038504987955093,33.62837219238281,88.60374450683594,-13.19496154785156
55441,-0.3211517333984375,0.9423065185546876,0.4638824462890625,-1.11946427822113,0.7026143074035645,-0.1367767602205276,33.45600891113281,88.52935791015625,-13.10646057128906
55442,-0.25665283203125,0.9964599609375,0.3503570556640625,-1.371682643890381,0.2765447795391083,-0.2396211177110672,33.12887573242188,88.22596740722656,-12.61151123046875
55443,-0.25665283203125,0.9964599609375,0.3503570556640625,-1.371682643890381,0.2765447795391083,-0.2396211177110672,33.12887573242188,88.22596740722656,-12.61151123046875
55444,-0.2142181396484375,1.03448486328125,0.33660888671875,-1.483450770378113,0.0291102156043052,-0.2897279560565948,32.89082336425781,88.11033630371094,-12.30117797851562
55445,-0.1768798828125,1.0865478515625,0.292266845703125,-1.561315417289734,-0.1087725535035133,-0.3510488271713257,32.670166015625,87.98756408691406,-11.95361328125
55446,-0.1562042236328125,1.13751220703125,0.218902587890625,-1.588621377944946,-0.125389352440834,-0.3877658247947693,32.44833374023438,87.74998474121094,-11.32804870605469
55447,-0.1777191162109375,1.158935546875,0.150909423828125,-1.564532279968262,0.0352410785853862,-0.4310651123523712,32.1939697265625,87.43281555175781,-10.617431640625
55448,-0.2215728759765625,1.156646728515625,0.03192138671875,-1.445818662643433,0.2890001237392426,-0.474079966545105,31.91079711914062,87.15850830078125,-10.0181884765625
55449,-0.2361907958984375,1.149246215820312,-0.0777435302734375,-1.226031422615051,0.4173793792724609,-0.5310255289077759,31.52415466308594,86.77491760253906,-9.432159423828123
55450,-0.2190704345703125,1.126251220703125,-0.1156005859375,-1.080993890762329,0.4261079132556915,-0.5738531351089478,31.20562744140625,86.49404907226562,-8.825729370117188
55451,-0.1862640380859375,1.133132934570312,-0.15863037109375,-1.033417820930481,0.3507833182811737,-0.5773985981941223,30.79454040527344,86.22563171386719,-8.261459350585938
55452,-0.139739990234375,1.164321899414062,-0.21282958984375,-1.044455051422119,0.2121471464633942,-0.5445237755775452,30.45840454101562,85.92364501953125,-7.857818603515625
55453,-0.1100311279296875,1.194488525390625,-0.250396728515625,-1.054345726966858,0.0912329703569412,-0.4615705609321594,30.10385131835938,85.6890869140625,-7.408493041992188
55454,-0.095611572265625,1.26025390625,-0.3173980712890625,-0.8854483366012573,0.068037636578083,-0.2647813260555267,29.54629516601562,85.03660583496094,-6.601303100585938
55455,-0.095611572265625,1.26025390625,-0.3173980712890625,-0.8854483366012573,0.068037636578083,-0.2647813260555267,29.54629516601562,85.03660583496094,-6.601303100585938
55456,-0.09375,1.316360473632812,-0.3606414794921875,-0.7104445695877075,0.117565244436264,-0.1408050507307053,29.26371765136719,84.86782836914062,-6.166671752929688
55457,-0.0974273681640625,1.401626586914062,-0.399749755859375,-0.4967066943645477,0.2479584068059921,-0.0222067683935165,28.95701599121094,84.65534973144531,-5.846603393554688
55458,-0.0846710205078125,1.492019653320312,-0.4330291748046875,-0.2655778825283051,0.4190206825733185,0.1045128256082535,28.82415771484375,84.5384521484375,-5.527145385742188
55459,-0.0709381103515625,1.573715209960938,-0.425567626953125,-0.0412787310779094,0.6302695870399475,0.2382216155529022,28.69319152832031,84.48977661132812,-5.36309814453125
55460,-0.0718231201171875,1.657913208007812,-0.40460205078125,0.1610919535160065,0.8083644509315491,0.3330163061618805,28.59962463378906,84.46125793457031,-5.2138671875
55461,-0.0899505615234375,1.715530395507812,-0.383575439453125,0.3465592861175537,0.8874422311782837,0.3794639706611633,28.62986755371094,84.59797668457031,-5.1943359375
55462,-0.1269378662109375,1.715179443359375,-0.3774261474609375,0.5370349287986755,0.9163511395454408,0.4091209173202515,28.63882446289062,84.67799377441406,-5.361114501953125
55463,-0.151641845703125,1.638290405273438,-0.3931427001953125,0.7512255311012268,0.9923079013824464,0.4415009617805481,28.67445373535156,84.81730651855469,-5.573623657226562
55464,-0.1505889892578125,1.521636962890625,-0.38983154296875,0.9251283407211304,1.102258443832397,0.4660792946815491,28.76170349121094,84.98362731933594,-6.006195068359375
55465,-0.1434173583984375,1.40814208984375,-0.3484344482421875,1.004334211349487,1.1655353307724,0.4782113134860992,28.82743835449219,85.27593994140625,-6.531661987304688
55466,-0.118499755859375,1.117523193359375,-0.271392822265625,0.9586647748947144,0.9418674111366272,0.3896641433238983,29.02693176269531,85.75431823730469,-8.05865478515625
55467,-0.118499755859375,1.117523193359375,-0.271392822265625,0.9586647748947144,0.9418674111366272,0.3896641433238983,29.02693176269531,85.75431823730469,-8.05865478515625
55468,-0.12103271484375,0.972137451171875,-0.24560546875,0.9061070084571838,0.6461308002471924,0.3508576154708862,29.10838317871094,85.95561218261719,-8.712875366210938
55469,-0.1221923828125,0.9066162109375,-0.2043914794921875,0.8453816175460815,0.3499816954135895,0.3689876198768616,29.28530883789062,86.05868530273438,-9.41717529296875
55470,-0.1180877685546875,0.898284912109375,-0.1749267578125,0.7942444086074829,0.0207894351333379,0.4114442765712738,29.46640014648438,86.21926879882812,-9.933395385742188
55471,-0.105743408203125,0.915618896484375,-0.089874267578125,0.743283212184906,-0.2298092246055603,0.4474571347236633,29.6236572265625,86.19393920898438,-10.50033569335938
55472,-0.0906524658203125,0.9250946044921876,-0.00018310546875,0.6557855606079102,-0.3543660640716553,0.487645298242569,29.85650634765625,86.25135803222656,-10.95561218261719
55473,-0.0756988525390625,0.92669677734375,0.0645599365234375,0.5491403341293335,-0.4023101627826691,0.517565906047821,30.07376098632812,86.44905090332031,-11.2174072265625
55474,-0.0863494873046875,0.9487762451171876,0.1297607421875,0.4758384525775909,-0.3920657932758331,0.5389558672904968,30.35079956054688,86.63093566894531,-11.4720458984375
55475,-0.1053314208984375,0.9979248046875,0.154632568359375,0.4849368631839752,-0.4056540131568909,0.5802034735679626,30.67985534667969,86.812744140625,-11.67671203613281
55476,-0.092010498046875,1.046249389648438,0.1637115478515625,0.565913200378418,-0.4968694150447845,0.6050430536270142,30.98782348632812,87.07267761230469,-11.80955505371094
55477,-0.057830810546875,1.034942626953125,0.1951141357421875,0.6624352335929871,-0.5634335279464722,0.5900209546089172,31.26203918457031,87.25424194335938,-11.91502380371094
55478,-0.020111083984375,0.956207275390625,0.2372894287109375,0.6886311173439026,-0.4395659267902374,0.554557740688324,31.57208251953125,87.38198852539062,-11.97395324707031
55479,0.0270233154296875,0.8548431396484375,0.2059478759765625,0.6880292892456055,-0.224245086312294,0.5373619794845581,31.8720703125,87.58207702636719,-12.10009765625
55480,0.0565643310546875,0.74212646484375,0.1855621337890625,0.7351123690605164,-0.0885740742087364,0.4944712519645691,32.10427856445312,87.6109619140625,-12.16969299316406
55481,0.052947998046875,0.633209228515625,0.2177734375,0.7839850783348083,-0.0035744947381317,0.4566045701503754,32.43441772460938,87.71510314941406,-12.21011352539062
55482,0.02264404296875,0.52886962890625,0.2701263427734375,0.779667854309082,0.1038773953914642,0.4588610529899597,32.8084716796875,87.80921936035156,-12.34635925292969
55483,-0.011322021484375,0.457611083984375,0.3028106689453125,0.707412838935852,0.2133181393146515,0.4805663526058197,33.13026428222656,88.03903198242188,-12.65789794921875
55484,-0.0423736572265625,0.4232177734375,0.3025054931640625,0.5888411402702332,0.262750655412674,0.48528653383255,33.39311218261719,88.27963256835938,-12.95516967773438
55485,-0.0901641845703125,0.4266815185546875,0.281768798828125,0.434630811214447,0.218622624874115,0.4451865255832672,33.67680358886719,88.36869812011719,-13.33409118652344
55486,-0.219696044921875,0.584747314453125,0.2095184326171875,0.0901344195008277,-0.2589644491672516,0.2117388844490051,34.42118835449219,88.58523559570312,-13.80026245117188
55487,-0.219696044921875,0.584747314453125,0.2095184326171875,0.0901344195008277,-0.2589644491672516,0.2117388844490051,34.42118835449219,88.58523559570312,-13.80026245117188
55488,-0.2498321533203125,0.6444854736328125,0.1783294677734375,-0.0721562206745147,-0.5344200134277344,0.0509209707379341,34.67816162109375,88.77668762207031,-14.17991638183594
55489,-0.2818450927734375,0.695281982421875,0.1678466796875,-0.2202575355768204,-0.6794298887252808,-0.0912952944636344,34.73576354980469,88.83819580078125,-14.33802795410156
55490,-0.3161163330078125,0.7441864013671875,0.20391845703125,-0.3339854180812836,-0.5733790993690491,-0.212530642747879,34.85743713378906,88.99324035644531,-14.29052734375
55491,-0.3479461669921875,0.7957000732421875,0.23724365234375,-0.3955462574958801,-0.2315594553947449,-0.3028653264045715,34.83201599121094,88.91252136230469,-14.2515869140625
55492,-0.3536224365234375,0.8404083251953125,0.23309326171875,-0.4167636632919312,0.1632978469133377,-0.3745240569114685,34.43026733398438,88.72453308105469,-13.84288024902344
55493,-0.33294677734375,0.8580169677734375,0.2257843017578125,-0.4204862415790558,0.4604229927062988,-0.4231078624725342,34.20390319824219,88.61770629882812,-13.60365295410156
55494,-0.3179168701171875,0.8371124267578125,0.2373809814453125,-0.416101336479187,0.605965793132782,-0.4214598834514618,34.05632019042969,88.42822265625,-13.4599609375
55495,-0.320037841796875,0.8515167236328125,0.2678375244140625,-0.4380375444889069,0.661471962928772,-0.4079369008541107,33.92909240722656,88.33761596679688,-13.41334533691406
55496,-0.3254852294921875,0.8696441650390625,0.269561767578125,-0.493511438369751,0.6335101127624512,-0.4028270840644836,33.65725708007812,88.31660461425781,-13.59869384765625
55497,-0.326263427734375,0.862457275390625,0.246673583984375,-0.5664045810699463,0.5317826867103577,-0.4068673551082611,33.51078796386719,88.23690795898438,-13.60249328613281
55498,-0.3161773681640625,0.8382720947265625,0.2143707275390625,-0.6318442821502686,0.3921001255512238,-0.423613041639328,33.29844665527344,88.16667175292969,-13.51791381835938
55499,-0.3043365478515625,0.8001861572265625,0.1785125732421875,-0.6750420928001404,0.3179971575737,-0.4474097192287445,32.96119689941406,88.08192443847656,-13.39224243164062
55500,-0.2850799560546875,0.766815185546875,0.1378631591796875,-0.6907742023468018,0.2973123788833618,-0.4682060778141022,32.80311584472656,87.89323425292969,-13.09722900390625
55501,-0.233978271484375,0.7533111572265625,0.0489044189453125,-0.6489832997322083,0.390440970659256,-0.5267325043678284,32.15641784667969,87.54443359375,-12.3076171875
55502,-0.233978271484375,0.7533111572265625,0.0489044189453125,-0.6489832997322083,0.390440970659256,-0.5267325043678284,32.15641784667969,87.54443359375,-12.3076171875
55503,-0.20843505859375,0.780364990234375,-0.0374908447265625,-0.6313542723655701,0.3061745762825012,-0.5801994800567627,31.87896728515625,87.31520080566406,-12.22990417480469
55504,-0.17816162109375,0.798370361328125,-0.1245269775390625,-0.6670917272567749,0.0661625117063522,-0.6019351482391357,31.53913879394531,87.153564453125,-12.21769714355469
55505,-0.1458740234375,0.8180694580078125,-0.143829345703125,-0.7670694589614868,-0.1944408565759659,-0.598776638507843,31.15174865722656,86.99397277832031,-11.87062072753906
55506,-0.0808258056640625,0.9002532958984375,-0.03594970703125,-1.12009060382843,-0.2293224036693573,-0.5021392703056335,30.47212219238281,86.41590881347656,-11.15228271484375
55507,-0.0808258056640625,0.9002532958984375,-0.03594970703125,-1.12009060382843,-0.2293224036693573,-0.5021392703056335,30.47212219238281,86.41590881347656,-11.15228271484375
55508,-0.0839080810546875,0.9963836669921876,-0.015350341796875,-1.293858766555786,-0.1221408247947693,-0.5086374282836914,30.25126647949219,86.34811401367188,-10.59841918945312
55509,-0.112945556640625,1.100616455078125,-0.0363616943359375,-1.373679280281067,-0.1092878729104996,-0.5668285489082336,30.07438659667969,86.18016052246094,-10.03858947753906
55510,-0.143951416015625,1.275665283203125,-0.12286376953125,-1.263939738273621,-0.2334393858909607,-0.5781296491622925,29.41200256347656,85.93522644042969,-8.807785034179688
55511,-0.143951416015625,1.275665283203125,-0.12286376953125,-1.263939738273621,-0.2334393858909607,-0.5781296491622925,29.41200256347656,85.93522644042969,-8.807785034179688
55512,-0.1093597412109375,1.402252197265625,-0.240631103515625,-1.038655996322632,-0.3469496965408325,-0.5127565264701843,29.06541442871094,85.65415954589844,-8.22723388671875
55513,-0.069793701171875,1.506973266601562,-0.3560638427734375,-0.7149783372879028,-0.456935316324234,-0.3981021046638489,28.78567504882812,85.51202392578125,-7.691436767578125
55514,-0.0339813232421875,1.581283569335938,-0.4585418701171875,-0.3263397514820099,-0.473151296377182,-0.256277859210968,28.50758361816406,85.25717163085938,-7.237991333007812
55515,0.004730224609375,1.638671875,-0.546600341796875,0.0759027525782585,-0.4123587906360626,-0.1199248060584068,28.3343505859375,85.02781677246094,-6.865493774414062
55516,0.037567138671875,1.68963623046875,-0.5846405029296875,0.41811603307724,-0.275376170873642,-0.0136875826865434,28.1541748046875,84.93453979492188,-6.690597534179688
55517,0.0931854248046875,1.706939697265625,-0.58282470703125,0.6272130608558655,-0.117621973156929,0.0919150114059448,28.11512756347656,84.82296752929688,-6.479461669921875
55518,0.2150421142578125,1.662216186523438,-0.463409423828125,0.6747451424598694,-0.1450189799070358,0.2690253555774689,28.26052856445312,84.96859741210938,-6.804107666015625
55519,0.2150421142578125,1.662216186523438,-0.463409423828125,0.6747451424598694,-0.1450189799070358,0.2690253555774689,28.26052856445312,84.96859741210938,-6.804107666015625
55520,0.2171630859375,1.589370727539062,-0.4069671630859375,0.6876968741416931,-0.1729411482810974,0.3549708724021912,28.39764404296875,85.21159362792969,-7.093551635742188
55521,0.1809234619140625,1.512557983398438,-0.3744354248046875,0.7740262150764465,-0.0951787158846855,0.3924636542797089,28.57209777832031,85.26904296875,-7.280929565429688
55522,0.115142822265625,1.449661254882812,-0.3106536865234375,0.8409335613250732,0.0438486821949482,0.39457768201828,28.71696472167969,85.50814819335938,-7.6451416015625
55523,0.0391387939453125,1.389434814453125,-0.2410888671875,0.8297826647758484,0.157972052693367,0.3713229596614838,28.98617553710938,85.7498779296875,-7.963790893554688
55524,-0.032073974609375,1.364425659179688,-0.174346923828125,0.7766504883766174,0.2059795260429382,0.2974697649478912,29.27066040039062,85.89295959472656,-8.353378295898438
55525,-0.150604248046875,1.3681640625,-0.069854736328125,0.7200455069541931,0.1615135222673416,0.0253114812076091,29.67872619628906,86.25953674316406,-9.11871337890625
55526,-0.150604248046875,1.3681640625,-0.069854736328125,0.7200455069541931,0.1615135222673416,0.0253114812076091,29.67872619628906,86.25953674316406,-9.11871337890625
55527,-0.21014404296875,1.374725341796875,-0.00909423828125,0.7107457518577576,0.0932018458843231,-0.1103403568267822,29.78822326660156,86.4207763671875,-9.68414306640625
55528,-0.2745513916015625,1.376937866210938,0.0403594970703125,0.729607343673706,-0.0379218161106109,-0.1990076452493668,29.90818786621094,86.51255798339844,-10.20207214355469
55529,-0.322021484375,1.349884033203125,0.0380401611328125,0.7612190246582031,-0.1845797002315521,-0.2142164260149002,30.07859802246094,86.51748657226562,-10.63356018066406
55530,-0.35552978515625,1.29010009765625,0.0019073486328125,0.8025451898574829,-0.3353769481182098,-0.1580186635255814,30.10273742675781,86.62501525878906,-10.99105834960938
55531,-0.3690185546875,1.203689575195312,-0.013031005859375,0.8677234053611755,-0.4860295653343201,-0.0335307940840721,30.09075927734375,86.80230712890625,-11.20761108398438
55532,-0.3386077880859375,1.13623046875,0.0012664794921875,0.9482632279396056,-0.578383207321167,0.0618492513895034,30.158203125,86.989990234375,-11.4542236328125
55533,-0.2765350341796875,1.053680419921875,-0.005035400390625,0.9958288669586182,-0.6403242945671082,0.0781169086694717,30.34523010253906,87.19932556152344,-11.7193603515625
55534,-0.2629241943359375,0.957489013671875,-0.0026397705078125,1.013981580734253,-0.7408570647239685,0.1581848412752151,30.51370239257812,87.28134155273438,-11.85688781738281
55535,-0.2629241943359375,0.957489013671875,-0.0026397705078125,1.013981580734253,-0.7408570647239685,0.1581848412752151,30.51370239257812,87.28134155273438,-11.85688781738281
55536,-0.3110809326171875,0.8156585693359375,0.101898193359375,1.039263963699341,-0.7632771134376526,0.209339901804924,30.85002136230469,87.55625915527344,-12.043212890625
55537,-0.3293914794921875,0.724029541015625,0.1463165283203125,1.095091342926025,-0.656467080116272,0.1623670756816864,31.07926940917969,87.56976318359375,-12.04061889648438
55538,-0.32843017578125,0.6211090087890625,0.1566925048828125,1.173127770423889,-0.5148042440414429,0.1104175895452499,31.29400634765625,87.5987548828125,-12.08685302734375
55539,-0.3162384033203125,0.53717041015625,0.1856231689453125,1.224103093147278,-0.3374533951282501,0.0562552846968174,31.4749755859375,87.68275451660156,-12.48326110839844
55540,-0.29754638671875,0.4676055908203125,0.221435546875,1.215438008308411,-0.0869753807783126,0.0100249368697404,31.61956787109375,87.70631408691406,-13.0673828125
55541,-0.280426025390625,0.4031829833984375,0.2206268310546875,1.146644830703735,0.1316760033369064,-0.0357209779322147,31.73443603515625,87.74766540527344,-13.52182006835938
55542,-0.26568603515625,0.3401641845703125,0.200347900390625,1.049951195716858,0.2867705225944519,-0.068341240286827,31.85948181152344,87.68173217773438,-13.94120788574219
55543,-0.2402801513671875,0.277618408203125,0.16497802734375,0.932860553264618,0.3529838919639587,-0.0778159722685813,31.95942687988281,87.68362426757812,-14.4246826171875
55544,-0.2189178466796875,0.2373809814453125,0.128173828125,0.787744402885437,0.3363732099533081,-0.0958040207624435,31.92964172363281,87.80299377441406,-14.94215393066406
55545,-0.197235107421875,0.2035980224609375,0.0894927978515625,0.6337361931800842,0.2405811846256256,-0.1164706870913506,32.0450439453125,87.69432067871094,-15.26055908203125
55546,-0.17791748046875,0.1860809326171875,0.064971923828125,0.4866660535335541,0.0913602709770202,-0.128568097949028,32.0909423828125,87.61921691894531,-15.84768676757812
55547,-0.1557159423828125,0.19384765625,0.0804595947265625,0.3356397747993469,-0.040624126791954,-0.1471122205257416,32.06083679199219,87.671875,-16.1405029296875
55548,-0.1196136474609375,0.2755126953125,0.11358642578125,0.1439699530601501,-0.1079067587852478,-0.1330336779356003,31.96923828125,87.61415100097656,-16.40074157714844
55549,-0.11090087890625,0.424560546875,0.1512908935546875,-0.081127606332302,-0.1151244565844536,-0.1034654080867767,31.88017272949219,87.57463073730469,-16.5499267578125
55550,-0.13763427734375,0.56591796875,0.1862335205078125,-0.2955794632434845,-0.080970212817192,-0.115204356610775,31.86346435546875,87.58522033691406,-16.57273864746094
55551,-0.181427001953125,0.685028076171875,0.2206268310546875,-0.5028287768363953,-0.0517105981707572,-0.1685863584280014,31.84971618652344,87.72398376464844,-16.63856506347656
55552,-0.231719970703125,0.797515869140625,0.28143310546875,-0.6774439811706543,-0.030736606568098,-0.212872326374054,31.77365112304688,87.59588623046875,-16.45046997070312
55553,-0.287200927734375,0.8935546875,0.388092041015625,-0.8605389595031738,0.0319294370710849,-0.2552210986614227,31.65809631347656,87.52496337890625,-16.25692749023438
55554,-0.3349456787109375,0.972991943359375,0.4644317626953125,-1.041327118873596,0.1862678825855255,-0.2768736779689789,31.5098876953125,87.51199340820312,-15.95321655273438
55555,-0.3719329833984375,1.028579711914062,0.44921875,-1.182316422462463,0.27462038397789,-0.2997054755687714,31.28012084960938,87.57002258300781,-15.75706481933594
55556,-0.38909912109375,1.023788452148438,0.4155120849609375,-1.280263781547546,0.252394437789917,-0.2978916168212891,31.14747619628906,87.58670043945312,-15.50726318359375
55557,-0.383819580078125,1.002365112304688,0.40582275390625,-1.31648063659668,0.1947790682315826,-0.2628273665904999,30.96720886230469,87.29951477050781,-14.923828125
55558,-0.3557281494140625,0.98126220703125,0.4048309326171875,-1.327486515045166,0.1826249361038208,-0.2274922728538513,30.79165649414062,87.12826538085938,-14.38372802734375
55559,-0.3220062255859375,0.973052978515625,0.371917724609375,-1.346298217773438,0.2402264475822449,-0.2159759700298309,30.57736206054688,86.78912353515625,-13.69172668457031
55560,-0.29461669921875,0.9726409912109376,0.290618896484375,-1.38992714881897,0.2719777226448059,-0.1959106475114822,30.373291015625,86.68354797363281,-13.3076171875
55561,-0.275360107421875,0.9765777587890624,0.1784210205078125,-1.420268297195435,0.2286441028118134,-0.1651338338851929,30.1689453125,86.55326843261719,-12.8575439453125
55562,-0.265869140625,0.9893035888671876,0.0548248291015625,-1.416956901550293,0.0986639931797981,-0.1415360867977142,30.05799865722656,86.51409912109375,-12.25627136230469
55563,-0.2578582763671875,1.028533935546875,-0.0342864990234375,-1.387416362762451,0.0288159362971782,-0.1644440740346909,29.87452697753906,86.31561279296875,-11.76296997070312
55564,-0.218292236328125,1.09979248046875,-0.109527587890625,-1.351400852203369,0.0206506829708814,-0.2441623359918594,29.62577819824219,86.26045227050781,-11.18110656738281
55565,-0.156036376953125,1.177047729492188,-0.168792724609375,-1.307452797889709,0.0756574794650077,-0.3081077635288239,29.42488098144531,86.17335510253906,-10.65690612792969
55566,-0.0929718017578125,1.289947509765625,-0.21820068359375,-1.231962323188782,0.1640989184379578,-0.3684592545032501,29.108154296875,85.940185546875,-10.01388549804688
55567,-0.036529541015625,1.39697265625,-0.2431793212890625,-1.148066639900208,0.2154838144779205,-0.4209003448486328,28.89808654785156,85.68232727050781,-9.320999145507812
55568,-0.0060577392578125,1.44183349609375,-0.2357025146484375,-1.072494626045227,0.2148718237876892,-0.4450650811195374,28.5985107421875,85.44929504394531,-8.995864868164062
55569,-0.0106048583984375,1.449005126953125,-0.219573974609375,-0.9940890669822692,0.178983598947525,-0.4044723808765411,28.3114013671875,85.239990234375,-8.488052368164062
55570,-0.056610107421875,1.401992797851562,-0.2728729248046875,-0.6556092500686646,0.156195193529129,-0.1543909013271332,27.76171875,84.77197265625,-7.523880004882812
55571,-0.056610107421875,1.401992797851562,-0.2728729248046875,-0.6556092500686646,0.156195193529129,-0.1543909013271332,27.76171875,84.77197265625,-7.523880004882812
55572,-0.092529296875,1.370864868164062,-0.3437042236328125,-0.3347228467464447,0.2204871028661728,0.0204661265015602,27.53994750976562,84.64588928222656,-7.104217529296875
55573,-0.0968170166015625,1.34686279296875,-0.429779052734375,0.0486743301153183,0.3552161455154419,0.1970214545726776,27.45396423339844,84.56031799316406,-6.808135986328125
55574,-0.070587158203125,1.35260009765625,-0.508026123046875,0.4040020704269409,0.4864729642868042,0.3902300596237183,27.3590087890625,84.48240661621094,-6.628341674804688
55575,-0.042022705078125,1.413345336914062,-0.5535736083984375,0.6510829329490662,0.6103664040565491,0.5562248826026917,27.25230407714844,84.47793579101562,-6.660842895507812
55576,-0.0162353515625,1.500518798828125,-0.58233642578125,0.7634078860282898,0.6568045020103455,0.6190219521522522,27.211181640625,84.64938354492188,-6.824050903320312
55577,-0.00421142578125,1.570236206054688,-0.548095703125,0.7750890851020813,0.6874364614486694,0.5966895222663879,27.40855407714844,84.96742248535156,-7.22216796875
55578,-0.017059326171875,1.595230102539062,-0.480224609375,0.7561007142066956,0.743594765663147,0.5155243277549744,27.63624572753906,85.17192077636719,-7.545028686523438
55579,-0.054290771484375,1.559524536132812,-0.4180755615234375,0.7827150225639343,0.8099653124809265,0.4600216746330261,27.75953674316406,85.32626342773438,-7.952072143554688
55580,-0.08306884765625,1.512313842773438,-0.372955322265625,0.8596705198287964,0.8696078658103943,0.4039070010185242,27.98567199707031,85.53742980957031,-8.402862548828125
55581,-0.109344482421875,1.443115234375,-0.3339996337890625,0.9047785997390748,0.854841411113739,0.3355380594730377,28.09719848632812,85.75979614257812,-8.845932006835938
55582,-0.145172119140625,1.334381103515625,-0.2950439453125,0.8889551758766174,0.7434874773025513,0.2557460069656372,28.36375427246094,86.06234741210938,-9.55194091796875
55583,-0.182159423828125,1.194381713867188,-0.25701904296875,0.8235559463500977,0.5119823217391968,0.190361425280571,28.455322265625,86.16023254394531,-10.19430541992188
55584,-0.217041015625,1.0731201171875,-0.2185821533203125,0.759271502494812,0.2387824803590775,0.1542484313249588,28.53158569335938,86.2572021484375,-10.89363098144531
55585,-0.2288360595703125,0.996185302734375,-0.1944427490234375,0.6977260708808899,-0.0610013008117675,0.1918914020061493,28.59136962890625,86.34066772460938,-11.39680480957031
55586,-0.2300567626953125,0.9544677734375,-0.1646728515625,0.6371921896934509,-0.330921471118927,0.2788731753826141,28.7318115234375,86.35621643066406,-11.94635009765625
55587,-0.229949951171875,0.931182861328125,-0.1074981689453125,0.5941962599754333,-0.5218104720115662,0.3807356357574463,28.88992309570312,86.44509887695312,-12.23300170898438
55588,-0.2098541259765625,0.944183349609375,-0.0269622802734375,0.5647379755973816,-0.5877202153205872,0.4790408909320831,29.06710815429688,86.39299011230469,-12.47512817382812
55589,-0.190521240234375,0.9736328125,0.04107666015625,0.5529992580413818,-0.5634002685546875,0.5503787398338318,29.26893615722656,86.47860717773438,-12.60563659667969
55590,-0.17388916015625,1.0177001953125,0.1162261962890625,0.5843406915664673,-0.4840343296527863,0.5737602114677429,29.49676513671875,86.58287048339844,-12.76080322265625
55591,-0.146728515625,1.051040649414062,0.1739044189453125,0.629425585269928,-0.3838296830654144,0.5657829642295837,29.8408203125,86.79388427734375,-12.83242797851562
55592,-0.12396240234375,1.0546875,0.1906585693359375,0.6295177340507507,-0.3353481590747833,0.5164937376976013,30.02351379394531,86.95487976074219,-13.09629821777344
55593,-0.0930328369140625,1.015853881835938,0.202392578125,0.5919669270515442,-0.3100452125072479,0.4678375124931335,30.33755493164062,87.12799072265625,-13.14703369140625
55594,-0.066986083984375,0.9369049072265624,0.2093505859375,0.5659584999084473,-0.2823776304721832,0.4092780649662018,30.6304931640625,87.42808532714844,-13.30227661132812
55595,-0.036285400390625,0.811798095703125,0.2086944580078125,0.5517297387123108,-0.2721556127071381,0.3297528624534607,31.00993347167969,87.44367980957031,-13.23330688476562
55596,-0.024688720703125,0.67230224609375,0.1990203857421875,0.5384195446968079,-0.2384296208620071,0.3007116317749023,31.3331298828125,87.54754638671875,-13.36915588378906
55597,-0.0512542724609375,0.5520782470703125,0.183624267578125,0.5178226232528687,-0.1488920152187347,0.3274409770965576,31.5517578125,87.6199951171875,-13.47669982910156
55598,-0.07574462890625,0.45843505859375,0.16375732421875,0.4709390103816986,-0.0574590303003788,0.3928860425949097,31.76948547363281,87.74745178222656,-13.64047241210938
55599,-0.105865478515625,0.4309539794921875,0.1821441650390625,0.3864885866641998,0.0306524503976106,0.4386508464813232,31.92564392089844,87.79359436035156,-13.78451538085938
55600,-0.143951416015625,0.4613800048828125,0.216796875,0.2701933979988098,0.1486997306346893,0.441128134727478,32.16294860839844,87.77256774902344,-14.17919921875
55601,-0.1761016845703125,0.5143890380859375,0.2154388427734375,0.1419187933206558,0.2300153523683548,0.4044276475906372,32.37281799316406,87.86640930175781,-14.13140869140625
55602,-0.1907196044921875,0.563568115234375,0.167022705078125,0.046983752399683,0.1966685801744461,0.3627989590167999,32.50050354003906,88.01901245117188,-14.2972412109375
55603,-0.1814422607421875,0.589599609375,0.1132659912109375,0.0142343295738101,0.1221325695514679,0.3166961967945099,32.57820129394531,88.23028564453125,-14.53262329101562
55604,-0.159698486328125,0.600921630859375,0.0571441650390625,0.0038962047547101,0.0744902119040489,0.26849564909935,32.69287109375,88.27589416503906,-14.73435974121094
55605,-0.171539306640625,0.70196533203125,0.017059326171875,-0.116159625351429,0.2232661098241806,0.1172291561961174,32.99761962890625,88.23176574707031,-14.75267028808594
55606,-0.171539306640625,0.70196533203125,0.017059326171875,-0.116159625351429,0.2232661098241806,0.1172291561961174,32.99761962890625,88.23176574707031,-14.75267028808594
55607,-0.185455322265625,0.7426910400390625,0.009613037109375,-0.2004105895757675,0.4014036059379578,0.019352126866579,32.99961853027344,88.07487487792969,-14.73435974121094
55608,-0.1902923583984375,0.7595977783203125,0.042724609375,-0.231906995177269,0.476620614528656,-0.0483488887548446,33.03187561035156,88.0921630859375,-14.88127136230469
55609,-0.181304931640625,0.8427276611328125,0.164215087890625,-0.3571600019931793,0.5768294930458069,-0.1931944936513901,32.88308715820312,88.15483093261719,-14.96430969238281
55610,-0.181304931640625,0.8427276611328125,0.164215087890625,-0.3571600019931793,0.5768294930458069,-0.1931944936513901,32.88308715820312,88.15483093261719,-14.96430969238281
55611,-0.183319091796875,0.8872222900390625,0.15008544921875,-0.4592445492744446,0.5226011276245117,-0.2789506614208221,32.77105712890625,88.08625793457031,-14.95115661621094
55612,-0.1813812255859375,0.90740966796875,0.1413116455078125,-0.5434219837188721,0.3778849840164185,-0.3542132079601288,32.70501708984375,88.15657043457031,-15.0245361328125
55613,-0.1917572021484375,0.9215240478515624,0.1643524169921875,-0.5850123167037964,0.2364948242902756,-0.3986019790172577,32.63505554199219,88.04731750488281,-14.81852722167969
55614,-0.213836669921875,0.9259490966796876,0.1954803466796875,-0.5871918797492981,0.1852928996086121,-0.4313527345657349,32.465576171875,87.90362548828125,-14.60029602050781
55615,-0.233978271484375,0.8997955322265625,0.200836181640625,-0.5734550356864929,0.2178114205598831,-0.4556428790092468,32.35882568359375,87.85716247558594,-14.41499328613281
55616,-0.2533721923828125,0.8568878173828125,0.195526123046875,-0.5905647277832031,0.2797618806362152,-0.465528815984726,32.09242248535156,87.7415771484375,-14.25901794433594
55617,-0.2689361572265625,0.80584716796875,0.1951904296875,-0.6479665040969849,0.3553623557090759,-0.4753516018390656,31.90409851074219,87.62776184082031,-14.0810546875
55618,-0.286651611328125,0.7733154296875,0.1882476806640625,-0.7457700371742249,0.3960887491703033,-0.5073686838150024,31.57389831542969,87.45811462402344,-13.95982360839844
55619,-0.30615234375,0.751861572265625,0.1578216552734375,-0.8414811491966248,0.3630295991897583,-0.5521348118782043,31.410400390625,87.40852355957031,-13.88475036621094
55620,-0.31756591796875,0.7490386962890625,0.1181488037109375,-0.9039804935455322,0.2453967034816742,-0.5837215185165405,31.20082092285156,87.29998779296875,-13.7183837890625
55621,-0.3182525634765625,0.769866943359375,0.072967529296875,-0.943690299987793,0.1283680945634842,-0.6028845310211182,31.01995849609375,87.15948486328125,-13.24882507324219
55622,-0.3033447265625,0.8231201171875,0.0092620849609375,-0.9713701605796814,0.0038892803713679,-0.6121712327003479,30.70054626464844,87.04252624511719,-12.83332824707031
55623,-0.277099609375,0.8920745849609375,-0.0653839111328125,-1.008269548416138,-0.1398207545280457,-0.6037743091583252,30.47494506835938,86.73982238769531,-12.386962890625
55624,-0.2389068603515625,0.9529571533203124,-0.10015869140625,-1.060334920883179,-0.2836737930774689,-0.5675275921821594,30.17742919921875,86.70246887207031,-12.08561706542969
55625,-0.187896728515625,1.024261474609375,-0.0809326171875,-1.118494391441345,-0.3009918034076691,-0.5226554870605469,29.81736755371094,86.52320861816406,-11.65501403808594
55626,-0.1333770751953125,1.106842041015625,-0.05718994140625,-1.196028590202332,-0.2030782848596573,-0.4953628778457642,29.49443054199219,86.35723876953125,-11.22492980957031
55627,-0.114959716796875,1.1915283203125,-0.047454833984375,-1.265184998512268,-0.1094473972916603,-0.5230682492256165,29.11555480957031,86.34341430664062,-10.80435180664062
55628,-0.1293182373046875,1.250457763671875,-0.0464935302734375,-1.30453085899353,-0.0854347422719001,-0.5236461758613586,28.92332458496094,86.32412719726562,-10.21150207519531
55629,-0.16009521484375,1.30511474609375,-0.06475830078125,-1.258412837982178,-0.1272178739309311,-0.4753223061561584,28.54812622070312,86.16343688964844,-9.583404541015623
55630,-0.20904541015625,1.399444580078125,-0.260498046875,-0.8083812594413757,-0.2675896286964417,-0.2956103384494781,28.14938354492188,85.65237426757812,-8.299560546875
55631,-0.20904541015625,1.399444580078125,-0.260498046875,-0.8083812594413757,-0.2675896286964417,-0.2956103384494781,28.14938354492188,85.65237426757812,-8.299560546875
55632,-0.193023681640625,1.440155029296875,-0.4192962646484375,-0.4346760809421539,-0.3722707629203796,-0.1919105798006058,27.89862060546875,85.44169616699219,-7.874710083007812
55633,-0.13104248046875,1.462661743164062,-0.5429229736328125,-0.0367745272815227,-0.4303010404109955,-0.0536943860352039,27.72306823730469,85.37190246582031,-7.32586669921875
55634,-0.0485687255859375,1.496231079101562,-0.61236572265625,0.2968843877315521,-0.367987334728241,0.0994797199964523,27.47248840332031,85.32771301269531,-7.009918212890625
55635,0.044464111328125,1.542739868164062,-0.6446685791015625,0.4893201589584351,-0.2528359889984131,0.2503483295440674,27.36178588867188,85.28848266601562,-6.71527099609375
55636,0.149017333984375,1.589447021484375,-0.6119384765625,0.5159070491790771,-0.1349495649337769,0.356471836566925,27.39299011230469,85.17123413085938,-6.478683471679688
55637,0.2975921630859375,1.600494384765625,-0.399566650390625,0.3452404737472534,-0.0726555585861206,0.5002292394638062,27.5838623046875,85.20277404785156,-6.519210815429688
55638,0.2975921630859375,1.600494384765625,-0.399566650390625,0.3452404737472534,-0.0726555585861206,0.5002292394638062,27.5838623046875,85.20277404785156,-6.519210815429688
55639,0.2999725341796875,1.566757202148438,-0.357574462890625,0.400107204914093,-0.1257486045360565,0.5633435249328613,27.78759765625,85.27458190917969,-6.717910766601562
55640,0.263946533203125,1.524032592773438,-0.330718994140625,0.565531849861145,-0.1503833830356598,0.5831809043884277,28.049560546875,85.50125122070312,-7.109161376953125
55641,0.1513671875,1.406768798828125,-0.194915771484375,0.8005422353744507,-0.1202587634325027,0.4418714046478271,28.93656921386719,86.21633911132812,-8.178314208984375
55642,0.1513671875,1.406768798828125,-0.194915771484375,0.8005422353744507,-0.1202587634325027,0.4418714046478271,28.93656921386719,86.21633911132812,-8.178314208984375
55643,0.07623291015625,1.352783203125,-0.117828369140625,0.8322594165802002,-0.1602021902799606,0.2900456786155701,28.93656921386719,86.21633911132812,-8.178314208984375
55644,0.01702880859375,1.335784912109375,-0.0711822509765625,0.8646200299263,-0.2670258283615112,0.1608197689056396,29.32637023925781,86.38829040527344,-8.4967041015625
55645,-0.03997802734375,1.37615966796875,-0.0092010498046875,0.9335596561431884,-0.3759110569953918,0.0683676078915596,29.51283264160156,86.70928955078125,-8.839141845703125
55646,-0.1069793701171875,1.426788330078125,0.0614471435546875,1.013961791992188,-0.3713903427124023,0.0272132456302642,29.79313659667969,86.87239074707031,-9.35675048828125
55647,-0.18896484375,1.435836791992188,0.1035919189453125,1.062913179397583,-0.3595954477787018,0.0650240033864975,30.0758056640625,87.25250244140625,-10.01206970214844
55648,-0.2511138916015625,1.418350219726562,0.1566925048828125,1.085585117340088,-0.381543904542923,0.1091067790985107,30.17138671875,87.38381958007812,-10.38685607910156
55649,-0.252685546875,1.364105224609375,0.178131103515625,1.081444978713989,-0.3843982815742493,0.121883824467659,30.39897155761719,87.5228271484375,-10.7642822265625
55650,-0.249969482421875,1.268890380859375,0.1633758544921875,1.091027617454529,-0.4225754737854004,0.1552276760339737,30.6278076171875,87.66804504394531,-11.04423522949219
55651,-0.2387847900390625,1.152084350585938,0.1322784423828125,1.144431948661804,-0.5221545100212097,0.2057968378067017,30.78118896484375,87.78392028808594,-11.40982055664062
55652,-0.2071075439453125,1.01605224609375,0.0947265625,1.17207396030426,-0.6589230298995972,0.2272203713655472,30.83720397949219,87.94459533691406,-11.58193969726562
55653,-0.1839447021484375,0.8835906982421875,0.06658935546875,1.173581004142761,-0.7874197363853455,0.2267473936080933,31.11538696289062,87.9652099609375,-11.72154235839844
55654,-0.1699981689453125,0.7678070068359375,0.0715179443359375,1.216767191886902,-0.9263752698898317,0.1941316574811935,31.28810119628906,87.96832275390625,-11.8563232421875
55655,-0.1676788330078125,0.675262451171875,0.14111328125,1.285679936408997,-0.9512526392936708,0.1457156538963318,31.60208129882812,88.06417846679688,-12.1746826171875
55656,-0.17034912109375,0.585906982421875,0.22467041015625,1.336243748664856,-0.7827408313751221,0.0974594429135322,31.79876708984375,88.08973693847656,-12.56637573242188
55657,-0.191558837890625,0.4817962646484375,0.261016845703125,1.362588286399841,-0.491637110710144,0.0435006059706211,31.99440002441406,88.184326171875,-12.80978393554688
55658,-0.224761962890625,0.2906646728515625,0.2083740234375,1.241977095603943,-0.0534584298729896,-0.0404209271073341,32.47831726074219,88.35450744628906,-13.64210510253906
55659,-0.224761962890625,0.2906646728515625,0.2083740234375,1.241977095603943,-0.0534584298729896,-0.0404209271073341,32.47831726074219,88.35450744628906,-13.64210510253906
55660,-0.2395782470703125,0.221832275390625,0.191070556640625,1.077771186828613,0.0318343639373779,-0.0812378674745559,32.63961791992188,88.36601257324219,-14.19856262207031
55661,-0.260955810546875,0.1717681884765625,0.17559814453125,0.8720116019248962,0.0611448474228382,-0.1150030195713043,32.75277709960938,88.24856567382812,-14.62702941894531
55662,-0.2801971435546875,0.1209716796875,0.129547119140625,0.6601930856704712,0.0274452064186334,-0.136027604341507,32.890380859375,88.19416809082031,-15.08502197265625
55663,-0.2942047119140625,0.1039886474609375,0.10498046875,0.4763401746749878,-0.1004064977169037,-0.1427970975637436,33.0157470703125,88.04400634765625,-15.38935852050781
55664,-0.2777252197265625,0.194976806640625,0.16363525390625,0.332082599401474,-0.2535015046596527,-0.1478570997714996,32.9949951171875,87.91958618164062,-15.72711181640625
55665,-0.2285308837890625,0.3757781982421875,0.2700653076171875,0.175793930888176,-0.258151113986969,-0.136638268828392,32.95237731933594,88.03581237792969,-16.01554870605469
55666,-0.2039337158203125,0.5148468017578125,0.312408447265625,-0.0161850955337286,-0.1789367198944092,-0.1524694263935089,32.9246826171875,88.05113220214844,-15.99917602539062
55667,-0.205322265625,0.6307525634765625,0.3280792236328125,-0.2242541462182999,-0.1155012920498848,-0.1842409521341324,32.89508056640625,88.04534912109375,-16.00204467773438
55668,-0.2373046875,0.72906494140625,0.3597412109375,-0.4340766072273254,-0.098364919424057,-0.221632793545723,32.81381225585938,88.1160888671875,-15.98216247558594
55669,-0.3578033447265625,0.99365234375,0.3939971923828125,-0.891683042049408,-0.2309541255235672,-0.2974971830844879,32.48162841796875,88.43659973144531,-15.72755432128906
55670,-0.3578033447265625,0.99365234375,0.3939971923828125,-0.891683042049408,-0.2309541255235672,-0.2974971830844879,32.48162841796875,88.43659973144531,-15.72755432128906
55671,-0.415008544921875,1.124771118164062,0.42718505859375,-1.124818801879883,-0.368239551782608,-0.311052143573761,32.36830139160156,88.39955139160156,-15.44667053222656
55672,-0.4207763671875,1.201797485351562,0.4621429443359375,-1.31184709072113,-0.4243483543395996,-0.2781005799770355,32.233642578125,88.40669250488281,-15.04754638671875
55673,-0.37091064453125,1.220016479492188,0.4687957763671875,-1.386789202690125,-0.270777702331543,-0.2312753051519394,31.93824768066406,88.27186584472656,-14.54600524902344
55674,-0.295379638671875,1.187789916992188,0.39178466796875,-1.325553059577942,0.0931536480784416,-0.1914751529693604,31.66981506347656,88.16412353515625,-14.06776428222656
55675,-0.248138427734375,1.115814208984375,0.27545166015625,-1.137482404708862,0.4284959435462952,-0.1652557998895645,31.47579956054688,88.07217407226562,-13.54893493652344
55676,-0.2470245361328125,0.9936370849609376,0.22528076171875,-0.9269494414329528,0.6550270915031433,-0.1831088364124298,31.22445678710938,87.89443969726562,-13.14971923828125
55677,-0.2433013916015625,0.865753173828125,0.2084808349609375,-0.8189404010772705,0.7079960703849792,-0.1933763921260834,31.10655212402344,87.74293518066406,-12.72987365722656
55678,-0.241546630859375,0.822235107421875,0.1712493896484375,-0.868375837802887,0.5963352918624878,-0.2345882654190063,30.97557067871094,87.60270690917969,-12.47357177734375
55679,-0.2219085693359375,0.81475830078125,0.075225830078125,-1.021739602088928,0.3166434466838837,-0.3012575805187225,30.94587707519531,87.46530151367188,-12.1282958984375
55680,-0.1882781982421875,0.8365631103515625,-0.0690460205078125,-1.228689789772034,-0.0449003614485263,-0.3305989503860474,30.74134826660156,87.44761657714844,-11.83827209472656
