time_idx,accelerometerAccelerationX(G),accelerometerAccelerationY(G),accelerometerAccelerationZ(G),gyroRotationX(rad/s),gyroRotationY(rad/s),gyroRotationZ(rad/s),magnetometerX(µT),magnetometerY(µT),magnetometerZ(µT)
310753,-0.198089599609375,0.890777587890625,-0.070648193359375,0.1840840876102448,0.5738534331321716,-0.1792927980422974,66.34355163574219,98.13482666015624,-27.77481079101562
310754,-0.1962127685546875,0.8042449951171875,-0.0428466796875,0.0821545273065567,0.4504228234291077,-0.1913004517555237,66.34860229492188,98.24154663085938,-27.92977905273438
310755,-0.21014404296875,0.76953125,-0.0366973876953125,0.0821545273065567,0.4504228234291077,-0.1913004517555237,66.42886352539062,98.35552978515624,-28.01136779785156
310756,-0.2233428955078125,0.7537689208984375,-0.038909912109375,0.0076235649175941,0.4162539541721344,-0.1898764669895172,66.36691284179688,98.23951721191406,-27.96351623535156
310757,-0.2311553955078125,0.759918212890625,-0.04205322265625,-0.0738158971071243,0.4148254096508026,-0.19288370013237,66.42599487304688,98.30223083496094,-27.98344421386719
310758,-0.2313232421875,0.78436279296875,-0.0409088134765625,-0.1328182369470596,0.5282648801803589,-0.2200609892606735,66.35234069824219,98.32853698730467,-27.98359680175781
310759,-0.223175048828125,0.82745361328125,-0.044952392578125,-0.1328182369470596,0.5282648801803589,-0.2200609892606735,66.32583618164062,98.37237548828124,-27.90383911132812
310760,-0.20220947265625,0.88262939453125,-0.0528564453125,-0.0900585204362869,0.5981952548027039,-0.2179429829120636,66.17778015136719,98.56002807617188,-27.71273803710938
310761,-0.1719207763671875,0.93798828125,-0.0520782470703125,-0.0378152877092361,0.6414417624473572,-0.2134624868631363,66.15463256835938,98.68701171875,-27.63162231445312
310762,-0.1454620361328125,0.98468017578125,-0.040618896484375,-0.014052702113986,0.6348126530647278,-0.2017256617546082,66.15457153320312,98.74240112304688,-27.53378295898438
310763,-0.1292724609375,1.008010864257812,-0.01556396484375,-0.0197404157370328,0.5832147002220154,-0.2143037766218185,65.97879028320312,98.77206420898438,-27.39303588867188
310764,-0.1236114501953125,1.010452270507812,0.02471923828125,-0.036635510623455,0.5317389965057373,-0.2216599583625793,65.97294616699219,98.92044067382812,-27.31367492675781
310765,-0.1236114501953125,1.010452270507812,0.02471923828125,-0.036635510623455,0.5317389965057373,-0.2216599583625793,65.97294616699219,98.92044067382812,-27.31367492675781
310766,-0.1282196044921875,1.006942749023438,0.059906005859375,-0.0541878715157508,0.4705611169338226,-0.2306289523839951,65.89408874511719,99.07073974609376,-27.16690063476562
310767,-0.137542724609375,1.006484985351562,0.0877685546875,-0.0806908532977104,0.3956495821475983,-0.2384743541479111,65.68807983398438,99.07638549804688,-27.02964782714844
310768,-0.1597137451171875,1.03082275390625,0.08941650390625,-0.1413097232580185,0.2633701264858246,-0.2567865252494812,65.45338439941406,99.12889099121094,-26.90544128417969
310769,-0.1739654541015625,1.045501708984375,0.0633697509765625,-0.1615955531597137,0.2104371339082718,-0.2578280866146088,65.39117431640625,99.09806823730467,-26.82070922851562
310770,-0.18603515625,1.059616088867188,0.034393310546875,-0.1576982885599136,0.1608935445547104,-0.2462625056505203,65.35643005371094,99.23098754882812,-26.81411743164062
310771,-0.2035064697265625,1.067794799804688,0.011993408203125,-0.1177391484379768,0.1706660091876984,-0.2181349992752075,65.15664672851562,99.35401916503906,-26.61692810058594
310772,-0.1881561279296875,1.060333251953125,-0.036712646484375,-0.0743232294917106,0.1206752881407738,-0.1714295446872711,65.09886169433594,99.35539245605467,-26.56503295898438
310773,-0.1680755615234375,1.06231689453125,-0.047515869140625,-0.0409780591726303,0.0946972146630287,-0.1220454797148705,65.00958251953125,99.5234832763672,-26.50003051757812
310774,-0.153533935546875,1.056777954101562,-0.061279296875,-0.0190085787326097,0.0830051377415657,-0.0777528509497642,64.90191650390625,99.53619384765624,-26.38265991210938
310775,-0.13067626953125,1.045013427734375,-0.0880889892578125,-0.0185236167162656,0.0409695357084274,-0.0388882756233215,64.83236694335938,99.6417236328125,-26.20210266113281
310776,-0.1130218505859375,1.030029296875,-0.0933074951171875,-0.0361252464354038,0.0153792221099138,-0.0140907848253846,64.8553466796875,99.69296264648438,-26.24404907226562
310777,-0.0900421142578125,1.018310546875,-0.10382080078125,-0.0546320863068103,-0.0018998990999534,-0.0059060924686491,64.79046630859375,99.6272430419922,-26.18182373046875
310778,-0.0641632080078125,1.012985229492188,-0.1029205322265625,-0.0842602849006652,0.0091386372223496,-0.0463816113770008,64.90615844726562,99.5796356201172,-26.25051879882812
310779,-0.0590972900390625,0.99786376953125,-0.0963592529296875,-0.0842602849006652,0.0091386372223496,-0.0463816113770008,64.81256103515625,99.58753967285156,-26.23722839355469
310780,-0.069183349609375,0.99188232421875,-0.093048095703125,-0.0879554226994514,0.0531231388449668,-0.0674959495663642,64.79046630859375,99.604248046875,-26.18475341796875
310781,-0.0703887939453125,0.985748291015625,-0.1317901611328125,-0.0873751193284988,0.0657257512211799,-0.0934684351086616,64.75430297851562,99.5928192138672,-26.0810546875
310782,-0.06689453125,0.9779052734375,-0.1580810546875,-0.0821159109473228,0.064349427819252,-0.1134440004825592,64.73838806152344,99.5293426513672,-26.01029968261719
310783,-0.094818115234375,0.961639404296875,-0.1472015380859375,-0.0643443688750267,0.0819452032446861,-0.1366806179285049,64.82223510742188,99.62281799316406,-26.02476501464844
310784,-0.1356658935546875,0.9275970458984376,-0.1144256591796875,-0.0123536055907607,0.1284501105546951,-0.1414572596549988,64.88206481933594,99.63328552246094,-25.85897827148438
310785,-0.1560211181640625,0.881439208984375,-0.092681884765625,0.0338445156812667,0.1704468429088593,-0.1380883604288101,64.78860473632812,99.69374084472656,-25.77333068847656
310786,-0.1624603271484375,0.832427978515625,-0.0981597900390625,0.0507638454437255,0.1847770363092422,-0.1270072162151337,64.75973510742188,99.78746032714844,-25.6654052734375
310787,-0.168243408203125,0.78546142578125,-0.1197509765625,0.0303192902356386,0.1582455635070801,-0.1216553300619125,64.76283264160156,99.738037109375,-25.72959899902344
310788,-0.1869049072265625,0.755401611328125,-0.11651611328125,-0.0021736719645559,0.1452000737190247,-0.1222755759954453,64.72218322753906,99.74734497070312,-25.91929626464844
310789,-0.2110595703125,0.71954345703125,-0.1165618896484375,-0.0261112283915281,0.1779428422451019,-0.1186566054821014,64.78944396972656,99.8226318359375,-25.9150390625
310790,-0.2327728271484375,0.6854095458984375,-0.1308746337890625,-0.0366749241948127,0.2027019709348679,-0.116080529987812,64.82093811035156,99.8096160888672,-25.84872436523438
310791,-0.2497406005859375,0.6805419921875,-0.133575439453125,-0.0505060516297817,0.2138337194919586,-0.1060803607106209,64.80880737304688,99.76564025878906,-25.76435852050781
310792,-0.254150390625,0.6897125244140625,-0.1219940185546875,-0.1226992905139923,0.2111417949199677,-0.0925251394510269,64.85336303710938,99.82493591308594,-25.67118835449219
310793,-0.254150390625,0.6897125244140625,-0.1219940185546875,-0.1226992905139923,0.2111417949199677,-0.0925251394510269,64.85336303710938,99.82493591308594,-25.67118835449219
310794,-0.24481201171875,0.698577880859375,-0.06219482421875,-0.1973812431097031,0.2029203623533249,-0.0752643942832946,64.86856079101562,100.0053100585938,-25.41677856445312
310795,-0.2359161376953125,0.722869873046875,-0.0335540771484375,-0.2821110486984253,0.2013645321130753,-0.0649252012372016,64.81953430175781,100.0317687988281,-25.34555053710938
310796,-0.2193756103515625,0.75201416015625,-0.0179290771484375,-0.3495332300662994,0.1978054940700531,-0.0637890994548797,64.84112548828125,100.0457611083984,-25.22731018066406
310797,-0.2093658447265625,0.788665771484375,0.006195068359375,-0.3874518573284149,0.1961444765329361,-0.05540706589818,64.820556640625,100.03515625,-25.11703491210938
310798,-0.1906585693359375,0.8286895751953125,-0.0302734375,-0.3835884034633636,0.1898873746395111,-0.0485760569572448,64.78372192382812,100.1128692626953,-24.99551391601562
310799,-0.179595947265625,0.8649444580078125,-0.0289459228515625,-0.4127319157123566,0.1467859745025635,-0.0388691015541553,64.74903869628906,100.2153930664062,-24.89874267578125
310800,-0.1797943115234375,0.9449462890625,0.0139007568359375,-0.4285577535629272,0.1774328351020813,-0.0408390425145626,64.67230224609375,100.2408752441406,-24.57182312011719
310801,-0.1777801513671875,1.003936767578125,0.0018463134765625,-0.4459532499313354,0.1422024220228195,-0.0642719268798828,64.68243408203125,100.39404296875,-24.32746887207031
310802,-0.178375244140625,1.061767578125,0.0383758544921875,-0.4804790019989014,0.0431847535073757,-0.0980144441127777,64.58401489257812,100.5224761962891,-23.97828674316406
310803,-0.1776123046875,1.121337890625,0.0954742431640625,-0.4804790019989014,0.0431847535073757,-0.0980144441127777,64.54902648925781,100.6236572265625,-23.86293029785156
310804,-0.1780242919921875,1.176223754882812,0.1471710205078125,-0.5073087215423584,0.004522846546024,-0.1125627607107162,64.349853515625,100.7268524169922,-23.7286376953125
310805,-0.176025390625,1.228851318359375,0.1871185302734375,-0.5457474589347839,-0.0495545044541358,-0.1187151968479156,64.33468627929688,100.8401947021484,-23.48316955566406
310806,-0.1770477294921875,1.281951904296875,0.2265167236328125,-0.5977259874343872,-0.1041298657655716,-0.1293441355228424,64.221923828125,100.8322906494141,-23.25888061523438
310807,-0.1770477294921875,1.281951904296875,0.2265167236328125,-0.5977259874343872,-0.1041298657655716,-0.1293441355228424,64.221923828125,100.8322906494141,-23.25888061523438
310808,-0.1670989990234375,1.346649169921875,0.214935302734375,-0.6506752371788025,-0.1621359139680862,-0.097603254020214,64.013427734375,100.9385528564453,-22.68046569824219
310809,-0.1670989990234375,1.346649169921875,0.214935302734375,-0.6506752371788025,-0.1621359139680862,-0.097603254020214,64.013427734375,100.9385528564453,-22.68046569824219
310810,-0.1522216796875,1.299041748046875,0.153839111328125,-0.3043716251850128,-0.0844973102211952,0.0439978167414665,63.89505004882812,100.9068145751953,-22.05845642089844
310811,-0.1471710205078125,1.24017333984375,0.128326416015625,-0.3043716251850128,-0.0844973102211952,0.0439978167414665,63.80963134765625,100.9136352539062,-21.81575012207031
310812,-0.148956298828125,1.17706298828125,0.0986175537109375,-0.1814805716276169,-0.0454154200851917,0.0603933036327362,63.8406982421875,100.879150390625,-21.56773376464844
310813,-0.148956298828125,1.17706298828125,0.0986175537109375,-0.1814805716276169,-0.0454154200851917,0.0603933036327362,63.8406982421875,100.879150390625,-21.56773376464844
310814,-0.12078857421875,1.089523315429688,0.016754150390625,-0.0925096943974494,-0.0635813698172569,0.0192133747041225,63.77230834960938,101.0706024169922,-21.21315002441406
310815,-0.095489501953125,1.0704345703125,-0.0154266357421875,-0.0849764123558998,-0.0910793095827102,-0.0091415662318468,63.86915588378906,101.0557098388672,-21.11871337890625
310816,-0.0756988525390625,1.0670166015625,-0.037567138671875,-0.0794066712260246,-0.102226234972477,-0.0318759083747863,63.878173828125,100.9598541259766,-21.04783630371094
310817,-0.065948486328125,1.07366943359375,-0.0534515380859375,-0.0544424690306186,-0.0582755580544471,-0.0348674356937408,63.90864562988281,100.9517211914062,-21.0101318359375
310818,-0.0644073486328125,1.08880615234375,-0.0633544921875,-0.0544424690306186,-0.0582755580544471,-0.0348674356937408,63.85813903808594,100.9521026611328,-20.99383544921875
310819,-0.0644073486328125,1.08880615234375,-0.0633544921875,-0.0544424690306186,-0.0582755580544471,-0.0348674356937408,63.85813903808594,100.9521026611328,-20.99383544921875
310820,-0.0870819091796875,1.107437133789062,-0.075286865234375,-0.0113562513142824,0.0479861684143543,0.0107991183176636,63.844482421875,100.9811248779297,-20.72502136230469
310821,-0.0870819091796875,1.107437133789062,-0.075286865234375,-0.0113562513142824,0.0479861684143543,0.0107991183176636,63.844482421875,100.9811248779297,-20.72502136230469
310822,-0.11248779296875,1.115951538085938,-0.07293701171875,0.0086776437237858,0.1022206470370293,0.0435682497918605,63.84457397460938,101.0497894287109,-20.61929321289062
310823,-0.1602630615234375,1.09600830078125,-0.0737457275390625,0.0597903616726398,0.2062887251377106,0.1059722378849983,63.83050537109375,100.9848937988281,-20.62435913085938
310824,-0.1661224365234375,1.072128295898438,-0.077392578125,0.0830528065562248,0.2424789518117905,0.1325753480195999,63.91825866699219,100.9693450927734,-20.51707458496094
310825,-0.1636199951171875,1.047271728515625,-0.0692596435546875,0.0830528065562248,0.2424789518117905,0.1325753480195999,63.94712829589844,100.8316650390625,-20.423583984375
310826,-0.149444580078125,1.023147583007812,-0.0609588623046875,0.1124298721551895,0.3067242503166199,0.1868034452199936,64.01997375488281,100.7375640869141,-20.40725708007812
310827,-0.1268157958984375,0.998321533203125,-0.0552978515625,0.1124298721551895,0.3067242503166199,0.1868034452199936,64.14515686035156,100.7758331298828,-20.41845703125
310828,-0.1027679443359375,0.9782867431640624,-0.0442352294921875,0.1210989952087402,0.3184815645217896,0.2076732963323593,64.25955200195312,100.6397247314453,-20.49014282226562
310829,-0.0842437744140625,0.964019775390625,-0.028839111328125,0.1259091943502426,0.314820259809494,0.2249002307653427,64.34825134277344,100.6323547363281,-20.73251342773438
310830,-0.0701141357421875,0.9513397216796876,-0.0104827880859375,0.1266652643680573,0.3025856912136078,0.2349651157855988,64.35540771484375,100.6932373046875,-20.79095458984375
310831,-0.0701141357421875,0.9513397216796876,-0.0104827880859375,0.1266652643680573,0.3025856912136078,0.2349651157855988,64.35540771484375,100.6932373046875,-20.79095458984375
310832,-0.0561981201171875,0.93603515625,0.0126953125,0.1066260486841202,0.2356775104999542,0.2103724181652069,64.69644165039062,100.5774993896484,-20.7164306640625
310833,-0.0561981201171875,0.93603515625,0.0126953125,0.1066260486841202,0.2356775104999542,0.2103724181652069,64.69644165039062,100.5774993896484,-20.7164306640625
310834,-0.0576934814453125,0.9317626953125,0.0307769775390625,0.0699857398867607,0.152109369635582,0.1583528816699982,64.91801452636719,100.4893035888672,-20.674560546875
310835,-0.065185546875,0.9274139404296876,0.052490234375,0.0605325847864151,0.1153425723314285,0.127671405673027,65.00578308105469,100.5195007324219,-20.93284606933594
310836,-0.0750579833984375,0.9217529296875,0.073760986328125,0.0604020915925502,0.0898015275597572,0.0948391631245613,65.00537109375,100.3800354003906,-20.89138793945312
310837,-0.090301513671875,0.9113922119140624,0.0901641845703125,0.064472995698452,0.058644138276577,0.0630287677049636,65.14912414550781,100.2666168212891,-20.98536682128906
310838,-0.1061553955078125,0.8957366943359375,0.108642578125,0.0688962414860725,0.0199998077005147,0.0317962802946567,65.2066650390625,100.3252105712891,-20.9227294921875
310839,-0.11737060546875,0.880615234375,0.1276092529296875,0.0696017146110534,0.000179230744834,0.0092038847506046,65.1494140625,100.2593231201172,-20.98387145996094
310840,-0.12591552734375,0.873046875,0.136749267578125,0.061168547719717,-0.009261941537261,-0.0087239826098084,65.19804382324219,100.2102203369141,-20.9306640625
310841,-0.1328125,0.8675079345703125,0.139404296875,0.0423700921237468,-0.0054296529851853,-0.0287975594401359,65.18373107910156,100.2433013916016,-21.02192687988281
310842,-0.1304931640625,0.8631134033203125,0.144073486328125,-0.0048325723037123,0.0074238278903067,-0.0264097694307565,65.13340759277344,100.324951171875,-21.21401977539062
310843,-0.1304931640625,0.8631134033203125,0.144073486328125,-0.0048325723037123,0.0074238278903067,-0.0264097694307565,65.13340759277344,100.324951171875,-21.21401977539062
310844,-0.1359710693359375,0.900421142578125,0.16363525390625,-0.1197125539183617,0.0618830733001232,0.007602259516716,65.14964294433594,100.3263702392578,-21.0533447265625
310845,-0.1359710693359375,0.900421142578125,0.16363525390625,-0.1197125539183617,0.0618830733001232,0.007602259516716,65.14964294433594,100.3263702392578,-21.0533447265625
310846,-0.1261444091796875,0.91741943359375,0.1480865478515625,-0.1741970926523209,0.0439592003822326,0.0171315819025039,65.244873046875,100.4740142822266,-21.05015563964844
310847,-0.113128662109375,0.9259490966796876,0.127685546875,-0.1759145706892014,0.020610736683011,0.0191052518784999,65.24836730957031,100.4872741699219,-20.85736083984375
310848,-0.10107421875,0.9344482421875,0.0999603271484375,-0.1615177839994431,0.0113972639665007,0.0158985387533903,65.25143432617188,100.4213562011719,-20.72357177734375
310849,-0.08782958984375,0.9374237060546876,0.067352294921875,-0.1422562152147293,0.0086595341563224,0.0004178499802947,65.29849243164062,100.4694519042969,-20.5997314453125
310850,-0.0763397216796875,0.94024658203125,0.0308837890625,-0.1158576235175133,0.0123349633067846,-0.0161976125091314,65.31340026855469,100.3971099853516,-20.62153625488281
310851,-0.0763397216796875,0.94024658203125,0.0308837890625,-0.1158576235175133,0.0123349633067846,-0.0161976125091314,65.31340026855469,100.3971099853516,-20.62153625488281
310852,-0.071258544921875,0.9535675048828124,-0.020477294921875,-0.0650181472301483,0.0092912362888455,-0.0674498826265335,65.33494567871094,100.4712066650391,-20.66415405273438
310853,-0.0691070556640625,0.9630126953125,-0.0343780517578125,-0.0598396323621273,0.0078384820371866,-0.0962098911404609,65.33013916015625,100.6037750244141,-20.6031494140625
310854,-0.0634918212890625,0.97943115234375,-0.04644775390625,-0.0673859640955925,-0.0113682355731725,-0.121730163693428,65.29214477539062,100.5306549072266,-20.59619140625
310855,-0.0634918212890625,0.97943115234375,-0.04644775390625,-0.0673859640955925,-0.0113682355731725,-0.121730163693428,65.29214477539062,100.5306549072266,-20.59619140625
310856,-0.055206298828125,1.024139404296875,-0.0587158203125,-0.0726648792624473,-0.0475443489849567,-0.1536287069320679,65.01896667480469,100.6274108886719,-20.55923461914062
310857,-0.0563507080078125,1.036209106445312,-0.05902099609375,-0.0608787983655929,-0.0603120774030685,-0.1619577407836914,64.91877746582031,100.7465667724609,-20.56222534179688
310858,-0.06939697265625,1.040054321289062,-0.0549468994140625,-0.0467539243400096,-0.0625704377889633,-0.1623162031173706,64.95053100585938,100.8048706054688,-20.63236999511719
310859,-0.06939697265625,1.040054321289062,-0.0549468994140625,-0.0467539243400096,-0.0625704377889633,-0.1623162031173706,64.95053100585938,100.8048706054688,-20.63236999511719
310860,-0.1139678955078125,1.027191162109375,-0.039093017578125,-0.0667060613632202,-0.0594159215688705,-0.1583108156919479,64.75607299804688,100.8401336669922,-20.68836975097656
310861,-0.13433837890625,1.023971557617188,-0.022125244140625,-0.1006302013993263,-0.07959895581007,-0.1489564627408981,64.6966552734375,100.8591461181641,-20.61997985839844
310862,-0.1494903564453125,1.02484130859375,-0.001251220703125,-0.1329157054424286,-0.1014035865664482,-0.1313505619764328,64.58085632324219,100.8301391601562,-20.75636291503906
310863,-0.1494903564453125,1.02484130859375,-0.001251220703125,-0.1329157054424286,-0.1014035865664482,-0.1313505619764328,64.58085632324219,100.8301391601562,-20.75636291503906
310864,-0.1555023193359375,1.043548583984375,0.033355712890625,-0.1597233563661575,-0.1292954087257385,-0.0887791365385055,64.50434875488281,100.8330993652344,-20.75949096679688
310865,-0.1555023193359375,1.043548583984375,0.033355712890625,-0.1597233563661575,-0.1292954087257385,-0.0887791365385055,64.50434875488281,100.8330993652344,-20.75949096679688
310866,-0.1518096923828125,1.052947998046875,0.065460205078125,-0.1572921574115753,-0.1220159232616425,-0.0426297523081302,64.33580017089844,100.99365234375,-20.52615356445312
310867,-0.1456146240234375,1.044998168945312,0.06817626953125,-0.1523056477308273,-0.1188771203160286,-0.0265570413321256,64.21737670898438,101.2160339355469,-20.61273193359375
310868,-0.137115478515625,1.027450561523438,0.0634765625,-0.150029718875885,-0.1216625198721886,-0.0114127108827233,64.22500610351562,101.0836334228516,-20.5594482421875
310869,-0.10467529296875,0.99554443359375,0.045257568359375,-0.1548441797494888,-0.1293305605649948,-0.0013118730857968,64.23048400878906,101.2080993652344,-20.48823547363281
310870,-0.10467529296875,0.99554443359375,0.045257568359375,-0.1548441797494888,-0.1293305605649948,-0.0013118730857968,64.23048400878906,101.2080993652344,-20.48823547363281
310871,-0.10467529296875,0.99554443359375,0.045257568359375,-0.1548441797494888,-0.1293305605649948,-0.0013118730857968,64.23048400878906,101.2080993652344,-20.48823547363281
310872,-0.0730743408203125,0.9788360595703124,0.037628173828125,-0.1867882609367371,-0.1494057327508926,-0.0035886096302419,64.20625305175781,101.2977294921875,-20.31056213378906
310873,-0.0730743408203125,0.9788360595703124,0.037628173828125,-0.1867882609367371,-0.1494057327508926,-0.0035886096302419,64.20625305175781,101.2977294921875,-20.31056213378906
310874,-0.0598297119140625,0.97747802734375,0.040191650390625,-0.196747675538063,-0.1599494516849518,-0.0078347539529204,64.20091247558594,101.244873046875,-20.17485046386719
310875,-0.0467529296875,0.9809722900390624,0.03668212890625,-0.2248411029577255,-0.1817426383495331,-0.0139933135360479,64.25486755371094,101.3645782470703,-20.16255187988281
310876,-0.0428619384765625,0.9852294921875,0.0396575927734375,-0.2391851544380188,-0.1937372386455536,-0.0136162098497152,64.23347473144531,101.3568267822266,-20.06488037109375
310877,-0.0426177978515625,0.9898834228515624,0.043792724609375,-0.2486675977706909,-0.2046151906251907,-0.0203167237341404,64.14071655273438,101.3415374755859,-20.08499145507812
310878,-0.0486907958984375,0.9895477294921876,0.0550079345703125,-0.2625029981136322,-0.2081175148487091,-0.0327864438295364,64.175048828125,101.3072357177734,-20.07730102539062
310879,-0.058685302734375,0.9835662841796876,0.0659942626953125,-0.2694232165813446,-0.203754186630249,-0.0454383231699466,64.22618103027344,101.4239654541016,-19.93525695800781
310880,-0.0693511962890625,0.980224609375,0.0714874267578125,-0.2781786322593689,-0.1998534649610519,-0.0570033639669418,64.25834655761719,101.4906768798828,-19.91748046875
310881,-0.0693511962890625,0.980224609375,0.0714874267578125,-0.2781786322593689,-0.1998534649610519,-0.0570033639669418,64.25834655761719,101.4906768798828,-19.91748046875
310882,-0.09112548828125,0.9794464111328124,0.07965087890625,-0.2708293795585632,-0.1683259010314941,-0.1058484017848969,64.2430419921875,101.6358337402344,-19.79124450683594
310883,-0.1034088134765625,0.979644775390625,0.081634521484375,-0.2708293795585632,-0.1683259010314941,-0.1058484017848969,64.23452758789062,101.5170440673828,-19.68792724609375
310884,-0.111480712890625,0.97039794921875,0.092620849609375,-0.2672032117843628,-0.1463193893432617,-0.1214222982525826,64.33430480957031,101.5542755126953,-19.51515197753906
310885,-0.11407470703125,0.9669342041015624,0.0932159423828125,-0.2636763751506805,-0.1270793825387955,-0.1300876885652542,64.28213500976562,101.5254516601562,-19.31466674804688
310886,-0.11517333984375,0.9701690673828124,0.0860748291015625,-0.2669312953948975,-0.1402164995670319,-0.1619212627410889,64.25265502929688,101.6591949462891,-19.319091796875
310887,-0.11517333984375,0.9701690673828124,0.0860748291015625,-0.2669312953948975,-0.1402164995670319,-0.1619212627410889,64.25265502929688,101.6591949462891,-19.319091796875
310888,-0.097900390625,0.956298828125,0.08270263671875,-0.2935935258865356,-0.1641886681318283,-0.1684523969888687,64.1856689453125,101.5620269775391,-19.20294189453125
310889,-0.0914154052734375,0.9579010009765624,0.083587646484375,-0.3144420981407166,-0.171047642827034,-0.17586849629879,64.15505981445312,101.6264801025391,-19.11978149414062
310890,-0.088592529296875,0.9608612060546876,0.0787811279296875,-0.3245381414890289,-0.1908429265022278,-0.1844651848077774,63.96435546875,101.71240234375,-18.84771728515625
310891,-0.088592529296875,0.9608612060546876,0.0787811279296875,-0.3245381414890289,-0.1908429265022278,-0.1844651848077774,63.96435546875,101.71240234375,-18.84771728515625
310892,-0.1055755615234375,0.975372314453125,0.08819580078125,-0.3661047518253326,-0.239540159702301,-0.2117431461811066,63.87408447265625,101.6980438232422,-18.59686279296875
310893,-0.1055755615234375,0.975372314453125,0.08819580078125,-0.3661047518253326,-0.239540159702301,-0.2117431461811066,63.87408447265625,101.6980438232422,-18.59686279296875
310894,-0.12396240234375,0.996917724609375,0.11285400390625,-0.3914841413497925,-0.2797118127346039,-0.2517834901809692,63.77766418457031,101.8289337158203,-18.44139099121094
310895,-0.1317901611328125,1.006240844726562,0.1252899169921875,-0.401936262845993,-0.2842516899108887,-0.2687377333641052,63.61190795898438,101.8432006835938,-18.23603820800781
310896,-0.138336181640625,1.012054443359375,0.13739013671875,-0.4049805104732513,-0.2811568379402161,-0.2831920385360718,63.4449462890625,102.0155487060547,-18.08735656738281
310897,-0.1485595703125,1.005538940429688,0.153594970703125,-0.3881048560142517,-0.2720373868942261,-0.2835283875465393,63.37606811523438,102.0651397705078,-17.96080017089844
310898,-0.1558837890625,1.003677368164062,0.165435791015625,-0.3451901376247406,-0.257695734500885,-0.2747378349304199,63.29475402832031,102.2386169433594,-17.80221557617188
310899,-0.1558837890625,1.003677368164062,0.165435791015625,-0.3451901376247406,-0.257695734500885,-0.2747378349304199,63.29475402832031,102.2386169433594,-17.80221557617188
310900,-0.153656005859375,1.0108642578125,0.1873321533203125,-0.2820495367050171,-0.2749553918838501,-0.2789884805679321,62.98542785644531,102.29736328125,-17.49781799316406
310901,-0.153656005859375,1.0108642578125,0.1873321533203125,-0.2820495367050171,-0.2749553918838501,-0.2789884805679321,62.98542785644531,102.29736328125,-17.49781799316406
310902,-0.1733551025390625,1.01043701171875,0.202301025390625,-0.2749293148517609,-0.2523771226406097,-0.2941448092460632,62.82878112792969,102.3532257080078,-17.25311279296875
310903,-0.197052001953125,1.007003784179688,0.2235260009765625,-0.2749293148517609,-0.2523771226406097,-0.2941448092460632,62.82180786132812,102.3549346923828,-17.15727233886719
310904,-0.2073516845703125,1.002365112304688,0.2415771484375,-0.2275420725345612,-0.213054746389389,-0.3024645149707794,62.6629638671875,102.3514709472656,-17.00872802734375
310905,-0.2073516845703125,1.002365112304688,0.2415771484375,-0.2275420725345612,-0.213054746389389,-0.3024645149707794,62.6629638671875,102.3514709472656,-17.00872802734375
310906,-0.1989288330078125,0.9574127197265624,0.2600250244140625,-0.1376926153898239,-0.0675087347626686,-0.3054672479629517,62.37100219726562,102.4869689941406,-16.67420959472656
310907,-0.1900634765625,0.95477294921875,0.241973876953125,-0.1218715757131577,-0.0210618749260902,-0.3010546565055847,62.21377563476562,102.3987884521484,-16.52908325195312
310908,-0.1829986572265625,0.949462890625,0.2393035888671875,-0.1161582991480827,0.006728742737323,-0.2849664986133575,62.12864685058594,102.5293884277344,-16.53366088867188
310909,-0.176513671875,0.9455413818359376,0.2335662841796875,-0.1328797489404678,0.0786308944225311,-0.2457213550806046,61.85430908203125,102.5652160644531,-16.48927307128906
310910,-0.176513671875,0.9455413818359376,0.2335662841796875,-0.1328797489404678,0.0786308944225311,-0.2457213550806046,61.85430908203125,102.5652160644531,-16.48927307128906
310911,-0.1742401123046875,0.9216156005859376,0.199066162109375,-0.1428682059049606,0.1233259290456772,-0.2269194275140762,61.53970336914062,102.6966400146484,-16.42558288574219
310912,-0.185760498046875,0.9123687744140624,0.1900482177734375,-0.1317361891269684,0.1446549147367477,-0.2086338996887207,61.38421630859375,102.6275329589844,-16.32560729980469
310913,-0.201263427734375,0.9095611572265624,0.19818115234375,-0.1271273195743561,0.1565853506326675,-0.194323405623436,61.28150939941406,102.7209014892578,-16.22872924804688
310914,-0.2133636474609375,0.9102935791015624,0.2142486572265625,-0.1378026008605957,0.1792930513620377,-0.1925364285707474,61.16268920898438,102.7336273193359,-16.1373291015625
310915,-0.2133636474609375,0.9102935791015624,0.2142486572265625,-0.1378026008605957,0.1792930513620377,-0.1925364285707474,61.16268920898438,102.7336273193359,-16.1373291015625
310916,-0.22314453125,0.9073333740234376,0.19915771484375,-0.1851765066385269,0.261358380317688,-0.1398348659276962,60.94596862792969,102.7118988037109,-16.00262451171875
310917,-0.22314453125,0.9073333740234376,0.19915771484375,-0.1851765066385269,0.261358380317688,-0.1398348659276962,60.94596862792969,102.7118988037109,-16.00262451171875
310918,-0.2200775146484375,0.89996337890625,0.155487060546875,-0.1859003603458405,0.238145187497139,-0.0965960472822189,60.81149291992188,102.7598571777344,-15.88967895507812
310919,-0.1475982666015625,0.9001312255859375,0.1083831787109375,-0.1676217615604401,-0.0133264577016234,-0.0527857169508934,60.68043518066406,102.8132171630859,-15.76557922363281
310920,-0.0968780517578125,0.9232330322265624,0.136260986328125,-0.1989956498146057,-0.0725410431623458,-0.0764071568846702,60.62864685058594,102.7120361328125,-15.54167175292969
310921,-0.0968780517578125,0.9232330322265624,0.136260986328125,-0.1989956498146057,-0.0725410431623458,-0.0764071568846702,60.62864685058594,102.7120361328125,-15.54167175292969
310922,-0.07080078125,0.951202392578125,0.1497344970703125,-0.237492710351944,-0.056634783744812,-0.1231413707137108,60.68417358398438,102.6603393554688,-15.41891479492188
310923,-0.0609893798828125,0.97418212890625,0.1520538330078125,-0.2718173861503601,-0.0458766780793666,-0.1840936690568924,60.50520324707031,102.5900573730469,-15.24119567871094
310924,-0.110626220703125,0.9812469482421876,0.172943115234375,-0.2832466065883636,-0.0252108145505189,-0.2674919068813324,60.4320068359375,102.6415100097656,-15.04647827148438
310925,-0.1523590087890625,0.9789581298828124,0.1694183349609375,-0.2819249033927917,-0.0404595434665679,-0.263040691614151,60.35914611816406,102.7445678710938,-14.80551147460938
310926,-0.210296630859375,0.9730682373046876,0.145050048828125,-0.2582073211669922,-0.0627326220273971,-0.2564741373062134,60.08544921875,102.7635955810547,-14.196044921875
310927,-0.2082366943359375,0.967041015625,0.1378936767578125,-0.2441708594560623,-0.1134461313486099,-0.2194593846797943,59.91690063476562,102.7360229492188,-13.86976623535156
310928,-0.2082366943359375,0.967041015625,0.1378936767578125,-0.2441708594560623,-0.1134461313486099,-0.2194593846797943,59.91690063476562,102.7360229492188,-13.86976623535156
310929,-0.2017669677734375,0.963409423828125,0.1415557861328125,-0.2595466077327728,-0.1741510331630707,-0.1996952742338181,59.79716491699219,102.7929229736328,-13.93838500976562
310930,-0.1998291015625,0.9521026611328124,0.150909423828125,-0.2907154560089111,-0.2152494639158249,-0.182818815112114,59.60009765625,102.8649139404297,-14.01828002929688
310931,-0.2095184326171875,0.9698638916015624,0.1645965576171875,-0.3090614378452301,-0.2044799029827118,-0.1809878945350647,59.60073852539062,102.7997131347656,-13.742431640625
310932,-0.2095184326171875,0.9698638916015624,0.1645965576171875,-0.3090614378452301,-0.2044799029827118,-0.1809878945350647,59.60073852539062,102.7997131347656,-13.742431640625
310933,-0.223602294921875,0.983795166015625,0.1636810302734375,-0.3150186538696289,-0.1950070410966873,-0.1800200939178467,59.43612670898438,102.7374725341797,-13.39299011230469
310934,-0.2305450439453125,0.9932403564453124,0.1673583984375,-0.2972601652145386,-0.1920139193534851,-0.1837591826915741,59.42791748046875,102.7669219970703,-13.34822082519531
310935,-0.241943359375,0.964111328125,0.1967010498046875,-0.3002351820468903,-0.195177748799324,-0.1838686317205429,59.34236145019531,102.8250579833984,-13.16390991210938
310936,-0.241943359375,0.964111328125,0.1967010498046875,-0.3002351820468903,-0.195177748799324,-0.1838686317205429,59.34236145019531,102.8250579833984,-13.16390991210938
310937,-0.2462005615234375,0.9343109130859376,0.2258453369140625,-0.3080646097660065,-0.1996289491653442,-0.1741323918104172,59.26986694335938,102.7815704345703,-13.09437561035156
310938,-0.240478515625,0.943695068359375,0.2668609619140625,-0.2403731942176819,-0.1417922824621201,-0.1605185717344284,59.22860717773438,102.6709136962891,-12.95091247558594
310939,-0.2332763671875,0.9542236328125,0.2847900390625,-0.186811700463295,-0.1093515232205391,-0.1572125256061554,59.18284606933594,102.6935119628906,-12.77861022949219
310940,-0.2332763671875,0.9542236328125,0.2847900390625,-0.186811700463295,-0.1093515232205391,-0.1572125256061554,59.18284606933594,102.6935119628906,-12.77861022949219
310941,-0.22589111328125,0.9585418701171876,0.3057708740234375,-0.0836056843400001,-0.0079111866652965,-0.1747989803552628,59.08918762207031,102.6155548095703,-12.6552734375
310942,-0.2218017578125,0.962921142578125,0.3165130615234375,-0.0836056843400001,-0.0079111866652965,-0.1747989803552628,58.95310974121094,102.7545623779297,-12.66224670410156
310943,-0.2260284423828125,0.9659271240234376,0.3119659423828125,0.0120510701090097,0.0361183248460292,-0.1924469470977783,58.8564453125,102.7570037841797,-12.56289672851562
310944,-0.23358154296875,0.9573822021484376,0.3090667724609375,0.0677297785878181,0.044507548213005,-0.1891475468873978,58.74270629882812,102.7594451904297,-12.49331665039062
310945,-0.23358154296875,0.9573822021484376,0.3090667724609375,0.0677297785878181,0.044507548213005,-0.1891475468873978,58.74270629882812,102.7594451904297,-12.49331665039062
310946,-0.256103515625,0.9310455322265624,0.325836181640625,0.1823620796203613,0.0817191004753112,-0.1338075995445251,58.55001831054688,102.8453369140625,-12.75181579589844
310947,-0.2602386474609375,0.926910400390625,0.3338470458984375,0.2196894884109497,0.101187601685524,-0.0946535393595695,58.46046447753906,102.8901519775391,-12.73051452636719
310948,-0.2602386474609375,0.926910400390625,0.3338470458984375,0.2196894884109497,0.101187601685524,-0.0946535393595695,58.46046447753906,102.8901519775391,-12.73051452636719
310949,-0.2498016357421875,0.9265594482421876,0.33453369140625,0.2347613722085953,0.1494824290275574,-0.0571535676717758,58.40597534179688,102.8149108886719,-12.7034912109375
310950,-0.218292236328125,0.9039306640625,0.2667999267578125,0.1611798405647278,0.304064005613327,-0.0083876261487603,58.02993774414062,103.0400543212891,-12.9605712890625
310951,-0.2000579833984375,0.873779296875,0.18646240234375,0.0963960438966751,0.2358535379171371,-0.0191185679286718,58.04283142089844,103.0218811035156,-13.09561157226562
310952,-0.2000579833984375,0.873779296875,0.18646240234375,0.0963960438966751,0.2358535379171371,-0.0191185679286718,58.04283142089844,103.0218811035156,-13.09561157226562
310953,-0.194793701171875,0.8584442138671875,0.153778076171875,0.0079652480781078,0.0595605336129665,-0.0500511825084686,58.03878784179688,103.0091400146484,-13.04705810546875
310954,-0.1588592529296875,0.9443206787109376,0.1276397705078125,-0.103440634906292,-0.1412671059370041,-0.067651480436325,57.97642517089844,103.0824737548828,-13.13076782226562
310955,-0.1429595947265625,0.980224609375,0.1305999755859375,-0.1407725661993027,-0.1798840165138245,-0.0816719606518745,57.900146484375,103.0383911132812,-13.07539367675781
310956,-0.1429595947265625,0.980224609375,0.1305999755859375,-0.1407725661993027,-0.1798840165138245,-0.0816719606518745,57.900146484375,103.0383911132812,-13.07539367675781
310957,-0.14691162109375,1.012100219726562,0.1293792724609375,-0.1656150668859482,-0.1530438810586929,-0.0909962207078933,57.87861633300781,103.0902862548828,-12.96067810058594
310958,-0.1921234130859375,1.02996826171875,0.100799560546875,-0.1291888803243637,-0.1479921340942383,-0.0982482731342315,57.73670959472656,102.9276428222656,-12.73342895507812
310959,-0.2100982666015625,1.019821166992188,0.1078643798828125,-0.1291888803243637,-0.1479921340942383,-0.0982482731342315,57.65713500976562,102.8450622558594,-12.64630126953125
310960,-0.2100982666015625,1.019821166992188,0.1078643798828125,-0.1291888803243637,-0.1479921340942383,-0.0982482731342315,57.65713500976562,102.8450622558594,-12.64630126953125
310961,-0.2254638671875,0.99481201171875,0.127349853515625,-0.1236516311764717,-0.1672105640172958,-0.0834767818450927,57.671142578125,102.9064788818359,-12.52052307128906
310962,-0.2178192138671875,0.9837799072265624,0.1296844482421875,-0.1236516311764717,-0.1672105640172958,-0.0834767818450927,57.66403198242188,102.9353179931641,-12.43815612792969
310963,-0.22113037109375,0.943115234375,0.1585845947265625,-0.188325434923172,-0.2105346024036407,-0.0932676270604133,57.6317138671875,102.9289245605469,-12.3677978515625
310964,-0.23211669921875,0.9502410888671876,0.174957275390625,-0.2245891690254211,-0.2160385549068451,-0.0974796861410141,57.74197387695312,102.9116058349609,-12.27703857421875
310965,-0.23211669921875,0.9502410888671876,0.174957275390625,-0.2245891690254211,-0.2160385549068451,-0.0974796861410141,57.74197387695312,102.9116058349609,-12.27703857421875
310966,-0.261016845703125,0.939178466796875,0.2130126953125,-0.2848386466503143,-0.1752756834030151,-0.0823974013328552,57.683349609375,102.9280700683594,-11.99894714355469
310967,-0.2614898681640625,0.9411163330078124,0.235015869140625,-0.2781234979629517,-0.1814108043909073,-0.086582027375698,57.73500061035156,102.8496398925781,-11.91554260253906
310968,-0.2645263671875,0.931884765625,0.272705078125,-0.2414203435182571,-0.1915438622236252,-0.079366460442543,57.68984985351562,102.8240509033203,-11.90411376953125
310969,-0.2645263671875,0.931884765625,0.272705078125,-0.2414203435182571,-0.1915438622236252,-0.079366460442543,57.68984985351562,102.8240509033203,-11.90411376953125
310970,-0.2508392333984375,0.94451904296875,0.3264007568359375,-0.1129752844572067,-0.1247848123311996,-0.0750654563307762,57.79795837402344,102.6126098632812,-11.58903503417969
310971,-0.2561492919921875,0.928497314453125,0.340179443359375,-0.0478918924927711,-0.0341901928186416,-0.0582420006394386,57.78720092773438,102.6422271728516,-11.33358764648438
310972,-0.2561492919921875,0.928497314453125,0.340179443359375,-0.0478918924927711,-0.0341901928186416,-0.0582420006394386,57.78720092773438,102.6422271728516,-11.33358764648438
310973,-0.2703094482421875,0.932952880859375,0.3214569091796875,0.029290510341525,0.0751828998327255,-0.0113882096484303,57.84413146972656,102.6665191650391,-11.3138427734375
310974,-0.2719573974609375,0.946624755859375,0.307586669921875,0.0490056276321411,0.0874094739556312,0.0079205073416233,57.703125,102.7934265136719,-11.31085205078125
310975,-0.254119873046875,0.934173583984375,0.31024169921875,0.0559950917959213,0.1135920733213425,0.0257442463189363,57.70458984375,102.7454528808594,-11.25975036621094
310976,-0.254119873046875,0.934173583984375,0.31024169921875,0.0559950917959213,0.1135920733213425,0.0257442463189363,57.70458984375,102.7454528808594,-11.25975036621094
310977,-0.21307373046875,0.9123687744140624,0.3026885986328125,0.0829891562461853,0.0956338495016098,0.0399958863854408,57.77351379394531,102.7142639160156,-11.32905578613281
310978,-0.21173095703125,0.907318115234375,0.3193206787109375,0.1206353381276131,0.0863543301820755,0.039341814815998,57.71656799316406,102.73193359375,-11.56585693359375
310979,-0.222320556640625,0.9102630615234376,0.3345947265625,0.1705930382013321,0.1051181629300117,0.0429796911776065,57.79676818847656,102.7463531494141,-11.59922790527344
310980,-0.222320556640625,0.9102630615234376,0.3345947265625,0.1705930382013321,0.1051181629300117,0.0429796911776065,57.79676818847656,102.7463531494141,-11.59922790527344
310981,-0.235107421875,0.9226226806640624,0.3326873779296875,0.218678817152977,0.1209389343857765,0.0429203025996685,57.78790283203125,102.7102966308594,-11.665283203125
310982,-0.2471466064453125,0.9319305419921876,0.3026885986328125,0.2947701215744019,0.1517146974802017,0.047406930476427,57.79891967773438,102.6345977783203,-11.97151184082031
310983,-0.2433929443359375,0.9355316162109376,0.2825927734375,0.3050629794597626,0.1669799387454987,0.0528000965714454,57.81968688964844,102.6669158935547,-11.95407104492188
310984,-0.2433929443359375,0.9355316162109376,0.2825927734375,0.3050629794597626,0.1669799387454987,0.0528000965714454,57.81968688964844,102.6669158935547,-11.95407104492188
310985,-0.21881103515625,0.9259033203125,0.2361602783203125,0.3015369474887848,0.1824012398719788,0.0654932558536529,57.75257873535156,102.734619140625,-12.19412231445312
310986,-0.204620361328125,0.925079345703125,0.2088165283203125,0.2931820750236511,0.1818606108427048,0.078227162361145,57.70164489746094,102.8975067138672,-12.34452819824219
310987,-0.1929168701171875,0.9175567626953124,0.1815185546875,0.263262540102005,0.1749049723148346,0.0879373103380203,57.71046447753906,102.8420867919922,-12.39207458496094
310988,-0.1929168701171875,0.9175567626953124,0.1815185546875,0.263262540102005,0.1749049723148346,0.0879373103380203,57.71046447753906,102.8420867919922,-12.39207458496094
310989,-0.17974853515625,0.917266845703125,0.1551971435546875,0.2106246203184128,0.155167743563652,0.0892574414610862,57.68203735351562,102.8715667724609,-12.47862243652344
310990,-0.16424560546875,0.9309539794921876,0.1249542236328125,0.0756249874830246,0.0297134201973676,0.0603150054812431,57.82957458496094,102.9092407226562,-12.76316833496094
310991,-0.1668701171875,0.939849853515625,0.1358489990234375,0.0159312952309846,-0.0347728952765464,0.0331355817615985,57.91815185546875,102.8751220703125,-12.66688537597656
310992,-0.1668701171875,0.939849853515625,0.1358489990234375,0.0159312952309846,-0.0347728952765464,0.0331355817615985,57.91815185546875,102.8751220703125,-12.66688537597656
310993,-0.1881561279296875,0.975982666015625,0.157135009765625,-0.0417415872216224,-0.056105613708496,-0.0158050619065761,57.91706848144531,102.8699188232422,-12.61282348632812
310994,-0.201141357421875,0.983612060546875,0.1569671630859375,-0.0417415872216224,-0.056105613708496,-0.0158050619065761,57.94053649902344,102.8588104248047,-12.585205078125
310995,-0.2122039794921875,0.9774627685546876,0.1536865234375,-0.0125807728618383,-0.0609855912625789,-0.0212131440639495,57.98133850097656,102.7759857177734,-12.3984375
310996,-0.2122039794921875,0.9774627685546876,0.1536865234375,-0.0125807728618383,-0.0609855912625789,-0.0212131440639495,57.98133850097656,102.7759857177734,-12.3984375
310997,-0.2195281982421875,0.9419708251953124,0.167510986328125,-0.0248496904969215,-0.1110631376504898,-0.0263522453606128,58.02082824707031,102.8980102539062,-12.39143371582031
310998,-0.22271728515625,0.9492950439453124,0.178375244140625,-0.0498711541295051,-0.1157196760177612,-0.0278856940567493,58.03254699707031,102.9175109863281,-12.50424194335938
310999,-0.2184906005859375,0.9528045654296876,0.1826934814453125,-0.0646620839834213,-0.1287174969911575,-0.0271658413112163,58.11180114746094,102.9613494873047,-12.4713134765625
311000,-0.2184906005859375,0.9528045654296876,0.1826934814453125,-0.0646620839834213,-0.1287174969911575,-0.0271658413112163,58.11180114746094,102.9613494873047,-12.4713134765625
311001,-0.219482421875,0.9610137939453124,0.217926025390625,-0.0741690322756767,-0.1327980011701584,-0.0330319851636886,58.02354431152344,102.9131622314453,-12.47431945800781
311002,-0.220458984375,0.964569091796875,0.2376708984375,-0.0600731894373893,-0.1203959211707115,-0.0391559228301048,58.02629089355469,102.8504180908203,-12.37734985351562
311003,-0.229766845703125,0.9668426513671876,0.2547454833984375,-0.0394166484475135,-0.0889373272657394,-0.0424427986145019,58.01882934570312,102.8438568115234,-12.28903198242188
311004,-0.229766845703125,0.9668426513671876,0.2547454833984375,-0.0394166484475135,-0.0889373272657394,-0.0424427986145019,58.01882934570312,102.8438568115234,-12.28903198242188
311005,-0.2427215576171875,0.9628143310546876,0.2640533447265625,-0.0063503077253699,-0.0611483082175254,-0.0369982309639453,58.06680297851562,102.8139801025391,-12.18228149414062
311006,-0.2565765380859375,0.9515533447265624,0.2652587890625,0.0543591119349002,-0.0113961985334754,-0.0308806840330362,58.00990295410156,102.8631591796875,-12.3140869140625
311007,-0.2575836181640625,0.9476470947265624,0.2511749267578125,0.0695079714059829,0.0083918869495391,-0.0241119936108589,58.13032531738281,102.8126373291016,-12.31533813476562
311008,-0.2556610107421875,0.94158935546875,0.233917236328125,0.0779997259378433,0.019815782085061,-0.0146340699866414,58.14888000488281,102.7319946289062,-12.3092041015625
311009,-0.2556610107421875,0.94158935546875,0.233917236328125,0.0779997259378433,0.019815782085061,-0.0146340699866414,58.14888000488281,102.7319946289062,-12.3092041015625
311010,-0.23626708984375,0.925018310546875,0.2120208740234375,0.0581890046596527,0.0362560078501701,-0.0044528055004775,58.1304931640625,102.9137878417969,-12.3131103515625
311011,-0.232177734375,0.9219818115234376,0.2007598876953125,0.036545492708683,0.0267967265099287,-0.0030226877424865,58.11642456054688,102.8996124267578,-12.45167541503906
311012,-0.2331695556640625,0.9247589111328124,0.1969451904296875,0.0157728381454944,0.0176604855805635,-0.0013507553376257,58.10044860839844,102.9515533447266,-12.47166442871094
311013,-0.2331695556640625,0.9247589111328124,0.1969451904296875,0.0157728381454944,0.0176604855805635,-0.0013507553376257,58.10044860839844,102.9515533447266,-12.47166442871094
311014,-0.2340240478515625,0.9475555419921876,0.2022247314453125,-0.0080784326419234,0.0036778254434466,-0.0171390399336814,58.06611633300781,102.9462280273438,-12.38438415527344
311015,-0.22979736328125,0.96258544921875,0.2118682861328125,-0.0163752455264329,0.0026903252582997,-0.0410411767661571,58.0662841796875,102.9268646240234,-12.40188598632812
311016,-0.22979736328125,0.96258544921875,0.2118682861328125,-0.0163752455264329,0.0026903252582997,-0.0410411767661571,58.0662841796875,102.9268646240234,-12.40188598632812
311017,-0.2318267822265625,0.9559783935546876,0.2327423095703125,-0.0165901612490415,0.0154711017385125,-0.0690547004342079,58.08937072753906,102.8797302246094,-12.357177734375
311018,-0.23394775390625,0.973602294921875,0.2563934326171875,0.0145664261654019,0.038944736123085,-0.1023207753896713,58.06800842285156,102.916748046875,-12.47830200195312
311019,-0.227294921875,0.972869873046875,0.2676849365234375,0.0503020510077476,0.0528741329908371,-0.1142120584845543,57.99748229980469,102.9808959960938,-12.50517272949219
311020,-0.227294921875,0.972869873046875,0.2676849365234375,0.0503020510077476,0.0528741329908371,-0.1142120584845543,57.99748229980469,102.9808959960938,-12.50517272949219
311021,-0.2151031494140625,0.962860107421875,0.2388458251953125,0.1591366529464722,0.082523375749588,-0.0990400314331054,57.78810119628906,103.0050201416016,-12.56527709960938
311022,-0.21533203125,0.94927978515625,0.2059173583984375,0.1591366529464722,0.082523375749588,-0.0990400314331054,57.78262329101562,102.9692077636719,-12.66273498535156
311023,-0.23065185546875,0.961395263671875,0.183929443359375,0.1763619780540466,0.0651430487632751,-0.0834131315350532,57.82859802246094,102.9604644775391,-12.45445251464844
311024,-0.23065185546875,0.961395263671875,0.183929443359375,0.1763619780540466,0.0651430487632751,-0.0834131315350532,57.82859802246094,102.9604644775391,-12.45445251464844
311025,-0.254638671875,0.9670562744140624,0.201202392578125,0.1623449623584747,0.0312790945172309,-0.0725650116801261,57.81672668457031,103.0906372070312,-12.45986938476562
311026,-0.27984619140625,0.9421844482421876,0.2427825927734375,0.0818155035376548,0.079374186694622,-0.0501686297357082,57.77937316894531,103.0034332275391,-12.33497619628906
311027,-0.2563018798828125,0.917266845703125,0.248748779296875,0.042139995843172,0.1455446779727936,-0.0415016375482082,57.68949890136719,103.0158538818359,-12.17845153808594
311028,-0.2563018798828125,0.917266845703125,0.248748779296875,0.042139995843172,0.1455446779727936,-0.0415016375482082,57.68949890136719,103.0158538818359,-12.17845153808594
311029,-0.24713134765625,0.93035888671875,0.1810150146484375,-0.0026596989482641,0.0987790375947952,0.0226898659020662,57.56643676757812,103.0021209716797,-12.89906311035156
311030,-0.24957275390625,0.9332733154296876,0.17529296875,-0.0026596989482641,0.0987790375947952,0.0226898659020662,57.597900390625,102.9322814941406,-13.04338073730469
311031,-0.2460784912109375,0.9289398193359376,0.17486572265625,0.0020575581584125,0.0506637096405029,0.0475877597928047,57.56541442871094,103.0226898193359,-12.95387268066406
311032,-0.2396240234375,0.915008544921875,0.168365478515625,-0.0066246129572391,-0.0023734092246741,0.0836040824651718,57.53244018554688,103.0432586669922,-12.91845703125
311033,-0.2396240234375,0.915008544921875,0.168365478515625,-0.0066246129572391,-0.0023734092246741,0.0836040824651718,57.53244018554688,103.0432586669922,-12.91845703125
311034,-0.2216339111328125,0.91986083984375,0.1362152099609375,-0.022756177932024,-0.0120398849248886,0.0930966511368751,57.58889770507812,102.9982604980469,-12.80723571777344
311035,-0.2140045166015625,0.930755615234375,0.1238250732421875,-0.0480354353785514,-0.0304561760276556,0.0875679329037666,57.59609985351562,103.0661163330078,-12.90438842773438
311036,-0.2140045166015625,0.930755615234375,0.1238250732421875,-0.0480354353785514,-0.0304561760276556,0.0875679329037666,57.59609985351562,103.0661163330078,-12.90438842773438
311037,-0.210968017578125,0.945556640625,0.152557373046875,-0.1234606876969337,-0.0576419904828071,0.0172405056655407,57.71360778808594,102.9590301513672,-12.78817749023438
311038,-0.2141571044921875,0.953338623046875,0.1873779296875,-0.1234606876969337,-0.0576419904828071,0.0172405056655407,57.69621276855469,102.9476776123047,-12.73068237304688
311039,-0.2163848876953125,0.96563720703125,0.2224578857421875,-0.0867972150444984,-0.019914586097002,0.0011446266435086,57.71907043457031,102.8951416015625,-12.637939453125
311040,-0.2163848876953125,0.96563720703125,0.2224578857421875,-0.0867972150444984,-0.019914586097002,0.0011446266435086,57.71907043457031,102.8951416015625,-12.637939453125
311041,-0.212249755859375,0.96966552734375,0.23309326171875,-0.0033835461363196,0.016306534409523,0.0006564692012034,57.75004577636719,102.9186859130859,-12.59986877441406
311042,-0.19915771484375,0.9372711181640624,0.2406005859375,0.1272386461496353,-0.0304375346750021,-0.0165675245225429,57.75201416015625,102.9146118164062,-12.54214477539062
311043,-0.19183349609375,0.9276885986328124,0.22784423828125,0.1322344690561295,-0.0168634019792079,-0.0298361927270889,57.86419677734375,102.9167327880859,-12.62593078613281
311044,-0.19183349609375,0.9276885986328124,0.22784423828125,0.1322344690561295,-0.0168634019792079,-0.0298361927270889,57.86419677734375,102.9167327880859,-12.62593078613281
311045,-0.20477294921875,0.9227294921875,0.19635009765625,0.1165359318256378,-0.0206035450100898,-0.0436018072068691,57.91876220703125,102.9973602294922,-12.64012145996094
311046,-0.2675018310546875,0.979522705078125,0.1772613525390625,0.0795888379216194,-0.0257050972431898,-0.0086076026782393,57.87852478027344,102.9311065673828,-12.74038696289062
311047,-0.2920074462890625,0.993194580078125,0.2245635986328125,0.053828876465559,-0.0349973998963832,-0.0014136058744043,57.85234069824219,102.9653778076172,-12.81527709960938
311048,-0.2920074462890625,0.993194580078125,0.2245635986328125,0.053828876465559,-0.0349973998963832,-0.0014136058744043,57.85234069824219,102.9653778076172,-12.81527709960938
311049,-0.3054962158203125,0.9771575927734376,0.2782745361328125,0.0449379123747348,-0.013831659220159,0.0057745319791138,57.83438110351562,102.9893035888672,-12.88265991210938
311050,-0.2920989990234375,0.9616546630859376,0.310089111328125,0.1550476402044296,0.0806429162621498,0.0381409935653209,57.85798645019531,102.9553985595703,-12.94212341308594
311051,-0.224761962890625,0.990386962890625,0.2619476318359375,0.249240979552269,0.0962160155177116,0.0385849438607692,57.83653259277344,102.9556732177734,-13.03257751464844
311052,-0.224761962890625,0.990386962890625,0.2619476318359375,0.249240979552269,0.0962160155177116,0.0385849438607692,57.83653259277344,102.9556732177734,-13.03257751464844
311053,-0.2163543701171875,0.9883270263671876,0.214752197265625,0.3064984083175659,0.0870611295104026,0.0247338414192199,57.84281921386719,102.9537658691406,-13.11251831054688
311054,-0.213714599609375,0.9658355712890624,0.1722564697265625,0.3112513720989227,0.0429008603096008,0.0161992106586694,57.94198608398438,102.9989166259766,-13.36375427246094
311055,-0.2177734375,0.912353515625,0.141510009765625,0.197363942861557,-0.0994086116552352,0.0212746616452932,58.0267333984375,102.9093170166016,-13.44979858398438
311056,-0.2177734375,0.912353515625,0.141510009765625,0.197363942861557,-0.0994086116552352,0.0212746616452932,58.0267333984375,102.9093170166016,-13.44979858398438
311057,-0.2248687744140625,0.8929443359375,0.123809814453125,0.1228404343128204,-0.0834727883338928,0.0406627394258976,57.93931579589844,102.9144134521484,-13.61148071289062
311058,-0.22760009765625,0.90087890625,0.09674072265625,0.1228404343128204,-0.0834727883338928,0.0406627394258976,57.97210693359375,102.9424133300781,-13.76449584960938
311059,-0.239349365234375,0.938751220703125,0.1098480224609375,0.0666024610400199,-0.0985241755843162,0.0180237423628568,57.99462890625,102.9152069091797,-13.80062866210938
311060,-0.239349365234375,0.938751220703125,0.1098480224609375,0.0666024610400199,-0.0985241755843162,0.0180237423628568,57.99462890625,102.9152069091797,-13.80062866210938
311061,-0.24462890625,0.94293212890625,0.153472900390625,0.0084475465118885,-0.0849377959966659,-0.0123211145401001,58.01742553710938,102.9393768310547,-13.81358337402344
311062,-0.2436065673828125,0.948699951171875,0.194488525390625,-0.0112222945317626,-0.0695306062698364,-0.0562845766544342,58.02560424804688,102.9545135498047,-13.88336181640625
311063,-0.2271270751953125,0.978851318359375,0.2722625732421875,0.0481374338269233,0.018075406551361,-0.0699721574783325,58.08369445800781,103.149169921875,-13.9376220703125
311064,-0.21990966796875,0.9817352294921876,0.2489471435546875,0.0481374338269233,0.018075406551361,-0.0699721574783325,58.06221008300781,102.9818115234375,-13.83773803710938
311065,-0.21990966796875,0.9817352294921876,0.2489471435546875,0.0481374338269233,0.018075406551361,-0.0699721574783325,58.06221008300781,102.9818115234375,-13.83773803710938
311066,-0.224761962890625,0.98846435546875,0.175872802734375,0.1132184341549873,-0.0283600017428398,-0.0556528754532337,58.00920104980469,102.8915252685547,-13.93391418457031
311067,-0.247100830078125,1.005157470703125,0.1999359130859375,0.1242332682013512,-0.0439956858754158,-0.0435919538140296,57.99842834472656,102.9847869873047,-14.08442687988281
311068,-0.2821502685546875,0.9564971923828124,0.2722320556640625,0.1211397424340248,0.0717570111155509,0.0294311251491308,57.97708129882812,102.9402313232422,-14.0845947265625
311069,-0.2821502685546875,0.9564971923828124,0.2722320556640625,0.1211397424340248,0.0717570111155509,0.0294311251491308,57.97708129882812,102.9402313232422,-14.0845947265625
311070,-0.2646026611328125,0.94195556640625,0.2486419677734375,0.1211397424340248,0.0717570111155509,0.0294311251491308,57.91201782226562,103.0228576660156,-13.96507263183594
311071,-0.23583984375,0.94915771484375,0.2057952880859375,0.14106684923172,0.0799797847867012,0.0410092175006866,57.92327880859375,103.2015228271484,-14.0281982421875
311072,-0.23583984375,0.94915771484375,0.2057952880859375,0.14106684923172,0.0799797847867012,0.0410092175006866,57.92327880859375,103.2015228271484,-14.0281982421875
311073,-0.2161407470703125,0.9509735107421876,0.1712493896484375,0.1462560147047043,0.0541780181229114,0.0423466563224792,57.8651123046875,103.1512908935547,-14.13421630859375
311074,-0.2068023681640625,0.9185028076171876,0.144561767578125,0.1167977228760719,-0.0930857360363006,0.0503672994673252,58.0535888671875,103.1554870605469,-14.31217956542969
311075,-0.21636962890625,0.9071502685546876,0.1477203369140625,0.0423570424318313,-0.1398039758205414,0.0489694066345691,58.03399658203125,103.1286773681641,-14.32566833496094
311076,-0.2211456298828125,0.916656494140625,0.1237945556640625,-0.0041145840659737,-0.1051972582936287,0.0562105402350425,58.02261352539062,102.9905853271484,-14.37232971191406
311077,-0.2211456298828125,0.916656494140625,0.1237945556640625,-0.0041145840659737,-0.1051972582936287,0.0562105402350425,58.02261352539062,102.9905853271484,-14.37232971191406
311078,-0.2205810546875,0.933074951171875,0.0816650390625,-0.0041145840659737,-0.1051972582936287,0.0562105402350425,58.01193237304688,103.0354766845703,-14.34616088867188
311079,-0.2364501953125,0.9756011962890624,0.0876312255859375,0.0327891036868095,-0.0409370474517345,0.0461584404110908,58.01576232910156,103.0067749023438,-14.48800659179688
311080,-0.2364501953125,0.9756011962890624,0.0876312255859375,0.0327891036868095,-0.0409370474517345,0.0461584404110908,58.01576232910156,103.0067749023438,-14.48800659179688
311081,-0.2413482666015625,0.9879608154296876,0.1014556884765625,0.0233050566166639,-0.0058837216347455,0.0378235466778278,58.08160400390625,103.1170501708984,-14.54791259765625
311082,-0.243804931640625,1.001495361328125,0.1246185302734375,0.0217023659497499,-0.0217449758201837,0.0002729740226641,58.04640197753906,103.0966796875,-14.5157470703125
311083,-0.219757080078125,1.017120361328125,0.204681396484375,0.0722885802388191,0.0199870243668556,-0.0136774629354476,57.99981689453125,103.0433654785156,-14.38116455078125
311084,-0.219757080078125,1.017120361328125,0.204681396484375,0.0722885802388191,0.0199870243668556,-0.0136774629354476,57.99981689453125,103.0433654785156,-14.38116455078125
311085,-0.21441650390625,1.009857177734375,0.2056427001953125,0.1456765085458755,0.0744492039084434,-0.0258020367473363,58.01185607910156,103.0552825927734,-14.46734619140625
311086,-0.20880126953125,0.99053955078125,0.1639556884765625,0.1824177503585815,0.0789344981312751,-0.0305754859000444,57.99571228027344,103.2302093505859,-14.57818603515625
311087,-0.201141357421875,0.98138427734375,0.0897369384765625,0.1599649041891098,-0.0323773808777332,-0.0030061763245612,57.96253967285156,103.0832824707031,-14.70913696289062
311088,-0.201141357421875,0.98138427734375,0.0897369384765625,0.1599649041891098,-0.0323773808777332,-0.0030061763245612,57.96253967285156,103.0832824707031,-14.70913696289062
311089,-0.2080535888671875,0.9712371826171876,0.0835113525390625,0.1338214427232742,-0.0839178040623664,0.0241508763283491,57.95635986328125,103.1375427246094,-14.73948669433594
311090,-0.229949951171875,0.9783782958984376,0.110992431640625,0.0904388204216957,-0.106856144964695,0.0402600727975368,57.95645141601562,103.2757110595703,-14.97319030761719
311091,-0.2616119384765625,0.985626220703125,0.16619873046875,0.0934729576110839,-0.0313334204256534,0.0593578666448593,57.99481201171875,103.1385498046875,-15.09663391113281
311092,-0.2616119384765625,0.985626220703125,0.16619873046875,0.0934729576110839,-0.0313334204256534,0.0593578666448593,57.99481201171875,103.1385498046875,-15.09663391113281
311093,-0.249237060546875,0.979461669921875,0.1613616943359375,0.1351231932640076,0.0019275959348306,0.0764644145965576,58.1207275390625,102.9886627197266,-15.16787719726562
311094,-0.199554443359375,0.9618072509765624,0.1159820556640625,0.2297847270965576,0.0121671836823225,0.0850999802350997,58.24644470214844,103.0567169189453,-15.20072937011719
311095,-0.1864471435546875,0.9427947998046876,0.09893798828125,0.2259750813245773,-0.0421562418341636,0.0821111127734184,58.22434997558594,103.0556640625,-15.14997863769531
311096,-0.1864471435546875,0.9427947998046876,0.09893798828125,0.2259750813245773,-0.0421562418341636,0.0821111127734184,58.22434997558594,103.0556640625,-15.14997863769531
311097,-0.1900177001953125,0.9284515380859376,0.0899658203125,0.2001559883356094,-0.1125095039606094,0.0910561382770538,58.16781616210938,103.1380920410156,-15.20278930664062
311098,-0.220062255859375,0.9128570556640624,0.070343017578125,0.1245973259210587,-0.194751113653183,0.1167641654610634,58.32989501953125,102.9327850341797,-15.39813232421875
311099,-0.227081298828125,0.9178314208984376,0.0715179443359375,0.0751959532499313,-0.1862180829048157,0.1205256134271622,58.27903747558594,102.92138671875,-15.42756652832031
311100,-0.227081298828125,0.9178314208984376,0.0715179443359375,0.0751959532499313,-0.1862180829048157,0.1205256134271622,58.27903747558594,102.92138671875,-15.42756652832031
311101,-0.241912841796875,0.9441986083984376,0.0753936767578125,0.0258004385977983,-0.1127438619732857,0.110551543533802,58.32659912109375,103.0146789550781,-15.51811218261719
311102,-0.25213623046875,0.9555816650390624,0.0852203369140625,0.01627803966403,-0.0622412711381912,0.1033061519265175,58.37704467773438,102.9824371337891,-15.52973937988281
311103,-0.260345458984375,0.9656982421875,0.0925445556640625,0.0223915912210941,-0.0106491819024086,0.105040930211544,58.51263427734375,102.8842315673828,-15.51788330078125
311104,-0.260345458984375,0.9656982421875,0.0925445556640625,0.0223915912210941,-0.0106491819024086,0.105040930211544,58.51263427734375,102.8842315673828,-15.51788330078125
311105,-0.2573089599609375,0.9733734130859376,0.0936737060546875,0.0552952140569686,0.0454519018530845,0.1147833094000816,58.56875610351562,102.9318389892578,-15.44099426269531
311106,-0.2095794677734375,0.965728759765625,0.0926666259765625,0.2063094973564148,0.14039146900177,0.1174627169966698,58.62078857421875,103.0360717773438,-15.31672668457031
311107,-0.1805572509765625,0.952880859375,0.067535400390625,0.3329422771930695,0.1390886455774307,0.1093022525310516,58.64068603515625,103.0425262451172,-15.35057067871094
311108,-0.1805572509765625,0.952880859375,0.067535400390625,0.3329422771930695,0.1390886455774307,0.1093022525310516,58.64068603515625,103.0425262451172,-15.35057067871094
311109,-0.1643524169921875,0.930755615234375,0.0265960693359375,0.3329422771930695,0.1390886455774307,0.1093022525310516,58.75605773925781,102.9621887207031,-15.51522827148438
311110,-0.190277099609375,0.8927764892578125,-0.0163726806640625,0.359722763299942,0.031730230897665,0.1291137784719467,58.90562438964844,102.9973449707031,-15.77046203613281
311111,-0.232269287109375,0.89324951171875,0.0106201171875,0.3146090805530548,0.051684234291315,0.1368065774440765,58.88235473632812,102.8821105957031,-15.92857360839844
311112,-0.232269287109375,0.89324951171875,0.0106201171875,0.3146090805530548,0.051684234291315,0.1368065774440765,58.88235473632812,102.8821105957031,-15.92857360839844
311113,-0.26202392578125,0.892242431640625,0.0330963134765625,0.2768750190734863,0.1263374388217926,0.1440354734659195,59.04501342773438,102.8025665283203,-16.03727722167969
311114,-0.24993896484375,0.8672332763671875,0.01202392578125,0.3746002316474915,0.2551026046276093,0.1537035405635834,59.31010437011719,102.8413238525391,-16.54464721679688
311115,-0.2027740478515625,0.838531494140625,-0.0040740966796875,0.4727201461791992,0.2985592782497406,0.1644984036684036,59.34379577636719,102.7937316894531,-16.69789123535156
311116,-0.2027740478515625,0.838531494140625,-0.0040740966796875,0.4727201461791992,0.2985592782497406,0.1644984036684036,59.34379577636719,102.7937316894531,-16.69789123535156
311117,-0.1589813232421875,0.8126373291015625,-0.0304718017578125,0.5528773069381714,0.3122353851795197,0.1778616160154343,59.44486999511719,102.8226928710938,-16.85514831542969
311118,-0.12457275390625,0.7705078125,-0.0716094970703125,0.6386409401893616,0.1702532172203064,0.2069441229104996,59.74392700195312,102.7821807861328,-17.36894226074219
311119,-0.1266326904296875,0.751800537109375,-0.07208251953125,0.6156509518623352,0.0872060060501098,0.2151344120502472,59.88699340820312,102.5854644775391,-17.50495910644531
311120,-0.1266326904296875,0.751800537109375,-0.07208251953125,0.6156509518623352,0.0872060060501098,0.2151344120502472,59.88699340820312,102.5854644775391,-17.50495910644531
311121,-0.143218994140625,0.75628662109375,-0.062286376953125,0.5373334884643555,0.0332676768302917,0.2199320942163467,60.03251647949219,102.6024475097656,-17.79563903808594
311122,-0.172882080078125,0.790618896484375,-0.0443115234375,0.4084197282791138,0.0108390655368566,0.2023200839757919,60.202880859375,102.5529327392578,-17.9864501953125
311123,-0.271453857421875,0.963775634765625,-0.0087127685546875,0.1089291498064995,-0.0666421428322792,0.1624493598937988,60.42536926269531,102.6279296875,-18.33699035644531
311124,-0.2904052734375,1.032852172851562,0.0460357666015625,0.0016887104138731,-0.1282706260681152,0.1299686580896378,60.495361328125,102.5617828369141,-18.305419921875
311125,-0.2904052734375,1.032852172851562,0.0460357666015625,0.0016887104138731,-0.1282706260681152,0.1299686580896378,60.495361328125,102.5617828369141,-18.305419921875
311126,-0.3054351806640625,1.096939086914062,0.158111572265625,-0.0620276853442192,-0.0850555077195167,0.0934817492961883,60.64390563964844,102.5081329345703,-18.20648193359375
311127,-0.302978515625,1.123931884765625,0.19537353515625,-0.0501798130571842,-0.0664583891630172,0.07772808521986,60.70767211914062,102.4212799072266,-18.05084228515625
311128,-0.302978515625,1.123931884765625,0.19537353515625,-0.0501798130571842,-0.0664583891630172,0.07772808521986,60.70767211914062,102.4212799072266,-18.05084228515625
311129,-0.2869720458984375,1.138687133789062,0.2133636474609375,-0.0166588723659515,-0.0528064891695976,0.068307414650917,60.72805786132812,102.3740692138672,-18.17120361328125
311130,-0.2304229736328125,1.119171142578125,0.1595916748046875,0.12067661434412,-0.0910758450627327,0.0752896964550018,60.68148803710938,102.511474609375,-18.23371887207031
311131,-0.196014404296875,1.103652954101562,0.1196441650390625,0.2077121883630753,-0.0919624119997024,0.0923464447259903,60.661865234375,102.4147796630859,-18.05657958984375
311132,-0.196014404296875,1.103652954101562,0.1196441650390625,0.2077121883630753,-0.0919624119997024,0.0923464447259903,60.661865234375,102.4147796630859,-18.05657958984375
311133,-0.1652069091796875,1.086669921875,0.0648040771484375,0.2718283236026764,-0.0960461050271987,0.109967514872551,60.67138671875,102.4310302734375,-18.07723999023438
311134,-0.1051025390625,1.054855346679688,-0.0258636474609375,0.3271818459033966,-0.1829072386026382,0.1494699120521545,60.6612548828125,102.1529846191406,-18.24906921386719
311135,-0.0769500732421875,1.056671142578125,-0.04791259765625,0.3335351049900055,-0.2240155190229416,0.1566202342510223,60.71786499023438,102.2099914550781,-18.25979614257812
311136,-0.0769500732421875,1.056671142578125,-0.04791259765625,0.3335351049900055,-0.2240155190229416,0.1566202342510223,60.71786499023438,102.2099914550781,-18.25979614257812
311137,-0.0559234619140625,1.059356689453125,-0.058563232421875,0.3322764933109283,-0.2715492248535156,0.1545245945453644,60.59916687011719,102.1170043945312,-18.65084838867188
311138,-0.053497314453125,1.067413330078125,-0.0522918701171875,0.3236017525196075,-0.2915604710578918,0.1516771465539932,60.59806823730469,102.0333862304688,-18.7061767578125
311139,-0.093719482421875,1.104415893554688,-0.0414886474609375,0.3254255056381226,-0.2633115351200104,0.1539038121700287,60.75862121582031,101.9274291992188,-18.98857116699219
311140,-0.093719482421875,1.104415893554688,-0.0414886474609375,0.3254255056381226,-0.2633115351200104,0.1539038121700287,60.75862121582031,101.9274291992188,-18.98857116699219
311141,-0.1218109130859375,1.114837646484375,-0.0531768798828125,0.383893609046936,-0.1354315876960754,0.1650336980819702,60.85289001464844,101.8017120361328,-19.28713989257812
311142,-0.1984405517578125,1.117584228515625,-0.077239990234375,0.3983010351657867,-0.0948058739304542,0.1644842773675919,61.01438903808594,101.7370758056641,-19.61978149414062
311143,-0.22259521484375,1.101165771484375,-0.0721588134765625,0.3772729933261871,-0.0653590336441993,0.1610056608915329,61.02825927734375,101.7077178955078,-19.8548583984375
311144,-0.22259521484375,1.101165771484375,-0.0721588134765625,0.3772729933261871,-0.0653590336441993,0.1610056608915329,61.02825927734375,101.7077178955078,-19.8548583984375
311145,-0.23223876953125,1.095535278320312,-0.0555419921875,0.3304005563259125,-0.0247476901859045,0.1574151962995529,61.05654907226562,101.6788635253906,-20.03533935546875
311146,-0.2431182861328125,1.127197265625,-0.0070648193359375,0.2176537662744522,0.0812463834881782,0.1518348008394241,61.11912536621094,101.6172180175781,-20.36172485351562
311147,-0.2464447021484375,1.131698608398438,0.0041046142578125,0.2081470787525177,0.1449121832847595,0.1592349261045456,61.18008422851562,101.6456604003906,-20.48738098144531
311148,-0.2464447021484375,1.131698608398438,0.0041046142578125,0.2081470787525177,0.1449121832847595,0.1592349261045456,61.18008422851562,101.6456604003906,-20.48738098144531
311149,-0.2000579833984375,1.109115600585938,-0.0084686279296875,0.2665456831455231,0.2309272289276123,0.1872609704732895,61.31459045410156,101.5736846923828,-20.66072082519531
311150,-0.16485595703125,1.085968017578125,-0.0033721923828125,0.2704160511493683,0.2508535385131836,0.1916786283254623,61.3458251953125,101.5109405517578,-20.8111572265625
311151,-0.1339263916015625,1.056488037109375,0.009307861328125,0.2570906579494476,0.2724288702011108,0.1841812878847122,61.47731018066406,101.4616088867188,-21.00823974609375
311152,-0.1339263916015625,1.056488037109375,0.009307861328125,0.2570906579494476,0.2724288702011108,0.1841812878847122,61.47731018066406,101.4616088867188,-21.00823974609375
311153,-0.1041412353515625,1.021652221679688,0.012969970703125,0.2470457404851913,0.2709822356700897,0.1744636744260788,61.49545288085938,101.3219757080078,-21.09217834472656
311154,-0.0507965087890625,0.9254913330078124,0.011871337890625,0.2399476170539856,0.1660558134317398,0.1628440469503403,61.75486755371094,101.2849273681641,-21.20603942871094
311155,-0.024627685546875,0.875335693359375,0.0126495361328125,0.2291495651006699,0.082402728497982,0.1599233597517014,61.81402587890625,101.1788787841797,-21.34141540527344
311156,-0.024627685546875,0.875335693359375,0.0126495361328125,0.2291495651006699,0.082402728497982,0.1599233597517014,61.81402587890625,101.1788787841797,-21.34141540527344
311157,0.0035552978515625,0.825439453125,0.01739501953125,0.2097729295492172,-0.0024146882351487,0.1692963540554047,61.94752502441406,101.1448669433594,-21.53378295898438
311158,0.0498046875,0.7352294921875,0.0256500244140625,0.184546947479248,-0.1791345924139023,0.1889965534210205,62.13442993164062,100.9367828369141,-21.76411437988281
311159,0.0614776611328125,0.7019500732421875,0.0307464599609375,0.1570194512605667,-0.2532879114151001,0.1962880194187164,62.19398498535156,100.8475799560547,-21.76463317871094
311160,0.0614776611328125,0.7019500732421875,0.0307464599609375,0.1570194512605667,-0.2532879114151001,0.1962880194187164,62.19398498535156,100.8475799560547,-21.76463317871094
311161,0.056488037109375,0.7300567626953125,-0.0028076171875,0.0673023387789726,-0.3633659482002258,0.1193114817142487,62.3692626953125,100.7090454101562,-22.0570068359375
311162,0.0396881103515625,0.78216552734375,-0.03704833984375,0.0149975912645459,-0.4287084639072418,0.0346959270536899,62.38864135742188,100.6662902832031,-22.03221130371094
311163,9.1552734375e-05,0.8153839111328125,-0.0481109619140625,-0.0270031224936246,-0.4339551627635956,-0.0091996239498257,62.4862060546875,100.7123870849609,-22.12733459472656
311164,9.1552734375e-05,0.8153839111328125,-0.0481109619140625,-0.0270031224936246,-0.4339551627635956,-0.0091996239498257,62.4862060546875,100.7123870849609,-22.12733459472656
311165,-0.0596923828125,0.8928070068359375,-0.0446624755859375,-0.1082074269652367,-0.2649752199649811,-0.000695351336617,62.36770629882812,100.7953948974609,-22.11907958984375
311166,-0.098052978515625,0.9325714111328124,-0.0203857421875,-0.1491021364927292,-0.1645178347826004,0.0028477180749177,62.30168151855469,100.7449493408203,-22.12933349609375
311167,-0.13934326171875,0.9635009765625,0.0154876708984375,-0.1712543070316315,-0.0979923456907272,-0.0124121950939297,62.36573791503906,100.7905120849609,-22.1212158203125
311168,-0.13934326171875,0.9635009765625,0.0154876708984375,-0.1712543070316315,-0.0979923456907272,-0.0124121950939297,62.36573791503906,100.7905120849609,-22.1212158203125
311169,-0.1672821044921875,0.97900390625,0.059112548828125,-0.1199072301387787,0.0616425909101963,-0.0713303759694099,62.27803039550781,100.7576751708984,-21.96699523925781
311170,-0.1715087890625,0.952178955078125,0.083038330078125,-0.0432958081364631,0.1288999319076538,-0.0721330493688583,62.30314636230469,100.7513885498047,-21.81814575195312
311171,-0.1338653564453125,0.913604736328125,0.077606201171875,0.0456913225352764,0.163839265704155,-0.0558033436536788,62.18705749511719,100.7832641601562,-21.76702880859375
311172,-0.1338653564453125,0.913604736328125,0.077606201171875,0.0456913225352764,0.163839265704155,-0.0558033436536788,62.18705749511719,100.7832641601562,-21.76702880859375
311173,-0.030426025390625,0.86474609375,0.046173095703125,0.1599387973546982,0.1620821058750153,0.0134963672608137,62.22157287597656,100.7377777099609,-21.64718627929688
311174,0.007354736328125,0.86376953125,0.0376434326171875,0.1736538112163544,0.1487729698419571,0.0655883327126503,62.20416259765625,100.5679626464844,-21.56961059570312
311175,0.0374908447265625,0.88104248046875,0.0336761474609375,0.1501151919364929,0.1374063342809677,0.1072271168231964,62.24868774414062,100.5901641845703,-21.76368713378906
311176,0.055511474609375,0.9087371826171876,0.0263519287109375,0.1133289560675621,0.1189253181219101,0.1397616267204285,62.20442199707031,100.5363922119141,-21.98342895507812
311177,0.0644073486328125,0.9383544921875,0.0194091796875,0.0798780545592308,0.0753493458032608,0.1557781398296356,62.26536560058594,100.5726165771484,-22.05850219726562
311178,0.069580078125,0.9612884521484376,0.023956298828125,0.0568840540945529,0.0200155191123485,0.1466008871793747,62.41314697265625,100.4585418701172,-21.8734130859375
311179,0.0688323974609375,0.990692138671875,0.0439453125,0.0367116741836071,-0.0297309979796409,0.1298847645521164,62.45199584960938,100.4326477050781,-21.90913391113281
311180,0.068389892578125,1.028778076171875,0.0659332275390625,-0.0241554044187068,-0.0129152657464146,0.0684722661972045,62.57421875,100.5007934570312,-21.96707153320312
311181,0.068389892578125,1.028778076171875,0.0659332275390625,-0.0241554044187068,-0.0129152657464146,0.0684722661972045,62.57421875,100.5007934570312,-21.96707153320312
311182,0.039581298828125,1.126495361328125,0.1065521240234375,-0.0604399070143699,0.0827643871307373,0.0319720469415187,62.72468566894531,100.5315704345703,-21.931640625
311183,0.008758544921875,1.18109130859375,0.10150146484375,-0.0971222892403602,0.1800834834575653,-0.0050219227559864,62.60122680664062,100.4317169189453,-21.861328125
311184,0.008758544921875,1.18109130859375,0.10150146484375,-0.0971222892403602,0.1800834834575653,-0.0050219227559864,62.60122680664062,100.4317169189453,-21.861328125
311185,-0.0284881591796875,1.2298583984375,0.102691650390625,-0.1268303841352463,0.2543984651565552,-0.0405921675264835,62.68321228027344,100.4896240234375,-21.85116577148438
311186,-0.069305419921875,1.2757568359375,0.1130828857421875,-0.1358553022146225,0.3057442009449005,-0.0763309895992279,62.64320373535156,100.5234069824219,-21.79664611816406
311187,-0.1280059814453125,1.355575561523438,0.140045166015625,-0.1190752610564232,0.3968916833400726,-0.1271568834781647,62.64305114746094,100.6537170410156,-21.37237548828125
311188,-0.1280059814453125,1.355575561523438,0.140045166015625,-0.1190752610564232,0.3968916833400726,-0.1271568834781647,62.64305114746094,100.6537170410156,-21.37237548828125
311189,-0.151763916015625,1.390090942382812,0.149993896484375,-0.0738878026604652,0.4364356398582458,-0.1399800032377243,62.64768981933594,100.6274108886719,-21.16311645507812
311190,-0.188995361328125,1.389022827148438,0.142120361328125,0.0362237840890884,0.4803698062896729,-0.1776600033044815,62.55593872070312,100.8930969238281,-21.17192077636719
311191,-0.2118682861328125,1.351028442382812,0.1363067626953125,0.0752510800957679,0.4999775886535645,-0.1751736849546432,62.42886352539062,100.8793334960938,-21.09686279296875
311192,-0.2118682861328125,1.351028442382812,0.1363067626953125,0.0752510800957679,0.4999775886535645,-0.1751736849546432,62.42886352539062,100.8793334960938,-21.09686279296875
311193,-0.246368408203125,1.325973510742188,0.1231689453125,0.1161833330988884,0.506441593170166,-0.1824797987937927,62.4033203125,100.9038391113281,-21.08212280273438
311194,-0.3087615966796875,1.223556518554688,0.0620269775390625,0.1368625164031982,0.4801277220249176,-0.2035430073738098,62.33082580566406,100.889404296875,-20.95492553710938
311195,-0.327880859375,1.172470092773438,0.037872314453125,0.1106580719351768,0.4305519163608551,-0.1825474351644516,62.25477600097656,100.9252014160156,-20.95799255371094
311196,-0.327880859375,1.172470092773438,0.037872314453125,0.1106580719351768,0.4305519163608551,-0.1825474351644516,62.25477600097656,100.9252014160156,-20.95799255371094
311197,-0.315277099609375,1.1390380859375,0.03759765625,0.0769275352358818,0.3767504692077637,-0.1560945212841034,62.23902893066406,100.91796875,-20.91764831542969
311198,-0.256439208984375,1.079605102539062,0.056060791015625,0.0046344329603016,0.2729452550411224,-0.1061810329556465,62.17095947265625,100.9003753662109,-20.91914367675781
311199,-0.2316131591796875,1.044113159179688,0.0662384033203125,-0.0255080237984657,0.226748988032341,-0.098188616335392,62.16221618652344,100.9813842773438,-20.88955688476562
311200,-0.2316131591796875,1.044113159179688,0.0662384033203125,-0.0255080237984657,0.226748988032341,-0.098188616335392,62.16221618652344,100.9813842773438,-20.88955688476562
311201,-0.2153472900390625,1.0045166015625,0.0718231201171875,-0.0373628176748752,0.1843024641275406,-0.0889423862099647,62.16241455078125,101.0275115966797,-20.91238403320312
311202,-0.20306396484375,0.9403533935546876,0.0572967529296875,-0.0204935576766729,0.1395317912101746,-0.0753538757562637,62.282470703125,101.1756896972656,-20.86140441894531
311203,-0.200927734375,0.915008544921875,0.0426025390625,-0.0009917612187564,0.1154107451438904,-0.0730063021183013,62.25453186035156,101.2845458984375,-20.7747802734375
311204,-0.200927734375,0.915008544921875,0.0426025390625,-0.0009917612187564,0.1154107451438904,-0.0730063021183013,62.25453186035156,101.2845458984375,-20.7747802734375
311205,-0.19537353515625,0.893768310546875,0.02789306640625,0.0142535045742988,0.0813254788517952,-0.0613890588283538,62.27960205078125,101.2208404541016,-20.77658081054688
311206,-0.1833038330078125,0.84368896484375,0.002716064453125,0.0143701508641243,0.074766919016838,-0.0523731932044029,62.18647766113281,101.3197631835938,-20.99615478515625
311207,-0.170440673828125,0.82080078125,-0.0079803466796875,0.0205542780458927,0.0410430394113063,-0.0216584242880344,62.2545166015625,101.2834777832031,-21.03216552734375
311208,-0.170440673828125,0.82080078125,-0.0079803466796875,0.0205542780458927,0.0410430394113063,-0.0216584242880344,62.2545166015625,101.2834777832031,-21.03216552734375
311209,-0.143463134765625,0.7790374755859375,-0.027679443359375,0.0131142036989331,0.0191752929240465,-0.00740731600672,62.25823974609375,101.4118957519531,-21.083740234375
311210,-0.1384124755859375,0.7613983154296875,-0.0252227783203125,-0.0142950499430298,0.0062483083456754,-0.0047691888175904,62.29212951660156,101.4165191650391,-21.04034423828125
311211,-0.1309661865234375,0.7440032958984375,-0.0273284912109375,-0.0142950499430298,0.0062483083456754,-0.0047691888175904,62.30757141113281,101.4981536865234,-21.09225463867188
311212,-0.1309661865234375,0.7440032958984375,-0.0273284912109375,-0.0142950499430298,0.0062483083456754,-0.0047691888175904,62.30757141113281,101.4981536865234,-21.09225463867188
311213,-0.1295166015625,0.7342681884765625,-0.0185394287109375,-0.0423314794898033,0.031996015459299,-0.0201955493539571,62.31918334960938,101.4580535888672,-21.00970458984375
311214,-0.1523895263671875,0.7250823974609375,-0.009307861328125,-0.0526866465806961,0.0442803800106048,-0.0325867049396038,62.30192565917969,101.395263671875,-20.96492004394531
311215,-0.1664581298828125,0.726531982421875,-0.0060577392578125,-0.0595935545861721,0.0634546056389808,-0.0404171980917453,62.35125732421875,101.4334259033203,-21.01060485839844
311216,-0.1699981689453125,0.727081298828125,-0.0025634765625,-0.0706960037350654,0.0855476558208465,-0.0451504327356815,62.36114501953125,101.3776702880859,-21.07073974609375
311217,-0.1699981689453125,0.727081298828125,-0.0025634765625,-0.0706960037350654,0.0855476558208465,-0.0451504327356815,62.36114501953125,101.3776702880859,-21.07073974609375
311218,-0.178955078125,0.745513916015625,0.01934814453125,-0.1154983639717102,0.149733304977417,-0.0332450382411479,62.29385375976562,101.3472137451172,-20.96522521972656
311219,-0.19091796875,0.7742767333984375,0.0343475341796875,-0.1539530754089355,0.1845205724239349,-0.0301706846803426,62.250244140625,101.5173950195312,-20.87448120117188
311220,-0.19091796875,0.7742767333984375,0.0343475341796875,-0.1539530754089355,0.1845205724239349,-0.0301706846803426,62.250244140625,101.5173950195312,-20.87448120117188
311221,-0.206573486328125,0.8149566650390625,0.0492706298828125,-0.1951798796653748,0.2144315987825394,-0.033654898405075,62.11306762695312,101.5479736328125,-20.80540466308594
311222,-0.2299041748046875,0.9207611083984376,0.0852203369140625,-0.3065013289451599,0.1753515750169754,-0.017642643302679,62.10198974609375,101.6808929443359,-20.63533020019531
311223,-0.2317657470703125,0.9565887451171876,0.1075592041015625,-0.3126692175865173,0.1225671917200089,-0.0092555498704314,62.09812927246094,101.6459655761719,-20.52423095703125
311224,-0.2317657470703125,0.9565887451171876,0.1075592041015625,-0.3126692175865173,0.1225671917200089,-0.0092555498704314,62.09812927246094,101.6459655761719,-20.52423095703125
311225,-0.231475830078125,0.985687255859375,0.132293701171875,-0.3126692175865173,0.1225671917200089,-0.0092555498704314,62.02978515625,101.6945648193359,-20.29612731933594
311226,-0.2237396240234375,1.02880859375,0.17327880859375,-0.3301398158073425,0.0431962050497531,0.008413191884756,62.00791931152344,101.7803802490234,-19.91423034667969
311227,-0.2164459228515625,1.035537719726562,0.1746063232421875,-0.3441350162029266,0.0045358957722783,0.0196469388902187,62.07232666015625,101.7052459716797,-19.60435485839844
311228,-0.2164459228515625,1.035537719726562,0.1746063232421875,-0.3441350162029266,0.0045358957722783,0.0196469388902187,62.07232666015625,101.7052459716797,-19.60435485839844
311229,-0.196533203125,1.019683837890625,0.1519775390625,-0.3406057953834534,-0.0648935139179229,0.0608886517584323,61.88546752929688,101.8959503173828,-19.49232482910156
311230,-0.1880340576171875,1.0108642578125,0.129974365234375,-0.3227335810661316,-0.0895490571856498,0.0742414742708206,61.86767578125,101.9414367675781,-19.52191162109375
311231,-0.173858642578125,0.9987945556640624,0.1069793701171875,-0.2960939705371857,-0.1100620552897453,0.0925475135445594,61.86335754394531,101.8741912841797,-19.416015625
311232,-0.1666717529296875,0.996917724609375,0.09246826171875,-0.2694972455501556,-0.1060995385050774,0.106222040951252,61.8890380859375,102.0655517578125,-19.27809143066406
311233,-0.1666717529296875,0.996917724609375,0.09246826171875,-0.2694972455501556,-0.1060995385050774,0.106222040951252,61.8890380859375,102.0655517578125,-19.27809143066406
311234,-0.151519775390625,1.005706787109375,0.06689453125,-0.2256802618503571,-0.0623459331691265,0.1232151389122009,62.00308227539062,101.8969573974609,-18.966552734375
311235,-0.1424713134765625,1.013336181640625,0.0568389892578125,-0.2167432308197021,-0.0473030656576156,0.1294666528701782,62.02888488769531,101.9511413574219,-18.97640991210938
311236,-0.1424713134765625,1.013336181640625,0.0568389892578125,-0.2167432308197021,-0.0473030656576156,0.1294666528701782,62.02888488769531,101.9511413574219,-18.97640991210938
311237,-0.1314849853515625,1.024688720703125,0.0559539794921875,-0.2051795125007629,-0.0397569984197616,0.1378422826528549,62.00692749023438,101.8854217529297,-18.89134216308594
311238,-0.123199462890625,1.042343139648438,0.0580596923828125,-0.1817469000816345,-0.0017166736070066,0.155134990811348,62.08462524414062,101.8487854003906,-18.55706787109375
311239,-0.1226959228515625,1.050994873046875,0.0604705810546875,-0.1658560782670975,0.0314745679497718,0.166938915848732,62.12310791015625,101.7978973388672,-18.43458557128906
311240,-0.1226959228515625,1.050994873046875,0.0604705810546875,-0.1658560782670975,0.0314745679497718,0.166938915848732,62.12310791015625,101.7978973388672,-18.43458557128906
311241,-0.12139892578125,1.052093505859375,0.0599822998046875,-0.1446541249752045,0.0563040189445018,0.1805343627929688,62.09382629394531,101.8238372802734,-18.48927307128906
311242,-0.1186065673828125,1.053726196289062,0.058990478515625,-0.1236588209867477,0.0918108820915222,0.2135200053453445,62.25450134277344,101.9598541259766,-18.22344970703125
311243,-0.1125946044921875,1.050613403320312,0.0631256103515625,-0.1204712837934494,0.1053762212395668,0.2250898480415344,62.36863708496094,101.8393249511719,-18.00611877441406
311244,-0.1125946044921875,1.050613403320312,0.0631256103515625,-0.1204712837934494,0.1053762212395668,0.2250898480415344,62.36863708496094,101.8393249511719,-18.00611877441406
311245,-0.10333251953125,1.04876708984375,0.0640106201171875,-0.108744852244854,0.1145814433693886,0.2386000603437424,62.48336791992188,101.7689666748047,-17.85076904296875
311246,-0.0830535888671875,1.0533447265625,0.06536865234375,-0.0795331746339798,0.1171596422791481,0.2536461055278778,62.63972473144531,101.7238922119141,-17.80513000488281
311247,-0.070892333984375,1.056503295898438,0.0660858154296875,-0.0586633123457431,0.1037676706910133,0.2554730474948883,62.73318481445312,101.7420501708984,-17.71498107910156
311248,-0.070892333984375,1.056503295898438,0.0660858154296875,-0.0586633123457431,0.1037676706910133,0.2554730474948883,62.73318481445312,101.7420501708984,-17.71498107910156
311249,-0.0601654052734375,1.057022094726562,0.067901611328125,-0.0206056758761405,0.0557897612452507,0.2580552399158478,62.91044616699219,101.6139068603516,-17.63812255859375
311250,-0.0526123046875,1.0537109375,0.0712890625,-0.0206056758761405,0.0557897612452507,0.2580552399158478,63.01063537597656,101.5081787109375,-17.78787231445312
311251,-0.0438079833984375,1.030197143554688,0.07769775390625,0.0189409349113702,-0.0015398397808894,0.251422643661499,63.346923828125,101.3059692382812,-17.84849548339844
311252,-0.0438079833984375,1.030197143554688,0.07769775390625,0.0189409349113702,-0.0015398397808894,0.251422643661499,63.346923828125,101.3059692382812,-17.84849548339844
311253,-0.042144775390625,1.012237548828125,0.0791778564453125,0.0378211475908756,-0.0339648909866809,0.2471312284469604,63.42391967773438,101.3383331298828,-17.81674194335938
311254,-0.04052734375,0.9720306396484376,0.08392333984375,0.0743362829089164,-0.0960884466767311,0.2303879410028458,63.6507568359375,101.2841796875,-17.88150024414062
311255,-0.0440216064453125,0.954864501953125,0.085479736328125,0.0924660190939903,-0.1155763939023018,0.2153932750225067,63.77743530273438,101.2336730957031,-17.90614318847656
311256,-0.0440216064453125,0.954864501953125,0.085479736328125,0.0924660190939903,-0.1155763939023018,0.2153932750225067,63.77743530273438,101.2336730957031,-17.90614318847656
311257,-0.0513153076171875,0.9417877197265624,0.0860137939453125,0.1011889353394508,-0.1235411092638969,0.2015815824270248,63.87498474121094,101.2811431884766,-17.9315185546875
311258,-0.073272705078125,0.9416656494140624,0.0932769775390625,0.0868515446782112,-0.1057751625776291,0.1657833755016327,64.01031494140625,101.0526580810547,-18.06875610351562
311259,-0.089813232421875,0.94293212890625,0.10546875,0.0724177435040473,-0.1008555069565773,0.1425835192203522,64.19500732421875,101.0879211425781,-18.14752197265625
311260,-0.089813232421875,0.94293212890625,0.10546875,0.0724177435040473,-0.1008555069565773,0.1425835192203522,64.19500732421875,101.0879211425781,-18.14752197265625
311261,-0.10418701171875,0.9423675537109376,0.12255859375,0.0609693452715873,-0.0980229675769805,0.1222992837429047,64.23527526855469,100.9410400390625,-18.07771301269531
311262,-0.11016845703125,0.9371185302734376,0.133575439453125,0.0531977079808712,-0.0974317491054534,0.1045682206749916,64.27507019042969,100.9664459228516,-18.15249633789062
311263,-0.1064605712890625,0.927001953125,0.1316680908203125,0.0299142226576805,-0.0995625406503677,0.0777331441640853,64.42550659179688,100.919921875,-18.28253173828125
311264,-0.1066131591796875,0.9287109375,0.1279449462890625,0.014779744669795,-0.0870281085371971,0.071651816368103,64.45584106445312,100.9572143554688,-18.30256652832031
311265,-0.1066131591796875,0.9287109375,0.1279449462890625,0.014779744669795,-0.0870281085371971,0.071651816368103,64.45584106445312,100.9572143554688,-18.30256652832031
311266,-0.115570068359375,0.9346771240234376,0.12298583984375,0.0027838023379445,-0.0549242347478866,0.057400707155466,64.61422729492188,101.0214080810547,-18.42098999023438
311267,-0.1161956787109375,0.939208984375,0.118560791015625,-0.0018663433147594,-0.0318530052900314,0.0523396357893943,64.62738037109375,101.004150390625,-18.36158752441406
311268,-0.1161956787109375,0.939208984375,0.118560791015625,-0.0018663433147594,-0.0318530052900314,0.0523396357893943,64.62738037109375,101.004150390625,-18.36158752441406
311269,-0.112579345703125,0.9587249755859376,0.1045074462890625,-0.0168082751333713,-0.0027316042687743,0.053644586354494,64.68650817871094,100.9725799560547,-18.35423278808594
311270,-0.1075439453125,0.9726409912109376,0.0985870361328125,-0.0315874889492988,0.0214570891112089,0.0620425976812839,64.69509887695312,100.9626770019531,-18.44070434570312
311271,-0.1024322509765625,0.987457275390625,0.09619140625,-0.0315874889492988,0.0214570891112089,0.0620425976812839,64.68243408203125,101.0839233398438,-18.44427490234375
311272,-0.1024322509765625,0.987457275390625,0.09619140625,-0.0315874889492988,0.0214570891112089,0.0620425976812839,64.68243408203125,101.0839233398438,-18.44427490234375
311273,-0.096923828125,0.997344970703125,0.095977783203125,-0.038327682763338,0.0350826196372509,0.0616585686802864,64.59001159667969,100.9358062744141,-18.25323486328125
311274,-0.086578369140625,1.007476806640625,0.091461181640625,-0.031938225030899,0.0683375149965286,0.0607488341629505,64.67550659179688,100.8402404785156,-18.22554016113281
311275,-0.0810699462890625,1.002456665039062,0.0879669189453125,-0.0239239744842052,0.0703069195151329,0.0577815398573875,64.73783874511719,100.7467041015625,-18.12643432617188
311276,-0.0810699462890625,1.002456665039062,0.0879669189453125,-0.0239239744842052,0.0703069195151329,0.0577815398573875,64.73783874511719,100.7467041015625,-18.12643432617188
311277,-0.0755767822265625,0.9940338134765624,0.090423583984375,-0.0148367369547486,0.0680011510848999,0.0577783435583114,64.74601745605469,100.6509399414062,-18.10783386230469
311278,-0.0671539306640625,0.9833221435546876,0.0878753662109375,0.0095045557245612,0.0466183684766292,0.0536027736961841,64.87135314941406,100.7179107666016,-18.15525817871094
311279,-0.0658721923828125,0.9866180419921876,0.0838165283203125,0.0198232401162385,0.0427682362496852,0.0517801083624362,64.93438720703125,100.6891326904297,-18.15376281738281
311280,-0.0658721923828125,0.9866180419921876,0.0838165283203125,0.0198232401162385,0.0427682362496852,0.0517801083624362,64.93438720703125,100.6891326904297,-18.15376281738281
311281,-0.069854736328125,0.9979705810546876,0.0863189697265625,0.0378701500594615,0.0565389096736908,0.0371907763183116,64.93528747558594,100.6911315917969,-18.18135070800781
311282,-0.0750885009765625,1.004180908203125,0.088348388671875,0.0410757958889007,0.06476541608572,0.0260923206806182,64.99041748046875,100.6407928466797,-18.18185424804688
311283,-0.0812835693359375,1.013458251953125,0.0878143310546875,0.0429373458027839,0.0710542052984237,0.0184916593134403,64.95014953613281,100.5905151367188,-18.25698852539062
311284,-0.0812835693359375,1.013458251953125,0.0878143310546875,0.0429373458027839,0.0710542052984237,0.0184916593134403,64.95014953613281,100.5905151367188,-18.25698852539062
311285,-0.09124755859375,1.01824951171875,0.0933685302734375,0.0631526038050651,0.0829934179782867,-0.005552424583584,65.06451416015625,100.6287078857422,-18.25022888183594
311286,-0.0964813232421875,1.0159912109375,0.0921630859375,0.0631526038050651,0.0829934179782867,-0.005552424583584,65.03683471679688,100.6383666992188,-18.29107666015625
311287,-0.1011962890625,1.01385498046875,0.08941650390625,0.0711375623941421,0.0897189676761627,-0.0064909225329756,65.06021118164062,100.6138916015625,-18.18783569335938
311288,-0.1011962890625,1.01385498046875,0.08941650390625,0.0711375623941421,0.0897189676761627,-0.0064909225329756,65.06021118164062,100.6138916015625,-18.18783569335938
311289,-0.10479736328125,1.013046264648438,0.0853424072265625,0.0754393637180328,0.0980975404381752,-0.0012266519479453,64.96391296386719,100.6591186523438,-18.1419677734375
311290,-0.10455322265625,1.010147094726562,0.0840301513671875,0.0791954845190048,0.1005670875310898,0.0036099147982895,64.993896484375,100.6626586914062,-18.10586547851562
311291,-0.101470947265625,1.0126953125,0.077972412109375,0.0778519213199615,0.1061440110206604,0.0181877929717302,64.96455383300781,100.6747589111328,-18.2745361328125
311292,-0.101470947265625,1.0126953125,0.077972412109375,0.0778519213199615,0.1061440110206604,0.0181877929717302,64.96455383300781,100.6747589111328,-18.2745361328125
311293,-0.096893310546875,1.017410278320312,0.0744171142578125,0.0770883932709693,0.1097366139292717,0.0250688679516315,64.89581298828125,100.5419769287109,-18.26768493652344
311294,-0.083465576171875,1.02105712890625,0.07330322265625,0.081814169883728,0.0918937027454376,0.0320362299680709,65.0439453125,100.6494445800781,-18.24879455566406
311295,-0.0759735107421875,1.01800537109375,0.0699462890625,0.0835060775279998,0.0938599184155464,0.0315712429583072,65.05160522460938,100.6400451660156,-18.29299926757812
311296,-0.0684967041015625,1.013381958007812,0.0625,0.0904950127005577,0.087815336883068,0.0260513070970773,65.04508972167969,100.5445709228516,-18.31254577636719
311297,-0.0622711181640625,1.006179809570312,0.0592498779296875,0.091666005551815,0.0771610960364341,0.0226467233151197,65.03456115722656,100.5042419433594,-18.36921691894531
311298,-0.057342529296875,1.001419067382812,0.0599212646484375,0.0892518460750579,0.0747251063585281,0.0200986098498106,65.19444274902344,100.4677429199219,-18.45025634765625
311299,-0.0540771484375,0.996612548828125,0.0561981201171875,0.0820290893316268,0.0591706447303295,0.0126992836594581,65.21495056152344,100.476806640625,-18.45391845703125
311300,-0.0540771484375,0.996612548828125,0.0561981201171875,0.0820290893316268,0.0591706447303295,0.0126992836594581,65.21495056152344,100.476806640625,-18.45391845703125
311301,-0.05029296875,0.9949951171875,0.051727294921875,0.0775536447763443,0.0446750596165657,0.0074906731024384,65.15634155273438,100.4205474853516,-18.46720886230469
311302,-0.0503387451171875,0.9944610595703124,0.045928955078125,0.0728270709514617,0.0110758207738399,-0.0070139672607183,65.10830688476562,100.4243927001953,-18.56600952148438
311303,-0.053802490234375,0.9937591552734376,0.04522705078125,0.0743967369198799,-0.0016929714474827,-0.015501994639635,65.10057067871094,100.4285888671875,-18.54489135742188
311304,-0.053802490234375,0.9937591552734376,0.04522705078125,0.0743967369198799,-0.0016929714474827,-0.015501994639635,65.10057067871094,100.4285888671875,-18.54489135742188
311305,-0.059783935546875,0.989715576171875,0.045074462890625,0.0806807279586792,-0.0094472980126738,-0.0231447331607341,65.28619384765625,100.41064453125,-18.54804992675781
311306,-0.075347900390625,0.9778900146484376,0.045867919921875,0.0846882537007331,-0.0270180348306894,-0.032425582408905,65.26191711425781,100.3742218017578,-18.48849487304688
311307,-0.0819549560546875,0.972137451171875,0.048187255859375,0.0851830691099166,-0.0246337074786424,-0.0332809910178184,65.18312072753906,100.4647064208984,-18.48210144042969
311308,-0.086212158203125,0.967529296875,0.050262451171875,0.0851854681968689,-0.0243950877338647,-0.0323424935340881,65.16574096679688,100.5434722900391,-18.770263671875
311309,-0.086212158203125,0.967529296875,0.050262451171875,0.0851854681968689,-0.0243950877338647,-0.0323424935340881,65.16574096679688,100.5434722900391,-18.770263671875
311310,-0.0930328369140625,0.96612548828125,0.055511474609375,0.0747741088271141,-0.0142737440764904,-0.0269623752683401,65.08955383300781,100.5259552001953,-18.69949340820312
311311,-0.096435546875,0.9662322998046876,0.0587005615234375,0.0703005269169807,-0.0058102183975279,-0.0244768466800451,65.12159729003906,100.5892944335938,-18.8424072265625
311312,-0.096435546875,0.9662322998046876,0.0587005615234375,0.0703005269169807,-0.0058102183975279,-0.0244768466800451,65.12159729003906,100.5892944335938,-18.8424072265625
311313,-0.094696044921875,0.96954345703125,0.05828857421875,0.0690320655703544,-0.0003001382574439,-0.0158652495592832,65.11354064941406,100.4578552246094,-19.02375793457031
311314,-0.09283447265625,0.9725799560546876,0.0566253662109375,0.0659758225083351,0.0018634138396009,-0.0070589748211205,65.12705993652344,100.4600982666016,-18.92329406738281
311315,-0.0892791748046875,0.9744720458984376,0.056671142578125,0.0644458383321762,0.0069955913349986,-0.0020983046852052,65.14546203613281,100.5114898681641,-19.00982666015625
311316,-0.0892791748046875,0.9744720458984376,0.056671142578125,0.0644458383321762,0.0069955913349986,-0.0020983046852052,65.14546203613281,100.5114898681641,-19.00982666015625
311317,-0.08563232421875,0.975982666015625,0.0561676025390625,0.0589970089495182,0.005927397403866,0.0006410228670574,65.07179260253906,100.4927368164062,-19.17520141601562
311318,-0.07867431640625,0.980377197265625,0.0510406494140625,0.0572925843298435,0.005730589851737,0.0070499200373888,65.03846740722656,100.4528961181641,-19.17167663574219
311319,-0.0768585205078125,0.9815673828125,0.0524444580078125,0.0584683679044246,0.0021473066881299,0.0059785302728414,65.08042907714844,100.2513885498047,-18.97164916992188
311320,-0.0768585205078125,0.9815673828125,0.0524444580078125,0.0584683679044246,0.0021473066881299,0.0059785302728414,65.08042907714844,100.2513885498047,-18.97164916992188
311321,-0.077056884765625,0.990234375,0.047393798828125,0.0620332770049572,0.0065124942921102,0.0108044445514679,65.10714721679688,100.5017395019531,-19.18061828613281
311322,-0.075897216796875,0.9952239990234376,0.0441741943359375,0.0708142518997192,-0.0012697952333837,0.0091016190126538,65.12284851074219,100.5677032470703,-19.130615234375
311323,-0.07269287109375,1.001449584960938,0.0420379638671875,0.0773821398615837,-0.0027212179265916,0.0045739789493381,65.22782897949219,100.7020568847656,-18.98698425292969
311324,-0.07269287109375,1.001449584960938,0.0420379638671875,0.0773821398615837,-0.0027212179265916,0.0045739789493381,65.22782897949219,100.7020568847656,-18.98698425292969
311325,-0.0714874267578125,1.007919311523438,0.0418548583984375,0.0773821398615837,-0.0027212179265916,0.0045739789493381,65.2381591796875,100.5841064453125,-18.90200805664062
311326,-0.0726165771484375,1.011627197265625,0.0409393310546875,0.0978256314992904,0.0036349485162645,-0.0045271073468029,65.33967590332031,100.4532775878906,-18.93959045410156
311327,-0.07464599609375,1.011581420898438,0.042938232421875,0.1043642237782478,0.0099224057048559,-0.0101666171103715,65.34700012207031,100.3487854003906,-18.83477783203125
311328,-0.07464599609375,1.011581420898438,0.042938232421875,0.1043642237782478,0.0099224057048559,-0.0101666171103715,65.34700012207031,100.3487854003906,-18.83477783203125
311329,-0.078155517578125,1.00897216796875,0.0406951904296875,0.1180203780531883,0.0142188835889101,-0.01897475682199,65.24160766601562,100.3285980224609,-19.29237365722656
311330,-0.0787811279296875,1.006942749023438,0.03607177734375,0.1262631267309189,0.007473362609744,-0.022218219935894,65.31639099121094,100.324462890625,-19.41305541992188
311331,-0.0774688720703125,1.006698608398438,0.0326385498046875,0.1262631267309189,0.007473362609744,-0.022218219935894,65.35830688476562,100.2334747314453,-19.40510559082031
311332,-0.0755615234375,1.00677490234375,0.031402587890625,0.1304688006639481,0.004709533881396,-0.019225625321269,65.327392578125,100.4102020263672,-19.35926818847656
311333,-0.0755615234375,1.00677490234375,0.031402587890625,0.1304688006639481,0.004709533881396,-0.019225625321269,65.327392578125,100.4102020263672,-19.35926818847656
311334,-0.0765533447265625,1.005462646484375,0.029937744140625,0.1249696314334869,-0.0032818133477121,-0.0109256180003285,65.33958435058594,100.3971710205078,-19.276123046875
311335,-0.076812744140625,1.004364013671875,0.034881591796875,0.1245275437831879,-0.003549727378413,-0.0069615030661225,65.20550537109375,100.4716796875,-19.35519409179688
311336,-0.076812744140625,1.004364013671875,0.034881591796875,0.1245275437831879,-0.003549727378413,-0.0069615030661225,65.20550537109375,100.4716796875,-19.35519409179688
311337,-0.078460693359375,1.000823974609375,0.0242462158203125,0.1276471763849258,-0.030647125095129,0.0010048106778413,65.20025634765625,100.5992279052734,-19.59661865234375
311338,-0.0770111083984375,1.00054931640625,0.0197296142578125,0.1276471763849258,-0.030647125095129,0.0010048106778413,65.14793395996094,100.6059722900391,-19.53509521484375
311339,-0.0764617919921875,0.9967193603515624,0.0219879150390625,0.1289113759994507,-0.027550134807825,0.0025225460994988,65.19856262207031,100.4832153320312,-19.66648864746094
311340,-0.0764617919921875,0.9967193603515624,0.0219879150390625,0.1289113759994507,-0.027550134807825,0.0025225460994988,65.19856262207031,100.4832153320312,-19.66648864746094
311341,-0.075531005859375,0.9936981201171876,0.0208892822265625,0.1243579015135765,-0.0201571993529796,0.0003099919413216,65.24961853027344,100.4825744628906,-19.80812072753906
311342,-0.0729522705078125,0.99212646484375,0.017059326171875,0.1317052990198135,-0.0145765459164977,-0.0013286510948091,65.29347229003906,100.4104766845703,-19.86625671386719
311343,-0.071563720703125,0.9920654296875,0.0160064697265625,0.1285332143306732,-0.0059076901525259,-0.0019531622529029,65.31739807128906,100.4390563964844,-20.00421142578125
311344,-0.0701141357421875,0.993927001953125,0.01556396484375,0.1302248537540436,0.0011883024126291,-0.0044980789534747,65.25460815429688,100.4923553466797,-20.09170532226562
311345,-0.0711212158203125,0.9951171875,0.0161285400390625,0.1370478719472885,0.0122998096048831,-0.0036083168815821,65.19906616210938,100.4790191650391,-20.16903686523438
311346,-0.0729827880859375,0.9963836669921876,0.0144195556640625,0.1434815376996994,0.0188429299741983,-0.006786533165723,65.20903015136719,100.4857482910156,-20.15426635742188
311347,-0.076263427734375,0.9960174560546876,0.01226806640625,0.1456972807645798,0.0276915486901998,-0.0044578653760254,65.17869567871094,100.5372924804688,-20.23966979980469
311348,-0.076263427734375,0.9960174560546876,0.01226806640625,0.1456972807645798,0.0276915486901998,-0.0044578653760254,65.17869567871094,100.5372924804688,-20.23966979980469
311349,-0.0792083740234375,0.9981231689453124,0.010406494140625,0.1465124785900116,0.0337915197014808,-0.0032874059397727,65.22244262695312,100.4262847900391,-20.20509338378906
311350,-0.08270263671875,0.997100830078125,0.010986328125,0.1455185860395432,0.0372187420725822,0.0012823120923712,65.19607543945312,100.4268798828125,-20.41531372070312
311351,-0.08258056640625,0.9950714111328124,0.007568359375,0.1377432197332382,0.0410486347973346,0.007031544111669,65.21673583984375,100.4282684326172,-20.52700805664062
311352,-0.08258056640625,0.9950714111328124,0.007568359375,0.1377432197332382,0.0410486347973346,0.007031544111669,65.21673583984375,100.4282684326172,-20.52700805664062
311353,-0.08294677734375,0.991180419921875,0.0021209716796875,0.12043746560812,0.0306678973138332,0.0188834089785814,65.20265197753906,100.4478759765625,-20.58796691894531
311354,-0.0819549560546875,0.986602783203125,0.0004119873046875,0.1089706942439079,0.0212035551667213,0.0208506863564252,65.21339416503906,100.4161376953125,-20.67469787597656
311355,-0.081878662109375,0.98394775390625,-0.00115966796875,0.1015742942690849,0.0171781871467828,0.0238243732601404,65.19599914550781,100.4135437011719,-20.62580871582031
311356,-0.081878662109375,0.98394775390625,-0.00115966796875,0.1015742942690849,0.0171781871467828,0.0238243732601404,65.19599914550781,100.4135437011719,-20.62580871582031
311357,-0.081146240234375,0.9829254150390624,-0.0015411376953125,0.0958090871572494,0.0149757536128163,0.0258566308766603,65.21125793457031,100.5625762939453,-20.74119567871094
311358,-0.0792999267578125,0.9832916259765624,0.002166748046875,0.0896220281720161,0.0173385106027126,0.0288865100592374,65.29660034179688,100.3685455322266,-20.77981567382812
311359,-0.07818603515625,0.98443603515625,0.0036468505859375,0.0858725607395172,0.0183907244354486,0.024474449455738,65.28012084960938,100.1729736328125,-20.69282531738281
311360,-0.0778350830078125,0.982757568359375,0.004791259765625,0.0874536857008934,0.0169297140091657,0.0229631066322326,65.41744995117188,100.1583099365234,-20.72901916503906
311361,-0.0778350830078125,0.982757568359375,0.004791259765625,0.0874536857008934,0.0169297140091657,0.0229631066322326,65.41744995117188,100.1583099365234,-20.72901916503906
311362,-0.0756988525390625,0.975677490234375,0.002532958984375,0.0838863775134086,0.029848176985979,0.0138143487274646,65.35035705566406,100.1600646972656,-20.80877685546875
311363,-0.076416015625,0.97161865234375,0.0021820068359375,0.0733421221375465,0.0417250767350196,0.0104241454973816,65.34916687011719,100.0884399414062,-20.82331848144531
311364,-0.076416015625,0.97161865234375,0.0021820068359375,0.0733421221375465,0.0417250767350196,0.0104241454973816,65.34916687011719,100.0884399414062,-20.82331848144531
311365,-0.0784912109375,0.9694061279296876,0.00067138671875,0.0733421221375465,0.0417250767350196,0.0104241454973816,65.43479919433594,99.9657745361328,-20.93841552734375
311366,-0.0832366943359375,0.9754638671875,-0.0023040771484375,0.0535258091986179,0.0523931682109832,0.004456799943,65.30545043945312,100.0876770019531,-21.04367065429688
311367,-0.08538818359375,0.979461669921875,-0.000244140625,0.048194158822298,0.059427373111248,0.0082898875698447,65.3443603515625,100.1676788330078,-21.13156127929688
311368,-0.08538818359375,0.979461669921875,-0.000244140625,0.048194158822298,0.059427373111248,0.0082898875698447,65.3443603515625,100.1676788330078,-21.13156127929688
311369,-0.088531494140625,0.9827728271484376,0.0025482177734375,0.0383386015892028,0.0728299990296363,0.0105844670906662,65.4014892578125,100.1663665771484,-21.1864013671875
311370,-0.089874267578125,0.9866790771484376,0.0079803466796875,0.0303890649229288,0.0889154896140098,0.0167752522975206,65.43679809570312,100.1027984619141,-21.13417053222656
311371,-0.0879974365234375,0.9853668212890624,0.0095672607421875,0.0303890649229288,0.0889154896140098,0.0167752522975206,65.44851684570312,100.1679077148438,-21.06326293945312
311372,-0.0844268798828125,0.984649658203125,0.008331298828125,0.0332706049084663,0.1003002375364304,0.0214693397283554,65.46159362792969,100.1450805664062,-21.12460327148438
311373,-0.0844268798828125,0.984649658203125,0.008331298828125,0.0332706049084663,0.1003002375364304,0.0214693397283554,65.46159362792969,100.1450805664062,-21.12460327148438
311374,-0.0751190185546875,0.9892730712890624,0.003997802734375,0.0351273603737354,0.1101368889212608,0.0342786125838756,65.51045227050781,99.97723388671876,-21.14779663085938
311375,-0.071075439453125,0.99395751953125,0.0016632080078125,0.040367130190134,0.1159742698073387,0.0388967990875244,65.52699279785156,99.98643493652344,-21.03370666503906
311376,-0.069732666015625,0.9972076416015624,-0.0002899169921875,0.0428518578410148,0.115159347653389,0.0417043045163154,65.534423828125,99.985107421875,-21.09243774414062
311377,-0.069732666015625,0.9972076416015624,-0.0002899169921875,0.0428518578410148,0.115159347653389,0.0417043045163154,65.534423828125,99.985107421875,-21.09243774414062
311378,-0.0624237060546875,0.9964447021484376,-0.0101776123046875,0.0341334678232669,0.1064071357250214,0.0460369996726512,65.49774169921875,100.0130004882812,-21.11793518066406
311379,-0.056640625,0.9939117431640624,-0.0157012939453125,0.0402321070432663,0.098825380206108,0.0497087016701698,65.57292175292969,100.0688171386719,-21.13053894042969
311380,-0.056640625,0.9939117431640624,-0.0157012939453125,0.0402321070432663,0.098825380206108,0.0497087016701698,65.57292175292969,100.0688171386719,-21.13053894042969
311381,-0.048370361328125,0.990203857421875,-0.0185394287109375,0.0200687833130359,0.0736033767461776,0.0568270646035671,65.72807312011719,100.0337371826172,-21.14846801757812
311382,-0.045562744140625,0.988525390625,-0.0196075439453125,0.0200687833130359,0.0736033767461776,0.0568270646035671,65.69902038574219,100.0300750732422,-21.0609130859375
311383,-0.0476531982421875,0.9903106689453124,-0.019927978515625,0.0088358353823423,0.062722235918045,0.0540688261389732,65.75566101074219,99.90969848632812,-21.03456115722656
311384,-0.0476531982421875,0.9903106689453124,-0.019927978515625,0.0088358353823423,0.062722235918045,0.0540688261389732,65.75566101074219,99.90969848632812,-21.03456115722656
311385,-0.051177978515625,0.9931793212890624,-0.021575927734375,-0.0022953785955905,0.0506533235311508,0.0500802099704742,65.80924987792969,99.96035766601562,-21.2015380859375
311386,-0.0536956787109375,0.994964599609375,-0.02655029296875,-0.0014149374328553,0.0387753583490848,0.0518301762640476,65.816650390625,99.95370483398438,-21.28623962402344
311387,-0.05157470703125,0.9950408935546876,-0.0299224853515625,-0.002870355034247,0.0298716127872467,0.0491901822388172,65.95132446289062,99.86708068847656,-21.20530700683594
311388,-0.05157470703125,0.9950408935546876,-0.0299224853515625,-0.002870355034247,0.0298716127872467,0.0491901822388172,65.95132446289062,99.86708068847656,-21.20530700683594
311389,-0.048553466796875,0.9935455322265624,-0.0323944091796875,-0.0118446750566363,0.0221606958657503,0.0468852184712886,65.93074035644531,99.7695770263672,-21.3067626953125
311390,-0.0418548583984375,0.99090576171875,-0.036834716796875,-0.0464175641536712,0.0170391704887151,0.0231916047632694,65.95045471191406,99.80015563964844,-21.39706420898438
311391,-0.038238525390625,0.9925537109375,-0.0387115478515625,-0.0464175641536712,0.0170391704887151,0.0231916047632694,66.0216064453125,99.81201171875,-21.37123107910156
311392,-0.03497314453125,0.997833251953125,-0.038604736328125,-0.0537844002246856,0.0074416710995137,0.0181917864829301,66.11982727050781,99.82810974121094,-21.184326171875
311393,-0.0340576171875,1.001480102539062,-0.0362548828125,-0.0513010025024414,0.0032498554792255,0.0134766604751348,66.16810607910156,99.90818786621094,-21.31448364257812
311394,-0.0340728759765625,1.004165649414062,-0.0272064208984375,-0.0536933206021785,-0.0077103837393224,0.012934174388647,66.23785400390625,99.92857360839844,-21.269287109375
311395,-0.0326995849609375,1.00555419921875,-0.0250701904296875,-0.0508240312337875,-0.0183835346251726,0.0082760397344827,66.17689514160156,99.9591827392578,-21.17562866210938
311396,-0.0326995849609375,1.00555419921875,-0.0250701904296875,-0.0508240312337875,-0.0183835346251726,0.0082760397344827,66.17689514160156,99.9591827392578,-21.17562866210938
311397,-0.0323333740234375,1.003509521484375,-0.024444580078125,-0.041575938463211,-0.0372525639832019,0.00524030206725,66.18539428710938,99.98112487792967,-21.30070495605469
311398,-0.03582763671875,0.9972991943359376,-0.0157012939453125,-0.0355249717831611,-0.0508663766086101,0.0012154667638242,66.26560974121094,99.84774780273438,-21.31150817871094
311399,-0.0369720458984375,0.9938812255859376,-0.0125732421875,-0.0360418893396854,-0.0485630072653293,-0.0055529573000967,66.255615234375,99.94454956054688,-21.3150634765625
311400,-0.0373382568359375,0.99609375,-0.0115203857421875,-0.0260425191372633,-0.0489321239292621,-0.0155528606846928,66.23646545410156,99.99014282226562,-21.27912902832031
311401,-0.0373382568359375,0.99609375,-0.0115203857421875,-0.0260425191372633,-0.0489321239292621,-0.0155528606846928,66.23646545410156,99.99014282226562,-21.27912902832031
311402,-0.0423583984375,1.002410888671875,-0.0142822265625,-0.0208701286464929,-0.0547330193221569,-0.0144705520942807,66.19532775878906,99.94664001464844,-21.15625
311403,-0.0441741943359375,1.005462646484375,-0.01300048828125,-0.0174674075096845,-0.0557998828589916,-0.0182959157973527,66.14022827148438,99.91651916503906,-21.03144836425781
311404,-0.0441741943359375,1.005462646484375,-0.01300048828125,-0.0174674075096845,-0.0557998828589916,-0.0182959157973527,66.14022827148438,99.91651916503906,-21.03144836425781
311405,-0.0505218505859375,1.00958251953125,-0.0057525634765625,-0.0042488072067499,-0.0568893812596797,-0.0203196518123149,66.05488586425781,100.0540618896484,-21.05659484863281
311406,-0.053680419921875,1.0113525390625,-0.003387451171875,0.0020154803059995,-0.0524978302419185,-0.0208703950047493,66.098388671875,100.0786895751953,-21.14070129394531
311407,-0.05609130859375,1.01318359375,-4.57763671875e-05,0.016221048310399,-0.0521566793322563,-0.018068216741085,66.06146240234375,99.96456909179688,-21.12846374511719
311408,-0.0609130859375,1.01580810546875,0.009307861328125,0.0458369962871074,-0.0575375966727733,-0.0224262122064828,66.02799987792969,100.037841796875,-21.07933044433594
311409,-0.0609130859375,1.01580810546875,0.009307861328125,0.0458369962871074,-0.0575375966727733,-0.0224262122064828,66.02799987792969,100.037841796875,-21.07933044433594
311410,-0.0654144287109375,1.011337280273438,0.01385498046875,0.0652269423007965,-0.0450377836823463,-0.0233338177204132,65.98445129394531,99.99307250976562,-21.00645446777344
311411,-0.0710296630859375,1.006790161132812,0.0157318115234375,0.0652269423007965,-0.0450377836823463,-0.0233338177204132,65.98536682128906,100.0550842285156,-21.08201599121094
311412,-0.077789306640625,1.00347900390625,0.01220703125,0.0695833414793014,-0.0339414551854133,-0.0241908244788646,65.88932800292969,100.1664276123047,-21.23716735839844
311413,-0.077789306640625,1.00347900390625,0.01220703125,0.0695833414793014,-0.0339414551854133,-0.0241908244788646,65.88932800292969,100.1664276123047,-21.23716735839844
311414,-0.0864105224609375,0.9909515380859376,0.0109710693359375,0.0747280344367027,-0.0051532168872654,-0.0217311289161443,65.87562561035156,100.1607818603516,-21.28846740722656
311415,-0.088623046875,0.9879150390625,0.0105438232421875,0.0710752382874488,0.0080443443730473,-0.0204466860741376,65.84915161132812,100.1553039550781,-21.28634643554688
311416,-0.088623046875,0.9879150390625,0.0105438232421875,0.0710752382874488,0.0080443443730473,-0.0204466860741376,65.84915161132812,100.1553039550781,-21.28634643554688
311417,-0.08697509765625,0.98504638671875,0.005615234375,0.0645134821534156,0.026069151237607,-0.0164058711379766,65.97584533691406,100.1689758300781,-21.30682373046875
311418,-0.076629638671875,0.9813995361328124,0.000335693359375,0.0554004088044166,0.0397181175649166,-0.0159920156002044,65.89234924316406,100.1117401123047,-21.23963928222656
311419,-0.0724639892578125,0.97955322265625,-0.0034027099609375,0.0494983121752739,0.0367486923933029,-0.0153216980397701,65.91175842285156,100.1632537841797,-21.255615234375
311420,-0.0724639892578125,0.97955322265625,-0.0034027099609375,0.0494983121752739,0.0367486923933029,-0.0153216980397701,65.91175842285156,100.1632537841797,-21.255615234375
311421,-0.066680908203125,0.9787445068359376,-0.0103912353515625,0.0448660068213939,0.0359460152685642,-0.0171981621533632,65.94387817382812,100.1099395751953,-21.30418395996094
311422,-0.05963134765625,0.9780120849609376,-0.01458740234375,0.0411458387970924,0.0348187014460563,-0.0160042662173509,65.8707275390625,100.0374603271484,-21.20033264160156
311423,-0.04962158203125,0.983154296875,-0.0154876708984375,0.0321827046573162,0.031242873519659,-0.0266156308352947,65.93089294433594,100.0291748046875,-21.28025817871094
311424,-0.0475921630859375,0.9863128662109376,-0.016571044921875,0.0272609163075685,0.0364693291485309,-0.0288958307355642,66.01316833496094,99.86514282226562,-20.7880859375
311425,-0.0475921630859375,0.9863128662109376,-0.016571044921875,0.0272609163075685,0.0364693291485309,-0.0288958307355642,66.01316833496094,99.86514282226562,-20.7880859375
311426,-0.050811767578125,0.9937744140625,-0.02008056640625,0.0220168847590684,0.0383838750422,-0.0410337187349796,65.93780517578125,99.7089385986328,-20.4718017578125
311427,-0.0536346435546875,0.9963531494140624,-0.019866943359375,0.0252984315156936,0.044700626283884,-0.0439978167414665,65.84805297851562,99.74429321289062,-20.61978149414062
311428,-0.0536346435546875,0.9963531494140624,-0.019866943359375,0.0252984315156936,0.044700626283884,-0.0439978167414665,65.84805297851562,99.74429321289062,-20.61978149414062
311429,-0.0577850341796875,0.9967193603515624,-0.0189971923828125,0.0263114981353282,0.0504325479269027,-0.0433796979486942,65.89530944824219,99.82760620117188,-20.87074279785156
311430,-0.0655364990234375,0.997711181640625,-0.020416259765625,0.0363566763699054,0.0766167491674423,-0.0418278723955154,65.69139099121094,99.99090576171876,-21.34782409667969
311431,-0.068145751953125,0.99560546875,-0.019622802734375,0.0360858328640461,0.0823239013552665,-0.0364426970481872,65.70246887207031,99.91119384765624,-21.29728698730469
311432,-0.0692596435546875,0.9929656982421876,-0.0170440673828125,0.0320791080594062,0.0970538482069969,-0.0299653559923172,65.71385192871094,100.0367736816406,-21.34117126464844
311433,-0.071014404296875,0.989959716796875,-0.0132293701171875,0.0320791080594062,0.0970538482069969,-0.0299653559923172,65.677734375,99.97402954101562,-21.20600891113281
311434,-0.0728759765625,0.9898223876953124,-0.0087432861328125,0.030674822628498,0.1067179217934608,-0.0246861707419157,65.680908203125,99.9082489013672,-21.13336181640625
311435,-0.0765838623046875,0.9910736083984376,-0.00433349609375,0.0266571771353483,0.1214239001274109,-0.0241972152143716,65.68804931640625,99.9376220703125,-21.15048217773438
311436,-0.0765838623046875,0.9910736083984376,-0.00433349609375,0.0266571771353483,0.1214239001274109,-0.0241972152143716,65.68804931640625,99.9376220703125,-21.15048217773438
311437,-0.082122802734375,0.9937744140625,-0.0040283203125,0.0229178331792354,0.1254548579454422,-0.0217289980500936,65.5872802734375,100.0121002197266,-21.19288635253906
311438,-0.0866851806640625,0.9941864013671876,-0.001220703125,0.0227681621909141,0.1326853483915329,-0.0141869252547621,65.5518798828125,100.1455993652344,-21.28239440917969
311439,-0.0905609130859375,1.000640869140625,0.010101318359375,0.0133701339364051,0.1370297521352768,-0.0047358991578221,65.49368286132812,100.2221527099609,-21.175537109375
