time_idx,accelerometerAccelerationX(G),accelerometerAccelerationY(G),accelerometerAccelerationZ(G),gyroRotationX(rad/s),gyroRotationY(rad/s),gyroRotationZ(rad/s),magnetometerX(µT),magnetometerY(µT),magnetometerZ(µT)
171127,0.1375732421875,-0.11993408203125,-0.0239715576171875,0.8900470733642578,-0.8129981160163879,1.206422328948975,17.77435302734375,85.9476318359375,-5.767242431640625
171128,0.1455535888671875,-0.11993408203125,-0.0474853515625,0.7848585844039917,-0.7484561204910278,1.282262563705444,18.07501220703125,86.38430786132812,-5.813217163085938
171129,0.1546630859375,-0.135101318359375,-0.14166259765625,0.7295841574668884,-0.8026067018508911,1.371088266372681,18.60189819335938,86.67410278320312,-5.31732177734375
171130,0.18841552734375,-0.1072998046875,-0.1817779541015625,0.6358422040939331,-1.613240718841553,1.561378359794617,20.57325744628906,87.45401000976562,-2.203094482421875
171131,0.18841552734375,-0.1072998046875,-0.1817779541015625,0.6358422040939331,-1.613240718841553,1.561378359794617,20.57325744628906,87.45401000976562,-2.203094482421875
171132,0.18841552734375,-0.1072998046875,-0.1817779541015625,0.6358422040939331,-1.613240718841553,1.561378359794617,20.57325744628906,87.45401000976562,-2.203094482421875
171133,0.1428680419921875,0.0288848876953125,0.0964508056640625,-0.0031763522420078,-1.258198142051697,1.319716691970825,21.79847717285156,88.55302429199219,-2.355712890625
171134,0.1428680419921875,0.0288848876953125,0.0964508056640625,-0.0031763522420078,-1.258198142051697,1.319716691970825,21.79847717285156,88.55302429199219,-2.355712890625
171135,0.1096649169921875,0.1203765869140625,0.15576171875,-0.375828742980957,-0.7673634886741638,1.072145462036133,22.6138916015625,88.89222717285156,-2.011016845703125
171136,0.0529022216796875,0.255126953125,0.111358642578125,-0.8248470425605774,0.1488946676254272,0.4868034720420837,23.7578125,89.79570007324219,-2.66778564453125
171137,0.0301055908203125,0.2927398681640625,0.12847900390625,-0.9304954409599304,0.4640057384967804,0.2128552794456482,24.21669006347656,90.06327819824219,-2.381866455078125
171138,0.018035888671875,0.425506591796875,0.33404541015625,-1.108188152313232,0.9071533679962158,-0.1007606983184814,24.39376831054688,90.29530334472656,-2.1605224609375
171139,-0.0279388427734375,0.93927001953125,0.528167724609375,-1.568898320198059,1.39792811870575,-0.6263858675956726,24.52786254882812,90.3689422607422,-2.135055541992188
171140,-0.244354248046875,2.468063354492188,0.5343170166015625,-2.128540754318237,1.483327150344849,-1.785866498947144,24.38121032714844,90.51625061035156,-1.819717407226562
171141,-0.5297393798828125,4.15576171875,0.3890838623046875,-2.145180702209473,1.1146320104599,-3.141450881958008,24.12295532226562,90.38069152832033,-1.677078247070312
171142,-0.5297393798828125,4.15576171875,0.3890838623046875,-2.145180702209473,1.1146320104599,-3.141450881958008,24.12295532226562,90.38069152832033,-1.677078247070312
171143,-1.020309448242188,5.146774291992188,0.1400146484375,-1.621697068214417,-0.4243475496768951,-4.312365531921387,23.20938110351562,90.1918487548828,-2.010986328125
171144,-1.649917602539062,3.937240600585938,1.1370849609375,-0.1868186146020889,-2.455583572387695,-5.09734058380127,20.51298522949219,88.44877624511719,-1.980224609375
171145,-1.7227783203125,2.585052490234375,0.9006500244140625,0.8153731226921082,-1.996241331100464,-4.066949367523193,18.86869812011719,87.13418579101562,-1.655593872070312
171146,-1.733184814453125,1.616439819335938,0.4871826171875,1.700690150260925,-1.674657702445984,-3.087345600128174,17.15994262695312,85.69755554199219,-1.569961547851562
171147,-1.733184814453125,1.616439819335938,0.4871826171875,1.700690150260925,-1.674657702445984,-3.087345600128174,17.15994262695312,85.69755554199219,-1.569961547851562
171148,-1.624908447265625,0.6003570556640625,-0.8708648681640625,1.062593221664429,2.19571852684021,0.4855291545391083,14.61100769042969,83.48515319824219,-2.315567016601562
171149,-0.8661346435546875,1.513412475585938,-1.58050537109375,1.128901958465576,0.4385232925415039,0.8713343739509583,13.78788757324219,83.02252197265625,-3.04095458984375
171150,-0.8661346435546875,1.513412475585938,-1.58050537109375,1.128901958465576,0.4385232925415039,0.8713343739509583,13.78788757324219,83.02252197265625,-3.04095458984375
171151,-0.5764617919921875,1.438125610351562,-0.1620025634765625,0.4522561430931091,-0.5318529605865479,0.7680162191390991,13.99955749511719,83.05807495117188,-4.45703125
171152,-0.432769775390625,1.30474853515625,-0.11846923828125,0.5647507309913635,-0.5090158581733704,0.8493936657905579,14.693603515625,83.17839050292969,-4.5484619140625
171153,-0.3938751220703125,1.171859741210938,-0.0560150146484375,0.7618187665939331,-0.0611704140901565,0.932555377483368,15.3646240234375,83.27163696289062,-4.24615478515625
171154,-0.358551025390625,0.9838714599609376,-0.083404541015625,0.927407205104828,0.5066099166870117,0.9776075482368468,15.84600830078125,83.62184143066406,-4.2786865234375
171155,-0.324676513671875,0.805694580078125,-0.1352386474609375,1.012178301811218,0.8174673914909363,0.9919744729995728,16.36721801757812,84.4835205078125,-4.292312622070312
171156,-0.298583984375,0.6495208740234375,-0.1388092041015625,1.002284169197083,0.8599887490272522,0.9537346959114076,16.68650817871094,84.80915832519531,-4.4886474609375
171157,-0.2698974609375,0.51287841796875,-0.1053924560546875,0.8958911299705505,0.7663145065307617,0.8565660715103149,16.99337768554688,85.12930297851562,-4.8094482421875
171158,-0.2698974609375,0.51287841796875,-0.1053924560546875,0.8958911299705505,0.7663145065307617,0.8565660715103149,16.99337768554688,85.12930297851562,-4.8094482421875
171159,-0.183380126953125,0.228271484375,-0.0506591796875,0.5925224423408508,0.4677948951721191,0.5729857683181763,17.56259155273438,85.98292541503906,-5.723602294921875
171160,-0.1377716064453125,0.1004791259765625,-0.0275421142578125,0.4641415774822235,0.373554140329361,0.4543424546718597,17.72198486328125,86.29927062988281,-6.144760131835938
171161,-0.09326171875,-0.003570556640625,0.002044677734375,0.3541615307331085,0.3636381328105927,0.3674698770046234,17.95301818847656,86.48255920410156,-6.356521606445312
171162,-0.09326171875,-0.003570556640625,0.002044677734375,0.3541615307331085,0.3636381328105927,0.3674698770046234,17.95301818847656,86.48255920410156,-6.356521606445312
171163,-0.016754150390625,-0.1500091552734375,0.0145111083984375,0.0818770229816436,0.50569087266922,0.278207927942276,18.21966552734375,86.68449401855469,-6.547454833984375
171164,0.007476806640625,-0.19134521484375,-0.0093536376953125,-0.0656943246722221,0.5259807109832764,0.3066286444664001,18.23968505859375,86.74519348144531,-6.671844482421875
171165,0.009552001953125,-0.18768310546875,-0.0069122314453125,-0.1945207417011261,0.5418424606323242,0.3535860180854797,18.24507141113281,86.85646057128906,-6.578170776367188
171166,0.009552001953125,-0.18768310546875,-0.0069122314453125,-0.1945207417011261,0.5418424606323242,0.3535860180854797,18.24507141113281,86.85646057128906,-6.578170776367188
171167,0.0160980224609375,-0.188232421875,-0.104095458984375,-0.5370834469795227,0.5734339952468872,0.3914335370063782,18.67018127441406,86.56452941894531,-5.452835083007812
171168,0.0288543701171875,-0.1933441162109375,-0.17266845703125,-0.6151412129402161,0.3270028829574585,0.4082948267459869,18.89714050292969,86.60914611816406,-5.293045043945312
171169,0.0482177734375,-0.17840576171875,-0.1189117431640625,-0.6580865383148193,0.1355285346508026,0.3897925019264221,19.01470947265625,86.87825012207031,-5.638107299804688
171170,0.0482177734375,-0.17840576171875,-0.1189117431640625,-0.6580865383148193,0.1355285346508026,0.3897925019264221,19.01470947265625,86.87825012207031,-5.638107299804688
171171,0.0743408203125,-0.168212890625,-0.135406494140625,-0.7575238943099976,-0.1591896563768387,0.2839963138103485,19.33058166503906,87.61680603027344,-6.289138793945312
171172,0.0798797607421875,-0.19891357421875,-0.220550537109375,-0.7414493560791016,-0.4165620803833008,0.254301518201828,19.52946472167969,87.77946472167969,-5.669113159179688
171173,0.09423828125,-0.228515625,-0.2653961181640625,-0.6759651303291321,-0.7546873688697815,0.2663877606391907,19.84588623046875,87.78094482421875,-5.098464965820312
171174,0.1102752685546875,-0.238800048828125,-0.2170562744140625,-0.5900968313217163,-1.081785917282104,0.3079937696456909,20.18855285644531,87.716796875,-4.534317016601562
171175,0.1147003173828125,-0.2269439697265625,-0.115966796875,-0.5870627164840698,-1.267648696899414,0.3380811214447021,20.54547119140625,87.69448852539062,-3.9229736328125
171176,0.1106719970703125,-0.184326171875,-0.0338592529296875,-0.7284160852432251,-1.288272976875305,0.3133746981620789,20.88302612304688,87.67355346679688,-3.011001586914062
171177,0.0683441162109375,-0.0271759033203125,-0.0063018798828125,-0.924033522605896,-1.151196360588074,0.124527283012867,21.23388671875,87.70307922363281,-2.10894775390625
171178,0.0207977294921875,0.16375732421875,-0.023040771484375,-1.01228141784668,-0.9042102694511414,-0.1894367784261703,21.54568481445312,87.50395202636719,-1.102813720703125
171179,-0.005615234375,0.1737823486328125,0.017120361328125,-1.013214826583862,-0.6464959383010864,-0.3284047842025757,21.59291076660156,87.44483947753906,-0.3165435791015625
171180,-0.0177459716796875,0.169647216796875,0.280426025390625,-1.104954600334167,-0.1676891297101974,-0.4297340512275696,21.54855346679688,87.35734558105469,0.1725921630859375
171181,-0.009124755859375,0.1580047607421875,0.5661773681640625,-1.30339252948761,0.6484541296958923,-0.5369574427604675,21.39805603027344,87.22015380859375,0.7527313232421875
171182,-0.009124755859375,0.1580047607421875,0.5661773681640625,-1.30339252948761,0.6484541296958923,-0.5369574427604675,21.39805603027344,87.22015380859375,0.7527313232421875
171183,-0.1312255859375,0.371734619140625,0.6977081298828125,-1.650455951690674,1.713881254196167,-0.6263589859008789,20.40386962890625,86.86972045898438,0.7658538818359375
171184,-0.5187835693359375,1.353912353515625,0.8409576416015625,-1.941330432891846,1.300792217254639,-0.628974199295044,19.66848754882812,86.65957641601562,0.4832611083984375
171185,-1.641433715820312,4.65478515625,1.270294189453125,-1.871228098869324,1.454116821289062,-1.105566263198853,18.70086669921875,86.59233093261719,-0.205413818359375
171186,-1.641433715820312,4.65478515625,1.270294189453125,-1.871228098869324,1.454116821289062,-1.105566263198853,18.70086669921875,86.59233093261719,-0.205413818359375
171187,-3.731781005859375,6.9508056640625,0.1258392333984375,0.3417330980300903,-2.508491516113281,-3.574005365371704,16.87315368652344,86.21615600585938,-1.8258056640625
171188,-3.26690673828125,3.715591430664062,0.9950103759765624,0.3762476742267609,-1.347256422042847,-1.727956891059875,15.9742431640625,85.55123901367188,-2.393157958984375
171189,-1.654891967773438,1.872802734375,-0.155670166015625,0.3248180449008942,0.8309928178787231,0.1874194294214249,15.07211303710938,84.8822021484375,-2.324874877929688
171190,-1.654891967773438,1.872802734375,-0.155670166015625,0.3248180449008942,0.8309928178787231,0.1874194294214249,15.07211303710938,84.8822021484375,-2.324874877929688
171191,-0.6835784912109375,1.572769165039062,-0.92120361328125,0.2669731080532074,0.6003556251525879,1.423792243003845,14.65313720703125,84.2340087890625,-2.06964111328125
171192,-0.4425201416015625,1.678848266601562,-0.5086212158203125,0.0191910043358802,-0.5116657018661499,1.806586980819702,14.6572265625,84.0361328125,-1.87115478515625
171193,-0.4425201416015625,1.678848266601562,-0.5086212158203125,0.0191910043358802,-0.5116657018661499,1.806586980819702,14.6572265625,84.0361328125,-1.87115478515625
171194,-0.3255157470703125,1.607376098632812,-0.0971527099609375,-0.2779282927513123,-1.173545598983765,1.564606904983521,16.51654052734375,84.79208374023438,0.559661865234375
171195,-0.1280670166015625,1.364044189453125,0.0683441162109375,-0.2779282927513123,-1.173545598983765,1.564606904983521,16.51654052734375,84.79208374023438,0.559661865234375
171196,-0.3093719482421875,1.071029663085938,-0.170501708984375,0.7772246599197388,0.5506748557090759,0.4664111137390137,17.58085632324219,85.38633728027344,1.46875
171197,-0.4808502197265625,0.8985595703125,-0.4402313232421875,0.7828974723815918,1.030686259269714,0.4879547655582428,17.8182373046875,85.70783996582031,1.150115966796875
171198,-0.4808502197265625,0.8985595703125,-0.4402313232421875,0.7828974723815918,1.030686259269714,0.4879547655582428,17.8182373046875,85.70783996582031,1.150115966796875
171199,-0.449859619140625,0.7230987548828125,-0.517181396484375,0.3848933577537537,0.6854936480522156,0.5328455567359924,18.1466064453125,86.30909729003906,-0.193603515625
171200,-0.418487548828125,0.6681671142578125,-0.36224365234375,0.1557477861642838,0.3348693251609802,0.3764487504959106,18.31245422363281,86.5482177734375,-0.91192626953125
171201,-0.3946380615234375,0.593048095703125,-0.241485595703125,-0.0387354120612144,0.0199297666549682,0.1708132922649384,18.57276916503906,86.52336120605469,-1.215316772460938
171202,-0.3946380615234375,0.593048095703125,-0.241485595703125,-0.0387354120612144,0.0199297666549682,0.1708132922649384,18.57276916503906,86.52336120605469,-1.215316772460938
171203,-0.2930755615234375,0.42071533203125,-0.0629425048828125,-0.2174313813447952,-0.337530642747879,-0.0979832857847213,19.02812194824219,86.82499694824219,-1.663589477539062
171204,-0.2197265625,0.359710693359375,-0.0113983154296875,-0.1684484034776688,-0.4294882416725159,-0.153174102306366,19.16957092285156,86.68063354492188,-1.695892333984375
171205,-0.1339569091796875,0.289642333984375,0.0069122314453125,-0.0425834134221077,-0.5012173056602478,-0.1483798772096634,19.35064697265625,86.50410461425781,-1.55999755859375
171206,-0.0624237060546875,0.20684814453125,0.022552490234375,0.1125321388244629,-0.5354490280151367,-0.0774417966604232,19.4378662109375,86.33206176757812,-1.401397705078125
171207,-0.0151519775390625,0.1305389404296875,0.0324859619140625,0.2374599575996399,-0.5054325461387634,0.0301291402429342,19.40397644042969,86.30662536621094,-1.2359619140625
171208,0.01397705078125,0.0610198974609375,0.0244903564453125,0.3111349642276764,-0.4381613731384277,0.1443097740411758,19.53793334960938,86.20889282226562,-1.059921264648438
171209,0.0401763916015625,0.004547119140625,-0.00543212890625,0.3651087284088135,-0.3947257399559021,0.2552078068256378,19.58486938476562,86.28677368164062,-0.9630279541015624
171210,0.0668487548828125,-0.052154541015625,-0.04150390625,0.4309569895267487,-0.4193160533905029,0.3699860572814941,19.66070556640625,86.38211059570312,-0.975494384765625
171211,0.0892181396484375,-0.091156005859375,-0.07275390625,0.512863039970398,-0.4937146306037903,0.4953644573688507,19.86102294921875,86.44741821289062,-0.9205474853515624
171212,0.1028594970703125,-0.1063232421875,-0.0901641845703125,0.6296793818473816,-0.5681734085083008,0.6049506068229675,20.0443115234375,86.52471923828125,-0.666748046875
171213,0.1153106689453125,-0.1074981689453125,-0.101287841796875,0.7797136306762695,-0.5822535753250122,0.7025591731071472,20.27679443359375,86.62527465820312,-0.23345947265625
171214,0.165557861328125,-0.0497894287109375,-0.2769622802734375,1.124057412147522,-0.6602522134780884,0.900050699710846,20.73146057128906,87.16867065429688,-0.2630157470703125
171215,0.165557861328125,-0.0497894287109375,-0.2769622802734375,1.124057412147522,-0.6602522134780884,0.900050699710846,20.73146057128906,87.16867065429688,-0.2630157470703125
171216,0.165557861328125,-0.0497894287109375,-0.2769622802734375,1.124057412147522,-0.6602522134780884,0.900050699710846,20.73146057128906,87.16867065429688,-0.2630157470703125
171217,0.1871185302734375,0.2182769775390625,-0.1536865234375,0.9109930992126464,-0.5823081731796265,0.7649895548820496,21.31483459472656,87.93952941894531,-0.4319000244140625
171218,0.194244384765625,0.33441162109375,-0.0719146728515625,0.4355421364307404,-0.06425541639328,0.5621607899665833,21.75161743164062,88.33731079101562,-0.4223175048828125
171219,0.133087158203125,0.45208740234375,0.090423583984375,-0.0319281071424484,0.3484535813331604,0.3369583189487457,22.12800598144531,88.50582885742188,0.1911163330078125
171220,0.049530029296875,0.6085205078125,0.3431549072265625,-0.5328510999679565,0.9446905851364136,0.0426531881093978,22.30860900878906,88.66349792480469,0.147796630859375
171221,-0.0534515380859375,0.93341064453125,0.5427398681640625,-1.092072129249573,1.808758020401001,-0.2694548964500427,22.35197448730469,88.85075378417969,-0.1904296875
171222,-0.0534515380859375,0.93341064453125,0.5427398681640625,-1.092072129249573,1.808758020401001,-0.2694548964500427,22.35197448730469,88.85075378417969,-0.1904296875
171223,-0.234161376953125,1.417739868164062,0.715606689453125,-1.686182022094727,2.910056829452515,-0.6976659297943115,22.20719909667969,88.98117065429688,-0.82958984375
171224,-0.7357177734375,2.06573486328125,0.5150146484375,-2.052164077758789,3.787355899810791,-2.194862604141235,21.51799011230469,88.66120910644531,-2.169677734375
171225,-1.1153564453125,1.953048706054688,0.454498291015625,-1.232476353645325,2.435133457183838,-2.504617929458618,21.01336669921875,88.00796508789062,-2.82659912109375
171226,-1.461029052734375,1.859115600585938,0.6930389404296875,-0.0839042216539382,0.886227011680603,-2.359021902084351,20.48068237304688,87.15667724609375,-3.213714599609375
171227,-1.461029052734375,1.859115600585938,0.6930389404296875,-0.0839042216539382,0.886227011680603,-2.359021902084351,20.48068237304688,87.15667724609375,-3.213714599609375
171228,-1.683441162109375,1.847061157226562,0.9186859130859376,0.9511336088180542,-0.2243212461471558,-1.942173361778259,19.78350830078125,86.38143920898438,-3.8126220703125
171229,-1.516891479492188,1.877883911132812,0.7828369140625,1.203956246376038,-1.110932588577271,-1.109958410263062,18.40304565429688,85.35041809082031,-5.077163696289062
171230,-1.296737670898438,1.668075561523438,0.504669189453125,0.5388666987419128,-1.452843308448792,-0.7934904098510742,17.69436645507812,85.06753540039062,-5.279327392578125
171231,-1.096817016601562,1.480987548828125,0.2559356689453125,-0.1376984715461731,-1.944297671318054,-0.5883093476295471,17.23109436035156,84.85531616210938,-5.443984985351562
171232,-0.9392547607421876,1.461883544921875,0.00885009765625,-0.5604747533798218,-2.706928014755249,-0.4311167895793915,16.957763671875,84.75433349609375,-5.325210571289062
171233,-0.8395538330078125,1.545120239257812,-0.0441436767578125,-0.5403127670288086,-3.512650489807129,-0.3365449905395508,16.86947631835938,84.604736328125,-5.106369018554688
171234,-0.789642333984375,1.508560180664062,0.237396240234375,-0.2533870041370392,-3.548940896987915,-0.3110660016536713,16.86154174804688,84.46157836914062,-4.385940551757812
171235,-0.789642333984375,1.508560180664062,0.237396240234375,-0.2533870041370392,-3.548940896987915,-0.3110660016536713,16.86154174804688,84.46157836914062,-4.385940551757812
171236,-0.760894775390625,1.300094604492188,0.4867401123046875,-0.0089647332206368,-2.59428882598877,-0.2433527410030365,16.84251403808594,84.29389953613281,-3.285964965820312
171237,-0.610198974609375,0.90875244140625,0.27783203125,0.3464274406433105,-0.1373967379331589,0.0489297248423099,16.97711181640625,84.21650695800781,-1.032913208007812
171238,-0.610198974609375,0.90875244140625,0.27783203125,0.3464274406433105,-0.1373967379331589,0.0489297248423099,16.97711181640625,84.21650695800781,-1.032913208007812
171239,-0.39129638671875,0.7195892333984375,-0.02264404296875,0.6291254758834839,0.6349396705627441,0.2944492101669312,17.16667175292969,84.16716003417969,-0.5066375732421875
171240,-0.3143463134765625,0.6327362060546875,-0.0787200927734375,0.6353631019592285,0.5252970457077026,0.3915706872940063,17.31494140625,84.21258544921875,-0.5995941162109375
171241,-0.249755859375,0.542694091796875,-0.1261444091796875,0.5534975528717041,0.2790135145187378,0.4745204448699951,17.53584289550781,84.19792175292969,-0.7503204345703125
171242,-0.116363525390625,0.3725128173828125,-0.2263641357421875,0.356440931558609,-0.427236020565033,0.6488410830497742,18.14324951171875,84.48165893554688,-1.170135498046875
171243,-0.116363525390625,0.3725128173828125,-0.2263641357421875,0.356440931558609,-0.427236020565033,0.6488410830497742,18.14324951171875,84.48165893554688,-1.170135498046875
171244,-0.056915283203125,0.3007965087890625,-0.224517822265625,0.2990421056747437,-0.696666419506073,0.7947642207145691,18.46194458007812,84.63613891601562,-1.189102172851562
171245,-0.016021728515625,0.252197265625,-0.2043304443359375,0.2913833856582642,-0.7523797750473022,1.017693161964417,18.80625915527344,84.78266906738281,-1.162338256835938
171246,-0.0395965576171875,0.241302490234375,-0.1945037841796875,0.3846227824687958,-0.4990801215171814,1.148031711578369,19.10115051269531,85.05221557617188,-0.959625244140625
171247,-0.0395965576171875,0.241302490234375,-0.1945037841796875,0.3846227824687958,-0.4990801215171814,1.148031711578369,19.10115051269531,85.05221557617188,-0.959625244140625
171248,-0.066864013671875,0.212799072265625,-0.196044921875,0.5572725534439087,-0.0806809961795806,1.142154932022095,19.38328552246094,85.51496887207031,-0.827728271484375
171249,-0.067230224609375,0.052825927734375,-0.2793731689453125,0.9242767095565796,0.669094443321228,0.9401373863220216,19.771240234375,86.33004760742188,-0.5203399658203125
171250,-0.067230224609375,0.052825927734375,-0.2793731689453125,0.9242767095565796,0.669094443321228,0.9401373863220216,19.771240234375,86.33004760742188,-0.5203399658203125
171251,-0.00360107421875,-0.09893798828125,-0.357574462890625,0.7596363425254822,1.218008160591125,0.6062659621238708,20.18423461914062,87.26681518554688,-1.168563842773438
171252,0.0442962646484375,-0.14129638671875,-0.4273223876953125,0.5430853962898254,1.111828684806824,0.4897044599056244,20.28941345214844,87.54417419433594,-1.66796875
171253,0.07965087890625,-0.143768310546875,-0.440887451171875,0.3503167331218719,0.6050262451171875,0.4380894601345062,20.40130615234375,87.76898193359375,-2.2723388671875
171254,0.07965087890625,-0.143768310546875,-0.440887451171875,0.3503167331218719,0.6050262451171875,0.4380894601345062,20.40130615234375,87.76898193359375,-2.2723388671875
171255,0.101287841796875,-0.125244140625,-0.3506317138671875,0.1600189656019211,0.0214131474494934,0.4292253851890564,20.5797119140625,87.88250732421875,-2.689895629882812
171256,0.11273193359375,-0.073944091796875,-0.087860107421875,-0.2150326818227768,-0.6294474601745605,0.4513027369976044,20.84727478027344,88.32327270507812,-3.027053833007812
171257,0.117919921875,-0.064483642578125,-0.0081787109375,-0.4149678945541382,-0.6621374487876892,0.4633833765983582,20.96292114257812,88.44685363769531,-2.815414428710938
171258,0.117919921875,-0.064483642578125,-0.0081787109375,-0.4149678945541382,-0.6621374487876892,0.4633833765983582,20.96292114257812,88.44685363769531,-2.815414428710938
171259,0.1307525634765625,-0.050933837890625,0.0077362060546875,-0.7135173082351685,-0.6770429015159607,0.5242360830307007,21.45559692382812,88.58503723144531,-2.065444946289062
171260,0.142181396484375,-0.0262451171875,0.0048980712890625,-0.7624526023864746,-0.7627626061439514,0.5550861358642578,21.61253356933594,88.55491638183594,-1.400985717773438
171261,0.138336181640625,0.0488433837890625,0.0441741943359375,-0.7796462774276733,-0.8449637293815613,0.5552845001220703,21.97584533691406,88.66862487792969,-0.8438720703125
171262,0.09576416015625,0.18341064453125,0.1396942138671875,-0.8295344710350037,-0.7979975938796997,0.4791564643383026,22.21842956542969,88.6746826171875,-0.2331695556640625
171263,0.09576416015625,0.18341064453125,0.1396942138671875,-0.8295344710350037,-0.7979975938796997,0.4791564643383026,22.21842956542969,88.6746826171875,-0.2331695556640625
171264,0.0449371337890625,0.6947174072265625,0.4052581787109375,-1.283407092094421,-0.1131680980324745,-0.0562403686344623,22.72720336914062,88.7432861328125,1.061767578125
171265,-0.0750274658203125,1.94244384765625,0.6142120361328125,-1.761174201965332,0.4769124984741211,-0.5464212894439697,22.97665405273438,88.76396179199219,1.51446533203125
171266,-0.72283935546875,4.010696411132812,1.144485473632812,-2.499630212783813,2.38542103767395,-2.116078615188599,21.8916015625,89.22312927246094,0.0318145751953125
171267,-0.72283935546875,4.010696411132812,1.144485473632812,-2.499630212783813,2.38542103767395,-2.116078615188599,21.8916015625,89.22312927246094,0.0318145751953125
171268,-1.372573852539062,4.204849243164062,1.084213256835938,-2.05087947845459,2.756282329559326,-3.460617780685425,21.10093688964844,88.92576599121094,0.17059326171875
171269,-1.801727294921875,3.231552124023438,1.0465087890625,-1.123162031173706,2.198911905288696,-4.22844934463501,19.95391845703125,88.23092651367188,0.1766510009765625
171270,-2.090805053710938,2.045150756835938,1.063720703125,0.1524369418621063,1.286631464958191,-3.907815456390381,18.55799865722656,87.27998352050781,-0.164306640625
171271,-2.090805053710938,2.045150756835938,1.063720703125,0.1524369418621063,1.286631464958191,-3.907815456390381,18.55799865722656,87.27998352050781,-0.164306640625
171272,-2.377792358398438,0.782989501953125,0.8116607666015625,1.229533553123474,0.2323331087827682,-1.773631691932678,15.91085815429688,84.78533935546875,-1.566970825195312
171273,-2.164337158203125,0.759307861328125,-0.1605682373046875,0.7397105693817139,0.0734470561146736,-0.2793112695217133,14.92572021484375,83.91485595703125,-2.317703247070312
171274,-1.434677124023438,1.633544921875,-1.267593383789062,0.9291425347328186,-2.289895534515381,0.4131271243095398,14.16285705566406,83.37985229492188,-3.085128784179688
171275,-0.85284423828125,2.450546264648438,-1.002288818359375,0.8405799269676208,-3.113470554351807,0.7748895883560181,13.59162902832031,83.1405029296875,-3.51666259765625
171276,-0.413330078125,2.8541259765625,-0.7629241943359375,0.3018477261066437,-1.501408219337463,0.9846467971801758,13.28231811523438,83.29371643066406,-3.3062744140625
171277,-0.1764373779296875,2.623443603515625,-0.5036468505859375,0.0345720909535884,-0.2642476260662079,1.195020794868469,13.29081726074219,83.3006591796875,-2.626708984375
171278,-0.1711578369140625,2.123779296875,-0.0949859619140625,-0.0282862335443496,0.4073871970176697,1.110106468200684,13.52677917480469,83.54377746582031,-1.896896362304688
171279,-0.1711578369140625,2.123779296875,-0.0949859619140625,-0.0282862335443496,0.4073871970176697,1.110106468200684,13.52677917480469,83.54377746582031,-1.896896362304688
171280,-0.1351470947265625,1.456954956054688,-0.20001220703125,0.2151916772127151,0.3758447170257568,0.6766668558120728,14.56649780273438,83.88777160644531,-1.203384399414062
171281,-0.1917266845703125,1.3350830078125,-0.200653076171875,0.3807201683521271,0.262259304523468,0.480469673871994,15.10530090332031,84.16947937011719,-1.26385498046875
171282,-0.3693084716796875,1.015533447265625,-0.25341796875,0.5188996195793152,0.37545245885849,0.3215556740760803,15.70835876464844,84.56504821777344,-1.536087036132812
171283,-0.3693084716796875,1.015533447265625,-0.25341796875,0.5188996195793152,0.37545245885849,0.3215556740760803,15.70835876464844,84.56504821777344,-1.536087036132812
171284,-0.4071502685546875,0.807342529296875,-0.2102813720703125,0.5050594210624695,0.3843993246555328,0.3328179121017456,15.93699645996094,84.76722717285156,-1.716888427734375
171285,-0.384765625,0.6132965087890625,-0.1583099365234375,0.4631841778755188,0.3366560637950897,0.3566145896911621,16.1644287109375,84.93026733398438,-2.001083374023438
171286,-0.3273162841796875,0.45074462890625,-0.1028289794921875,0.4440189898014069,0.2317839562892914,0.3408436179161072,16.40512084960938,85.13209533691406,-2.456787109375
171287,-0.26318359375,0.31671142578125,-0.0628204345703125,0.4579451978206635,0.0622055828571319,0.2875303030014038,16.60617065429688,85.36668395996094,-3.001632690429688
171288,-0.194122314453125,0.2008514404296875,-0.04669189453125,0.4771497845649719,-0.1405102461576462,0.236161932349205,16.90536499023438,85.54388427734375,-3.278060913085938
171289,-0.129058837890625,0.10211181640625,-0.064178466796875,0.5012415051460266,-0.3693306446075439,0.2071393430233002,17.13644409179688,85.57356262207031,-3.408828735351562
171290,-0.058258056640625,0.013671875,-0.1035614013671875,0.5609908699989319,-0.6175715923309326,0.2271330207586288,17.45973205566406,85.62333679199219,-3.359207153320312
171291,0.0087127685546875,-0.061737060546875,-0.1490325927734375,0.6821324825286865,-0.8946596384048462,0.2991787195205688,17.6893310546875,85.85321044921875,-3.5218505859375
171292,0.0545806884765625,-0.1159820556640625,-0.155303955078125,0.819499671459198,-1.146741986274719,0.405448704957962,17.86579895019531,85.88575744628906,-3.497894287109375
171293,0.0907745361328125,-0.1571044921875,-0.1213836669921875,0.9361703395843506,-1.291493058204651,0.5161315202713013,18.13641357421875,86.02999877929688,-3.314163208007812
171294,0.119110107421875,-0.1790618896484375,-0.118896484375,1.040911436080933,-1.290560364723206,0.6419413685798645,18.4075927734375,86.14047241210938,-3.065948486328125
171295,0.119110107421875,-0.1790618896484375,-0.118896484375,1.040911436080933,-1.290560364723206,0.6419413685798645,18.4075927734375,86.14047241210938,-3.065948486328125
171296,0.145721435546875,-0.1860504150390625,-0.1708831787109375,1.147539615631104,-1.210549712181091,0.769805908203125,18.814453125,86.31939697265625,-2.8411865234375
171297,0.17138671875,-0.175933837890625,-0.206787109375,1.223873257637024,-1.10871684551239,0.870823860168457,19.11053466796875,86.63880920410156,-2.602981567382812
171298,0.195343017578125,-0.152130126953125,-0.2118682861328125,1.112386345863342,-0.6498456597328186,0.8469094634056091,19.47756958007812,87.02381896972656,-2.465438842773438
171299,0.195343017578125,-0.152130126953125,-0.2118682861328125,1.112386345863342,-0.6498456597328186,0.8469094634056091,19.47756958007812,87.02381896972656,-2.465438842773438
171300,0.165374755859375,-0.07635498046875,-0.2668609619140625,0.9346643686294556,-0.1400404572486877,0.66566002368927,19.99287414550781,87.42193603515625,-2.389053344726562
171301,0.165374755859375,-0.07635498046875,-0.2668609619140625,0.9346643686294556,-0.1400404572486877,0.66566002368927,19.99287414550781,87.42193603515625,-2.389053344726562
171302,0.0967559814453125,0.073394775390625,-0.266876220703125,0.8683934211730957,-0.0059268651530146,0.3563157618045807,20.33671569824219,87.86058044433594,-2.34100341796875
171303,0.0967559814453125,0.073394775390625,-0.266876220703125,0.8683934211730957,-0.0059268651530146,0.3563157618045807,20.33671569824219,87.86058044433594,-2.34100341796875
171304,0.0967559814453125,0.073394775390625,-0.266876220703125,0.8683934211730957,-0.0059268651530146,0.3563157618045807,20.33671569824219,87.86058044433594,-2.34100341796875
171305,-0.0392303466796875,0.3158721923828125,0.2435302734375,0.50539630651474,0.5348895192146301,-0.6627585291862488,21.16749572753906,88.56956481933594,-3.508529663085938
171306,-0.3427886962890625,1.224029541015625,0.4800262451171875,-0.7724946141242981,2.303228378295898,-1.111719846725464,20.38229370117188,88.48342895507812,-4.696456909179688
171307,-0.3427886962890625,1.224029541015625,0.4800262451171875,-0.7724946141242981,2.303228378295898,-1.111719846725464,20.38229370117188,88.48342895507812,-4.696456909179688
171308,-0.3427886962890625,1.224029541015625,0.4800262451171875,-0.7724946141242981,2.303228378295898,-1.111719846725464,20.38229370117188,88.48342895507812,-4.696456909179688
171309,-1.035598754882812,2.070175170898438,0.7244110107421875,-1.533574938774109,2.874340534210205,-1.439507842063904,19.28659057617188,88.01278686523438,-6.311965942382812
171310,-1.865325927734375,2.136611938476562,0.819976806640625,-0.2425591051578522,1.010119199752808,-0.8565027117729187,18.37440490722656,87.11021423339844,-7.859283447265625
171311,-1.8399658203125,2.046005249023438,0.8356781005859375,0.6164400577545166,-0.2295596897602081,-0.2950811684131622,18.078857421875,86.55935668945312,-8.346878051757812
171312,-1.4654541015625,2.0584716796875,0.8003082275390625,0.942247986793518,-1.179513216018677,-0.1315162181854248,17.75634765625,86.19952392578125,-8.843093872070312
171313,-1.303268432617188,2.064315795898438,0.8366241455078125,0.6441230773925781,-1.604437947273254,-0.3679713606834412,17.521240234375,86.07945251464844,-9.090164184570312
171314,-1.191268920898438,1.874130249023438,0.7501220703125,0.0392320901155471,-1.760992407798767,-0.5886065363883972,17.36630249023438,86.31820678710938,-9.311553955078123
171315,-1.191268920898438,1.874130249023438,0.7501220703125,0.0392320901155471,-1.760992407798767,-0.5886065363883972,17.36630249023438,86.31820678710938,-9.311553955078123
171316,-0.7951812744140625,1.462020874023438,0.2026519775390625,-0.3651380240917206,-2.599753141403198,-0.3557384014129639,17.14028930664062,86.17440795898438,-8.794174194335938
171317,-0.7015533447265625,1.360595703125,0.072174072265625,0.0015459649730473,-3.051524877548218,-0.1857592165470123,17.20027160644531,85.76177978515625,-7.198043823242188
171318,-0.6900634765625,1.186019897460938,0.2936859130859375,0.2923053503036499,-2.729354619979858,-0.082654133439064,17.28132629394531,85.71467590332031,-6.178497314453125
171319,-0.6900634765625,1.186019897460938,0.2936859130859375,0.2923053503036499,-2.729354619979858,-0.082654133439064,17.28132629394531,85.71467590332031,-6.178497314453125
171320,-0.67364501953125,0.76275634765625,0.197296142578125,0.2305075079202652,-0.9928115606307985,0.0057439059019088,17.36483764648438,85.89854431152344,-4.697769165039062
171321,-0.6227264404296875,0.62176513671875,0.002410888671875,0.1682641059160233,-0.5749221444129944,0.0773413926362991,17.5650634765625,86.03799438476562,-4.248275756835938
171322,-0.558929443359375,0.5151824951171875,-0.149322509765625,0.1668563634157181,-0.5564262270927429,0.1256444752216339,17.64875793457031,86.12394714355469,-3.801742553710938
171323,-0.558929443359375,0.5151824951171875,-0.149322509765625,0.1668563634157181,-0.5564262270927429,0.1256444752216339,17.64875793457031,86.12394714355469,-3.801742553710938
171324,-0.407501220703125,0.351043701171875,-0.239105224609375,0.2071579843759537,-0.8749141693115234,0.1741843223571777,17.92529296875,86.21304321289062,-3.3785400390625
171325,-0.3079376220703125,0.34307861328125,-0.28765869140625,0.2684298455715179,-0.8788724541664124,0.2157203108072281,18.23902893066406,86.17575073242188,-3.120361328125
171326,-0.20660400390625,0.3640899658203125,-0.3071441650390625,0.3706563711166382,-0.6815508604049683,0.3199146091938019,18.54667663574219,86.14656066894531,-2.859344482421875
171327,-0.20660400390625,0.3640899658203125,-0.3071441650390625,0.3706563711166382,-0.6815508604049683,0.3199146091938019,18.54667663574219,86.14656066894531,-2.859344482421875
171328,-0.15179443359375,0.396331787109375,-0.2187652587890625,0.3608319461345673,0.5913780927658081,0.8002045154571533,18.84083557128906,86.41835021972656,-2.390716552734375
171329,-0.1199493408203125,0.3544769287109375,-0.26690673828125,0.3786338567733765,1.132737517356873,0.8360008597373962,18.87442016601562,86.64375305175781,-2.200363159179688
171330,-0.095977783203125,0.262725830078125,-0.3224029541015625,0.4370148777961731,1.35486114025116,0.8128827810287476,18.89605712890625,86.98500061035156,-2.3492431640625
171331,-0.092926025390625,0.1691131591796875,-0.3787994384765625,0.5230035781860352,1.311368227005005,0.7649839520454407,18.97506713867188,87.24366760253906,-2.680831909179688
171332,-0.0889129638671875,0.0966644287109375,-0.4163360595703125,0.58458411693573,1.131851196289062,0.7200111746788025,19.14743041992188,87.43211364746094,-3.089736938476562
171333,-0.0835723876953125,0.0370025634765625,-0.426910400390625,0.583986222743988,0.9634613394737244,0.6982142329216003,19.24935913085938,87.75434875488281,-3.506179809570312
171334,-0.0351104736328125,-0.043792724609375,-0.3613128662109375,0.4788638055324554,0.8599898219108582,0.7370508909225464,19.302978515625,88.29978942871094,-4.643905639648438
171335,-0.0351104736328125,-0.043792724609375,-0.3613128662109375,0.4788638055324554,0.8599898219108582,0.7370508909225464,19.302978515625,88.29978942871094,-4.643905639648438
171336,0.0305938720703125,-0.060455322265625,-0.31317138671875,0.3227343857288361,0.9505099058151244,0.7308238744735718,19.49298095703125,88.47047424316406,-5.208526611328125
171337,0.0890960693359375,-0.0641326904296875,-0.3112640380859375,0.1639577746391296,0.9294565320014954,0.7203989028930664,19.64227294921875,88.7769775390625,-5.479415893554688
171338,0.1175537109375,-0.0723876953125,-0.29486083984375,0.0688152834773063,0.7147793769836426,0.7231528759002686,19.73439025878906,89.06752014160156,-5.739059448242188
171339,0.1175537109375,-0.0723876953125,-0.29486083984375,0.0688152834773063,0.7147793769836426,0.7231528759002686,19.73439025878906,89.06752014160156,-5.739059448242188
171340,0.1124420166015625,-0.0522613525390625,-0.1483001708984375,-0.0528807900846004,0.1916748881340027,0.7392570376396179,20.19123840332031,89.32527160644531,-5.846145629882812
171341,0.1102294921875,-0.03790283203125,-0.0953369140625,-0.1424346417188644,0.0189385376870632,0.7191842794418335,20.41293334960938,89.57896423339844,-5.84600830078125
171342,0.1134796142578125,-0.012786865234375,-0.078857421875,-0.2366418391466141,-0.1093331500887871,0.6950429677963257,20.68600463867188,89.79513549804688,-5.73504638671875
171343,0.1114349365234375,0.063934326171875,-0.09405517578125,-0.2927282750606537,-0.2276880145072937,0.6364645957946777,20.9022216796875,89.950439453125,-5.628555297851562
171344,0.0831451416015625,0.221954345703125,-0.0838623046875,-0.3184850215911865,-0.3328458666801453,0.4929987788200378,21.12890625,90.1554718017578,-5.372711181640625
171345,0.042999267578125,0.4225616455078125,0.0104827880859375,-0.4131244719028473,-0.3431267440319061,0.2162031382322311,21.2904052734375,90.2980499267578,-5.146575927734375
171346,-0.008758544921875,0.7062530517578125,0.182037353515625,-0.6465164422988892,-0.17149718105793,-0.1565310209989548,21.34947204589844,90.43515014648438,-4.983413696289062
171347,-0.008758544921875,0.7062530517578125,0.182037353515625,-0.6465164422988892,-0.17149718105793,-0.1565310209989548,21.34947204589844,90.43515014648438,-4.983413696289062
171348,-0.355316162109375,2.47003173828125,0.543060302734375,-1.810767889022827,1.304587841033936,-1.357025384902954,20.96307373046875,90.52403259277344,-4.404632568359375
171349,-0.571075439453125,3.348861694335938,0.2702484130859375,-2.236819505691528,1.592798590660095,-2.397387266159058,20.35479736328125,90.31114196777344,-4.3135986328125
171350,-0.8328857421875,3.81744384765625,0.306549072265625,-2.519359350204468,1.133364081382751,-3.70291805267334,19.3726806640625,89.73597717285156,-4.297744750976562
171351,-0.8328857421875,3.81744384765625,0.306549072265625,-2.519359350204468,1.133364081382751,-3.70291805267334,19.3726806640625,89.73597717285156,-4.297744750976562
171352,-2.215057373046875,2.316650390625,1.101242065429688,-1.987001776695251,0.1618773192167282,-4.048568248748779,16.57319641113281,87.87933349609375,-3.865707397460938
171353,-3.239944458007812,1.2322998046875,1.391403198242188,-1.211339592933655,1.527492761611938,-1.057847499847412,15.06044006347656,86.61154174804688,-3.610763549804688
171354,-2.344802856445312,1.825790405273438,-0.32122802734375,0.6818853616714478,0.7135689854621887,-0.084438182413578,13.74983215332031,84.95050048828125,-3.74212646484375
171355,-2.344802856445312,1.825790405273438,-0.32122802734375,0.6818853616714478,0.7135689854621887,-0.084438182413578,13.74983215332031,84.95050048828125,-3.74212646484375
171356,-1.646621704101562,1.960494995117188,-0.4723358154296875,0.6423789262771606,-1.9448002576828,-0.0115820877254009,13.65350341796875,84.66206359863281,-4.097122192382812
171357,-1.080825805664062,2.082244873046875,-0.25579833984375,0.424057275056839,-2.125940799713135,0.1598301380872726,13.41069030761719,84.54307556152344,-4.323440551757812
171358,-0.641571044921875,2.163101196289062,-0.5742034912109375,0.3492112457752228,-0.6385567784309387,0.4642057418823242,13.37039184570312,84.494384765625,-4.001129150390625
171359,-0.641571044921875,2.163101196289062,-0.5742034912109375,0.3492112457752228,-0.6385567784309387,0.4642057418823242,13.37039184570312,84.494384765625,-4.001129150390625
171360,-0.31304931640625,1.830337524414062,-0.8107452392578125,0.0347217619419097,0.2232847511768341,0.7233414649963379,13.91535949707031,84.240966796875,-3.183868408203125
171361,-0.3320770263671875,1.552780151367188,-0.5282135009765625,-0.2452598214149475,-0.2851736843585968,0.5532568097114563,14.30096435546875,84.30400085449219,-3.272216796875
171362,-0.3556671142578125,1.334396362304688,-0.3722991943359375,-0.3156852424144745,-0.4876048266887665,0.3984538912773132,14.63572692871094,84.3468017578125,-3.326492309570312
171363,-0.3556671142578125,1.334396362304688,-0.3722991943359375,-0.3156852424144745,-0.4876048266887665,0.3984538912773132,14.63572692871094,84.3468017578125,-3.326492309570312
171364,-0.386505126953125,0.96234130859375,-0.2649993896484375,0.1518321335315704,-0.072184182703495,0.491859495639801,15.4901123046875,84.45022583007812,-2.688644409179688
171365,-0.372528076171875,0.8153533935546875,-0.2385711669921875,0.32688969373703,0.1896884441375732,0.5791469812393188,16.20323181152344,83.83116149902344,-0.4424285888671875
171366,-0.33258056640625,0.5271148681640625,-0.224212646484375,0.4062873125076294,0.307164192199707,0.6233972907066345,16.95808410644531,84.12892150878906,-0.58477783203125
171367,-0.33258056640625,0.5271148681640625,-0.224212646484375,0.4062873125076294,0.307164192199707,0.6233972907066345,16.95808410644531,84.12892150878906,-0.58477783203125
171368,-0.28106689453125,0.392730712890625,-0.20111083984375,0.3710382580757141,0.1930847764015198,0.5699156522750854,17.31806945800781,84.27708435058594,-0.707000732421875
171369,-0.2244873046875,0.2729339599609375,-0.17041015625,0.2968330085277557,-0.0118484031409025,0.4856601655483246,17.61659240722656,84.48223876953125,-0.925384521484375
171370,-0.156280517578125,0.1575164794921875,-0.1523895263671875,0.212182030081749,-0.2726349830627441,0.405495822429657,17.86048889160156,84.65168762207031,-1.0745849609375
171371,-0.156280517578125,0.1575164794921875,-0.1523895263671875,0.212182030081749,-0.2726349830627441,0.405495822429657,17.86048889160156,84.65168762207031,-1.0745849609375
171372,-0.0154876708984375,-0.0307769775390625,-0.184295654296875,0.159407764673233,-0.8862496614456177,0.3701937794685364,18.25881958007812,84.88911437988281,-1.26190185546875
171373,0.0565185546875,-0.110931396484375,-0.215606689453125,0.2950628101825714,-1.22965681552887,0.4468837678432465,18.47935485839844,85.11155700683594,-1.277313232421875
171374,0.11669921875,-0.1620330810546875,-0.2120513916015625,0.5284126996994019,-1.514291524887085,0.5990578532218933,18.66731262207031,85.20947265625,-1.18511962890625
171375,0.11669921875,-0.1620330810546875,-0.2120513916015625,0.5284126996994019,-1.514291524887085,0.5990578532218933,18.66731262207031,85.20947265625,-1.18511962890625
171376,0.2004241943359375,-0.1389007568359375,-0.1317901611328125,1.091150641441345,-1.591909289360046,1.002672910690308,19.36021423339844,85.734130859375,-0.46759033203125
171377,0.2852325439453125,-0.105255126953125,-0.0813140869140625,1.211260557174683,-0.8727570176124573,1.136732459068298,19.76100158691406,86.07060241699219,-0.0822601318359375
171378,0.4039764404296875,-0.0756988525390625,-0.4021759033203125,1.056609988212585,0.4186726212501526,1.14737606048584,20.23300170898438,86.56747436523438,0.1732330322265625
171379,0.4039764404296875,-0.0756988525390625,-0.4021759033203125,1.056609988212585,0.4186726212501526,1.14737606048584,20.23300170898438,86.56747436523438,0.1732330322265625
171380,0.2814788818359375,0.2644500732421875,-0.560455322265625,0.932394802570343,0.1857544183731079,0.8314940333366394,21.13568115234375,87.29415893554688,0.1293792724609375
171381,0.2068023681640625,0.3814239501953125,-0.279876708984375,0.7657432556152344,-0.1878340840339661,0.4822497367858887,21.52125549316406,87.59274291992188,-0.188568115234375
171382,0.14599609375,0.4473114013671875,-0.14642333984375,0.6113038659095764,-0.4187551736831665,0.1924421489238739,21.81460571289062,87.9176025390625,-0.5886077880859375
171383,0.14599609375,0.4473114013671875,-0.14642333984375,0.6113038659095764,-0.4187551736831665,0.1924421489238739,21.81460571289062,87.9176025390625,-0.5886077880859375
171384,0.0405426025390625,0.49615478515625,0.13201904296875,0.4513389468193054,-0.4023498296737671,-0.2152129709720612,22.18655395507812,88.22311401367188,-0.9802093505859376
171385,0.0018768310546875,0.5444488525390625,0.3097076416015625,0.2586459219455719,-0.0969310700893402,-0.4337642192840576,22.11660766601562,88.31297302246094,-1.171859741210938
171386,-0.0542755126953125,0.7371368408203125,0.479034423828125,-0.1180896237492561,0.4296038448810577,-0.5992775559425354,22.08528137207031,88.36869812011719,-1.317794799804688
171387,-0.0542755126953125,0.7371368408203125,0.479034423828125,-0.1180896237492561,0.4296038448810577,-0.5992775559425354,22.08528137207031,88.36869812011719,-1.317794799804688
171388,-0.483795166015625,1.724746704101562,0.8745880126953125,-1.478033304214478,2.116192579269409,-0.9457593560218812,21.642333984375,88.25993347167969,-1.813949584960938
171389,-0.854583740234375,2.15789794921875,0.86273193359375,-1.852169990539551,2.514938592910767,-1.466521620750427,21.338134765625,88.02806091308594,-2.282180786132812
171390,-1.263748168945312,2.146072387695312,0.7670440673828125,-1.355905890464783,1.724798679351807,-1.737711310386658,21.129638671875,87.54522705078125,-2.806365966796875
171391,-1.263748168945312,2.146072387695312,0.7670440673828125,-1.355905890464783,1.724798679351807,-1.737711310386658,21.129638671875,87.54522705078125,-2.806365966796875
171392,-1.723403930664062,1.783828735351562,0.94256591796875,0.5469951629638672,-0.6554825305938721,-1.388182520866394,20.30079650878906,86.28709411621094,-3.255722045898438
171393,-1.644546508789062,1.6812744140625,0.9735107421875,1.030767917633057,-1.117786526679993,-1.021944642066956,19.89744567871094,85.69793701171875,-3.488235473632812
171394,-1.113784790039062,1.45928955078125,0.5778961181640625,0.2968577742576599,-1.593016147613525,-0.1443326771259308,19.18008422851562,85.22018432617188,-3.996917724609375
171395,-1.113784790039062,1.45928955078125,0.5778961181640625,0.2968577742576599,-1.593016147613525,-0.1443326771259308,19.18008422851562,85.22018432617188,-3.996917724609375
171396,-0.8486175537109375,1.525360107421875,0.219512939453125,-0.2684016227722168,-2.153362989425659,0.0230083800852298,18.85981750488281,85.28424072265625,-4.108688354492188
171397,-0.6863250732421875,1.534011840820312,0.284271240234375,-0.5913066864013672,-2.598015785217285,0.0198988728225231,18.78167724609375,85.32199096679688,-3.6912841796875
171398,-0.5700836181640625,1.373519897460938,0.5371551513671875,-0.6196467280387878,-2.19695520401001,0.0397554002702236,18.7939453125,85.34907531738281,-2.981979370117188
171399,-0.5700836181640625,1.373519897460938,0.5371551513671875,-0.6196467280387878,-2.19695520401001,0.0397554002702236,18.7939453125,85.34907531738281,-2.981979370117188
171400,-0.3861236572265625,1.019912719726562,0.4974517822265625,-0.179298922419548,-0.7309753894805908,0.135292574763298,19.05583190917969,85.30744934082031,-1.268707275390625
171401,-0.334869384765625,0.86358642578125,0.42803955078125,-0.0455214120447635,-0.0999649465084075,0.1431646198034286,19.30241394042969,85.45388793945312,-0.564788818359375
171402,-0.290740966796875,0.71331787109375,0.3112945556640625,-0.0402555428445339,0.2666154503822327,0.1466078162193298,19.50682067871094,85.43707275390625,-0.064605712890625
171403,-0.2558746337890625,0.5826568603515625,0.1910552978515625,-0.11792903393507,0.3250025808811188,0.1506142765283585,19.69256591796875,85.41606140136719,0.213897705078125
171404,-0.22747802734375,0.469696044921875,0.1102447509765625,-0.2209744602441788,0.1675706207752228,0.1592833995819092,19.80810546875,85.40452575683594,0.239837646484375
171405,-0.216033935546875,0.3888397216796875,0.0837860107421875,-0.3199338018894196,-0.0363561436533927,0.1482416689395905,19.98515319824219,85.25593566894531,0.3871612548828125
171406,-0.2032623291015625,0.33258056640625,0.0580291748046875,-0.385985255241394,-0.2149804830551147,0.1091025173664093,20.23454284667969,85.24824523925781,0.489044189453125
171407,-0.1619110107421875,0.2805023193359375,-0.00946044921875,-0.3821958303451538,-0.3967731893062592,0.1069967597723007,20.30838012695312,85.29885864257812,0.620635986328125
171408,-0.1099700927734375,0.2604217529296875,-0.10296630859375,-0.3077455759048462,-0.6414875984191895,0.1649348884820938,20.36399841308594,85.33074951171875,1.002685546875
171409,-0.0844268798828125,0.302215576171875,-0.1990814208984375,-0.1485215574502945,-0.9401382207870485,0.2437348961830139,20.37115478515625,85.2772216796875,1.475357055664062
171410,-0.0977630615234375,0.3690032958984375,-0.2388916015625,0.1589803248643875,-1.17109227180481,0.2781280279159546,20.43087768554688,85.36297607421875,1.809707641601562
171411,-0.0977630615234375,0.3690032958984375,-0.2388916015625,0.1589803248643875,-1.17109227180481,0.2781280279159546,20.43087768554688,85.36297607421875,1.809707641601562
171412,-0.2070465087890625,0.3686065673828125,0.0130767822265625,0.9350593090057372,-0.2851792871952057,0.2218093574047089,20.31503295898438,85.70640563964844,2.381988525390625
171413,-0.2618560791015625,0.25177001953125,0.0048065185546875,1.141150712966919,0.7998215556144714,0.2251425683498383,20.27163696289062,85.95758056640625,2.586593627929688
171414,-0.2940826416015625,0.095489501953125,-0.153717041015625,1.207582712173462,1.718540787696838,0.2797235250473022,20.06965637207031,86.22145080566406,2.4765625
171415,-0.2940826416015625,0.095489501953125,-0.153717041015625,1.207582712173462,1.718540787696838,0.2797235250473022,20.06965637207031,86.22145080566406,2.4765625
171416,-0.1707611083984375,-0.0932464599609375,-0.5147857666015625,0.8289986252784729,2.143002986907959,0.6367644667625427,19.64373779296875,86.82855224609375,1.103042602539062
171417,-0.0801849365234375,-0.0553131103515625,-0.542083740234375,0.5691420435905457,1.532005786895752,0.7809067368507385,19.49241638183594,87.13351440429688,0.01806640625
171418,-0.0299835205078125,-0.0045318603515625,-0.4309539794921875,0.2785903513431549,0.8194924592971802,0.8591094017028809,19.4471435546875,87.29310607910156,-0.9169921875
171419,-0.0299835205078125,-0.0045318603515625,-0.4309539794921875,0.2785903513431549,0.8194924592971802,0.8591094017028809,19.4471435546875,87.29310607910156,-0.9169921875
171420,0.0129852294921875,0.0279998779296875,-0.2048492431640625,-0.2258035689592361,-0.1216254979372025,0.8465326428413391,19.66081237792969,87.81419372558594,-1.994873046875
171421,0.0272674560546875,0.0572357177734375,-0.158416748046875,-0.3006349205970764,-0.3106987476348877,0.8005664348602295,19.83604431152344,88.01045227050781,-1.913238525390625
171422,0.0339508056640625,0.1284637451171875,-0.130462646484375,-0.2151578515768051,-0.3510570824146271,0.7039338946342468,20.11198425292969,88.20083618164062,-1.779769897460938
171423,0.0339508056640625,0.1284637451171875,-0.130462646484375,-0.2151578515768051,-0.3510570824146271,0.7039338946342468,20.11198425292969,88.20083618164062,-1.779769897460938
171424,-0.00189208984375,0.445343017578125,-0.1435089111328125,0.135090708732605,-0.1941761374473572,0.2682226598262787,20.67164611816406,88.67770385742188,-1.193145751953125
171425,-0.0502471923828125,0.70318603515625,-0.158233642578125,0.2632902264595032,-0.1869280785322189,0.0515092648565769,20.7255859375,88.81448364257812,-0.9354705810546876
171426,-0.1680145263671875,1.089630126953125,-0.0720977783203125,0.2563542723655701,-0.0088720545172691,-0.1630863845348358,20.83332824707031,88.95860290527344,-0.8740997314453125
171427,-0.3966522216796875,1.76513671875,0.0204925537109375,-0.0279924850910902,0.5334798693656921,-0.5274965763092041,20.62559509277344,89.04754638671875,-0.9455108642578124
171428,-0.6805267333984375,2.563064575195312,-0.0777130126953125,-0.364767849445343,1.015671610832214,-1.211628794670105,20.23150634765625,89.24440002441406,-0.9272003173828124
171429,-0.9301910400390624,3.332809448242188,-0.100555419921875,-0.5521425604820251,0.9809916019439696,-2.033023834228516,19.70368957519531,89.1495361328125,-0.9830322265625
171430,-1.218994140625,3.5938720703125,0.06317138671875,-0.9948166012763976,0.8545458316802979,-2.633928298950195,18.94033813476562,88.94448852539062,-1.168319702148438
171431,-1.218994140625,3.5938720703125,0.06317138671875,-0.9948166012763976,0.8545458316802979,-2.633928298950195,18.94033813476562,88.94448852539062,-1.168319702148438
171432,-2.379104614257812,2.165725708007812,0.0758209228515625,-1.562350392341614,1.1049884557724,-1.350121736526489,16.92955017089844,87.72364807128906,-1.410797119140625
171433,-2.231964111328125,1.755996704101562,0.0777740478515625,-0.9253352880477904,0.9654784202575684,-0.2896304726600647,16.10997009277344,86.73675537109375,-1.280746459960938
171434,-1.662445068359375,1.612686157226562,0.124908447265625,-0.2660854756832123,0.4871158599853516,-0.1043554320931435,15.53395080566406,86.09996032714844,-1.22308349609375
171435,-1.662445068359375,1.612686157226562,0.124908447265625,-0.2660854756832123,0.4871158599853516,-0.1043554320931435,15.53395080566406,86.09996032714844,-1.22308349609375
171436,-0.9488677978515624,1.811767578125,-0.1856842041015625,0.0859572514891624,0.3064510226249695,0.0116497315466404,15.17454528808594,85.69918823242188,-1.590255737304688
171437,-0.7498626708984375,1.761886596679688,-0.4800872802734375,0.2899157106876373,0.3204547166824341,0.1819178760051727,15.07180786132812,85.61262512207031,-1.798431396484375
171438,-0.6361083984375,1.667755126953125,-0.60968017578125,0.3781206607818604,0.097277820110321,0.3943305313587189,15.08894348144531,85.39593505859375,-1.77349853515625
171439,-0.6361083984375,1.667755126953125,-0.60968017578125,0.3781206607818604,0.097277820110321,0.3943305313587189,15.08894348144531,85.39593505859375,-1.77349853515625
171440,-0.5003662109375,1.497100830078125,-0.597381591796875,0.0120356241241097,-0.2161855548620224,0.553729772567749,15.2540283203125,85.40524291992188,-2.015151977539062
171441,-0.45489501953125,1.370086669921875,-0.4740753173828125,-0.1765401512384415,-0.1536747813224792,0.5557228922843933,15.50889587402344,85.55101013183594,-2.124984741210938
171442,-0.451446533203125,1.208892822265625,-0.290191650390625,-0.111350491642952,-0.0697199553251266,0.6230736970901489,15.80302429199219,85.6285400390625,-2.0623779296875
171443,-0.4434814453125,1.08770751953125,-0.1887664794921875,0.064889520406723,0.0115876803174614,0.7186353802680969,16.15235900878906,85.73042297363281,-1.919952392578125
171444,-0.4177398681640625,0.9968414306640624,-0.15966796875,0.1982137560844421,0.0732643604278564,0.7532311677932739,16.522705078125,85.75930786132812,-1.731964111328125
171445,-0.3987579345703125,0.90142822265625,-0.1421356201171875,0.2697212100028992,0.1016584485769272,0.7208021283149719,16.94737243652344,85.99235534667969,-1.759140014648438
171446,-0.3808441162109375,0.7928009033203125,-0.1036834716796875,0.3214403390884399,0.1232010275125504,0.6505995988845825,17.33853149414062,86.27047729492188,-2.01727294921875
171447,-0.3808441162109375,0.7928009033203125,-0.1036834716796875,0.3214403390884399,0.1232010275125504,0.6505995988845825,17.33853149414062,86.27047729492188,-2.01727294921875
171448,-0.3096160888671875,0.548553466796875,-0.0408782958984375,0.4418983161449432,0.2135796546936035,0.4241568744182587,18.02641296386719,86.77740478515625,-2.481109619140625
171449,-0.2491912841796875,0.41217041015625,-0.065277099609375,0.4699874818325043,0.1403757482767105,0.3240981698036194,18.2784423828125,86.94668579101562,-2.745758056640625
171450,-0.1859283447265625,0.2806854248046875,-0.09130859375,0.459507942199707,-0.281011164188385,0.2229300141334534,18.53755187988281,87.05224609375,-3.015228271484375
171451,-0.1859283447265625,0.2806854248046875,-0.09130859375,0.459507942199707,-0.281011164188385,0.2229300141334534,18.53755187988281,87.05224609375,-3.015228271484375
171452,-0.1296234130859375,0.1694183349609375,-0.119873046875,0.459507942199707,-0.281011164188385,0.2229300141334534,18.74186706542969,87.10035705566406,-3.163604736328125
171453,-0.0803985595703125,0.0833740234375,-0.140594482421875,0.4594687819480896,-0.5269485116004944,0.2295397222042084,19.09747314453125,87.2415771484375,-3.440093994140625
171454,0.009796142578125,-0.0460357666015625,-0.18231201171875,0.5640154480934143,-0.9626001119613647,0.3459440767765045,19.63948059082031,87.37550354003906,-3.577468872070312
171455,0.009796142578125,-0.0460357666015625,-0.18231201171875,0.5640154480934143,-0.9626001119613647,0.3459440767765045,19.63948059082031,87.37550354003906,-3.577468872070312
171456,0.0523834228515625,-0.0908355712890625,-0.1757354736328125,0.6722558736801147,-1.104917883872986,0.4413385093212128,19.8880615234375,87.373046875,-3.578720092773438
171457,0.0931396484375,-0.1160125732421875,-0.1189117431640625,0.7668761610984802,-1.050360083580017,0.5368237495422363,20.11270141601562,87.45518493652344,-3.392623901367188
171458,0.209381103515625,-0.1391754150390625,-0.1328277587890625,0.6019705533981323,0.4371389746665955,0.6054888367652893,20.62960815429688,87.84225463867188,-2.986602783203125
171459,0.209381103515625,-0.1391754150390625,-0.1328277587890625,0.6019705533981323,0.4371389746665955,0.6054888367652893,20.62960815429688,87.84225463867188,-2.986602783203125
171460,0.2063140869140625,-0.0762176513671875,-0.271697998046875,0.6449949741363525,0.7911931872367859,0.623824954032898,20.80224609375,88.16932678222656,-2.856094360351562
171461,0.1513824462890625,0.072601318359375,-0.244903564453125,0.7212058305740356,0.7097012400627136,0.5738725662231445,21.18035888671875,88.58274841308594,-3.007537841796875
171462,0.0775146484375,0.3042755126953125,-0.144866943359375,0.5313608050346375,0.3198773264884949,0.2803104817867279,21.47616577148438,88.97991943359375,-3.727264404296875
171463,0.049285888671875,0.392791748046875,-0.1177215576171875,0.3577506840229034,0.1599936634302139,0.1457233726978302,21.45901489257812,89.16943359375,-4.0804443359375
171464,0.049285888671875,0.392791748046875,-0.1177215576171875,0.3577506840229034,0.1599936634302139,0.1457233726978302,21.45901489257812,89.16943359375,-4.0804443359375
171465,0.0205841064453125,0.529144287109375,-0.0552215576171875,0.1795572489500046,0.1350965648889542,0.0864107906818389,21.36099243164062,89.42355346679688,-4.45758056640625
171466,-0.1016845703125,0.896209716796875,0.2421722412109375,-0.3199106156826019,0.7434096932411194,0.1577965617179871,21.22761535644531,89.57038879394531,-4.66778564453125
171467,-0.1016845703125,0.896209716796875,0.2421722412109375,-0.3199106156826019,0.7434096932411194,0.1577965617179871,21.22761535644531,89.57038879394531,-4.66778564453125
171468,-0.2017364501953125,1.182647705078125,0.4346923828125,-0.6865909099578857,1.513620138168335,0.1258665919303894,21.22366333007812,89.57986450195312,-4.888427734375
171469,-0.3145904541015625,1.565689086914062,0.486724853515625,-1.122020125389099,2.286123514175415,-0.0352567918598651,21.28134155273438,89.59162902832031,-5.016265869140625
171470,-0.751983642578125,2.43536376953125,0.4403533935546875,-1.039750814437866,1.738621830940247,-0.764207661151886,21.38404846191406,89.18852233886719,-5.558135986328125
171471,-1.061080932617188,2.6787109375,0.5024261474609375,-0.3276228606700897,0.4123790264129639,-1.114776849746704,21.30560302734375,88.94709777832031,-5.85162353515625
171472,-1.061080932617188,2.6787109375,0.5024261474609375,-0.3276228606700897,0.4123790264129639,-1.114776849746704,21.30560302734375,88.94709777832031,-5.85162353515625
171473,-1.312789916992188,2.746429443359375,0.7923431396484375,0.3629070818424225,-0.7473841905593872,-1.375813722610474,21.20736694335938,88.46150207519531,-5.858245849609375
171474,-1.283920288085938,2.22515869140625,0.9998321533203124,0.6412383317947388,-1.253306984901428,-1.465165734291077,20.57342529296875,87.71144104003906,-6.049102783203125
171475,-1.283920288085938,2.22515869140625,0.9998321533203124,0.6412383317947388,-1.253306984901428,-1.465165734291077,20.57342529296875,87.71144104003906,-6.049102783203125
171476,-1.0377197265625,1.764068603515625,0.6261749267578125,0.5295759439468384,-1.509263157844543,-1.163280963897705,19.95968627929688,87.56819152832031,-6.084716796875
171477,-0.8542633056640625,1.41436767578125,0.3899688720703125,0.5769762396812439,-1.835236787796021,-0.8337587714195251,19.45486450195312,87.48210144042969,-6.067733764648438
171478,-0.650909423828125,0.8558502197265625,0.2637939453125,0.5770303010940552,-1.832893967628479,-0.4302461743354797,18.91197204589844,87.27365112304688,-5.453948974609375
171479,-0.650909423828125,0.8558502197265625,0.2637939453125,0.5770303010940552,-1.832893967628479,-0.4302461743354797,18.91197204589844,87.27365112304688,-5.453948974609375
171480,-0.6519622802734375,0.558990478515625,0.1535491943359375,0.3081740736961365,-1.580650329589844,0.075092889368534,18.89669799804688,87.29815673828125,-5.048049926757812
171481,-0.663726806640625,0.373443603515625,-0.0098724365234375,0.3081740736961365,-1.580650329589844,0.075092889368534,18.96041870117188,87.30940246582031,-4.740509033203125
171482,-0.6158905029296875,0.375091552734375,-0.2716522216796875,0.2201739102602005,-1.490697979927063,0.4530159533023834,19.64834594726562,87.27609252929688,-3.915390014648438
171483,-0.6158905029296875,0.375091552734375,-0.2716522216796875,0.2201739102602005,-1.490697979927063,0.4530159533023834,19.64834594726562,87.27609252929688,-3.915390014648438
171484,-0.5670318603515625,0.5063018798828125,-0.439300537109375,0.0837795883417129,-0.7910677790641785,0.6970579028129578,20.10333251953125,87.33631896972656,-3.502517700195312
171485,-0.5696868896484375,0.5830535888671875,-0.6124420166015625,0.1939122080802917,0.2375283986330032,0.7573787569999695,20.53507995605469,87.43992614746094,-3.111953735351562
171486,-0.3855743408203125,0.2996673583984375,-0.4382476806640625,0.5363507866859436,1.630322813987732,0.6873357892036438,21.20077514648438,87.77914428710938,-3.057571411132812
171487,-0.3855743408203125,0.2996673583984375,-0.4382476806640625,0.5363507866859436,1.630322813987732,0.6873357892036438,21.20077514648438,87.77914428710938,-3.057571411132812
171488,-0.3238983154296875,0.1621856689453125,-0.4335479736328125,0.5179720520973206,1.780109643936157,0.6080524325370789,21.46250915527344,88.00372314453125,-3.370361328125
171489,-0.2354736328125,0.038909912109375,-0.51715087890625,0.4773585796356201,1.599062085151672,0.5833289623260498,21.45565795898438,88.25082397460938,-3.979293823242188
171490,-0.0251007080078125,-0.0736846923828125,-0.620635986328125,0.5864637494087219,1.007716178894043,1.024237871170044,21.47088623046875,88.6453857421875,-5.055343627929688
171491,0.0965576171875,-0.0043487548828125,-0.5068817138671875,0.170204758644104,1.793943405151367,1.278069138526917,21.45550537109375,88.85041809082031,-5.57855224609375
171492,0.0965576171875,-0.0043487548828125,-0.5068817138671875,0.170204758644104,1.793943405151367,1.278069138526917,21.45550537109375,88.85041809082031,-5.57855224609375
171493,0.2482757568359375,0.0730743408203125,-0.5115814208984375,0.170204758644104,1.793943405151367,1.278069138526917,21.52748107910156,89.28274536132812,-5.885757446289062
171494,0.176513671875,0.25921630859375,-0.307708740234375,-0.4077664315700531,1.323518037796021,1.235960245132446,21.85342407226562,90.00791931152344,-6.797500610351562
171495,0.176513671875,0.25921630859375,-0.307708740234375,-0.4077664315700531,1.323518037796021,1.235960245132446,21.85342407226562,90.00791931152344,-6.797500610351562
171496,0.1077423095703125,0.4017791748046875,0.0041656494140625,-0.688080370426178,0.8813686370849609,1.180112242698669,22.10514831542969,90.34323120117188,-7.096771240234375
171497,0.096832275390625,0.5848846435546875,0.24798583984375,-1.05507218837738,0.7736086249351501,1.164177179336548,22.39085388183594,90.58901977539062,-7.100692749023438
171498,-0.0566558837890625,1.615646362304688,0.6688079833984375,-1.895378351211548,1.716964960098267,0.7237992286682129,22.73878479003906,91.14103698730467,-6.4302978515625
171499,-0.248016357421875,2.34033203125,0.914154052734375,-2.422865867614746,2.684606790542603,-0.1207075119018555,22.80094909667969,91.29541015625,-6.164047241210938
171500,-0.248016357421875,2.34033203125,0.914154052734375,-2.422865867614746,2.684606790542603,-0.1207075119018555,22.80094909667969,91.29541015625,-6.164047241210938
171501,-0.4409637451171875,2.764144897460938,1.047164916992188,-2.868809223175049,3.522922039031982,-1.015686988830566,22.75025939941406,91.29586791992188,-5.974899291992188
171502,-1.151351928710938,2.520355224609375,1.084884643554688,-2.075073480606079,2.94679069519043,-1.702298402786255,21.7615966796875,90.59431457519533,-5.95306396484375
171503,-1.151351928710938,2.520355224609375,1.084884643554688,-2.075073480606079,2.94679069519043,-1.702298402786255,21.7615966796875,90.59431457519533,-5.95306396484375
171504,-1.3953857421875,1.884658813476562,1.087692260742188,-1.156580209732056,2.039571523666382,-1.432238936424255,21.10777282714844,89.903564453125,-6.069122314453125
171505,-1.322357177734375,1.294830322265625,1.004348754882812,-0.6432982683181763,1.338202476501465,-1.153457641601562,20.49586486816406,89.43292236328125,-6.501358032226562
171506,-0.7795257568359375,0.5589447021484375,0.561676025390625,-1.370267748832703,-0.5833883285522461,-1.288710594177246,19.49305725097656,88.69107055664062,-7.202590942382812
171507,-0.6287384033203125,0.3228912353515625,0.355133056640625,-1.370267748832703,-0.5833883285522461,-1.288710594177246,19.10835266113281,88.50779724121094,-7.213729858398438
171508,-0.6287384033203125,0.3228912353515625,0.355133056640625,-1.370267748832703,-0.5833883285522461,-1.288710594177246,19.10835266113281,88.50779724121094,-7.213729858398438
171509,-0.5140228271484375,0.14324951171875,0.1782379150390625,-1.661944389343262,-1.279053092002869,-1.471895575523376,18.68705749511719,88.18458557128906,-6.725830078125
171510,-0.381195068359375,-0.1638336181640625,-0.2436370849609375,-1.811280846595764,-2.448661088943481,-1.52425754070282,17.84761047363281,87.16041564941406,-5.096450805664062
171511,-0.381195068359375,-0.1638336181640625,-0.2436370849609375,-1.811280846595764,-2.448661088943481,-1.52425754070282,17.84761047363281,87.16041564941406,-5.096450805664062
171512,-0.3373870849609375,-0.231414794921875,-0.8725433349609375,-1.404612183570862,-3.178656816482544,-1.216386556625366,17.51748657226562,86.44953918457031,-3.818191528320312
171513,-0.075531005859375,0.080841064453125,-1.885848999023438,-0.1002373844385147,-5.687037944793701,-0.8073269128799438,17.17276000976562,85.72187805175781,-2.443527221679688
171514,-0.2912445068359375,0.5533599853515625,-0.0194244384765625,-0.2677049338817596,-1.97635555267334,0.0602774545550346,17.43344116210938,84.79042053222656,1.141372680664062
171515,-0.2912445068359375,0.5533599853515625,-0.0194244384765625,-0.2677049338817596,-1.97635555267334,0.0602774545550346,17.43344116210938,84.79042053222656,1.141372680664062
171516,0.031982421875,0.8649444580078125,-1.028518676757812,-0.2050428986549377,0.3498381674289703,0.4560056030750275,18.11309814453125,84.46476745605469,2.643325805664062
171517,0.0392608642578125,0.957305908203125,-0.6959991455078125,0.2997004389762878,0.6570196747779846,0.3953515887260437,18.74897766113281,84.04850769042969,3.6724853515625
171518,-0.096038818359375,0.79541015625,-0.3083648681640625,0.2117516696453094,0.5157115459442139,-0.0458830706775188,19.36802673339844,83.878173828125,3.991897583007812
171519,-0.096038818359375,0.79541015625,-0.3083648681640625,0.2117516696453094,0.5157115459442139,-0.0458830706775188,19.36802673339844,83.878173828125,3.991897583007812
171520,-0.0624237060546875,0.6624603271484375,-0.4278564453125,0.2117516696453094,0.5157115459442139,-0.0458830706775188,19.25033569335938,84.03500366210938,3.734817504882812
171521,-0.041839599609375,0.57940673828125,-0.513519287109375,0.3628825843334198,0.0506200343370437,-0.096407227218151,19.121337890625,84.05229187011719,3.665542602539062
171522,-0.0074462890625,0.6009674072265625,-0.46649169921875,0.9010767936706544,-0.5634835958480835,0.1196057572960854,18.85546875,84.28309631347656,3.210006713867188
171523,-0.0074462890625,0.6009674072265625,-0.46649169921875,0.9010767936706544,-0.5634835958480835,0.1196057572960854,18.85546875,84.28309631347656,3.210006713867188
171524,0.00384521484375,0.6943206787109375,-0.4420623779296875,0.9010767936706544,-0.5634835958480835,0.1196057572960854,18.84893798828125,84.32901000976562,3.15924072265625
171525,0.0064544677734375,0.7754364013671875,-0.43792724609375,1.048413276672363,-0.5984370708465576,0.3064504861831665,18.91392517089844,84.42103576660156,3.111480712890625
171526,0.0401763916015625,0.8836517333984375,-0.3626251220703125,1.474103331565857,-0.8208981156349182,0.806879460811615,19.55125427246094,84.73574829101562,3.046340942382812
171527,0.0401763916015625,0.8836517333984375,-0.3626251220703125,1.474103331565857,-0.8208981156349182,0.806879460811615,19.55125427246094,84.73574829101562,3.046340942382812
171528,0.0630645751953125,0.954620361328125,-0.2635345458984375,1.717742085456848,-0.7977632284164429,1.084837079048157,19.91738891601562,85.06854248046875,2.896438598632812
171529,0.03515625,1.062332153320312,-0.11773681640625,1.825342059135437,-0.4635277092456818,1.200703263282776,20.36882019042969,85.484619140625,2.823837280273438
171530,-0.1228179931640625,1.247772216796875,-0.2378387451171875,1.628311276435852,-0.1415065377950668,0.7350755929946899,21.32456970214844,86.80973815917969,2.358505249023438
171531,-0.1228179931640625,1.247772216796875,-0.2378387451171875,1.628311276435852,-0.1415065377950668,0.7350755929946899,21.32456970214844,86.80973815917969,2.358505249023438
171532,-0.4622650146484375,1.27215576171875,-0.3536376953125,1.328134417533875,-0.583689272403717,-0.1083499118685722,21.96781921386719,88.05282592773438,1.560287475585938
171533,-0.4622650146484375,1.27215576171875,-0.3536376953125,1.328134417533875,-0.583689272403717,-0.1083499118685722,21.96781921386719,88.05282592773438,1.560287475585938
171534,-0.7071380615234375,1.79681396484375,-0.249664306640625,1.18669068813324,-0.6228235960006714,-0.9383429884910583,21.91531372070312,88.82168579101562,0.375030517578125
171535,-0.7071380615234375,1.79681396484375,-0.249664306640625,1.18669068813324,-0.6228235960006714,-0.9383429884910583,21.91531372070312,88.82168579101562,0.375030517578125
171536,-0.787139892578125,2.10784912109375,0.0273284912109375,0.9693142175674438,1.134020328521729,-1.273885488510132,21.57369995117188,89.17529296875,-0.459808349609375
171537,-0.84161376953125,2.364501953125,0.2784271240234375,0.7997128963470459,2.244111776351929,-0.986556589603424,20.9881591796875,89.34117126464844,-1.097320556640625
171538,-1.329757690429688,2.87646484375,0.363037109375,0.9520809054374696,2.440553903579712,0.0514197796583175,18.99359130859375,89.67294311523438,-4.497100830078125
171539,-1.329757690429688,2.87646484375,0.363037109375,0.9520809054374696,2.440553903579712,0.0514197796583175,18.99359130859375,89.67294311523438,-4.497100830078125
171540,-1.329757690429688,2.87646484375,0.363037109375,0.9520809054374696,2.440553903579712,0.0514197796583175,18.99359130859375,89.67294311523438,-4.497100830078125
171541,-1.66033935546875,2.791351318359375,0.5154266357421875,1.078679323196411,2.265207052230835,0.4579049646854401,18.76042175292969,89.72584533691406,-5.769683837890625
171542,-1.629913330078125,1.999725341796875,0.0699615478515625,1.100920677185059,0.693516194820404,0.1316054314374924,19.22210693359375,90.14340209960938,-8.268203735351562
171543,-1.629913330078125,1.999725341796875,0.0699615478515625,1.100920677185059,0.693516194820404,0.1316054314374924,19.22210693359375,90.14340209960938,-8.268203735351562
171544,-1.461837768554688,1.533126831054688,-0.041046142578125,0.967453956604004,-0.2563697397708893,0.0881524980068206,19.51396179199219,90.26422119140624,-9.196456909179688
171545,-1.247528076171875,1.229766845703125,-0.063720703125,0.8199755549430847,-0.8106175065040588,0.1314999759197235,19.56492614746094,90.34635925292967,-9.853302001953123
171546,-0.85247802734375,0.8741607666015625,-0.099945068359375,0.6852561235427856,-0.9100726842880248,0.3986509740352631,19.57791137695312,90.47105407714844,-10.37399291992188
171547,-0.85247802734375,0.8741607666015625,-0.099945068359375,0.6852561235427856,-0.9100726842880248,0.3986509740352631,19.57791137695312,90.47105407714844,-10.37399291992188
171548,-0.7051544189453125,0.75689697265625,-0.05535888671875,0.6852561235427856,-0.9100726842880248,0.3986509740352631,19.55574035644531,90.66471862792967,-10.38999938964844
171549,-0.5880126953125,0.6695556640625,0.09210205078125,0.6324037909507751,-0.3091959357261658,0.4492363929748535,19.71626281738281,90.7111358642578,-10.38945007324219
171550,-0.34136962890625,0.5575408935546875,0.2213287353515625,0.4240095913410187,1.274336695671082,0.4829980731010437,20.11380004882812,90.73109436035156,-10.34407043457031
171551,-0.34136962890625,0.5575408935546875,0.2213287353515625,0.4240095913410187,1.274336695671082,0.4829980731010437,20.11380004882812,90.73109436035156,-10.34407043457031
171552,-0.2486724853515625,0.5539703369140625,0.227447509765625,0.4304634928703308,1.677705764770508,0.4442016780376434,20.38890075683594,90.75045776367188,-10.57470703125
171553,-0.1555023193359375,0.541046142578125,0.251983642578125,0.4153929352760315,1.838066935539246,0.4434831738471985,20.64927673339844,90.70773315429688,-10.90904235839844
171554,-0.02301025390625,0.46649169921875,0.272308349609375,0.2137216031551361,1.702182531356812,0.6923976540565491,20.98112487792969,90.79850769042967,-12.01849365234375
171555,-0.02301025390625,0.46649169921875,0.272308349609375,0.2137216031551361,1.702182531356812,0.6923976540565491,20.98112487792969,90.79850769042967,-12.01849365234375
171556,0.015838623046875,0.41064453125,0.2566070556640625,0.0964423865079879,1.520602107048035,0.860520601272583,21.24028015136719,90.78138732910156,-12.64627075195312
171557,0.0555877685546875,0.3578948974609375,0.223052978515625,-0.0308047849684953,1.059729814529419,1.218009233474731,21.54438781738281,90.91935729980467,-13.12419128417969
171558,0.1042022705078125,0.3173828125,0.210235595703125,-0.0839721336960792,0.8529154062271118,1.367708206176758,22.2261962890625,91.36672973632812,-13.73152160644531
171559,0.1310272216796875,0.3080291748046875,0.210235595703125,-0.1584258526563644,0.6355152130126953,1.49436628818512,22.74079895019531,91.61946105957033,-13.95765686035156
171560,0.1310272216796875,0.3080291748046875,0.210235595703125,-0.1584258526563644,0.6355152130126953,1.49436628818512,22.74079895019531,91.61946105957033,-13.95765686035156
171561,0.15252685546875,0.335601806640625,0.2206573486328125,-0.2969009280204773,0.3445051908493042,1.579669713973999,23.42756652832031,91.80311584472656,-13.94319152832031
171562,0.1289520263671875,0.6279449462890625,0.3782501220703125,-0.9226511120796204,-0.3584292531013489,1.316329717636108,24.76478576660156,92.25823974609376,-13.20265197753906
171563,0.0749053955078125,0.783782958984375,0.5252532958984375,-1.363763451576233,-0.4294088780879974,0.7822399139404297,25.45216369628906,92.52204895019533,-12.64378356933594
171564,0.0749053955078125,0.783782958984375,0.5252532958984375,-1.363763451576233,-0.4294088780879974,0.7822399139404297,25.45216369628906,92.52204895019533,-12.64378356933594
171565,0.007781982421875,0.8120880126953125,0.634124755859375,-1.764173269271851,-0.2328060865402222,0.0588129833340644,26.03047180175781,92.81948852539062,-11.99720764160156
171566,-0.2865447998046875,0.538909912109375,0.7015380859375,-2.202692985534668,0.7915391325950623,-0.7458635568618774,26.5660400390625,92.89694213867188,-10.36334228515625
171567,-0.3632049560546875,0.4846954345703125,0.589385986328125,-2.150574684143066,1.178820848464966,-1.094422101974487,26.47589111328125,92.79981994628906,-9.47564697265625
171568,-0.3632049560546875,0.4846954345703125,0.589385986328125,-2.150574684143066,1.178820848464966,-1.094422101974487,26.47589111328125,92.79981994628906,-9.47564697265625
171569,-0.43377685546875,0.450408935546875,0.436798095703125,-2.150574684143066,1.178820848464966,-1.094422101974487,26.21818542480469,92.54983520507812,-8.765060424804688
171570,-0.51824951171875,0.4197235107421875,0.120635986328125,-1.924950122833252,0.4433287084102631,-1.511964917182922,25.27346801757812,92.15324401855467,-7.680435180664062
171571,-0.51824951171875,0.4197235107421875,0.120635986328125,-1.924950122833252,0.4433287084102631,-1.511964917182922,25.27346801757812,92.15324401855467,-7.680435180664062
171572,-0.512969970703125,0.39642333984375,-0.27337646484375,-1.754132270812988,-0.5869207382202148,-1.774710059165955,24.62361145019531,91.85794067382812,-7.10174560546875
171573,-0.464691162109375,0.3702392578125,-0.4377288818359375,-1.538408279418945,-2.079816579818726,-2.063393831253052,23.94888305664062,91.556396484375,-6.628433227539062
171574,-0.2825927734375,0.2539825439453125,-0.018890380859375,-1.383753776550293,-3.209440469741821,-2.415481567382812,22.25247192382812,90.67662048339844,-5.173324584960938
171575,-0.3182830810546875,0.0707550048828125,-0.0567169189453125,-1.342567086219788,-3.076370239257812,-2.251004457473755,21.28237915039062,90.25300598144533,-4.215179443359375
171576,-0.3182830810546875,0.0707550048828125,-0.0567169189453125,-1.342567086219788,-3.076370239257812,-2.251004457473755,21.28237915039062,90.25300598144533,-4.215179443359375
171577,-0.4675750732421875,-0.2077484130859375,-0.265472412109375,-1.201948761940002,-2.992966175079346,-1.505310773849487,20.55361938476562,89.65789794921875,-3.253036499023438
171578,-0.1307373046875,0.177764892578125,-0.6590576171875,-1.177137970924377,-1.848719596862793,-0.4137316644191742,19.57757568359375,88.27362060546875,-0.9883575439453124
171579,-0.1307373046875,0.177764892578125,-0.6590576171875,-1.177137970924377,-1.848719596862793,-0.4137316644191742,19.57757568359375,88.27362060546875,-0.9883575439453124
171580,-0.002410888671875,0.3172760009765625,-0.6691436767578125,-0.7289138436317444,-1.687843799591064,-0.2377997785806656,19.52040100097656,87.62213134765625,0.172210693359375
171581,0.0277862548828125,0.346527099609375,-0.3212127685546875,-0.2042743116617203,-1.288220047950745,-0.1480989158153534,19.85211181640625,87.00770568847656,1.344573974609375
171582,0.1124420166015625,0.4181060791015625,-0.2665252685546875,0.4202441573143005,-0.4834502935409546,0.5581008195877075,20.66795349121094,86.0390625,2.6796875
171583,0.1124420166015625,0.4181060791015625,-0.2665252685546875,0.4202441573143005,-0.4834502935409546,0.5581008195877075,20.66795349121094,86.0390625,2.6796875
171584,0.1719970703125,0.5488739013671875,-0.3971405029296875,0.4202441573143005,-0.4834502935409546,0.5581008195877075,20.96272277832031,85.87808227539062,2.975662231445312
171585,0.1598052978515625,0.746429443359375,-0.483001708984375,0.3625848591327667,-0.5478684306144714,0.865684986114502,21.0379638671875,85.85289001464844,3.20458984375
171586,0.0097808837890625,1.04742431640625,-0.42333984375,0.5711622834205627,-0.3421043455600739,0.2622017860412598,21.416015625,86.11480712890625,3.598388671875
171587,0.0097808837890625,1.04742431640625,-0.42333984375,0.5711622834205627,-0.3421043455600739,0.2622017860412598,21.416015625,86.11480712890625,3.598388671875
171588,0.004364013671875,1.077255249023438,-0.2962188720703125,0.5711622834205627,-0.3421043455600739,0.2622017860412598,21.78721618652344,86.40896606445312,3.856918334960938
171589,0.007659912109375,1.076675415039062,-0.2258453369140625,0.6924002766609192,-0.1143681183457375,-0.0358575992286205,22.03694152832031,86.7347412109375,4.061843872070312
171590,-0.2840728759765625,1.143173217773438,-0.1836395263671875,0.8303762674331665,-0.1196478381752968,-0.4554034769535065,22.3780517578125,87.05155944824219,4.092269897460938
171591,-0.2840728759765625,1.143173217773438,-0.1836395263671875,0.8303762674331665,-0.1196478381752968,-0.4554034769535065,22.3780517578125,87.05155944824219,4.092269897460938
171592,-0.4376220703125,1.140853881835938,-0.167236328125,0.905431866645813,-0.2048679292201996,-0.6974038481712341,22.40400695800781,87.08486938476562,3.907760620117188
171593,-0.5751953125,1.258132934570312,-0.0346832275390625,0.9635284543037416,-0.1251704394817352,-1.023920774459839,22.25297546386719,87.24636840820312,3.721435546875
171594,-0.875335693359375,1.670425415039062,0.316925048828125,0.3397711515426636,2.172717571258545,-2.245356798171997,21.60586547851562,87.409423828125,2.971847534179688
171595,-0.875335693359375,1.670425415039062,0.316925048828125,0.3397711515426636,2.172717571258545,-2.245356798171997,21.60586547851562,87.409423828125,2.971847534179688
171596,-1.10760498046875,1.8070068359375,0.3609466552734375,0.3065095841884613,2.672920227050781,-1.54256546497345,20.95944213867188,87.39300537109375,2.165328979492188
171597,-1.82720947265625,1.72015380859375,0.5406036376953125,0.7667328715324402,3.099003791809082,0.0405972264707088,20.20704650878906,87.25190734863281,1.244476318359375
171598,-2.286422729492188,2.841400146484375,0.42608642578125,1.453396677970886,2.306060552597046,0.6606146693229675,18.49029541015625,86.67572021484375,-1.356369018554688
171599,-2.286422729492188,2.841400146484375,0.42608642578125,1.453396677970886,2.306060552597046,0.6606146693229675,18.49029541015625,86.67572021484375,-1.356369018554688
171600,-1.975341796875,3.073028564453125,0.314361572265625,1.909352779388428,0.6665276885032654,0.4790744483470917,18.23951721191406,86.60348510742188,-2.774810791015625
171601,-1.610153198242188,2.774703979492188,0.501617431640625,1.734020352363586,-0.2455687522888184,0.3644570410251617,18.20500183105469,87.02244567871094,-3.951919555664062
171602,-0.924102783203125,2.057510375976562,0.41650390625,0.5644308924674988,-0.1462232619524002,0.1423153281211853,18.13308715820312,87.73248291015625,-5.566940307617188
171603,-0.924102783203125,2.057510375976562,0.41650390625,0.5644308924674988,-0.1462232619524002,0.1423153281211853,18.13308715820312,87.73248291015625,-5.566940307617188
171604,-0.69915771484375,1.815505981445312,0.2946319580078125,0.4878458380699158,-0.3519047796726227,0.2890379428863525,17.9814453125,88.02439880371094,-6.054061889648438
171605,-0.5409698486328125,1.676376342773438,0.2769622802734375,0.8197063207626343,-0.7247984409332275,0.5001088976860046,17.97357177734375,88.17576599121094,-6.213165283203125
171606,-0.3726348876953125,1.592727661132812,0.387939453125,1.485766053199768,-0.9832611680030824,0.8945371508598328,18.35098266601562,88.51585388183594,-6.228927612304688
171607,-0.3726348876953125,1.592727661132812,0.387939453125,1.485766053199768,-0.9832611680030824,0.8945371508598328,18.35098266601562,88.51585388183594,-6.228927612304688
171608,-0.314849853515625,1.535018920898438,0.2762298583984375,1.469293117523193,-0.8813683390617371,1.035517454147339,18.78456115722656,88.57998657226562,-6.1624755859375
171609,-0.2916107177734375,1.415145874023438,0.035797119140625,1.329144835472107,-0.875754714012146,1.100929975509644,19.27716064453125,88.74356079101562,-6.24212646484375
171610,-0.3435211181640625,1.056381225585938,-0.15185546875,1.285398960113525,-0.3124002516269684,0.9549251198768616,20.50912475585938,89.21823120117188,-6.616439819335938
171611,-0.3435211181640625,1.056381225585938,-0.15185546875,1.285398960113525,-0.3124002516269684,0.9549251198768616,20.50912475585938,89.21823120117188,-6.616439819335938
171612,-0.3521881103515625,0.9014434814453124,-0.13800048828125,1.285398960113525,-0.3124002516269684,0.9549251198768616,20.94415283203125,89.61930847167969,-6.86688232421875
171613,-0.3382568359375,0.7648162841796875,-0.1631317138671875,1.357250690460205,0.1343759149312973,0.8479970693588257,21.39700317382812,90.02104187011719,-6.950653076171875
171614,-0.3121185302734375,0.63482666015625,-0.1817474365234375,1.335118293762207,0.5123935341835022,0.7504369616508484,21.83601379394531,90.48625183105467,-7.415863037109375
171615,-0.3121185302734375,0.63482666015625,-0.1817474365234375,1.335118293762207,0.5123935341835022,0.7504369616508484,21.83601379394531,90.48625183105467,-7.415863037109375
171616,-0.2198028564453125,0.4131011962890625,-0.17681884765625,0.8911927342414856,0.922921657562256,0.7047951817512512,22.47515869140625,91.07337951660156,-8.275833129882812
171617,-0.1674652099609375,0.3379669189453125,-0.130615234375,0.6081932783126831,0.963176965713501,0.7541790008544922,22.80464172363281,91.27447509765624,-8.826751708984375
171618,-0.1146392822265625,0.286834716796875,-0.0530853271484375,0.4008520841598511,0.9865970611572266,0.8162708282470703,23.18113708496094,91.36041259765624,-9.146286010742188
171619,-0.0581817626953125,0.2610931396484375,0.0350189208984375,0.2956119477748871,1.055012106895447,0.8750987648963928,23.51055908203125,91.57293701171876,-9.545547485351562
171620,0.0029144287109375,0.2537384033203125,0.0868682861328125,0.2363981604576111,1.196223020553589,0.9485724568367004,23.68356323242188,91.95364379882812,-10.29548645019531
171621,0.057891845703125,0.2607879638671875,0.0931243896484375,0.2363981604576111,1.196223020553589,0.9485724568367004,23.93806457519531,92.17796325683594,-10.77955627441406
171622,0.108673095703125,0.302581787109375,0.0180206298828125,0.1105195879936218,1.066141128540039,1.013165235519409,24.54057312011719,92.6794891357422,-11.45736694335938
171623,0.108673095703125,0.302581787109375,0.0180206298828125,0.1105195879936218,1.066141128540039,1.013165235519409,24.54057312011719,92.6794891357422,-11.45736694335938
171624,0.0904998779296875,0.34857177734375,0.077667236328125,-0.0264664944261312,1.052935600280762,0.9363815188407898,25.13677978515625,93.224609375,-12.15713500976562
171625,0.0510711669921875,0.4197998046875,0.196014404296875,-0.252506822347641,1.228108763694763,0.7177248597145081,25.43330383300781,93.46900939941406,-12.25881958007812
171626,-0.1807098388671875,0.6066131591796875,0.4051055908203125,-0.8421237468719482,1.778164625167847,0.1297183185815811,25.9498291015625,93.73812866210938,-12.56906127929688
171627,-0.1807098388671875,0.6066131591796875,0.4051055908203125,-0.8421237468719482,1.778164625167847,0.1297183185815811,25.9498291015625,93.73812866210938,-12.56906127929688
171628,-0.291534423828125,0.71673583984375,0.474945068359375,-1.072941541671753,1.909844160079956,-0.0345342755317688,26.1495361328125,93.8532257080078,-12.75138854980469
171629,-0.380645751953125,0.77813720703125,0.4465789794921875,-1.239241600036621,1.758046865463257,-0.1502789855003357,26.30303955078125,93.69644165039062,-12.6634521484375
171630,-0.4496612548828125,0.6865081787109375,0.2786865234375,-1.461591005325317,0.6817633509635925,-0.2925061583518982,26.23432922363281,93.5630340576172,-12.2686767578125
171631,-0.4496612548828125,0.6865081787109375,0.2786865234375,-1.461591005325317,0.6817633509635925,-0.2925061583518982,26.23432922363281,93.5630340576172,-12.2686767578125
171632,-0.3449859619140625,0.6002960205078125,0.2240447998046875,-1.503462791442871,0.0139509690925478,-0.3112907707691193,26.02212524414062,93.48580932617188,-11.86640930175781
171633,-0.2280426025390625,0.5769195556640625,0.1820220947265625,-1.509414196014404,-0.5199534296989441,-0.3407642543315887,25.85321044921875,93.41061401367188,-11.27337646484375
171634,-0.0940093994140625,0.6901092529296875,0.2035675048828125,-1.430254101753235,-0.6569418907165527,-0.4342318773269653,25.15638732910156,93.13645935058594,-9.3555908203125
171635,-0.0940093994140625,0.6901092529296875,0.2035675048828125,-1.430254101753235,-0.6569418907165527,-0.4342318773269653,25.15638732910156,93.13645935058594,-9.3555908203125
171636,-0.0940093994140625,0.6901092529296875,0.2035675048828125,-1.430254101753235,-0.6569418907165527,-0.4342318773269653,25.15638732910156,93.13645935058594,-9.3555908203125
171637,-0.1121826171875,0.7187957763671875,0.24212646484375,-1.340787053108215,-0.365482896566391,-0.4573358595371246,24.87300109863281,93.01652526855467,-8.469863891601562
171638,-0.2277984619140625,0.6454925537109375,0.206756591796875,-1.06200098991394,0.1279755383729935,-0.5631768107414246,24.5045166015625,92.510986328125,-7.214813232421875
171639,-0.2726287841796875,0.5687255859375,0.0847015380859375,-0.8925033211708069,0.1789021044969559,-0.6698721051216125,24.17842102050781,92.39070129394533,-6.780242919921875
171640,-0.2726287841796875,0.5687255859375,0.0847015380859375,-0.8925033211708069,0.1789021044969559,-0.6698721051216125,24.17842102050781,92.39070129394533,-6.780242919921875
171641,-0.273895263671875,0.4665985107421875,-0.0703277587890625,-0.6723307371139526,-0.033828005194664,-0.8066680431365967,23.84542846679688,92.14054870605467,-6.339920043945312
171642,-0.26239013671875,0.1752166748046875,-0.1237030029296875,-0.3100478649139404,-0.4726354479789734,-0.8979971408843994,23.14448547363281,91.81260681152344,-5.7447509765625
171643,-0.26239013671875,0.1752166748046875,-0.1237030029296875,-0.3100478649139404,-0.4726354479789734,-0.8979971408843994,23.14448547363281,91.81260681152344,-5.7447509765625
171644,-0.2455902099609375,0.074859619140625,-0.147003173828125,-0.264617532491684,-0.5334852337837219,-0.8412880301475525,22.82286071777344,91.49494934082033,-5.690109252929688
171645,-0.2043304443359375,0.01092529296875,-0.197906494140625,-0.2892323434352875,-0.5891719460487366,-0.752470850944519,22.45941162109375,91.11628723144533,-5.412384033203125
171646,-0.0894927978515625,0.0027923583984375,-0.2962646484375,-0.3828866481781006,-0.6962997317314148,-0.5448558330535889,22.06500244140625,90.57229614257812,-4.8524169921875
171647,-0.0894927978515625,0.0027923583984375,-0.2962646484375,-0.3828866481781006,-0.6962997317314148,-0.5448558330535889,22.06500244140625,90.57229614257812,-4.8524169921875
171648,-0.039337158203125,0.0393218994140625,-0.314453125,-0.4167852401733398,-0.7425814270973206,-0.4256330728530884,21.92161560058594,90.31413269042967,-4.598739624023438
171649,-0.0196075439453125,0.1129913330078125,-0.31036376953125,-0.4369642734527588,-0.7370061278343201,-0.3138543367385864,21.82809448242188,90.01705932617188,-4.143524169921875
171650,-0.0086822509765625,0.3585968017578125,-0.37103271484375,-0.3880169689655304,-0.74165278673172,-0.1907326728105545,21.63848876953125,89.63917541503906,-3.218429565429688
171651,-0.0086822509765625,0.3585968017578125,-0.37103271484375,-0.3880169689655304,-0.74165278673172,-0.1907326728105545,21.63848876953125,89.63917541503906,-3.218429565429688
171652,-0.0142059326171875,0.5284423828125,-0.437530517578125,-0.2478761076927185,-0.7674276828765869,-0.1601904630661011,21.55421447753906,89.52011108398438,-2.826766967773438
171653,-0.02276611328125,0.7491607666015625,-0.5553436279296875,0.0083540696650743,-0.643546462059021,-0.1664169430732727,21.47184753417969,89.36883544921875,-2.304534912109375
171654,-0.0816802978515625,1.220352172851562,-0.858642578125,0.9700292348861694,-0.308622270822525,-0.2513145208358765,21.28620910644531,89.24050903320312,-1.70806884765625
171655,-0.0816802978515625,1.220352172851562,-0.858642578125,0.9700292348861694,-0.308622270822525,-0.2513145208358765,21.28620910644531,89.24050903320312,-1.70806884765625
171656,-0.12451171875,1.422821044921875,-0.9609527587890624,1.440228223800659,-0.1696888953447342,-0.2433580607175827,21.17997741699219,89.2587890625,-1.760147094726562
171657,-0.2134857177734375,1.628280639648438,-1.06439208984375,1.718652129173279,-0.1209711655974388,-0.1989719569683075,20.95137023925781,89.32725524902344,-2.093414306640625
171658,-0.4989471435546875,2.089279174804688,-0.7036590576171875,1.353618979454041,0.0889719501137733,-0.3160679638385773,20.6448974609375,89.793701171875,-2.99957275390625
171659,-0.4989471435546875,2.089279174804688,-0.7036590576171875,1.353618979454041,0.0889719501137733,-0.3160679638385773,20.6448974609375,89.793701171875,-2.99957275390625
171660,-0.5998992919921875,2.213348388671875,-0.3774566650390625,0.9450868964195251,0.26457279920578,-0.5521734356880188,20.39068603515625,89.89837646484375,-3.592025756835938
171661,-0.700164794921875,2.2703857421875,-0.0713348388671875,0.6770272254943848,0.5088070631027222,-0.9008554816246032,20.23873901367188,89.93589782714844,-4.048660278320312
171662,-1.259872436523438,2.71759033203125,-0.0609283447265625,0.4337951242923737,0.969530463218689,-1.831930756568909,19.49098205566406,89.95062255859375,-5.175674438476562
171663,-1.259872436523438,2.71759033203125,-0.0609283447265625,0.4337951242923737,0.969530463218689,-1.831930756568909,19.49098205566406,89.95062255859375,-5.175674438476562
171664,-2.012496948242188,2.576034545898438,-0.11627197265625,0.341424971818924,1.110087037086487,-1.761182546615601,18.83787536621094,89.91424560546875,-5.954147338867188
171665,-2.8419189453125,2.33209228515625,-0.0489959716796875,0.5702533721923828,1.220487833023071,-0.2947109937667847,18.12687683105469,89.63125610351562,-6.950286865234375
171666,-1.44891357421875,2.150665283203125,0.0424652099609375,1.704193234443665,0.3908292651176453,0.2671281099319458,17.61874389648438,89.5125732421875,-8.6951904296875
171667,-1.44891357421875,2.150665283203125,0.0424652099609375,1.704193234443665,0.3908292651176453,0.2671281099319458,17.61874389648438,89.5125732421875,-8.6951904296875
171668,-1.084625244140625,1.802093505859375,0.169189453125,1.550495624542236,0.520698070526123,0.373100072145462,17.62371826171875,89.77903747558594,-9.517242431640623
171669,-0.85418701171875,1.662979125976562,0.1110992431640625,1.249026298522949,0.6437166333198547,0.5262930989265442,17.67976379394531,89.94340515136719,-10.12619018554688
171670,-0.552825927734375,1.607742309570312,0.3350677490234375,1.001998901367188,0.2300417274236679,0.9109510183334352,18.26446533203125,90.141357421875,-11.54304504394531
171671,-0.552825927734375,1.607742309570312,0.3350677490234375,1.001998901367188,0.2300417274236679,0.9109510183334352,18.26446533203125,90.141357421875,-11.54304504394531
171672,-0.48358154296875,1.61456298828125,0.4357757568359375,0.9791817665100098,0.1754812747240067,0.93441504240036,18.66847229003906,90.2799072265625,-12.03031921386719
171673,-0.4347381591796875,1.543869018554688,0.438873291015625,0.9562436938285828,0.2118733674287796,0.8424294590950012,19.20632934570312,90.46414184570312,-12.47377014160156
171674,-0.295928955078125,0.982269287109375,0.20074462890625,0.7256608009338379,0.1542641371488571,0.5245745778083801,20.38645935058594,90.84820556640624,-13.47760009765625
171675,-0.295928955078125,0.982269287109375,0.20074462890625,0.7256608009338379,0.1542641371488571,0.5245745778083801,20.38645935058594,90.84820556640624,-13.47760009765625
171676,-0.295928955078125,0.982269287109375,0.20074462890625,0.7256608009338379,0.1542641371488571,0.5245745778083801,20.38645935058594,90.84820556640624,-13.47760009765625
171677,-0.217987060546875,0.7887420654296875,0.081756591796875,0.7182816863059998,-0.1801213026046753,0.4680271148681641,20.68475341796875,91.03330993652344,-13.76443481445312
171678,-0.08740234375,0.464385986328125,-0.02703857421875,0.8348053693771362,-0.8721373081207275,0.4690836071968079,21.10755920410156,91.17204284667967,-14.22828674316406
171679,-0.08740234375,0.464385986328125,-0.02703857421875,0.8348053693771362,-0.8721373081207275,0.4690836071968079,21.10755920410156,91.17204284667967,-14.22828674316406
171680,-0.04364013671875,0.3115692138671875,-0.104736328125,0.8661981821060181,-1.074190020561218,0.5107924342155457,21.39833068847656,91.2498779296875,-14.29421997070312
171681,0.012969970703125,0.1486968994140625,-0.2312469482421875,0.8556960225105286,-1.225747585296631,0.6183418035507202,21.52952575683594,91.37020874023438,-14.35952758789062
171682,0.1821746826171875,-0.0761260986328125,-0.41912841796875,0.510539710521698,-0.4846386015415192,1.035550951957703,21.9031982421875,91.76821899414062,-14.25018310546875
171683,0.1821746826171875,-0.0761260986328125,-0.41912841796875,0.510539710521698,-0.4846386015415192,1.035550951957703,21.9031982421875,91.76821899414062,-14.25018310546875
171684,0.3114776611328125,-0.05792236328125,-0.3042144775390625,0.510539710521698,-0.4846386015415192,1.035550951957703,22.10621643066406,91.92681884765624,-14.04386901855469
171685,0.4211273193359375,0.0539703369140625,-0.2413787841796875,0.2504460513591766,0.4920328557491302,1.056409120559692,22.32310485839844,92.31353759765624,-13.82164001464844
171686,0.385040283203125,0.457275390625,-0.0698699951171875,-0.1258364915847778,1.172414541244507,0.9908360242843628,23.29612731933594,92.67369079589844,-13.82817077636719
171687,0.385040283203125,0.457275390625,-0.0698699951171875,-0.1258364915847778,1.172414541244507,0.9908360242843628,23.29612731933594,92.67369079589844,-13.82817077636719
171688,0.300872802734375,0.63360595703125,-0.0234832763671875,-0.4851400554180145,0.8904486894607544,0.8344773054122925,23.92884826660156,92.91053771972656,-14.04403686523438
171689,0.19952392578125,0.7513885498046875,-0.0074310302734375,-0.4851400554180145,0.8904486894607544,0.8344773054122925,24.44110107421875,93.1504364013672,-14.12890625
171690,0.045989990234375,0.859832763671875,0.0824432373046875,-0.4648329317569733,0.6056923270225525,0.6291741728782654,25.30390930175781,93.30935668945312,-14.27241516113281
171691,0.045989990234375,0.859832763671875,0.0824432373046875,-0.4648329317569733,0.6056923270225525,0.6291741728782654,25.30390930175781,93.30935668945312,-14.27241516113281
171692,0.0115509033203125,0.92401123046875,0.121429443359375,-0.4458115696907043,0.5961129069328308,0.5232523083686829,25.67117309570312,93.47776794433594,-14.19766235351562
171693,-0.04205322265625,1.011764526367188,0.1881256103515625,-0.565772294998169,0.6488227248191833,0.4242974817752838,25.99850463867188,93.60855102539062,-14.21635437011719
171694,-0.3394775390625,1.158187866210938,0.444976806640625,-1.190097212791443,1.033258318901062,0.1491876244544983,26.41250610351562,93.78741455078124,-14.12783813476562
171695,-0.3394775390625,1.158187866210938,0.444976806640625,-1.190097212791443,1.033258318901062,0.1491876244544983,26.41250610351562,93.78741455078124,-14.12783813476562
171696,-0.46923828125,1.207015991210938,0.599029541015625,-1.501104831695557,1.377058744430542,-0.0356919504702091,26.55735778808594,93.95289611816406,-13.99638366699219
171697,-0.5884857177734375,1.225204467773438,0.6685028076171875,-1.749417781829834,1.702773213386536,-0.2668825685977936,26.66812133789062,93.9502410888672,-13.64445495605469
171698,-0.7388763427734375,0.9434814453125,0.3316650390625,-2.02278995513916,0.6164293885231018,-0.742912232875824,26.49324035644531,93.95205688476562,-13.14608764648438
171699,-0.7479705810546875,0.712310791015625,0.2009429931640625,-2.02278995513916,0.6164293885231018,-0.742912232875824,26.32597351074219,93.88973999023438,-12.58450317382812
171700,-0.7479705810546875,0.712310791015625,0.2009429931640625,-2.02278995513916,0.6164293885231018,-0.742912232875824,26.32597351074219,93.88973999023438,-12.58450317382812
171701,-0.713653564453125,0.554168701171875,0.2096710205078125,-1.941717624664307,-0.063074305653572,-0.7404226660728455,26.04202270507812,93.76617431640624,-12.15321350097656
171702,-0.5745086669921875,0.3882293701171875,0.3323822021484375,-1.922975897789001,-0.4173756539821625,-0.5908137559890747,25.20744323730469,93.6715087890625,-10.8831787109375
171703,-0.5745086669921875,0.3882293701171875,0.3323822021484375,-1.922975897789001,-0.4173756539821625,-0.5908137559890747,25.20744323730469,93.6715087890625,-10.8831787109375
171704,-0.49078369140625,0.3470611572265625,0.3458251953125,-1.955956816673279,-0.189277246594429,-0.4235225021839142,24.87046813964844,93.4790496826172,-10.20761108398438
171705,-0.3704833984375,0.43682861328125,0.3138885498046875,-1.945981383323669,0.1236226037144661,-0.372578889131546,24.48466491699219,93.3445281982422,-9.423660278320312
171706,-0.2510986328125,0.6097412109375,0.2379150390625,-1.721237778663635,0.3156197369098663,-0.6957178115844727,23.84890747070312,92.93614196777344,-7.930557250976562
171707,-0.2469024658203125,0.6400299072265625,0.2124176025390625,-1.612923264503479,0.3487904667854309,-0.8270268440246582,23.61444091796875,92.63641357421876,-7.2904052734375
171708,-0.2469024658203125,0.6400299072265625,0.2124176025390625,-1.612923264503479,0.3487904667854309,-0.8270268440246582,23.61444091796875,92.63641357421876,-7.2904052734375
171709,-0.2347869873046875,0.6454925537109375,0.183868408203125,-1.541171312332153,0.4165615439414978,-0.9321321845054626,23.09295654296875,92.4047393798828,-6.686920166015625
171710,-0.208099365234375,0.5733184814453125,0.007415771484375,-1.054014682769775,0.2710096538066864,-1.207284927368164,22.25224304199219,91.57234191894533,-5.603546142578125
171711,-0.208099365234375,0.5733184814453125,0.007415771484375,-1.054014682769775,0.2710096538066864,-1.207284927368164,22.25224304199219,91.57234191894533,-5.603546142578125
171712,-0.18023681640625,0.5125885009765625,-0.1246185302734375,-1.054014682769775,0.2710096538066864,-1.207284927368164,21.74444580078125,91.22911071777344,-5.164108276367188
171713,-0.148651123046875,0.4486541748046875,-0.2620697021484375,-0.7197176814079285,-0.0298005063086748,-1.212492227554321,21.15452575683594,90.7384033203125,-4.629806518554688
171714,-0.1148681640625,0.40972900390625,-0.3521575927734375,-0.0174586195498704,-0.763154923915863,-1.171163439750671,20.23013305664062,89.985107421875,-4.054611206054688
171715,-0.1148681640625,0.40972900390625,-0.3521575927734375,-0.0174586195498704,-0.763154923915863,-1.171163439750671,20.23013305664062,89.985107421875,-4.054611206054688
171716,-0.0908050537109375,0.402496337890625,-0.323822021484375,0.2153176367282867,-0.928808569908142,-1.116290092468262,19.784912109375,89.50160217285156,-3.714340209960938
171717,-0.0676727294921875,0.3935699462890625,-0.34356689453125,0.5774343013763428,-1.032669186592102,-0.8265498280525208,19.43101501464844,89.07768249511719,-3.361984252929688
171718,0.032196044921875,0.47576904296875,-0.4947357177734375,0.86223965883255,-1.466229200363159,-0.1067815721035004,18.90011596679688,88.17098999023438,-2.953125
171719,0.032196044921875,0.47576904296875,-0.4947357177734375,0.86223965883255,-1.466229200363159,-0.1067815721035004,18.90011596679688,88.17098999023438,-2.953125
171720,0.007537841796875,0.641754150390625,-0.6020050048828125,0.86223965883255,-1.466229200363159,-0.1067815721035004,18.75949096679688,87.91372680664062,-2.866928100585938
171721,-0.0266876220703125,0.84588623046875,-0.752105712890625,1.201679468154907,-1.443125128746033,-0.0468945391476154,18.65507507324219,87.72035217285156,-2.433013916015625
171722,-0.2309417724609375,1.280105590820312,-1.347152709960938,2.245174169540405,0.6218198537826538,-0.3652613162994385,18.4407958984375,87.98916625976562,-1.875137329101562
171723,-0.2309417724609375,1.280105590820312,-1.347152709960938,2.245174169540405,0.6218198537826538,-0.3652613162994385,18.4407958984375,87.98916625976562,-1.875137329101562
171724,-0.44061279296875,1.44219970703125,-1.352874755859375,2.245174169540405,0.6218198537826538,-0.3652613162994385,18.26152038574219,88.19767761230469,-2.142578125
171725,-0.61627197265625,1.593902587890625,-1.101318359375,1.584442377090454,0.891220211982727,-0.6412239670753479,18.06587219238281,88.30490112304688,-2.493637084960938
171726,-0.691650390625,1.394882202148438,-0.2243499755859375,-0.3519047796726227,0.6947452425956726,-1.766641736030579,17.44438171386719,88.59024047851562,-4.428268432617188
171727,-0.691650390625,1.394882202148438,-0.2243499755859375,-0.3519047796726227,0.6947452425956726,-1.766641736030579,17.44438171386719,88.59024047851562,-4.428268432617188
171728,-0.7767791748046875,1.481033325195312,0.0105133056640625,-0.431827038526535,0.591615617275238,-1.95599889755249,17.00926208496094,88.37901306152344,-4.9835205078125
171729,-1.004486083984375,1.698486328125,0.0658111572265625,-0.5504684448242188,0.8981585502624512,-1.782111525535583,16.53895568847656,88.18598937988281,-5.626983642578125
171730,-1.467620849609375,1.869400024414062,0.1693878173828125,-0.5877391695976257,1.604104518890381,-0.7543598413467407,16.04489135742188,87.67169189453125,-5.837066650390625
171731,-1.467620849609375,1.869400024414062,0.1693878173828125,-0.5877391695976257,1.604104518890381,-0.7543598413467407,16.04489135742188,87.67169189453125,-5.837066650390625
171732,-2.101547241210938,2.320083618164062,0.3332672119140625,0.2425913363695145,1.88589882850647,0.4032950103282928,14.59092712402344,86.74307250976562,-6.641342163085938
171733,-1.68963623046875,2.251998901367188,0.2501220703125,0.2425913363695145,1.88589882850647,0.4032950103282928,14.14784240722656,86.77812194824219,-7.409194946289062
171734,-0.90802001953125,1.4527587890625,0.2793426513671875,0.475764125585556,1.144045233726501,0.3723759651184082,13.99140930175781,87.10369873046875,-9.080078125
171735,-0.90802001953125,1.4527587890625,0.2793426513671875,0.475764125585556,1.144045233726501,0.3723759651184082,13.99140930175781,87.10369873046875,-9.080078125
171736,-0.64007568359375,1.187850952148438,0.2066192626953125,0.5679420232772827,0.6650845408439636,0.5945637822151184,14.01760864257812,87.36334228515625,-9.989532470703123
171737,-0.476806640625,1.110671997070312,0.192657470703125,0.631364107131958,0.2340505719184875,0.8365383148193359,14.09814453125,87.56028747558594,-10.67640686035156
171738,-0.4590301513671875,1.332473754882812,0.3399810791015625,0.2182271480560303,-0.3198120892047882,0.5638197064399719,14.37454223632812,88.10101318359375,-11.75961303710938
171739,-0.4590301513671875,1.332473754882812,0.3399810791015625,0.2182271480560303,-0.3198120892047882,0.5638197064399719,14.37454223632812,88.10101318359375,-11.75961303710938
171740,-0.5211029052734375,1.421920776367188,0.3989410400390625,0.2182271480560303,-0.3198120892047882,0.5638197064399719,14.71502685546875,88.41751098632812,-12.10324096679688
171741,-0.668060302734375,1.4063720703125,0.471893310546875,0.1279750168323517,-0.5361548066139221,0.2579468488693237,15.19189453125,88.70048522949219,-12.22335815429688
171742,-0.82843017578125,1.313934326171875,0.5772705078125,0.0106694223359227,-0.5821859240531921,-0.0507105812430381,15.68128967285156,88.79524230957031,-11.99484252929688
171743,-0.8971099853515625,1.1510009765625,0.6185302734375,0.0106694223359227,-0.5821859240531921,-0.0507105812430381,16.23796081542969,88.81089782714844,-11.86605834960938
171744,-0.886993408203125,0.9386444091796876,0.59417724609375,-0.1640163660049438,-0.4468222260475159,-0.1435425132513046,16.5863037109375,88.63031005859375,-11.68232727050781
171745,-0.8209991455078125,0.7469635009765625,0.496002197265625,-0.4100455641746521,-0.325585275888443,-0.1963018625974655,17.02494812011719,88.43751525878906,-11.3134765625
171746,-0.601806640625,0.47442626953125,0.22137451171875,-0.7575534582138062,-0.4561323821544647,-0.1990704983472824,17.093017578125,88.26077270507812,-10.82266235351562
171747,-0.482147216796875,0.3990631103515625,0.1259918212890625,-0.8192328214645386,-0.6390841007232666,-0.1653756499290466,17.09526062011719,88.2685546875,-10.59417724609375
171748,-0.482147216796875,0.3990631103515625,0.1259918212890625,-0.8192328214645386,-0.6390841007232666,-0.1653756499290466,17.09526062011719,88.2685546875,-10.59417724609375
171749,-0.3741455078125,0.3683929443359375,0.029541015625,-0.8385891914367676,-0.8055846691131592,-0.1495791077613831,16.95500183105469,88.23538208007812,-10.11329650878906
171750,-0.170013427734375,0.3309783935546875,-0.4917144775390625,0.0988147258758544,-2.620424270629883,0.0652581006288528,16.77090454101562,88.04388427734375,-8.918304443359375
171751,-0.170013427734375,0.3309783935546875,-0.4917144775390625,0.0988147258758544,-2.620424270629883,0.0652581006288528,16.77090454101562,88.04388427734375,-8.918304443359375
171752,-0.13433837890625,0.384063720703125,-0.43487548828125,0.0988147258758544,-2.620424270629883,0.0652581006288528,16.71868896484375,87.87966918945312,-8.237060546875
171753,-0.143646240234375,0.3756103515625,-0.15460205078125,0.2076245695352554,-2.516295194625854,0.1081285998225212,16.68305969238281,87.82139587402344,-7.412551879882812
171754,-0.0492706298828125,0.279388427734375,-0.1290740966796875,-0.057338923215866,-1.034135580062866,0.5092930793762207,17.07637023925781,87.6617431640625,-5.573043823242188
171755,-0.0492706298828125,0.279388427734375,-0.1290740966796875,-0.057338923215866,-1.034135580062866,0.5092930793762207,17.07637023925781,87.6617431640625,-5.573043823242188
171756,3.0517578125e-05,0.2928924560546875,-0.193389892578125,0.0845103561878204,-0.5717335343360901,0.7395944595336914,17.55979919433594,87.63810729980469,-4.802764892578125
171757,0.048248291015625,0.3014678955078125,-0.1258087158203125,0.1999421417713165,-0.2670998871326447,0.9966787099838256,18.0135498046875,87.51312255859375,-4.290771484375
171758,0.01593017578125,0.3218536376953125,-0.0961761474609375,0.0747053995728492,0.3963670432567596,1.064358472824097,18.80136108398438,87.65985107421875,-3.741104125976562
171759,0.01593017578125,0.3218536376953125,-0.0961761474609375,0.0747053995728492,0.3963670432567596,1.064358472824097,18.80136108398438,87.65985107421875,-3.741104125976562
171760,0.031005859375,0.2894439697265625,-0.193756103515625,-0.0384954623878002,0.5153946280479431,0.9343199729919434,18.98776245117188,87.86131286621094,-3.652130126953125
171761,0.077362060546875,0.255828857421875,-0.3109130859375,-0.1528081893920898,0.5085873603820801,0.7837363481521606,19.38479614257812,88.2305908203125,-3.631607055664062
171762,0.1184844970703125,0.318603515625,-0.323822021484375,-0.3707285225391388,0.0993862450122833,0.5830064415931702,20.03369140625,88.59193420410156,-3.62030029296875
171763,0.1184844970703125,0.318603515625,-0.323822021484375,-0.3707285225391388,0.0993862450122833,0.5830064415931702,20.03369140625,88.59193420410156,-3.62030029296875
171764,0.0718994140625,0.4082794189453125,-0.1166839599609375,-0.4363775849342346,0.0311126448214054,0.4516063332557678,20.19108581542969,88.74163818359375,-3.626937866210938
171765,0.014129638671875,0.48052978515625,0.0558319091796875,-0.5042679309844971,0.2307285517454147,0.3600428700447083,20.35076904296875,88.95878601074219,-3.461654663085938
171766,-0.102020263671875,0.6782073974609375,0.2584381103515625,-0.7990385890007019,0.7872618436813354,0.2672745883464813,20.59016418457031,89.12162780761719,-3.242416381835938
171767,-0.18011474609375,0.8013458251953125,0.442169189453125,-1.05852210521698,1.213848829269409,0.1968853622674942,20.51152038574219,89.15299987792969,-3.270706176757812
171768,-0.18011474609375,0.8013458251953125,0.442169189453125,-1.05852210521698,1.213848829269409,0.1968853622674942,20.51152038574219,89.15299987792969,-3.270706176757812
171769,-0.265625,0.96832275390625,0.6263427734375,-1.423199892044067,1.859278202056885,0.085368163883686,20.48258972167969,89.18690490722656,-3.23834228515625
171770,-0.52569580078125,1.279510498046875,0.656951904296875,-2.159186840057373,2.67705774307251,-0.3933265209197998,20.36436462402344,89.09429931640625,-3.383331298828125
171771,-0.52569580078125,1.279510498046875,0.656951904296875,-2.159186840057373,2.67705774307251,-0.3933265209197998,20.36436462402344,89.09429931640625,-3.383331298828125
171772,-0.7706146240234375,1.388702392578125,0.654510498046875,-2.144825220108032,2.269924402236938,-0.719150960445404,20.21002197265625,88.98033142089844,-3.523956298828125
171773,-1.001724243164062,1.41082763671875,0.689697265625,-1.911720633506775,1.601078629493713,-1.065138459205627,19.98458862304688,88.75181579589844,-3.6766357421875
171774,-1.10430908203125,1.095077514648438,0.596832275390625,-1.236309885978699,-0.1403304785490036,-1.307308435440063,19.20697021484375,87.78923034667969,-3.562332153320312
171775,-1.10430908203125,1.095077514648438,0.596832275390625,-1.236309885978699,-0.1403304785490036,-1.307308435440063,19.20697021484375,87.78923034667969,-3.562332153320312
171776,-0.9691009521484376,0.9057769775390624,0.5038909912109375,-0.603641152381897,-1.198174238204956,-0.6726942658424377,18.72355651855469,87.36830139160156,-3.592239379882812
171777,-0.8494873046875,0.8183441162109375,0.3714141845703125,-0.603641152381897,-1.198174238204956,-0.6726942658424377,18.34239196777344,86.73457336425781,-3.328933715820312
171778,-0.5045318603515625,1.006973266601562,0.0213623046875,-0.2506282329559326,-1.814917683601379,-0.2992282509803772,17.59352111816406,86.02665710449219,-2.437637329101562
171779,-0.5045318603515625,1.006973266601562,0.0213623046875,-0.2506282329559326,-1.814917683601379,-0.2992282509803772,17.59352111816406,86.02665710449219,-2.437637329101562
171780,-0.4123077392578125,1.055740356445312,0.0438079833984375,-0.0629797652363777,-1.775027990341187,-0.2003336250782013,17.41639709472656,85.78657531738281,-1.77294921875
171781,-0.3713836669921875,1.083999633789062,0.139495849609375,-0.0118494685739278,-1.118564128875732,-0.0196482688188552,17.37574768066406,85.67193603515625,-1.033279418945312
171782,-0.501800537109375,0.986968994140625,-0.0916290283203125,-0.0505973957479,1.271955251693726,0.1139108538627625,17.00056457519531,85.47811889648438,0.122955322265625
171783,-0.501800537109375,0.986968994140625,-0.0916290283203125,-0.0505973957479,1.271955251693726,0.1139108538627625,17.00056457519531,85.47811889648438,0.122955322265625
171784,-0.5066070556640625,1.060394287109375,-0.2661895751953125,-0.1453406810760498,1.67605185508728,0.125696673989296,16.744384765625,85.48063659667969,0.2777862548828125
171785,-0.484283447265625,1.227615356445312,-0.34503173828125,-0.2489863783121109,1.364856958389282,0.0950151979923248,16.58003234863281,85.53793334960938,0.1450347900390625
171786,-0.3373260498046875,1.615814208984375,-0.198944091796875,-0.4462991952896118,0.52017742395401,0.1497088074684143,15.99917602539062,85.18649291992188,-0.9119415283203124
171787,-0.3373260498046875,1.615814208984375,-0.198944091796875,-0.4462991952896118,0.52017742395401,0.1497088074684143,15.99917602539062,85.18649291992188,-0.9119415283203124
171788,-0.2998199462890625,1.822891235351562,-0.07342529296875,-0.4750208556652069,0.5060621500015259,0.2109335362911224,15.67654418945312,85.03150939941406,-0.7602996826171875
171789,-0.271026611328125,1.947494506835938,0.073516845703125,-0.346357673406601,0.951458215713501,0.2059371918439865,15.43588256835938,85.00663757324219,-0.8135833740234375
171790,-0.3700103759765625,2.1556396484375,0.1589202880859375,-0.2637957036495209,0.8843287229537964,0.184888631105423,14.98890686035156,85.09443664550781,-0.9673919677734376
171791,-0.3700103759765625,2.1556396484375,0.1589202880859375,-0.2637957036495209,0.8843287229537964,0.184888631105423,14.98890686035156,85.09443664550781,-0.9673919677734376
171792,-0.4528045654296875,2.280975341796875,0.12139892578125,-0.1941348612308502,0.5417436957359314,0.1604426652193069,14.81419372558594,85.10696411132812,-1.158935546875
171793,-0.5670928955078125,2.30450439453125,0.07452392578125,-0.1120426505804062,0.0709844306111335,0.1586889773607254,14.72293090820312,85.11802673339844,-1.140762329101562
171794,-0.582000732421875,1.468917846679688,-0.002685546875,0.4668470621109009,-0.1738572865724564,0.306671530008316,14.83161926269531,85.11839294433594,-1.356796264648438
171795,-0.582000732421875,1.468917846679688,-0.002685546875,0.4668470621109009,-0.1738572865724564,0.306671530008316,14.83161926269531,85.11839294433594,-1.356796264648438
171796,-0.46942138671875,1.08612060546875,-0.0957183837890625,0.8288090229034424,0.1020786985754967,0.3847143948078156,15.05081176757812,85.31199645996094,-1.453826904296875
171797,-0.414276123046875,0.8478546142578125,-0.25970458984375,1.081254005432129,0.240256279706955,0.3822546899318695,15.29811096191406,85.5023193359375,-1.591339111328125
171798,-0.3555450439453125,0.418121337890625,-0.373382568359375,1.083013653755188,0.0731141567230224,0.3461188077926636,15.95783996582031,86.11236572265625,-2.284759521484375
171799,-0.3555450439453125,0.418121337890625,-0.373382568359375,1.083013653755188,0.0731141567230224,0.3461188077926636,15.95783996582031,86.11236572265625,-2.284759521484375
171800,-0.3015594482421875,0.2444915771484375,-0.27459716796875,1.029189825057983,-0.0444774515926837,0.3619406223297119,16.468017578125,86.27783203125,-2.641586303710938
171801,-0.257568359375,0.13232421875,-0.119415283203125,0.999932587146759,0.021599568426609,0.383897602558136,16.94747924804688,86.35360717773438,-2.893844604492188
171802,-0.1659393310546875,-0.017059326171875,-0.0599517822265625,0.8236528635025024,0.3373767137527466,0.3659121990203857,17.67460632324219,86.58384704589844,-3.59075927734375
171803,-0.1659393310546875,-0.017059326171875,-0.0599517822265625,0.8236528635025024,0.3373767137527466,0.3659121990203857,17.67460632324219,86.58384704589844,-3.59075927734375
171804,-0.10693359375,-0.0829620361328125,-0.114715576171875,0.6657204627990723,0.2030660361051559,0.4332265257835388,17.95918273925781,86.61431884765625,-3.869735717773438
171805,-0.0501251220703125,-0.1378021240234375,-0.1343841552734375,0.6657204627990723,0.2030660361051559,0.4332265257835388,18.25018310546875,86.7440185546875,-4.141769409179688
171806,0.0429534912109375,-0.2092132568359375,-0.092987060546875,0.5070033073425293,-0.0166974868625402,0.6105073094367981,18.59580993652344,87.12734985351562,-4.5491943359375
171807,0.0429534912109375,-0.2092132568359375,-0.092987060546875,0.5070033073425293,-0.0166974868625402,0.6105073094367981,18.59580993652344,87.12734985351562,-4.5491943359375
171808,0.0650482177734375,-0.2067108154296875,-0.0664215087890625,0.455109715461731,-0.0230917371809482,0.7256578803062439,18.84042358398438,87.46656799316406,-4.838638305664062
171809,0.0874481201171875,-0.192901611328125,-0.0458221435546875,0.4595263004302979,0.0522701293230056,0.8339672684669495,19.00862121582031,87.63661193847656,-4.760330200195312
171810,0.123260498046875,-0.1432342529296875,-0.03692626953125,0.6437273025512695,0.3687010705471039,1.02439284324646,19.62313842773438,88.03741455078125,-4.732986450195312
171811,0.123260498046875,-0.1432342529296875,-0.03692626953125,0.6437273025512695,0.3687010705471039,1.02439284324646,19.62313842773438,88.03741455078125,-4.732986450195312
171812,0.127166748046875,-0.12481689453125,-0.053741455078125,0.6437273025512695,0.3687010705471039,1.02439284324646,19.96806335449219,88.35560607910156,-4.79180908203125
171813,0.1258087158203125,-0.1133270263671875,-0.0854949951171875,0.6597787141799927,0.4735590517520905,1.028082132339478,20.18037414550781,88.70805358886719,-4.693618774414062
171814,0.135162353515625,-0.1056365966796875,-0.221893310546875,0.8479888439178467,0.2456180155277252,1.031848192214966,20.8133544921875,89.44844055175781,-5.09576416015625
171815,0.135162353515625,-0.1056365966796875,-0.221893310546875,0.8479888439178467,0.2456180155277252,1.031848192214966,20.8133544921875,89.44844055175781,-5.09576416015625
171816,0.1546478271484375,-0.0525054931640625,-0.35174560546875,0.8479888439178467,0.2456180155277252,1.031848192214966,21.27078247070312,89.80068969726562,-5.256118774414062
171817,0.124755859375,0.182403564453125,-0.53448486328125,1.031672954559326,-0.1230018213391304,0.8971441388130188,21.55244445800781,90.07893371582033,-5.460739135742188
