time_idx,accelerometerAccelerationX(G),accelerometerAccelerationY(G),accelerometerAccelerationZ(G),gyroRotationX(rad/s),gyroRotationY(rad/s),gyroRotationZ(rad/s),magnetometerX(µT),magnetometerY(µT),magnetometerZ(µT)
131105,-1.495712280273438,2.290847778320312,-0.2162322998046875,0.6517301201820374,0.3762370049953461,0.7508623003959656,28.11325073242188,93.80894470214844,-34.54403686523438
131106,-1.357040405273438,2.156814575195312,0.0579833984375,0.3790754079818726,0.2178114205598831,0.6861764788627625,28.63063049316406,93.71443176269533,-35.26820373535156
131107,-0.8473358154296875,1.511962890625,0.300201416015625,0.4242926836013794,-0.1553270071744919,0.881963312625885,29.78939819335938,93.48695373535156,-35.97517395019531
131108,-0.8473358154296875,1.511962890625,0.300201416015625,0.4242926836013794,-0.1553270071744919,0.881963312625885,29.78939819335938,93.48695373535156,-35.97517395019531
131109,-0.61175537109375,1.2686767578125,0.3424224853515625,0.7309887409210205,-0.3087770044803619,1.179004549980164,30.37333679199219,93.5217742919922,-36.24061584472656
131110,-0.4157867431640625,1.167312622070312,0.3679351806640625,1.071551918983459,-0.2215539664030075,1.384659767150879,30.93666076660156,93.58299255371094,-36.51826477050781
131111,-0.1056060791015625,0.952972412109375,0.1334991455078125,1.723463892936707,0.1161159500479698,1.649928092956543,32.12806701660156,93.43414306640624,-37.12326049804688
131112,-0.1056060791015625,0.952972412109375,0.1334991455078125,1.723463892936707,0.1161159500479698,1.649928092956543,32.12806701660156,93.43414306640624,-37.12326049804688
131113,-0.0158538818359375,0.82135009765625,-0.0634765625,1.836820840835571,-0.1127545088529587,1.686861395835876,32.749267578125,93.29527282714844,-37.76499938964844
131114,0.0459442138671875,0.6801605224609375,-0.168182373046875,1.802496433258057,-0.6407674551010132,1.675162672996521,33.3345947265625,93.24406433105467,-38.20510864257812
131115,0.052520751953125,0.5488128662109375,-0.1136932373046875,1.627954721450806,-1.052764058113098,1.574768662452698,34.15121459960938,92.97576904296876,-38.88796997070312
131116,0.0151214599609375,0.4328460693359375,-0.007965087890625,1.311362028121948,-1.023410439491272,1.366731643676758,34.76300048828125,92.69601440429688,-39.55055236816406
131117,-0.0295867919921875,0.31158447265625,0.060211181640625,0.8826051354408264,-0.6285720467567444,1.119965195655823,35.09687805175781,92.6207275390625,-40.10813903808594
131118,-0.11260986328125,0.2156524658203125,0.1838836669921875,0.4647016227245331,-0.0606199391186237,1.035564064979553,35.45327758789062,92.37631225585938,-40.27462768554688
131119,-0.2571563720703125,0.3135528564453125,0.5049285888671875,-0.1925449520349503,1.429788112640381,1.048473477363586,36.22402954101562,92.4969482421875,-40.80422973632812
131120,-0.2971038818359375,0.337554931640625,0.4989776611328125,-0.456070601940155,1.942356586456299,0.8956442475318909,36.88252258300781,92.60321044921876,-41.01795959472656
131121,-0.2971038818359375,0.337554931640625,0.4989776611328125,-0.456070601940155,1.942356586456299,0.8956442475318909,36.88252258300781,92.60321044921876,-41.01795959472656
131122,-0.3346099853515625,0.2887725830078125,0.4064788818359375,-0.6041449904441833,1.990123510360718,0.7168779373168945,37.79530334472656,92.6590576171875,-41.01539611816406
131123,-0.3831024169921875,0.144439697265625,0.414215087890625,-0.71070396900177,1.318297505378723,0.564037024974823,39.81855773925781,93.05970764160156,-41.346923828125
131124,-0.3831024169921875,0.144439697265625,0.414215087890625,-0.71070396900177,1.318297505378723,0.564037024974823,39.81855773925781,93.05970764160156,-41.346923828125
131125,-0.3907012939453125,0.1503143310546875,0.4823150634765625,-0.9043495655059814,1.0208340883255,0.4948568642139435,40.71630859375,93.2388153076172,-41.36900329589844
131126,-0.3816986083984375,0.2204742431640625,0.5088348388671875,-1.234347224235535,0.6605600714683533,0.3411418795585632,41.50363159179688,93.4707489013672,-41.26783752441406
131127,-0.3960723876953125,0.44818115234375,0.57611083984375,-2.191553592681885,-0.3324727416038513,-0.0384528487920761,42.30207824707031,94.001953125,-40.63047790527344
131128,-0.3960723876953125,0.44818115234375,0.57611083984375,-2.191553592681885,-0.3324727416038513,-0.0384528487920761,42.30207824707031,94.001953125,-40.63047790527344
131129,-0.41192626953125,0.5258636474609375,0.6251068115234375,-2.671113252639771,-0.6982020139694214,-0.2112086415290833,42.36038208007812,94.41496276855467,-40.04048156738281
131130,-0.4260101318359375,0.564666748046875,0.6262054443359375,-3.022032499313354,-0.9490180015563964,-0.3146381080150604,42.12968444824219,95.01895141601562,-39.17698669433594
131131,-0.5018310546875,0.5691680908203125,0.511688232421875,-3.13476037979126,-1.262086629867554,-0.4060527086257935,41.24844360351562,96.46871948242188,-36.70236206054688
131132,-0.5018310546875,0.5691680908203125,0.511688232421875,-3.13476037979126,-1.262086629867554,-0.4060527086257935,41.24844360351562,96.46871948242188,-36.70236206054688
131133,-0.5670166015625,0.53759765625,0.396881103515625,-2.90306282043457,-1.344807624816895,-0.4940837621688843,40.5882568359375,97.1678466796875,-35.28804016113281
131134,-0.620361328125,0.508941650390625,0.290802001953125,-2.501676797866821,-1.344164490699768,-0.6656779050827026,40.02207946777344,97.86795043945312,-33.83395385742188
131135,-0.5521087646484375,0.368804931640625,0.1334075927734375,-1.375151991844177,-0.8374698758125305,-1.081966757774353,38.79200744628906,98.754638671875,-30.80604553222656
131136,-0.5521087646484375,0.368804931640625,0.1334075927734375,-1.375151991844177,-0.8374698758125305,-1.081966757774353,38.79200744628906,98.754638671875,-30.80604553222656
131137,-0.4423980712890625,0.2318572998046875,-0.012542724609375,-0.8357750177383423,-0.6177257895469666,-1.116023778915405,38.19947814941406,98.97561645507812,-29.63168334960938
131138,-0.364105224609375,0.105926513671875,-0.1128692626953125,-0.3797840774059296,-0.4740855395793915,-1.073624610900879,37.62385559082031,98.95909118652344,-28.72840881347656
131139,-0.229522705078125,-0.0187225341796875,-0.2419281005859375,-0.0100257359445095,-0.3845247626304626,-0.8558640480041504,36.60601806640625,98.763916015625,-27.88990783691406
131140,-0.229522705078125,-0.0187225341796875,-0.2419281005859375,-0.0100257359445095,-0.3845247626304626,-0.8558640480041504,36.60601806640625,98.763916015625,-27.88990783691406
131141,-0.1474151611328125,0.0261688232421875,-0.32391357421875,-0.0063428506255149,-0.5321712493896484,-0.6720934510231018,36.28652954101562,98.59237670898438,-27.8358154296875
131142,-0.1043243408203125,0.150238037109375,-0.3336181640625,-0.0119860889390111,-0.6119248867034912,-0.5883423686027527,36.02053833007812,98.22184753417967,-27.65809631347656
131143,-0.022430419921875,0.1825714111328125,-0.2470703125,-0.201047882437706,-0.5016053318977356,-0.4739425480365753,35.11494445800781,97.76429748535156,-27.55337524414062
131144,-0.022430419921875,0.1825714111328125,-0.2470703125,-0.201047882437706,-0.5016053318977356,-0.4739425480365753,35.11494445800781,97.76429748535156,-27.55337524414062
131145,0.01873779296875,0.176788330078125,-0.2274169921875,-0.3422228693962097,-0.4808579683303833,-0.3831276893615723,34.61062622070312,97.91949462890624,-27.57823181152344
131146,0.0518035888671875,0.1650238037109375,-0.2004852294921875,-0.4542117118835449,-0.584148645401001,-0.2673139870166779,34.1287841796875,98.02204895019533,-27.29402160644531
131147,0.077362060546875,0.1724853515625,-0.1230926513671875,-0.4740498661994934,-0.8081079721450806,-0.0974482595920562,33.60054016113281,98.08895874023438,-26.66688537597656
131148,0.077362060546875,0.1724853515625,-0.1230926513671875,-0.4740498661994934,-0.8081079721450806,-0.0974482595920562,33.60054016113281,98.08895874023438,-26.66688537597656
131149,0.081756591796875,0.2030181884765625,-0.1138916015625,-0.3938807249069214,-0.8618960976600647,-0.072273664176464,33.50376892089844,98.07737731933594,-26.23289489746094
131150,0.0743408203125,0.2629852294921875,-0.1469573974609375,-0.2984468936920166,-0.911856472492218,-0.0743559896945953,33.33839416503906,98.05793762207033,-25.76666259765625
131151,-0.0441741943359375,0.47564697265625,-0.307281494140625,0.0061329938471317,-1.206714987754822,-0.2265082448720932,33.02951049804688,98.02165222167967,-24.90481567382812
131152,-0.0441741943359375,0.47564697265625,-0.307281494140625,0.0061329938471317,-1.206714987754822,-0.2265082448720932,33.02951049804688,98.02165222167967,-24.90481567382812
131153,-0.1772308349609375,0.5489959716796875,-0.31561279296875,0.2504833340644836,-1.165131092071533,-0.3660661280155182,32.79574584960938,97.95761108398438,-24.51593017578125
131154,-0.2962646484375,0.6039886474609375,-0.31463623046875,0.5356490612030029,-0.8011435866355896,-0.4822159111499786,32.50331115722656,98.01475524902344,-24.08267211914062
131155,-0.517852783203125,0.734588623046875,-0.4383697509765625,1.00070059299469,0.3586971759796143,-0.569421112537384,31.68116760253906,98.000244140625,-23.77885437011719
131156,-0.517852783203125,0.734588623046875,-0.4383697509765625,1.00070059299469,0.3586971759796143,-0.569421112537384,31.68116760253906,98.000244140625,-23.77885437011719
131157,-0.623779296875,0.8002777099609375,-0.5760955810546875,1.163304686546326,0.6833199858665466,-0.5735458135604858,31.29551696777344,97.83474731445312,-24.02235412597656
131158,-0.7206878662109375,0.9258880615234376,-0.7350311279296875,1.298509955406189,0.6531397104263306,-0.5859169960021973,30.993896484375,97.6751708984375,-24.33088684082031
131159,-0.918212890625,1.518814086914062,-0.50433349609375,1.038858413696289,0.4806523621082306,-0.6002480387687683,30.49368286132812,97.26966857910156,-25.58038330078125
131160,-1.08795166015625,1.874969482421875,-0.2037200927734375,0.7224141359329224,0.98566734790802,-0.8417200446128845,30.19515991210938,97.19070434570312,-26.39175415039062
131161,-1.309326171875,2.132186889648438,-0.010162353515625,0.566429615020752,1.804961442947388,-1.310883522033691,29.82333374023438,96.91995239257812,-27.08427429199219
131162,-1.309326171875,2.132186889648438,-0.010162353515625,0.566429615020752,1.804961442947388,-1.310883522033691,29.82333374023438,96.91995239257812,-27.08427429199219
131163,-1.7371826171875,2.205902099609375,0.0814971923828125,0.5512815117835999,2.47362494468689,-1.640521645545959,29.40853881835938,96.73341369628906,-27.66435241699219
131164,-1.7371826171875,2.205902099609375,0.0814971923828125,0.5512815117835999,2.47362494468689,-1.640521645545959,29.40853881835938,96.73341369628906,-27.66435241699219
131165,-3.021438598632812,2.457473754882812,-0.038787841796875,0.2203613966703415,2.458672761917114,-1.188907265663147,28.24092102050781,96.46965026855467,-29.19664001464844
131166,-3.446945190429688,2.687484741210938,-0.3751373291015625,-0.1131292209029198,1.050290822982788,-0.8194775581359863,27.82199096679688,96.30947875976562,-30.09864807128906
131167,-2.303146362304688,2.50909423828125,0.1093902587890625,7.696535612922162e-05,-1.179734826087952,0.4766006469726562,27.19778442382812,96.1925811767578,-31.44593811035156
131168,-2.303146362304688,2.50909423828125,0.1093902587890625,7.696535612922162e-05,-1.179734826087952,0.4766006469726562,27.19778442382812,96.1925811767578,-31.44593811035156
131169,-1.6612548828125,2.297027587890625,0.267913818359375,0.2702431976795197,-0.474529504776001,0.8430598378181458,26.98664855957031,96.17112731933594,-31.85812377929688
131170,-1.402175903320312,2.283523559570312,0.0590362548828125,0.558134913444519,0.2122872322797775,1.084187269210815,26.79817199707031,96.0937042236328,-31.82600402832031
131171,-1.256332397460938,2.263626098632812,0.00726318359375,0.8320170640945435,0.3019247055053711,1.177740335464478,26.98078918457031,96.00570678710938,-31.72956848144531
131172,-1.1221923828125,2.127410888671875,0.1512451171875,0.933734655380249,0.319900780916214,1.204563975334167,27.48541259765625,96.0189971923828,-31.952880859375
131173,-0.9580535888671876,1.933013916015625,0.119171142578125,0.961463749408722,0.2217491716146469,1.099788546562195,28.25083923339844,96.0624542236328,-32.35945129394531
131174,-0.7308502197265625,1.716323852539062,0.0330657958984375,1.000276684761047,-0.164003312587738,1.034259915351868,29.13792419433594,96.03164672851562,-32.91883850097656
131175,-0.4007110595703125,1.225326538085938,0.055877685546875,1.044891476631165,-1.060883045196533,0.8779683113098145,31.15402221679688,95.7443389892578,-33.85029602050781
131176,-0.4007110595703125,1.225326538085938,0.055877685546875,1.044891476631165,-1.060883045196533,0.8779683113098145,31.15402221679688,95.7443389892578,-33.85029602050781
131177,-0.2111358642578125,0.9813995361328124,0.096832275390625,1.045219302177429,-1.384189367294312,0.8592665195465088,31.95111083984375,95.63870239257812,-34.23225402832031
131178,-0.008392333984375,0.7862701416015625,0.088470458984375,1.081150770187378,-1.488074779510498,1.081468462944031,32.60447692871094,95.522705078125,-34.59043884277344
131179,0.1109619140625,0.5281219482421875,-0.0658111572265625,1.509996294975281,-0.4381557703018188,1.51893413066864,33.26577758789062,95.32286071777344,-34.68992614746094
131180,0.1109619140625,0.5281219482421875,-0.0658111572265625,1.509996294975281,-0.4381557703018188,1.51893413066864,33.26577758789062,95.32286071777344,-34.68992614746094
131181,0.044708251953125,0.4034576416015625,-0.1357879638671875,1.471754908561707,0.3602151572704315,1.349162459373474,33.53141784667969,95.23371887207033,-34.74070739746094
131182,-0.087799072265625,0.26580810546875,-0.16192626953125,1.155915021896362,0.8222246170043945,1.075986266136169,33.96844482421875,95.32510375976562,-35.12551879882812
131183,-0.30419921875,0.20172119140625,0.30389404296875,0.6505404710769653,1.229270100593567,0.9916157722473145,35.34684753417969,95.0081787109375,-36.19638061523438
131184,-0.30419921875,0.20172119140625,0.30389404296875,0.6505404710769653,1.229270100593567,0.9916157722473145,35.34684753417969,95.0081787109375,-36.19638061523438
131185,-0.337646484375,0.1970672607421875,0.408905029296875,0.514579713344574,1.36653208732605,0.911393105983734,36.1409912109375,94.88905334472656,-36.73159790039062
131186,-0.353240966796875,0.15789794921875,0.4267578125,0.3691098690032959,1.362260460853577,0.8005243539810181,37.03390502929688,94.90814208984376,-37.34773254394531
131187,-0.303741455078125,0.1401519775390625,0.42083740234375,-0.0945299640297889,1.122957825660706,0.6238510608673096,38.83906555175781,94.67591857910156,-38.1851806640625
131188,-0.303741455078125,0.1401519775390625,0.42083740234375,-0.0945299640297889,1.122957825660706,0.6238510608673096,38.83906555175781,94.67591857910156,-38.1851806640625
131189,-0.2521514892578125,0.1710205078125,0.47039794921875,-0.3511995673179626,1.026437878608704,0.5175251960754395,39.57743835449219,94.7436065673828,-38.45628356933594
131190,-0.2301177978515625,0.2169036865234375,0.571624755859375,-0.59319007396698,1.036834359169006,0.4213656187057495,40.65554809570312,94.82872009277344,-38.56362915039062
131191,-0.26287841796875,0.3365325927734375,0.71185302734375,-1.26207172870636,1.311137318611145,0.2116382122039795,41.3931884765625,95.15982055664062,-38.38664245605469
131192,-0.26287841796875,0.3365325927734375,0.71185302734375,-1.26207172870636,1.311137318611145,0.2116382122039795,41.3931884765625,95.15982055664062,-38.38664245605469
131193,-0.32952880859375,0.3992462158203125,0.737884521484375,-1.671078443527222,1.386749505996704,0.1280381232500076,41.69566345214844,95.45832824707033,-38.07437133789062
131194,-0.4061126708984375,0.4753875732421875,0.742767333984375,-2.034822940826416,1.333428025245667,0.0456881262362003,41.95848083496094,95.84548950195312,-37.636962890625
131195,-0.5074920654296875,0.594635009765625,0.62933349609375,-2.4807448387146,0.6540718078613281,-0.1116319894790649,42.26092529296875,96.82571411132812,-36.23051452636719
131196,-0.5074920654296875,0.594635009765625,0.62933349609375,-2.4807448387146,0.6540718078613281,-0.1116319894790649,42.26092529296875,96.82571411132812,-36.23051452636719
131197,-0.5203704833984375,0.60076904296875,0.5843048095703125,-2.596235513687134,0.1420844346284866,-0.2022359222173691,42.16932678222656,97.27182006835938,-35.23854064941406
131198,-0.507049560546875,0.57073974609375,0.5516357421875,-2.664741277694702,-0.2996761798858643,-0.3111336529254913,41.97761535644531,97.78997802734376,-34.12628173828125
131199,-0.4821014404296875,0.45843505859375,0.4347381591796875,-2.595009803771973,-0.7998745441436768,-0.6287739276885986,41.207275390625,99.03826904296876,-32.21232604980469
131200,-0.4821014404296875,0.45843505859375,0.4347381591796875,-2.595009803771973,-0.7998745441436768,-0.6287739276885986,41.207275390625,99.03826904296876,-32.21232604980469
131201,-0.461273193359375,0.4055633544921875,0.3309326171875,-2.409743547439575,-0.9077179431915284,-0.8117943406105042,40.75595092773438,99.4154815673828,-30.77958679199219
131202,-0.370330810546875,0.32000732421875,0.1042938232421875,-1.882508397102356,-0.9926868677139282,-1.02287757396698,39.67427062988281,99.95298767089844,-28.243896484375
131203,-0.318939208984375,0.327423095703125,-0.1221923828125,-1.551263570785522,-1.136372923851013,-1.0645592212677,39.12442016601562,99.9950714111328,-27.18629455566406
131204,-0.318939208984375,0.327423095703125,-0.1221923828125,-1.551263570785522,-1.136372923851013,-1.0645592212677,39.12442016601562,99.9950714111328,-27.18629455566406
131205,-0.2384185791015625,0.377655029296875,-0.400909423828125,-0.9568783044815063,-1.460607171058655,-1.030930161476135,38.62174987792969,99.99758911132812,-26.18536376953125
131206,-0.1757049560546875,0.436859130859375,-0.396759033203125,-0.2425449937582016,-1.585216760635376,-0.958932399749756,38.0482177734375,99.97178649902344,-25.48515319824219
131207,-0.0348968505859375,0.375732421875,-0.20892333984375,0.5291405320167542,-0.6264745593070984,-0.7287918925285339,36.99258422851562,99.40260314941406,-24.55235290527344
131208,-0.0348968505859375,0.375732421875,-0.20892333984375,0.5291405320167542,-0.6264745593070984,-0.7287918925285339,36.99258422851562,99.40260314941406,-24.55235290527344
131209,0.03594970703125,0.28851318359375,-0.2792205810546875,0.552456796169281,-0.2747308909893036,-0.4120605289936066,36.47453308105469,99.19236755371094,-24.51277160644531
131210,0.0038299560546875,0.19915771484375,-0.33990478515625,0.49212846159935,-0.0795275792479515,-0.2362202554941177,36.00502014160156,99.07969665527344,-24.72682189941406
131211,0.0165863037109375,0.0733795166015625,-0.2871551513671875,0.0746233686804771,-0.1984568983316422,-0.1318579018115997,35.31550598144531,98.9082489013672,-25.33869934082031
131212,0.0165863037109375,0.0733795166015625,-0.2871551513671875,0.0746233686804771,-0.1984568983316422,-0.1318579018115997,35.31550598144531,98.9082489013672,-25.33869934082031
131213,0.0360565185546875,0.0530853271484375,-0.2306060791015625,-0.2038228958845139,-0.3887464106082916,-0.1188190579414368,35.25643920898438,98.79769897460938,-25.30601501464844
131214,0.05194091796875,0.0420684814453125,-0.2002716064453125,-0.3974317908287048,-0.5994165539741516,-0.1365250945091248,35.13520812988281,98.83969116210938,-25.21951293945312
131215,0.0603179931640625,0.087554931640625,-0.1241455078125,-0.4556295871734619,-0.936877965927124,-0.2708847522735596,34.99568176269531,98.88655090332033,-24.50865173339844
131216,0.0603179931640625,0.087554931640625,-0.1241455078125,-0.4556295871734619,-0.936877965927124,-0.2708847522735596,34.99568176269531,98.88655090332033,-24.50865173339844
131217,0.0435791015625,0.156158447265625,-0.1209259033203125,-0.3876041769981384,-0.9958318471908568,-0.3922894895076752,34.84710693359375,98.81727600097656,-23.96441650390625
131218,-0.07659912109375,0.3565521240234375,-0.23101806640625,-0.0912212580442428,-1.160308122634888,-0.5466476082801819,34.45602416992188,98.90138244628906,-23.19253540039062
131219,-0.143096923828125,0.46600341796875,-0.3012237548828125,0.2327373772859573,-1.118854999542236,-0.5691244602203369,34.04440307617188,98.8154754638672,-22.96133422851562
131220,-0.143096923828125,0.46600341796875,-0.3012237548828125,0.2327373772859573,-1.118854999542236,-0.5691244602203369,34.04440307617188,98.8154754638672,-22.96133422851562
131221,-0.205596923828125,0.5956268310546875,-0.3463134765625,0.6565735936164856,-0.8003166317939758,-0.5451242923736572,33.67742919921875,98.65333557128906,-22.67019653320312
131222,-0.2760009765625,0.72393798828125,-0.4195404052734375,1.032060980796814,-0.256729781627655,-0.4797804653644562,33.21809387207031,98.553466796875,-22.33216857910156
131223,-0.4831390380859375,1.04632568359375,-0.67974853515625,1.406269192695618,0.4739438593387604,-0.4380401968955994,32.51931762695312,98.39933776855467,-22.83998107910156
131224,-0.4831390380859375,1.04632568359375,-0.67974853515625,1.406269192695618,0.4739438593387604,-0.4380401968955994,32.51931762695312,98.39933776855467,-22.83998107910156
131225,-0.5904083251953125,1.279220581054688,-0.730438232421875,1.494314074516296,0.4611724019050598,-0.557536780834198,32.26058959960938,98.31190490722656,-23.33076477050781
131226,-0.70721435546875,1.591537475585938,-0.592376708984375,1.438114404678345,0.3690619170665741,-0.7489107251167297,32.11778259277344,98.14259338378906,-23.85003662109375
131227,-1.149688720703125,2.39678955078125,-0.109375,0.9461963772773744,1.136361241340637,-1.697740912437439,31.280517578125,97.58241271972656,-25.34281921386719
131228,-1.149688720703125,2.39678955078125,-0.109375,0.9461963772773744,1.136361241340637,-1.697740912437439,31.280517578125,97.58241271972656,-25.34281921386719
131229,-1.576126098632812,2.724380493164062,-0.0008392333984375,0.5962740182876587,1.976343035697937,-2.372210264205933,30.51435852050781,97.44232177734376,-26.16389465332031
131230,-2.550689697265625,2.736099243164062,-0.0398406982421875,0.2116403430700302,2.721514940261841,-2.504223585128784,29.4981689453125,97.24832153320312,-26.99301147460938
131231,-3.785186767578125,2.564468383789062,-0.23553466796875,0.1972062736749649,1.455899000167847,-0.3723453283309937,27.78010559082031,96.88818359375,-28.90548706054688
131232,-3.785186767578125,2.564468383789062,-0.23553466796875,0.1972062736749649,1.455899000167847,-0.3723453283309937,27.78010559082031,96.88818359375,-28.90548706054688
131233,-2.19073486328125,1.951034545898438,0.2809295654296875,0.70263671875,-0.8804959058761597,0.4718559384346008,27.70909118652344,96.7081298828125,-30.09022521972656
131234,-1.578689575195312,1.838546752929688,-0.0070037841796875,0.9421161413192748,-0.4793641865253448,0.8906406760215759,27.67230224609375,96.68148803710938,-30.53813171386719
131235,-1.375228881835938,1.927078247070312,-0.20733642578125,1.181445598602295,-0.2396996766328812,1.111900329589844,27.86367797851562,96.50407409667967,-30.87744140625
131236,-1.375228881835938,1.927078247070312,-0.20733642578125,1.181445598602295,-0.2396996766328812,1.111900329589844,27.86367797851562,96.50407409667967,-30.87744140625
131237,-1.325469970703125,2.0452880859375,-0.0478668212890625,1.242502331733704,-0.09809460490942,1.06611692905426,28.16287231445312,96.42697143554688,-31.27178955078125
131238,-1.248870849609375,2.09136962890625,0.13763427734375,1.152541518211365,-0.0185763482004404,1.019372820854187,28.7178955078125,96.49700927734376,-31.73597717285156
131239,-1.11065673828125,2.071640014648438,0.24224853515625,1.119371056556702,-0.0531601570546627,0.8882765769958496,29.40974426269531,96.31336975097656,-32.27076721191406
131240,-0.9079742431640624,1.899490356445312,0.3226470947265625,1.228794455528259,-0.269949197769165,0.7245787382125854,30.19917297363281,96.26051330566406,-32.88420104980469
131241,-0.468597412109375,1.317489624023438,0.4116363525390625,1.304249882698059,-0.4952259957790375,0.61050945520401,31.78211975097656,95.74900817871094,-33.60150146484375
131242,-0.468597412109375,1.317489624023438,0.4116363525390625,1.304249882698059,-0.4952259957790375,0.61050945520401,31.78211975097656,95.74900817871094,-33.60150146484375
131243,-0.0967254638671875,0.7980194091796875,0.2391204833984375,1.244134783744812,-0.5180711150169373,1.01995050907135,32.79147338867188,95.45321655273438,-34.72637939453125
131244,-0.01220703125,0.5748291015625,0.07745361328125,1.478087425231934,-0.2245188653469086,1.224394202232361,33.08901977539062,95.31207275390624,-35.0113525390625
131245,0.015167236328125,0.4139251708984375,-0.0453338623046875,1.746153235435486,0.0630636513233184,1.326148986816406,33.46440124511719,95.20944213867188,-35.26272583007812
131246,0.015167236328125,0.4139251708984375,-0.0453338623046875,1.746153235435486,0.0630636513233184,1.326148986816406,33.46440124511719,95.20944213867188,-35.26272583007812
131247,-0.0475616455078125,0.2113800048828125,-0.0224151611328125,1.588715672492981,0.4320225119590759,1.169982075691223,34.63621520996094,94.8800048828125,-36.17755126953125
131248,-0.0475616455078125,0.2113800048828125,-0.0224151611328125,1.588715672492981,0.4320225119590759,1.169982075691223,34.63621520996094,94.8800048828125,-36.17755126953125
131249,-0.134735107421875,0.116912841796875,0.105224609375,0.6830843091011047,0.7818396687507629,1.019587755203247,36.04815673828125,94.49124145507812,-37.32038879394531
131250,-0.134735107421875,0.116912841796875,0.105224609375,0.6830843091011047,0.7818396687507629,1.019587755203247,36.04815673828125,94.49124145507812,-37.32038879394531
131251,-0.18048095703125,0.2430572509765625,0.272247314453125,0.0998882502317428,1.242711901664734,1.062356233596802,37.35566711425781,94.27578735351562,-38.57476806640625
131252,-0.18048095703125,0.2430572509765625,0.272247314453125,0.0998882502317428,1.242711901664734,1.062356233596802,37.35566711425781,94.27578735351562,-38.57476806640625
131253,-0.2327728271484375,0.28094482421875,0.366119384765625,-0.0924329981207847,1.477069020271301,0.972441017627716,38.12030029296875,94.26528930664062,-38.80325317382812
131254,-0.26397705078125,0.2868499755859375,0.4395904541015625,-0.304697573184967,1.732707142829895,0.8706129193305969,38.95637512207031,94.31521606445312,-39.06478881835938
131255,-0.254180908203125,0.2400970458984375,0.448822021484375,-0.8188586235046387,1.862557888031006,0.6955204606056213,40.50003051757812,94.57369995117188,-39.44992065429688
131256,-0.254180908203125,0.2400970458984375,0.448822021484375,-0.8188586235046387,1.862557888031006,0.6955204606056213,40.50003051757812,94.57369995117188,-39.44992065429688
131257,-0.2445220947265625,0.221343994140625,0.4737548828125,-1.118292808532715,1.795617938041687,0.6088340282440186,41.30442810058594,94.78305053710938,-39.43551635742188
131258,-0.2487030029296875,0.2252044677734375,0.481475830078125,-1.429784297943115,1.606752395629883,0.5122805833816528,42.01937866210938,95.029296875,-39.20184326171875
131259,-0.3621978759765625,0.3611907958984375,0.6295166015625,-2.168132066726685,1.143584012985229,0.2224503755569458,43.25175476074219,95.6629638671875,-38.54586791992188
131260,-0.3621978759765625,0.3611907958984375,0.6295166015625,-2.168132066726685,1.143584012985229,0.2224503755569458,43.25175476074219,95.6629638671875,-38.54586791992188
131261,-0.456756591796875,0.4866485595703125,0.7099761962890625,-2.635771989822388,0.9836246967315674,0.0147520480677485,43.68571472167969,96.14503479003906,-37.887451171875
131262,-0.555908203125,0.6081390380859375,0.7470855712890625,-3.105654716491699,0.7848109006881714,-0.2248600125312805,43.94441223144531,96.6461944580078,-37.07847595214844
131263,-0.8282012939453125,0.7378387451171875,0.5741424560546875,-3.823440313339233,-0.5061572194099426,-0.8719034790992737,43.43220520019531,98.4853973388672,-32.91001892089844
131264,-0.8282012939453125,0.7378387451171875,0.5741424560546875,-3.823440313339233,-0.5061572194099426,-0.8719034790992737,43.43220520019531,98.4853973388672,-32.91001892089844
131265,-0.8282012939453125,0.7378387451171875,0.5741424560546875,-3.823440313339233,-0.5061572194099426,-0.8719034790992737,43.43220520019531,98.4853973388672,-32.91001892089844
131266,-0.8579864501953125,0.734130859375,0.3739471435546875,-3.630921125411987,-1.144253253936768,-1.084382772445679,42.85209655761719,99.18156433105467,-31.16268920898438
131267,-0.59619140625,0.6034088134765625,-0.0579071044921875,-2.569316625595093,-2.115193843841553,-1.225666880607605,41.33955383300781,100.4015350341797,-27.55470275878906
131268,-0.59619140625,0.6034088134765625,-0.0579071044921875,-2.569316625595093,-2.115193843841553,-1.225666880607605,41.33955383300781,100.4015350341797,-27.55470275878906
131269,-0.394683837890625,0.5841827392578125,-0.2793426513671875,-1.516945362091064,-2.293864011764526,-1.178755044937134,40.26454162597656,100.6792144775391,-25.91329956054688
131270,-0.278533935546875,0.5540008544921875,-0.11492919921875,-0.5054664015769958,-1.761571645736694,-1.089138627052307,39.31806945800781,100.8495330810547,-24.4239501953125
131271,-0.1667938232421875,0.3235015869140625,-0.1589813232421875,0.4066196978092194,0.141965389251709,-0.861344039440155,37.90498352050781,100.7728424072266,-22.94595336914062
131272,-0.1667938232421875,0.3235015869140625,-0.1589813232421875,0.4066196978092194,0.141965389251709,-0.861344039440155,37.90498352050781,100.7728424072266,-22.94595336914062
131273,-0.1616363525390625,0.194091796875,-0.342193603515625,0.5416161417961121,0.3130612373352051,-0.8031957745552063,37.55313110351562,100.3954620361328,-22.73489379882812
131274,-0.1423492431640625,0.0926666259765625,-0.4167327880859375,0.535715639591217,0.0163656566292047,-0.7465455532073975,37.37486267089844,100.1362915039062,-22.88229370117188
131275,-0.1031951904296875,-0.0012359619140625,-0.361328125,0.1779734641313553,-0.6684092283248901,-0.5103074908256531,37.08343505859375,99.63958740234376,-23.49082946777344
131276,-0.1031951904296875,-0.0012359619140625,-0.361328125,0.1779734641313553,-0.6684092283248901,-0.5103074908256531,37.08343505859375,99.63958740234376,-23.49082946777344
131277,-0.110748291015625,0.007415771484375,-0.3590087890625,0.0362770482897758,-0.6969910860061646,-0.4978358745574951,36.73994445800781,99.36607360839844,-23.74189758300781
131278,-0.0561370849609375,0.0402069091796875,-0.3370361328125,-0.0933195576071739,-0.6581478118896484,-0.4635008275508881,36.3260498046875,99.523681640625,-23.87673950195312
131279,0.0286712646484375,0.128265380859375,-0.216796875,-0.3030432164669037,-0.5889458060264587,-0.2892989218235016,35.55574035644531,99.44737243652344,-23.48612976074219
131280,0.0286712646484375,0.128265380859375,-0.216796875,-0.3030432164669037,-0.5889458060264587,-0.2892989218235016,35.55574035644531,99.44737243652344,-23.48612976074219
131281,0.04107666015625,0.17120361328125,-0.1118316650390625,-0.3248798251152039,-0.4591111242771149,-0.2268033176660538,35.2117919921875,99.4130859375,-23.25009155273438
131282,0.046295166015625,0.205474853515625,-0.001708984375,-0.3621491491794586,-0.2372303903102875,-0.1792917251586914,35.0987548828125,99.3897705078125,-22.76535034179688
131283,0.0623016357421875,0.232391357421875,-0.0436248779296875,-0.4404024183750153,-0.0253599509596824,-0.0580976568162441,34.8607177734375,99.47567749023438,-22.33201599121094
131284,0.0623016357421875,0.232391357421875,-0.0436248779296875,-0.4404024183750153,-0.0253599509596824,-0.0580976568162441,34.8607177734375,99.47567749023438,-22.33201599121094
131285,0.038238525390625,0.283966064453125,-0.1654052734375,-0.3909797370433807,-0.2789482772350311,-0.0280731804668903,34.82130432128906,99.43098449707033,-21.93574523925781
131286,-0.0266876220703125,0.3940887451171875,-0.3298187255859375,-0.1508488953113556,-0.7594970464706421,-0.0909269750118255,34.79792785644531,99.53187561035156,-21.60928344726562
131287,-0.2490997314453125,0.6826934814453125,-0.3877105712890625,1.143873810768127,-1.233861684799194,-0.5149959325790405,34.59742736816406,99.65869140625,-20.8568115234375
131288,-0.2490997314453125,0.6826934814453125,-0.3877105712890625,1.143873810768127,-1.233861684799194,-0.5149959325790405,34.59742736816406,99.65869140625,-20.8568115234375
131289,-0.357757568359375,0.8515777587890625,-0.2955474853515625,1.83669638633728,-0.6009761095046997,-0.7041914463043213,34.22502136230469,99.7089385986328,-20.73617553710938
131290,-0.5330657958984375,1.04583740234375,-0.40557861328125,2.373279094696045,0.3801065981388092,-0.8660570383071899,33.67814636230469,99.65151977539062,-20.77119445800781
131291,-1.01690673828125,1.646133422851562,-0.75885009765625,1.964710831642151,1.08915376663208,-0.8522318005561829,32.59017944335938,99.24754333496094,-22.34552001953125
131292,-1.01690673828125,1.646133422851562,-0.75885009765625,1.964710831642151,1.08915376663208,-0.8522318005561829,32.59017944335938,99.24754333496094,-22.34552001953125
131293,-1.339080810546875,2.100112915039062,-0.2381744384765625,0.7957748770713806,1.647871375083923,-1.224530220031738,31.88998413085938,98.89039611816406,-23.53703308105469
131294,-1.726318359375,2.598922729492188,0.0472564697265625,-0.1780421733856201,2.478033304214478,-2.240013837814331,31.23403930664062,98.64308166503906,-24.69099426269531
131295,-4.110977172851562,2.378738403320312,-0.0559844970703125,-0.405193567276001,3.228703498840332,-1.529878973960876,29.71255493164062,98.55897521972656,-26.42938232421875
131296,-4.110977172851562,2.378738403320312,-0.0559844970703125,-0.405193567276001,3.228703498840332,-1.529878973960876,29.71255493164062,98.55897521972656,-26.42938232421875
131297,-4.3516845703125,2.381103515625,-0.08416748046875,-0.1493596583604813,2.200435161590576,-0.0505459979176521,28.86164855957031,98.62200927734376,-27.19035339355469
131298,-3.727813720703125,2.16717529296875,-0.064422607421875,0.1995378732681274,0.5031685829162598,0.139739528298378,28.358642578125,98.76596069335938,-27.74339294433594
131299,-1.600753784179688,1.34490966796875,-0.5069580078125,0.4955580830574036,-0.4722948372364044,0.819202184677124,29.01400756835938,98.63291931152344,-28.4464111328125
131300,-1.600753784179688,1.34490966796875,-0.5069580078125,0.4955580830574036,-0.4722948372364044,0.819202184677124,29.01400756835938,98.63291931152344,-28.4464111328125
131301,-1.247039794921875,1.397109985351562,-0.574493408203125,0.5057574510574341,0.2336100935935974,1.317440986633301,29.22090148925781,98.505126953125,-28.71841430664062
131302,-1.0504150390625,1.573745727539062,-0.3105621337890625,0.4365954399108887,0.7336409687995911,1.468510746955872,29.52522277832031,98.27700805664062,-28.82626342773438
131303,-1.050033569335938,1.930084228515625,0.37103271484375,0.4182001650333405,1.110327005386353,1.225194215774536,30.70549011230469,98.0892333984375,-29.56980895996094
131304,-1.050033569335938,1.930084228515625,0.37103271484375,0.4182001650333405,1.110327005386353,1.225194215774536,30.70549011230469,98.0892333984375,-29.56980895996094
131305,-1.0650634765625,2.029693603515625,0.412384033203125,0.4501203000545502,1.304356098175049,0.7665155529975891,31.72712707519531,97.9613037109375,-30.15081787109375
131306,-0.896514892578125,1.74407958984375,0.215667724609375,0.4947687089443207,0.9944003820419312,0.5037888288497925,32.768310546875,97.89376831054688,-30.56143188476562
131307,-0.6948089599609375,1.43450927734375,0.16748046875,0.5151796936988831,0.4337463676929474,0.4744107127189636,33.76040649414062,97.81472778320312,-31.10079956054688
131308,-0.42230224609375,1.146484375,0.1725006103515625,0.5645901560783386,-0.1472722738981247,0.6447890996932983,34.5718994140625,97.55511474609376,-31.27008056640625
131309,-0.1336212158203125,0.881011962890625,0.1878509521484375,0.6567949056625366,-0.6450431942939758,0.9624397754669188,35.07380676269531,97.46401977539062,-31.67758178710938
131310,0.1444244384765625,0.648712158203125,0.1156463623046875,0.8463075757026672,-1.175014853477478,1.473119020462036,35.586181640625,97.33169555664062,-31.738037109375
131311,0.301910400390625,0.4892730712890625,0.1298370361328125,1.558319926261902,-0.5707181096076965,2.444099903106689,36.36735534667969,97.23941040039062,-31.83534240722656
131312,0.301910400390625,0.4892730712890625,0.1298370361328125,1.558319926261902,-0.5707181096076965,2.444099903106689,36.36735534667969,97.23941040039062,-31.83534240722656
131313,0.178131103515625,0.691619873046875,0.1133575439453125,1.619165182113647,0.6077900528907776,2.153836250305176,36.927490234375,97.24459838867188,-31.65583801269531
131314,0.0767059326171875,0.8527679443359375,-0.041351318359375,1.22918438911438,1.544108510017395,1.502720832824707,37.90504455566406,97.2252197265625,-31.79095458984375
131315,-0.2761077880859375,0.63525390625,0.0032196044921875,-0.0045241778716444,1.45430326461792,0.5194269418716431,39.98149108886719,97.1901397705078,-32.94151306152344
131316,-0.2761077880859375,0.63525390625,0.0032196044921875,-0.0045241778716444,1.45430326461792,0.5194269418716431,39.98149108886719,97.1901397705078,-32.94151306152344
131317,-0.3646087646484375,0.54931640625,0.2583770751953125,-0.4167138636112213,1.314344525337219,0.4589148461818695,40.92613220214844,97.29373168945312,-33.47967529296875
131318,-0.445037841796875,0.4687652587890625,0.355560302734375,-0.6087427139282227,1.187992453575134,0.3843647241592407,41.79121398925781,97.34832763671876,-33.73715209960938
131319,-0.49200439453125,0.3599853515625,0.3626861572265625,-0.6372158527374268,0.9327284693717957,0.2939860820770264,42.58644104003906,97.31558227539062,-33.59542846679688
131320,-0.505706787109375,0.25164794921875,0.3726348876953125,-0.616635262966156,0.6583778858184814,0.1931548118591309,43.22615051269531,97.3973388671875,-33.3837890625
131321,-0.49102783203125,0.1643524169921875,0.3696441650390625,-0.6390483975410461,0.4943575263023376,0.0930673629045486,43.81878662109375,97.51551818847656,-33.19047546386719
131322,-0.476959228515625,0.1015167236328125,0.366302490234375,-0.7566826343536377,0.4694870710372925,0.0252797901630401,44.02337646484375,97.75926208496094,-33.12953186035156
131323,-0.5382232666015625,0.035919189453125,0.41986083984375,-1.295578002929688,0.8165097236633301,0.131836324930191,44.06498718261719,98.23951721191406,-33.05599975585938
131324,-0.5382232666015625,0.035919189453125,0.41986083984375,-1.295578002929688,0.8165097236633301,0.131836324930191,44.06498718261719,98.23951721191406,-33.05599975585938
131325,-0.540924072265625,0.1541900634765625,0.5240936279296875,-1.584425330162048,1.085123896598816,0.2402224540710449,43.98982238769531,98.43586730957033,-32.82794189453125
131326,-0.4799346923828125,0.3805084228515625,0.629150390625,-1.775974750518799,1.278074979782104,0.1862644106149673,44.01788330078125,98.83285522460938,-32.43695068359375
131327,-0.4526824951171875,0.625030517578125,0.5858917236328125,-1.971402525901794,1.060203075408936,-0.0247450266033411,44.25825500488281,99.39503479003906,-31.28547668457031
131328,-0.4526824951171875,0.625030517578125,0.5858917236328125,-1.971402525901794,1.060203075408936,-0.0247450266033411,44.25825500488281,99.39503479003906,-31.28547668457031
131329,-0.422576904296875,0.65618896484375,0.4882354736328125,-2.03092885017395,0.5044751167297363,-0.0834059417247772,44.331298828125,99.7902374267578,-30.5263671875
131330,-0.370819091796875,0.6280364990234375,0.478668212890625,-2.087370634078979,-0.1517338752746582,-0.2201968133449554,44.33273315429688,100.0698699951172,-29.64704895019531
131331,-0.266937255859375,0.4112091064453125,0.5622711181640625,-2.198367118835449,-0.8546723127365112,-0.5279322862625122,44.02145385742188,100.5238647460938,-27.75250244140625
131332,-0.266937255859375,0.4112091064453125,0.5622711181640625,-2.198367118835449,-0.8546723127365112,-0.5279322862625122,44.02145385742188,100.5238647460938,-27.75250244140625
131333,-0.22747802734375,0.3177642822265625,0.5348663330078125,-2.148982524871826,-0.961465060710907,-0.6227325201034546,43.6845703125,100.8833465576172,-26.74461364746094
131334,-0.2102508544921875,0.2415924072265625,0.4632110595703125,-1.974923014640808,-1.076753616333008,-0.7157735228538513,43.3140869140625,101.2227783203125,-25.72001647949219
131335,-0.2802734375,0.162353515625,0.3211212158203125,-1.695122241973877,-0.9674569368362428,-0.8752553462982178,42.61665344238281,101.5590667724609,-23.55914306640625
131336,-0.2802734375,0.162353515625,0.3211212158203125,-1.695122241973877,-0.9674569368362428,-0.8752553462982178,42.61665344238281,101.5590667724609,-23.55914306640625
131337,-0.3084716796875,0.1449737548828125,0.18096923828125,-1.658480048179626,-0.9478530883789062,-0.8915501832962036,42.18663024902344,101.568603515625,-22.59274291992188
131338,-0.328277587890625,0.16162109375,0.0478668212890625,-1.634678363800049,-1.031217455863953,-0.881817638874054,41.70509338378906,101.6232147216797,-21.58004760742188
131339,-0.2958984375,0.251617431640625,-0.3851470947265625,-1.227546811103821,-1.239947319030762,-0.9142149686813354,40.8153076171875,101.55517578125,-19.92593383789062
131340,-0.2958984375,0.251617431640625,-0.3851470947265625,-1.227546811103821,-1.239947319030762,-0.9142149686813354,40.8153076171875,101.55517578125,-19.92593383789062
131341,-0.1983184814453125,0.3314971923828125,-1.043060302734375,-0.0868877619504928,-2.126076936721802,-0.9230865240097046,40.35482788085938,101.4471893310547,-19.04983520507812
131342,-0.1304168701171875,0.32928466796875,-0.62567138671875,1.007308721542358,-2.506799459457397,-0.8319376707077026,39.88961791992188,101.2695617675781,-18.3114013671875
131343,-0.1043548583984375,0.08935546875,-0.0064239501953125,0.7983405590057373,0.2360186576843262,-0.2875638604164124,38.72355651855469,100.7264862060547,-17.58174133300781
131344,-0.1043548583984375,0.08935546875,-0.0064239501953125,0.7983405590057373,0.2360186576843262,-0.2875638604164124,38.72355651855469,100.7264862060547,-17.58174133300781
131345,-0.0599822998046875,0.1066741943359375,-0.499725341796875,0.3535745739936829,1.136861085891724,-0.1046342700719833,38.1221923828125,100.6527709960938,-17.88636779785156
131346,0.01104736328125,0.1220703125,-0.68865966796875,0.1194742023944855,0.7892765402793884,-0.0304202232509851,37.68876647949219,100.4116363525391,-18.21617126464844
131347,0.0343017578125,0.12567138671875,-0.499969482421875,-0.1410913467407227,0.0950032100081443,0.0180045664310455,37.56932067871094,100.271484375,-18.58766174316406
131348,0.0380096435546875,0.141357421875,-0.3041534423828125,-0.4194633066654205,-0.40542072057724,0.0388701669871807,37.48506164550781,100.3222961425781,-18.82501220703125
131349,0.0426177978515625,0.1802825927734375,-0.1994781494140625,-0.5651478171348572,-0.646462082862854,0.0675505474209785,37.52775573730469,100.3408660888672,-18.65229797363281
131350,0.0079193115234375,0.27496337890625,-0.110931396484375,-0.5955097079277039,-0.669468104839325,0.0562699288129806,37.54058837890625,100.3279724121094,-18.18861389160156
131351,-0.1154937744140625,0.5526275634765625,-0.2299346923828125,-0.3006109595298767,-0.5003376603126526,-0.1109869703650475,37.39947509765625,100.4891204833984,-17.27288818359375
131352,-0.1154937744140625,0.5526275634765625,-0.2299346923828125,-0.3006109595298767,-0.5003376603126526,-0.1109869703650475,37.39947509765625,100.4891204833984,-17.27288818359375
131353,-0.2022247314453125,0.7034759521484375,-0.369781494140625,0.2257846593856812,-0.5281873941421509,-0.2707073986530304,37.39872741699219,100.4867553710938,-16.88529968261719
131354,-0.2751922607421875,0.82861328125,-0.358978271484375,0.7944238781929016,-0.3997497856616974,-0.4031266868114471,37.27195739746094,100.4625244140625,-16.60935974121094
131355,-0.4915771484375,1.103561401367188,-0.5014495849609375,1.493896961212158,0.4934246242046356,-0.3810466825962067,36.61190795898438,100.4148864746094,-16.97953796386719
131356,-0.4915771484375,1.103561401367188,-0.5014495849609375,1.493896961212158,0.4934246242046356,-0.3810466825962067,36.61190795898438,100.4148864746094,-16.97953796386719
131357,-0.6649627685546875,1.381362915039062,-0.713226318359375,1.638266682624817,0.6906359791755676,-0.3428247272968292,36.47926330566406,100.2159118652344,-17.44955444335938
131358,-1.163192749023438,1.960708618164062,-0.39056396484375,1.107799649238586,1.206519842147827,-0.6419786810874939,35.96937561035156,100.0331420898438,-19.01524353027344
131359,-1.499893188476562,2.169143676757812,-0.18780517578125,0.5600196123123169,1.791232585906982,-1.202140212059021,35.6644287109375,99.88752746582033,-19.96142578125
131360,-1.499893188476562,2.169143676757812,-0.18780517578125,0.5600196123123169,1.791232585906982,-1.202140212059021,35.6644287109375,99.88752746582033,-19.96142578125
131361,-2.836563110351562,1.973663330078125,-0.0872039794921875,-0.1131262853741646,2.371235847473145,-0.5693084597587585,34.58218383789062,99.92324829101562,-21.41232299804688
131362,-2.836563110351562,1.973663330078125,-0.0872039794921875,-0.1131262853741646,2.371235847473145,-0.5693084597587585,34.58218383789062,99.92324829101562,-21.41232299804688
131363,-2.762222290039062,2.26239013671875,0.323211669921875,0.6272404789924622,1.408967256546021,0.0887575671076774,33.95393371582031,100.4395294189453,-22.61776733398438
131364,-2.762222290039062,2.26239013671875,0.323211669921875,0.6272404789924622,1.408967256546021,0.0887575671076774,33.95393371582031,100.4395294189453,-22.61776733398438
131365,-2.346817016601562,2.159332275390625,0.4312591552734375,0.4889813959598541,0.994788646697998,-0.0777901336550712,33.89151000976562,100.5724487304688,-23.00486755371094
131366,-1.943756103515625,2.054534912109375,0.308135986328125,0.2033528536558151,0.9014464616775512,0.0199798326939344,33.88032531738281,100.6680450439453,-23.35391235351562
131367,-1.688735961914062,2.069671630859375,0.0997314453125,0.1484395414590836,0.2825640439987183,0.5472173094749451,33.79109191894531,100.5218811035156,-24.10627746582031
131368,-1.688735961914062,2.069671630859375,0.0997314453125,0.1484395414590836,0.2825640439987183,0.5472173094749451,33.79109191894531,100.5218811035156,-24.10627746582031
131369,-1.722412109375,2.048858642578125,0.452606201171875,0.1536619961261749,0.3151675462722778,0.8635225296020508,34.062255859375,100.4050598144531,-24.51699829101562
131370,-1.587844848632812,1.948699951171875,0.5413665771484375,0.4007956087589264,0.5302846431732178,1.058621168136597,34.48873901367188,100.3922424316406,-24.63510131835938
131371,-1.034439086914062,1.783050537109375,0.388763427734375,0.5671390295028687,0.8860877752304077,1.012705087661743,35.84376525878906,100.4848022460938,-25.23123168945312
131372,-1.034439086914062,1.783050537109375,0.388763427734375,0.5671390295028687,0.8860877752304077,1.012705087661743,35.84376525878906,100.4848022460938,-25.23123168945312
131373,-0.820465087890625,1.595352172851562,0.1767425537109375,0.6448314785957336,0.706906795501709,0.7636986970901489,36.69447326660156,100.2464141845703,-25.50749206542969
131374,-0.572174072265625,1.35736083984375,0.0600738525390625,0.8394171595573425,0.339438796043396,0.693159818649292,37.46661376953125,100.0925445556641,-25.90130615234375
131375,-0.0980682373046875,1.009323120117188,0.0340576171875,1.234997034072876,-0.2422208935022354,0.840636670589447,38.90977478027344,99.5606689453125,-26.56922912597656
131376,-0.0980682373046875,1.009323120117188,0.0340576171875,1.234997034072876,-0.2422208935022354,0.840636670589447,38.90977478027344,99.5606689453125,-26.56922912597656
131377,0.10894775390625,0.9403076171875,0.032012939453125,1.38376784324646,-0.3225061297416687,1.105841636657715,39.53628540039062,99.24830627441406,-26.71688842773438
131378,0.19342041015625,0.903106689453125,-0.014190673828125,1.525907635688782,-0.1878159791231155,1.331818342208862,40.03138732910156,99.07373046875,-27.03721618652344
131379,0.0474090576171875,0.7326202392578125,-0.054840087890625,1.349286079406738,0.4177706241607666,1.036649823188782,41.20860290527344,98.90621948242188,-28.3228759765625
131380,0.0474090576171875,0.7326202392578125,-0.054840087890625,1.349286079406738,0.4177706241607666,1.036649823188782,41.20860290527344,98.90621948242188,-28.3228759765625
131381,-0.1714019775390625,0.5186767578125,-0.064208984375,0.9002965092658997,0.6496145129203796,0.8060792088508606,41.86003112792969,98.92848205566406,-29.05363464355469
131382,-0.4793853759765625,0.475006103515625,0.0063629150390625,-0.0258084274828434,0.8359460234642029,0.8347066044807434,43.09637451171875,98.61720275878906,-30.17292785644531
131383,-0.4981231689453125,0.448760986328125,0.16357421875,-0.316462367773056,0.9511831402778624,0.7661080956459045,43.76901245117188,98.49716186523438,-30.38591003417969
131384,-0.4981231689453125,0.448760986328125,0.16357421875,-0.316462367773056,0.9511831402778624,0.7661080956459045,43.76901245117188,98.49716186523438,-30.38591003417969
131385,-0.5279541015625,0.2908782958984375,0.4113006591796875,-0.5215481519699097,1.352315425872803,0.6381685137748718,45.02189636230469,98.5840301513672,-30.39627075195312
131386,-0.4994049072265625,0.2143096923828125,0.4451904296875,-0.6200501918792725,1.540337443351746,0.546412467956543,45.52601623535156,98.85032653808594,-30.321044921875
131387,-0.4726104736328125,0.16400146484375,0.4940185546875,-0.8311091661453247,1.70196521282196,0.4201876819133759,46.14509582519531,98.95506286621094,-30.28404235839844
131388,-0.4726104736328125,0.16400146484375,0.4940185546875,-0.8311091661453247,1.70196521282196,0.4201876819133759,46.14509582519531,98.95506286621094,-30.28404235839844
131389,-0.5128326416015625,0.164093017578125,0.633209228515625,-1.637089848518372,1.946676969528198,0.0635619312524795,47.20956420898438,99.12826538085938,-29.5240478515625
131390,-0.5128326416015625,0.164093017578125,0.633209228515625,-1.637089848518372,1.946676969528198,0.0635619312524795,47.20956420898438,99.12826538085938,-29.5240478515625
131391,-0.6283416748046875,0.220947265625,0.6669158935546875,-2.593578338623047,1.739296913146973,-0.3133102357387543,47.79603576660156,99.4451141357422,-28.17137145996094
131392,-0.6283416748046875,0.220947265625,0.6669158935546875,-2.593578338623047,1.739296913146973,-0.3133102357387543,47.79603576660156,99.4451141357422,-28.17137145996094
131393,-0.6632843017578125,0.2664947509765625,0.649658203125,-2.979143857955933,1.356750845909119,-0.4142746925354004,47.85079956054688,99.82693481445312,-27.17958068847656
131394,-0.64263916015625,0.3680877685546875,0.6361541748046875,-3.385594367980957,0.4842042326927185,-0.462905079126358,47.35983276367188,100.5155792236328,-24.56158447265625
131395,-0.618438720703125,0.4191741943359375,0.59808349609375,-3.385525226593018,0.1652030646800995,-0.4537890553474426,46.90316772460938,100.8000946044922,-23.11405944824219
131396,-0.618438720703125,0.4191741943359375,0.59808349609375,-3.385525226593018,0.1652030646800995,-0.4537890553474426,46.90316772460938,100.8000946044922,-23.11405944824219
131397,-0.6017303466796875,0.4566650390625,0.5376434326171875,-3.233928442001343,-0.0580997876822948,-0.5004330277442932,46.34574890136719,101.0971984863281,-21.47877502441406
131398,-0.567718505859375,0.4212188720703125,0.32232666015625,-2.46092414855957,-0.3743040859699249,-0.7859217524528503,45.49603271484375,101.3734436035156,-17.99188232421875
131399,-0.5000152587890625,0.35882568359375,0.1900634765625,-1.895539283752441,-0.4990446865558624,-0.9226995706558228,45.04269409179688,101.3471069335938,-16.53927612304688
131400,-0.5000152587890625,0.35882568359375,0.1900634765625,-1.895539283752441,-0.4990446865558624,-0.9226995706558228,45.04269409179688,101.3471069335938,-16.53927612304688
131401,-0.4174346923828125,0.32659912109375,0.0899810791015625,-1.384593963623047,-0.5392121076583862,-0.9939252734184264,44.65350341796875,101.1795196533203,-15.24697875976562
131402,-0.249786376953125,0.2259674072265625,-0.1736297607421875,-0.6243546605110168,-0.755911648273468,-0.9233405590057372,43.92170715332031,100.8651885986328,-13.30653381347656
131403,-0.182830810546875,0.187652587890625,-0.2290802001953125,-0.4221243560314178,-0.8960415720939636,-0.8349190950393677,43.66806030273438,100.5897216796875,-12.77838134765625
131404,-0.182830810546875,0.187652587890625,-0.2290802001953125,-0.4221243560314178,-0.8960415720939636,-0.8349190950393677,43.66806030273438,100.5897216796875,-12.77838134765625
131405,-0.1041259765625,0.181060791015625,-0.277435302734375,-0.3307978808879852,-0.9535741209983826,-0.7248882055282593,43.45782470703125,100.2594146728516,-12.4774169921875
131406,-0.005340576171875,0.1968841552734375,-0.359130859375,-0.2689957916736603,-1.024206757545471,-0.5577964186668396,43.20526123046875,100.0831756591797,-12.17222595214844
131407,0.02606201171875,0.269012451171875,-0.4312744140625,-0.1215948760509491,-0.769673228263855,-0.3257144391536713,42.80509948730469,99.74244689941406,-11.66398620605469
131408,0.02606201171875,0.269012451171875,-0.4312744140625,-0.1215948760509491,-0.769673228263855,-0.3257144391536713,42.80509948730469,99.74244689941406,-11.66398620605469
131409,0.0604248046875,0.250885009765625,-0.440521240234375,-0.1301809102296829,-0.6011140942573547,-0.2783413529396057,42.5091552734375,99.7283935546875,-11.28607177734375
131410,0.0878448486328125,0.2323455810546875,-0.45001220703125,-0.1926514804363251,-0.5560752153396606,-0.2509278357028961,42.30609130859375,99.73536682128906,-11.00923156738281
131411,0.1295928955078125,0.2351837158203125,-0.300567626953125,-0.2413689494132996,-0.8109647631645203,-0.1512531638145447,41.83041381835938,99.88873291015624,-10.8109130859375
131412,0.1295928955078125,0.2351837158203125,-0.300567626953125,-0.2413689494132996,-0.8109647631645203,-0.1512531638145447,41.83041381835938,99.88873291015624,-10.8109130859375
131413,0.1156768798828125,0.2652435302734375,-0.183868408203125,-0.2022106200456619,-0.7425265908241272,-0.1391341835260391,41.76451110839844,99.86677551269533,-10.64576721191406
131414,0.0152740478515625,0.3633270263671875,-0.1741485595703125,-0.1229091435670853,-0.5681518316268921,-0.3218384981155396,41.70361328125,99.88504028320312,-10.04345703125
131415,-0.0698699951171875,0.396392822265625,-0.246826171875,-0.067430704832077,-0.6940695643424988,-0.4156704545021057,41.70970153808594,99.89402770996094,-9.923187255859377
131416,-0.1650390625,0.415771484375,-0.30633544921875,0.0795299783349037,-0.8523231148719788,-0.4328121542930603,41.61903381347656,99.80168151855467,-9.657806396484377
131417,-0.2588043212890625,0.453216552734375,-0.340606689453125,0.3084941804409027,-0.8813097476959229,-0.4255489110946655,41.37644958496094,99.9230499267578,-9.506591796875
131418,-0.2588043212890625,0.453216552734375,-0.340606689453125,0.3084941804409027,-0.8813097476959229,-0.4255489110946655,41.37644958496094,99.9230499267578,-9.506591796875
131419,-0.4415435791015625,0.54498291015625,-0.3096466064453125,0.6415032744407654,-0.1190699338912964,-0.2374559640884399,40.82839965820312,100.0218505859375,-9.623336791992188
131420,-0.4415435791015625,0.54498291015625,-0.3096466064453125,0.6415032744407654,-0.1190699338912964,-0.2374559640884399,40.82839965820312,100.0218505859375,-9.623336791992188
131421,-0.508544921875,0.6104888916015625,-0.3312530517578125,0.5952236652374268,0.3653542697429657,-0.086319975554943,40.58889770507812,99.98023986816406,-9.760086059570312
131422,-0.5579833984375,0.694061279296875,-0.327301025390625,0.4507208466529846,0.652948260307312,0.0075170383788645,40.37860107421875,99.8154296875,-9.950241088867188
131423,-0.661041259765625,0.987823486328125,0.1199951171875,-0.166640117764473,1.386268854141235,-0.1563768237829208,40.16220092773438,99.79934692382812,-10.4427490234375
131424,-0.661041259765625,0.987823486328125,0.1199951171875,-0.166640117764473,1.386268854141235,-0.1563768237829208,40.16220092773438,99.79934692382812,-10.4427490234375
131425,-0.790008544921875,1.263458251953125,0.3515625,-0.6374707221984863,2.053863525390625,-0.5340370535850525,40.0299072265625,99.97669982910156,-10.77178955078125
131426,-1.163558959960938,1.46063232421875,0.585906982421875,-0.8915155529975891,2.558207273483276,-0.9124815464019777,39.89012145996094,100.1224212646484,-11.01469421386719
131427,-1.8345947265625,1.592178344726562,0.8229827880859375,-0.8195220232009888,2.947473287582397,-0.9464927911758424,39.43641662597656,100.3465270996094,-11.10470581054688
131428,-2.60125732421875,1.993682861328125,0.9392852783203124,-0.5071535110473633,3.264158248901367,-0.7740285992622375,38.77711486816406,100.4048156738281,-11.23194885253906
131429,-3.343154907226562,2.513504028320312,1.002182006835938,-0.3880561292171478,3.211455345153809,-0.6725112795829773,38.07264709472656,100.6681518554688,-11.39167785644531
131430,-3.819381713867188,2.856765747070312,0.8850250244140625,-0.1519168317317963,3.30351710319519,-0.4021698236465454,37.33200073242188,101.0351715087891,-11.60678100585938
131431,-2.63153076171875,1.8697509765625,-0.3620452880859375,0.7361480593681335,0.8771964907646179,-0.1150150001049042,35.67820739746094,101.218505859375,-12.85694885253906
131432,-2.63153076171875,1.8697509765625,-0.3620452880859375,0.7361480593681335,0.8771964907646179,-0.1150150001049042,35.67820739746094,101.218505859375,-12.85694885253906
131433,-1.673065185546875,1.64324951171875,-0.4836883544921875,0.9722061157226562,-0.4156776368618011,0.3559013903141022,35.00624084472656,101.1974487304688,-13.45556640625
131434,-1.242446899414062,1.83233642578125,-0.1482391357421875,0.9577280879020692,-0.757490336894989,0.685604989528656,34.58805847167969,101.0420989990234,-13.79267883300781
131435,-0.9449005126953124,1.917144775390625,0.127197265625,1.057391285896301,0.1331093162298203,0.694942831993103,34.95561218261719,100.6338043212891,-14.23681640625
131436,-0.9449005126953124,1.917144775390625,0.127197265625,1.057391285896301,0.1331093162298203,0.694942831993103,34.95561218261719,100.6338043212891,-14.23681640625
131437,-0.9215240478515624,1.888504028320312,0.127349853515625,1.358146071434021,0.3796474635601044,0.8896140456199646,35.61181640625,100.4959716796875,-14.32920837402344
131438,-0.9081268310546876,1.86181640625,0.1224212646484375,1.475283622741699,0.7261841297149658,1.06244945526123,36.51780700683594,100.484130859375,-14.79681396484375
131439,-0.73858642578125,1.555313110351562,-0.065582275390625,1.196914315223694,0.503304660320282,1.100135803222656,38.41200256347656,100.2944030761719,-16.14451599121094
131440,-0.73858642578125,1.555313110351562,-0.065582275390625,1.196914315223694,0.503304660320282,1.100135803222656,38.41200256347656,100.2944030761719,-16.14451599121094
131441,-0.7052459716796875,1.313308715820312,-0.078460693359375,1.116037011146545,0.2642625570297241,0.9805865287780762,39.3074951171875,100.2265777587891,-16.6151123046875
131442,-0.5830230712890625,1.064865112304688,-0.0925445556640625,1.137474656105042,-0.0200895555317401,0.8966429233551025,40.046875,100.2781372070312,-17.16146850585938
131443,-0.4694976806640625,0.8596954345703125,-0.064300537109375,1.29132866859436,-0.1265632659196854,0.9046808481216432,40.79176330566406,100.3749237060547,-17.67213439941406
131444,-0.4008941650390625,0.7092742919921875,0.028564453125,1.504215955734253,0.1174837499856949,0.9342856407165528,41.32461547851562,100.4004669189453,-18.28694152832031
131445,-0.33941650390625,0.5842742919921875,0.0794525146484375,1.640923261642456,0.629424512386322,0.9544804096221924,41.873779296875,100.4012451171875,-18.8236083984375
131446,-0.2917327880859375,0.449462890625,-0.0061492919921875,1.608615875244141,1.081283092498779,0.9818782210350036,42.40620422363281,100.3355407714844,-19.55256652832031
131447,-0.314849853515625,0.2831878662109375,0.03076171875,1.128082275390625,1.449991583824158,1.085629940032959,43.38815307617188,100.2991790771484,-21.29792785644531
131448,-0.314849853515625,0.2831878662109375,0.03076171875,1.128082275390625,1.449991583824158,1.085629940032959,43.38815307617188,100.2991790771484,-21.29792785644531
131449,-0.4000244140625,0.312255859375,0.1858367919921875,0.9018952250480652,1.676350116729736,1.175600290298462,43.9443359375,100.2631988525391,-21.97572326660156
131450,-0.4980926513671875,0.4090118408203125,0.3209228515625,0.6638163328170776,1.891247272491455,1.199987649917603,44.51835632324219,100.2533111572266,-22.47434997558594
131451,-0.652069091796875,0.464996337890625,0.3976898193359375,-0.0517572052776813,2.03848671913147,0.9343301057815552,45.95878601074219,100.2593383789062,-23.52337646484375
131452,-0.652069091796875,0.464996337890625,0.3976898193359375,-0.0517572052776813,2.03848671913147,0.9343301057815552,45.95878601074219,100.2593383789062,-23.52337646484375
131453,-0.6912384033203125,0.410186767578125,0.4047088623046875,-0.420357882976532,1.907100558280945,0.7293809652328491,46.77249145507812,100.127685546875,-23.90200805664062
131454,-0.70526123046875,0.3403778076171875,0.461822509765625,-0.7969956994056702,1.765043020248413,0.4947759211063385,47.49433898925781,100.0216064453125,-24.00390625
131455,-0.7156219482421875,0.2929229736328125,0.5714874267578125,-1.220027089118958,1.711686611175537,0.2395342886447906,48.01893615722656,100.1188049316406,-23.92050170898438
131456,-0.7324676513671875,0.2820281982421875,0.6952972412109375,-1.667280793190002,1.700625896453857,-0.0110132358968257,48.44502258300781,100.0625610351562,-23.74821472167969
131457,-0.7457733154296875,0.2975921630859375,0.8107452392578125,-2.103796243667603,1.717508792877197,-0.2028138339519501,48.72515869140625,100.2603149414062,-23.24615478515625
131458,-0.7360992431640625,0.3227996826171875,0.839813232421875,-2.46149730682373,1.648628830909729,-0.3065825700759888,48.82891845703125,100.4296722412109,-22.52577209472656
131459,-0.7174835205078125,0.3621978759765625,0.7925567626953125,-2.716171503067017,1.456506013870239,-0.3276846706867218,48.7349853515625,100.6864776611328,-21.45538330078125
131460,-0.703887939453125,0.442779541015625,0.700836181640625,-2.874358892440796,1.135584712028503,-0.306900292634964,48.39668273925781,100.7933502197266,-20.27410888671875
131461,-0.6853485107421875,0.5822601318359375,0.5085601806640625,-2.870865345001221,0.3720156252384186,-0.3336389660835266,47.51739501953125,101.1380920410156,-17.45211791992188
131462,-0.6853485107421875,0.5822601318359375,0.5085601806640625,-2.870865345001221,0.3720156252384186,-0.3336389660835266,47.51739501953125,101.1380920410156,-17.45211791992188
131463,-0.4769287109375,0.36993408203125,0.1937408447265625,-1.805336952209473,-0.7985656261444092,-0.8836706876754761,46.02890014648438,101.6570281982422,-13.15635681152344
131464,-0.4769287109375,0.36993408203125,0.1937408447265625,-1.805336952209473,-0.7985656261444092,-0.8836706876754761,46.02890014648438,101.6570281982422,-13.15635681152344
131465,-0.4769287109375,0.36993408203125,0.1937408447265625,-1.805336952209473,-0.7985656261444092,-0.8836706876754761,46.02890014648438,101.6570281982422,-13.15635681152344
131466,-0.3839111328125,0.2667999267578125,0.1373291015625,-1.394549965858459,-0.9642763137817384,-0.9981330633163452,45.63504028320312,101.6160430908203,-11.96446228027344
131467,-0.220367431640625,0.1757659912109375,-0.08917236328125,-0.6419565677642822,-0.994863212108612,-0.8922713398933411,44.81008911132812,101.2482757568359,-10.01548767089844
131468,-0.220367431640625,0.1757659912109375,-0.08917236328125,-0.6419565677642822,-0.994863212108612,-0.8922713398933411,44.81008911132812,101.2482757568359,-10.01548767089844
131469,-0.1573944091796875,0.15350341796875,-0.1955413818359375,-0.2796481549739838,-1.05976665019989,-0.7834902405738831,44.47557067871094,101.1848602294922,-9.657424926757812
131470,-0.0982666015625,0.1407318115234375,-0.2373809814453125,0.0154428724199533,-1.111051678657532,-0.6741675138473511,44.19102478027344,100.9310607910156,-9.1678466796875
131471,0.0112152099609375,0.0911712646484375,-0.2937469482421875,0.313773900270462,-1.074670195579529,-0.4145119786262512,44.12431335449219,100.3975982666016,-8.727325439453125
131472,0.0112152099609375,0.0911712646484375,-0.2937469482421875,0.313773900270462,-1.074670195579529,-0.4145119786262512,44.12431335449219,100.3975982666016,-8.727325439453125
131473,0.0726165771484375,0.0489349365234375,-0.34130859375,0.3846680521965027,-1.098183751106262,-0.2553976774215698,44.22758483886719,100.1387023925781,-8.531478881835938
131474,0.1080780029296875,0.021026611328125,-0.349517822265625,0.4155324995517731,-1.042397141456604,-0.051715925335884,44.34922790527344,99.91539001464844,-8.345993041992188
131475,0.10003662109375,0.032806396484375,-0.360992431640625,0.3706291913986206,-0.7754696011543274,0.0634767115116119,44.26748657226562,99.94523620605467,-8.476455688476562
131476,0.112060546875,0.0542755126953125,-0.386932373046875,0.2784878313541412,-0.5680911540985107,0.1082380563020706,44.09425354003906,100.0202178955078,-8.535675048828125
131477,0.136260986328125,0.080963134765625,-0.37432861328125,0.1467255204916,-0.5125016570091248,0.1159883886575699,44.00502014160156,100.0519714355469,-8.55322265625
131478,0.1496124267578125,0.10821533203125,-0.3345489501953125,-0.0412542298436164,-0.523019015789032,0.0926769375801086,43.9271240234375,100.0456237792969,-8.44512939453125
131479,0.156402587890625,0.137237548828125,-0.3088836669921875,-0.2582403421401978,-0.5611594915390015,0.03083461150527,44.07888793945312,100.2157440185547,-8.339340209960938
131480,0.1486968994140625,0.1777801513671875,-0.26300048828125,-0.4320369064807892,-0.6020485758781433,-0.0410182736814022,44.14299011230469,100.26025390625,-8.212051391601562
131481,0.1075286865234375,0.2512969970703125,-0.18804931640625,-0.5201560854911804,-0.595281720161438,-0.117607057094574,44.14375305175781,100.3970489501953,-7.932968139648438
131482,0.044403076171875,0.3396759033203125,-0.155364990234375,-0.5504591464996338,-0.5710485577583313,-0.2227268218994141,44.15913391113281,100.3414306640625,-7.605972290039062
131483,-0.1337738037109375,0.4623565673828125,-0.25665283203125,-0.2790430784225464,-0.7381778955459595,-0.4049978256225586,44.11474609375,100.2516632080078,-6.945755004882812
131484,-0.1337738037109375,0.4623565673828125,-0.25665283203125,-0.2790430784225464,-0.7381778955459595,-0.4049978256225586,44.11474609375,100.2516632080078,-6.945755004882812
131485,-0.214599609375,0.525146484375,-0.2772216796875,0.0779861435294151,-0.7282012104988098,-0.4902815520763397,44.05136108398438,100.1627807617188,-6.697113037109375
131486,-0.280914306640625,0.5828857421875,-0.194183349609375,0.3976943790912628,-0.4292190074920654,-0.5291184186935425,43.85807800292969,100.1418914794922,-6.381912231445312
131487,-0.424041748046875,0.7232666015625,-0.1304473876953125,0.5003512501716614,0.794849693775177,-0.484984815120697,43.30757141113281,100.2305297851562,-6.282485961914062
131488,-0.424041748046875,0.7232666015625,-0.1304473876953125,0.5003512501716614,0.794849693775177,-0.484984815120697,43.30757141113281,100.2305297851562,-6.282485961914062
131489,-0.6721954345703125,1.061141967773438,-0.55694580078125,0.6636650562286377,1.001301407814026,-0.6008115410804749,42.53384399414062,100.2558441162109,-6.629623413085938
131490,-0.6721954345703125,1.061141967773438,-0.55694580078125,0.6636650562286377,1.001301407814026,-0.6008115410804749,42.53384399414062,100.2558441162109,-6.629623413085938
131491,-1.230926513671875,1.857009887695312,0.06488037109375,0.5187470316886902,1.586263179779053,-1.081208467483521,41.51853942871094,100.2682647705078,-7.435531616210938
131492,-1.230926513671875,1.857009887695312,0.06488037109375,0.5187470316886902,1.586263179779053,-1.081208467483521,41.51853942871094,100.2682647705078,-7.435531616210938
131493,-1.787185668945312,2.260421752929688,0.304656982421875,-0.083905816078186,3.090164422988892,-1.602625846862793,40.85491943359375,100.3829650878906,-8.022247314453125
131494,-2.74688720703125,2.531112670898438,-0.038055419921875,-0.5506641864776611,3.988777637481689,-1.694817066192627,39.89334106445312,100.5756988525391,-8.550704956054688
131495,-3.5526123046875,2.880233764648438,-0.3665008544921875,-0.3452905416488647,3.383552312850952,-1.288617849349976,38.79756164550781,100.6268920898438,-9.112960815429688
131496,-3.735595703125,3.0518798828125,-0.1236114501953125,0.0709932148456573,1.919530630111694,-0.9081765413284302,37.52909851074219,100.8436584472656,-9.497711181640623
131497,-3.340957641601562,2.768463134765625,0.09344482421875,-0.0010673949727788,0.5748076438903809,-0.4686814546585083,36.48475646972656,101.0882110595703,-9.665206909179688
131498,-2.537124633789062,2.28204345703125,-0.129180908203125,-0.0198711771517992,0.4375645518302917,0.0005110605852678,35.5887451171875,101.2205047607422,-9.720901489257812
131499,-1.888381958007812,2.015182495117188,-0.4181671142578125,0.2931381464004517,0.6459486484527588,0.3983931839466095,34.88946533203125,101.3062286376953,-9.726028442382812
131500,-1.6756591796875,1.869247436523438,-0.2065277099609375,0.4158099889755249,0.9272237420082092,0.6832981705665588,34.58576965332031,101.025146484375,-9.62347412109375
131501,-1.6527099609375,1.72259521484375,0.1139373779296875,0.4467884004116058,1.181947946548462,0.7328004837036133,34.596923828125,100.9359588623047,-9.942779541015623
131502,-1.599365234375,1.537185668945312,0.238250732421875,0.5623347163200378,1.178696751594543,0.7327940464019775,35.00286865234375,100.9457397460938,-10.25003051757812
131503,-1.3123779296875,1.5599365234375,0.22686767578125,0.4904964864253998,0.8124292492866516,1.015617728233337,36.18923950195312,100.8312683105469,-11.26954650878906
131504,-1.3123779296875,1.5599365234375,0.22686767578125,0.4904964864253998,0.8124292492866516,1.015617728233337,36.18923950195312,100.8312683105469,-11.26954650878906
131505,-1.148162841796875,1.489608764648438,0.1559600830078125,0.4890367984771729,0.7088743448257446,0.8175315856933594,36.97000122070312,100.6693267822266,-11.60981750488281
131506,-0.8951873779296875,1.313339233398438,0.124725341796875,0.5992953777313232,0.5547567009925842,0.6705120801925659,37.73936462402344,100.5603790283203,-12.07781982421875
131507,-0.6429290771484375,1.158401489257812,0.123382568359375,0.8108276128768921,0.4491168260574341,0.6249006390571594,38.60342407226562,100.4358673095703,-12.50138854980469
131508,-0.375457763671875,1.011734008789062,0.106170654296875,1.100073575973511,0.4049882292747498,0.713921070098877,39.90377807617188,100.1866455078125,-13.3763427734375
131509,-0.137939453125,0.88232421875,0.0459136962890625,1.375200152397156,0.4160051941871643,0.9587973952293396,39.90377807617188,100.1866455078125,-13.3763427734375
131510,-0.0146942138671875,0.8063201904296875,0.036407470703125,1.600294828414917,0.5142598748207092,1.224024534225464,40.91090393066406,100.0903778076172,-14.28697204589844
131511,-0.0433807373046875,0.654998779296875,0.0406646728515625,1.529221415519714,1.117663145065308,1.229922652244568,42.07771301269531,100.0386199951172,-15.75553894042969
131512,-0.0433807373046875,0.654998779296875,0.0406646728515625,1.529221415519714,1.117663145065308,1.229922652244568,42.07771301269531,100.0386199951172,-15.75553894042969
131513,-0.1679229736328125,0.51507568359375,0.001312255859375,1.273564577102661,1.243918538093567,1.120245099067688,42.72077941894531,100.0921783447266,-16.4132080078125
131514,-0.37158203125,0.41510009765625,0.0015716552734375,0.947345495223999,1.219337105751038,1.132856249809265,43.50172424316406,100.0353240966797,-17.15876770019531
131515,-0.523712158203125,0.4330902099609375,0.117523193359375,0.2439442276954651,0.9461582899093628,1.008482933044434,44.87144470214844,100.1312713623047,-18.39045715332031
131516,-0.523712158203125,0.4330902099609375,0.117523193359375,0.2439442276954651,0.9461582899093628,1.008482933044434,44.87144470214844,100.1312713623047,-18.39045715332031
131517,-0.4584197998046875,0.359466552734375,0.1974029541015625,-0.0061598913744091,0.8527764081954956,0.8810610175132751,45.460205078125,99.994140625,-18.48020935058594
131518,-0.35589599609375,0.2878875732421875,0.2611083984375,-0.1579696536064148,0.9014832377433776,0.8003286123275757,46.07357788085938,99.98593139648438,-18.44485473632812
131519,-0.2288970947265625,0.2343292236328125,0.361602783203125,-0.3314061462879181,1.377785563468933,0.6859408020973206,46.87870788574219,100.0722198486328,-18.69039916992188
131520,-0.2288970947265625,0.2343292236328125,0.361602783203125,-0.3314061462879181,1.377785563468933,0.6859408020973206,46.87870788574219,100.0722198486328,-18.69039916992188
131521,-0.19671630859375,0.2319488525390625,0.3902130126953125,-0.4381451308727264,1.619979858398438,0.6183202266693115,47.36669921875,100.0104217529297,-18.68611145019531
131522,-0.21673583984375,0.2518310546875,0.4386749267578125,-0.8588265776634216,1.695364832878113,0.3432835936546326,48.19993591308594,100.0795593261719,-18.42713928222656
131523,-0.21673583984375,0.2518310546875,0.4386749267578125,-0.8588265776634216,1.695364832878113,0.3432835936546326,48.19993591308594,100.0795593261719,-18.42713928222656
131524,-0.2630767822265625,0.2873992919921875,0.4368743896484375,-1.236847639083862,1.335802435874939,0.1132378727197647,48.39337158203125,100.0577087402344,-18.08442687988281
131525,-0.3568267822265625,0.3494720458984375,0.48675537109375,-1.707963228225708,0.7435471415519714,-0.0812125653028488,48.58656311035156,100.1869354248047,-17.63601684570312
131526,-0.4838409423828125,0.4192047119140625,0.6237335205078125,-2.188694000244141,0.2789586782455444,-0.1893491595983505,48.59272766113281,100.1794128417969,-16.81303405761719
131527,-0.6350860595703125,0.5067138671875,0.78070068359375,-2.845829963684082,-0.0391047932207584,-0.3591166138648987,48.10832214355469,100.4871826171875,-15.14732360839844
131528,-0.6350860595703125,0.5067138671875,0.78070068359375,-2.845829963684082,-0.0391047932207584,-0.3591166138648987,48.10832214355469,100.4871826171875,-15.14732360839844
131529,-0.7083282470703125,0.5112762451171875,0.71282958984375,-2.917973756790161,-0.2076448053121567,-0.4234010577201843,47.79544067382812,100.50927734375,-13.8712158203125
131530,-0.8482666015625,0.4210357666015625,0.4859771728515625,-2.775311946868896,-0.6214388012886047,-0.6485958099365234,47.16073608398438,100.5218353271484,-11.03237915039062
131531,-0.806793212890625,0.35260009765625,0.277435302734375,-2.585070371627808,-0.8747027516365051,-0.7831083536148071,46.6842041015625,100.4556274414062,-9.668548583984377
131532,-0.806793212890625,0.35260009765625,0.277435302734375,-2.585070371627808,-0.8747027516365051,-0.7831083536148071,46.6842041015625,100.4556274414062,-9.668548583984377
131533,-0.68817138671875,0.293182373046875,0.010894775390625,-2.235499382019043,-1.219382643699646,-0.8446311354637146,46.29710388183594,100.3654327392578,-8.39398193359375
131534,-0.5533905029296875,0.255615234375,-0.4438018798828125,-1.522953748703003,-1.805898547172546,-0.838263750076294,45.94493103027344,100.2359161376953,-7.019683837890625
131535,-0.3414306640625,0.228973388671875,-0.0809783935546875,-0.1476515084505081,-2.113615036010742,-0.7251846194267273,45.28793334960938,99.64054870605467,-5.197113037109375
131536,-0.3414306640625,0.228973388671875,-0.0809783935546875,-0.1476515084505081,-2.113615036010742,-0.7251846194267273,45.28793334960938,99.64054870605467,-5.197113037109375
131537,-0.2312469482421875,0.159637451171875,0.003326416015625,-0.1400202214717865,-1.183930039405823,-0.6404542922973633,45.32705688476562,99.32167053222656,-4.6124267578125
131538,-0.1446380615234375,0.0843658447265625,-0.1150665283203125,-0.3328543901443481,-0.2553159296512604,-0.4873059988021851,45.37004089355469,98.95379638671876,-4.369674682617188
131539,-0.108123779296875,0.07958984375,-0.3475494384765625,-0.5522027015686035,0.3202089071273804,-0.3736372292041779,45.385498046875,98.6343994140625,-4.400375366210938
131540,-0.068603515625,0.1381988525390625,-0.45758056640625,-0.7203887701034546,0.1950981169939041,-0.3807747662067413,45.28843688964844,98.41259765625,-4.23663330078125
131541,-0.0444488525390625,0.19024658203125,-0.3587188720703125,-0.8728627562522888,-0.1317718774080276,-0.3967353701591492,45.08187866210938,98.27127075195312,-3.968734741210938
131542,-0.0373077392578125,0.2018585205078125,-0.2548675537109375,-0.944736659526825,-0.3201441764831543,-0.441798985004425,44.8489990234375,98.22906494140624,-3.45269775390625
131543,-0.014556884765625,0.1947174072265625,-0.177734375,-0.9014840126037598,-0.3970219194889069,-0.4479876458644867,44.57521057128906,98.24015808105467,-3.0672607421875
131544,0.0155181884765625,0.15618896484375,-0.1201171875,-0.8002879023551941,-0.3680850863456726,-0.3961358964443207,44.39724731445312,98.20236206054688,-2.654556274414062
131545,0.050323486328125,0.112945556640625,-0.107666015625,-0.6364214420318604,-0.280487060546875,-0.2877303063869476,44.10211181640625,98.1063995361328,-2.179611206054688
131546,0.072021484375,0.080657958984375,-0.104522705078125,-0.4617452621459961,-0.2017685323953629,-0.1660022884607315,43.97309875488281,97.9906005859375,-1.530258178710938
131547,0.0829620361328125,0.098052978515625,-0.1169281005859375,-0.3030056655406952,-0.1804224997758865,0.0387697666883468,43.84375,97.8906707763672,-0.8634185791015625
131548,0.0829620361328125,0.098052978515625,-0.1169281005859375,-0.3030056655406952,-0.1804224997758865,0.0387697666883468,43.84375,97.8906707763672,-0.8634185791015625
131549,0.027618408203125,0.2009124755859375,-0.173095703125,-0.3044155538082123,-0.2540485262870789,0.0468572527170181,43.86894226074219,97.78451538085938,-0.378387451171875
131550,-0.077117919921875,0.3348541259765625,-0.2828826904296875,-0.268683135509491,-0.3973931670188904,-0.0694357976317405,43.86167907714844,97.7581024169922,0.0001220703125
131551,-0.3077850341796875,0.58856201171875,-0.474578857421875,0.279335230588913,-0.5679542422294617,-0.3689804375171661,43.67878723144531,97.60856628417967,0.7151641845703125
131552,-0.4133148193359375,0.741241455078125,-0.449310302734375,0.6794445514678955,-0.0354586578905582,-0.4208857119083405,43.38365173339844,97.53053283691406,0.94140625
131553,-0.4133148193359375,0.741241455078125,-0.449310302734375,0.6794445514678955,-0.0354586578905582,-0.4208857119083405,43.38365173339844,97.53053283691406,0.94140625
131554,-0.5125579833984375,0.9007110595703125,-0.471954345703125,0.9088441729545592,0.8354642391204834,-0.3591112792491913,43.05133056640625,97.54183959960938,1.040283203125
131555,-0.654876708984375,1.303176879882812,-0.6554718017578125,0.7016217708587646,1.670270204544067,-0.2770150899887085,42.15095520019531,97.71998596191406,0.2551422119140625
131556,-0.72222900390625,1.585403442382812,-0.3111114501953125,0.2958233952522278,1.605977177619934,-0.4040036499500275,41.59878540039062,97.82046508789062,-0.2914581298828125
131557,-0.831329345703125,1.868057250976562,0.3033599853515625,-0.1662704646587372,2.105843544006348,-0.7556530237197876,41.17953491210938,97.86654663085938,-0.7389984130859375
131558,-0.831329345703125,1.868057250976562,0.3033599853515625,-0.1662704646587372,2.105843544006348,-0.7556530237197876,41.17953491210938,97.86654663085938,-0.7389984130859375
131559,-2.028244018554688,2.55364990234375,0.4656524658203125,0.1176848188042641,3.293531894683838,-1.691250562667847,39.63212585449219,98.09352111816406,-1.605499267578125
131560,-2.028244018554688,2.55364990234375,0.4656524658203125,0.1176848188042641,3.293531894683838,-1.691250562667847,39.63212585449219,98.09352111816406,-1.605499267578125
131561,-3.239028930664062,2.703399658203125,0.314697265625,0.3391575515270233,3.384978771209717,-1.522090792655945,38.4854736328125,98.18212890625,-2.0380859375
131562,-4.0347900390625,2.886322021484375,-0.18450927734375,0.2147703617811203,2.603850841522217,-0.6230747699737549,37.12657165527344,98.43711853027344,-2.813858032226562
131563,-3.6031494140625,2.9268798828125,-0.5777130126953125,0.2237867563962936,0.58817458152771,-0.3016788959503174,36.05961608886719,98.40992736816406,-3.537246704101562
131564,-3.6031494140625,2.9268798828125,-0.5777130126953125,0.2237867563962936,0.58817458152771,-0.3016788959503174,36.05961608886719,98.40992736816406,-3.537246704101562
131565,-1.70147705078125,1.648895263671875,0.1623077392578125,0.4017910957336426,0.018150508403778,0.2049374282360077,35.11904907226562,98.24830627441406,-3.725616455078125
131566,-1.43017578125,1.627365112304688,0.1363067626953125,0.8784876465797424,0.7824686765670776,0.6315984725952148,35.07707214355469,98.1471710205078,-3.881011962890625
131567,-1.315643310546875,1.616378784179688,0.1182861328125,1.167762279510498,1.090419292449951,0.7562639713287354,35.28736877441406,98.02581787109376,-3.927688598632812
131568,-1.289291381835938,1.601119995117188,0.1498565673828125,1.162293791770935,0.9456309676170348,0.7261707782745361,35.48855590820312,98.0733642578125,-4.551666259765625
131569,-1.219696044921875,1.665145874023438,0.2471923828125,0.9925811886787416,0.6445973515510559,0.8408475518226624,35.88604736328125,98.27532958984376,-5.608566284179688
131570,-1.097137451171875,1.771957397460938,0.3036346435546875,0.697478175163269,0.5186591148376465,0.9661359786987304,36.47389221191406,98.31825256347656,-6.3765869140625
131571,-0.9304962158203124,1.797103881835938,0.2805938720703125,0.5821020007133484,0.32419753074646,0.8849356770515442,37.19837951660156,98.40460205078124,-6.841064453125
131572,-0.7189788818359375,1.65118408203125,0.2655181884765625,0.7353554964065552,0.1724229007959366,0.818762481212616,37.89299011230469,98.33944702148438,-7.169815063476562
131573,-0.5429534912109375,1.376144409179688,0.239105224609375,1.00390887260437,0.0781224966049194,0.816442608833313,38.55462646484375,98.36471557617188,-7.63287353515625
131574,-0.3655853271484375,1.079177856445312,0.20880126953125,1.301395416259766,0.0169363729655742,0.8975457549095154,39.20510864257812,98.3052215576172,-7.869979858398438
131575,-0.1915740966796875,0.862060546875,0.1287994384765625,1.607033729553223,-0.0438646599650383,1.057376146316528,39.888916015625,98.2826690673828,-8.067764282226562
131576,-0.0625457763671875,0.718353271484375,0.03143310546875,1.808181166648865,-0.1506638079881668,1.226246356964111,40.49562072753906,98.35369873046876,-8.415206909179688
131577,0.0080413818359375,0.616546630859375,-0.0289459228515625,1.849487066268921,-0.2383329421281815,1.360778093338013,41.11460876464844,98.51841735839844,-8.946975708007812
131578,0.0119781494140625,0.5768280029296875,-0.00384521484375,1.72211742401123,-0.1906471848487854,1.373288512229919,41.77267456054688,98.79165649414062,-9.697357177734377
131579,-0.0270538330078125,0.5765380859375,0.0610504150390625,1.365650296211243,0.0988205894827842,1.186066269874573,42.43553161621094,98.95364379882812,-10.33888244628906
131580,-0.0659637451171875,0.543548583984375,0.0670623779296875,0.8232576847076416,0.4501378834247589,0.914764940738678,43.11845397949219,99.0158233642578,-10.9324951171875
131581,-0.1823577880859375,0.4647979736328125,0.076751708984375,0.2722741365432739,0.6955643892288208,0.711613655090332,43.71607971191406,99.13874816894533,-11.53987121582031
131582,-0.32586669921875,0.461578369140625,0.1483001708984375,-0.1498313099145889,0.872104287147522,0.6486924886703491,44.29730224609375,99.28244018554688,-11.92311096191406
131583,-0.3607635498046875,0.469482421875,0.1866455078125,-0.4046454727649689,0.9948187470436096,0.5389811992645264,44.80751037597656,99.25691223144533,-11.98193359375
131584,-0.3673553466796875,0.3919830322265625,0.2006683349609375,-0.4729936420917511,0.968719244003296,0.4379451274871826,45.17428588867188,99.26556396484376,-11.94071960449219
131585,-0.35186767578125,0.1847076416015625,0.31842041015625,-0.405566394329071,0.889656126499176,0.4015578031539917,45.82431030273438,99.46656799316406,-11.94911193847656
131586,-0.35186767578125,0.1847076416015625,0.31842041015625,-0.405566394329071,0.889656126499176,0.4015578031539917,45.82431030273438,99.46656799316406,-11.94911193847656
131587,-0.269927978515625,0.17523193359375,0.40264892578125,-0.753227949142456,0.99015474319458,0.2328710705041885,46.326171875,99.28228759765624,-11.5069580078125
131588,-0.269927978515625,0.17523193359375,0.40264892578125,-0.753227949142456,0.99015474319458,0.2328710705041885,46.326171875,99.28228759765624,-11.5069580078125
131589,-0.301910400390625,0.2333984375,0.5160980224609375,-1.127740263938904,1.067091941833496,0.0787360891699791,46.50778198242188,99.35554504394533,-11.31265258789062
131590,-0.3836822509765625,0.313934326171875,0.653778076171875,-1.54616904258728,1.265015840530396,-0.0952892377972602,46.69403076171875,99.4053192138672,-11.06146240234375
131591,-0.4722137451171875,0.39849853515625,0.732177734375,-1.940822601318359,1.459493517875671,-0.2700727581977844,46.63621520996094,99.36575317382812,-10.47602844238281
131592,-0.5565643310546875,0.471527099609375,0.733062744140625,-2.232057332992554,1.448413372039795,-0.3858928382396698,46.46034240722656,99.40754699707033,-9.950454711914062
131593,-0.6381072998046875,0.5283660888671875,0.6864013671875,-2.411520481109619,1.1986243724823,-0.4323279857635498,46.1907958984375,99.44271850585938,-9.250808715820312
131594,-0.70751953125,0.5687713623046875,0.601531982421875,-2.465297937393188,0.7336342930793762,-0.4361043572425842,45.84182739257812,99.37771606445312,-8.4241943359375
131595,-0.76483154296875,0.58172607421875,0.502899169921875,-2.411604881286621,0.1404154300689697,-0.4600128829479218,45.40846252441406,99.20352172851562,-7.199752807617188
131596,-0.7905426025390625,0.5383758544921875,0.419219970703125,-2.264167785644531,-0.417637437582016,-0.5195091962814331,44.99699401855469,98.99000549316406,-5.962997436523438
131597,-0.760772705078125,0.4657440185546875,0.322113037109375,-2.055620193481445,-0.7936763167381287,-0.6315553188323975,44.61369323730469,98.69630432128906,-4.7178955078125
131598,-0.628997802734375,0.417938232421875,0.1222076416015625,-1.670109272003174,-1.106030464172363,-0.7404924631118774,44.25643920898438,98.41943359375,-3.49737548828125
131599,-0.4767913818359375,0.3814544677734375,0.03790283203125,-1.198403596878052,-1.307625412940979,-0.7610453963279724,43.95710754394531,98.17878723144533,-2.4583740234375
131600,-0.362030029296875,0.35394287109375,0.081298828125,-0.8326452970504761,-1.140884041786194,-0.7271841168403625,43.64137268066406,97.92367553710938,-1.405303955078125
131601,-0.25286865234375,0.31439208984375,0.0248260498046875,-0.6030057072639465,-0.7547840476036072,-0.676494836807251,43.35552978515625,97.65617370605467,-0.712310791015625
131602,-0.1912994384765625,0.2485198974609375,-0.1359100341796875,-0.4155346155166626,-0.5091532468795776,-0.6329524517059326,43.16142272949219,97.38800048828124,-0.232940673828125
131603,-0.1549530029296875,0.167388916015625,-0.2698822021484375,-0.2269601821899414,-0.4971051216125488,-0.6024277806282043,43.08097839355469,97.1370849609375,0.0063629150390625
131604,-0.1057891845703125,0.0898284912109375,-0.2893829345703125,-0.0891088396310806,-0.5737894773483276,-0.5344735383987427,42.96728515625,96.94943237304688,0.0467987060546875
131605,-0.0780029296875,0.0511932373046875,-0.2423858642578125,-0.0373795963823795,-0.5155442953109741,-0.4072633683681488,42.90737915039062,96.7313995361328,0.0618133544921875
131606,-0.0602264404296875,0.0479736328125,-0.2570037841796875,-0.0010657970560714,-0.3808056712150574,-0.3321310579776764,42.88661193847656,96.47076416015624,0.366424560546875
131607,0.0096282958984375,0.043701171875,-0.2904052734375,0.0473901517689228,-0.3672488331794739,-0.1655407547950745,42.58273315429688,96.3289794921875,0.5876007080078125
131608,0.0096282958984375,0.043701171875,-0.2904052734375,0.0473901517689228,-0.3672488331794739,-0.1655407547950745,42.58273315429688,96.3289794921875,0.5876007080078125
131609,0.0464019775390625,0.0580596923828125,-0.2758331298828125,0.0493004359304904,-0.5016388893127441,-0.0858147740364074,42.5556640625,96.38414001464844,0.7946929931640625
131610,0.0861053466796875,0.0766754150390625,-0.2380828857421875,0.0355425477027893,-0.6741491556167603,0.0237335581332445,42.56927490234375,96.36897277832033,0.8547210693359375
131611,0.1063690185546875,0.1256866455078125,-0.133209228515625,-0.0050424290820956,-0.7805032730102539,0.2287458330392838,42.56694030761719,96.3583984375,0.7427978515625
131612,0.1063690185546875,0.1256866455078125,-0.133209228515625,-0.0050424290820956,-0.7805032730102539,0.2287458330392838,42.56694030761719,96.3583984375,0.7427978515625
131613,0.0970458984375,0.1709136962890625,-0.088623046875,-0.0477249100804328,-0.6689698100090027,0.2280004024505615,42.62794494628906,96.3414306640625,0.80377197265625
131614,0.087677001953125,0.236114501953125,-0.0753173828125,-0.0976514592766761,-0.4861004054546356,0.1522497236728668,42.70268249511719,96.3965301513672,0.84259033203125
131615,0.0795135498046875,0.3025970458984375,-0.1411285400390625,-0.1130218952894211,-0.3892201781272888,0.0219385884702205,42.81121826171875,96.45631408691406,1.077255249023438
131616,0.066131591796875,0.3829193115234375,-0.2329559326171875,-0.0601011551916599,-0.4724554121494293,-0.1185732483863831,42.94071960449219,96.44908142089844,1.286361694335938
131617,0.0088043212890625,0.4923858642578125,-0.2889862060546875,0.0646556913852691,-0.6420772075653076,-0.2937884628772736,42.87471008300781,96.53594970703124,1.443084716796875
131618,-0.0838623046875,0.5729217529296875,-0.3150177001953125,0.2897077202796936,-0.707199215888977,-0.4629226326942444,42.83470153808594,96.42741394042967,1.832534790039062
131619,-0.2806549072265625,0.8499603271484375,-0.374267578125,1.226064443588257,0.0940338224172592,-0.7249001860618591,42.59524536132812,96.42108154296876,2.189422607421875
131620,-0.2806549072265625,0.8499603271484375,-0.374267578125,1.226064443588257,0.0940338224172592,-0.7249001860618591,42.59524536132812,96.42108154296876,2.189422607421875
131621,-0.388275146484375,1.073196411132812,-0.545989990234375,1.707088947296143,0.7646755576133728,-0.8059348464012146,42.26412963867188,96.57121276855467,2.0498046875
131622,-0.5208892822265625,1.317352294921875,-0.8007659912109375,1.90164852142334,1.021559000015259,-0.8012953400611877,41.8511962890625,96.67886352539062,1.710311889648438
131623,-0.7246246337890625,1.594390869140625,-0.644775390625,1.55697500705719,0.9602109789848328,-0.8289043307304382,41.34675598144531,96.84999084472656,1.0614013671875
131624,-0.9902191162109376,2.009521484375,-0.2022857666015625,0.8373140692710876,1.315533399581909,-1.241227149963379,40.52909851074219,97.06468200683594,0.2903900146484375
131625,-1.3507080078125,2.69244384765625,-0.2015838623046875,0.2880432307720184,1.832468390464783,-2.203729867935181,39.78361511230469,97.2811279296875,-0.6924591064453125
131626,-1.962615966796875,3.362991333007812,-0.2891693115234375,-0.2215030938386917,2.145477533340454,-3.230006456375122,38.74726867675781,97.2019500732422,-1.419586181640625
131627,-3.067794799804688,3.458770751953125,-0.30194091796875,-0.9972646236419678,2.796320915222168,-2.833378314971924,37.28115844726562,97.21311950683594,-2.041397094726562
131628,-3.68096923828125,2.93817138671875,-0.19598388671875,-1.004919052124023,2.625266075134277,-1.25337815284729,35.56419372558594,97.07461547851562,-2.701766967773438
131629,-3.153045654296875,2.301589965820312,0.05731201171875,-0.3926668465137482,1.027315497398376,-0.2828812301158905,33.82344055175781,96.81954956054688,-3.2003173828125
131630,-2.137710571289062,1.770965576171875,0.285308837890625,0.2613716721534729,-0.4020960330963135,0.2724206149578094,32.74934387207031,96.59748840332033,-3.488723754882812
131631,-1.423995971679688,1.757461547851562,0.4517669677734375,1.067522764205933,0.0882768630981445,0.9789058566093444,32.39599609375,96.64347839355467,-3.753768920898438
131632,-1.423995971679688,1.757461547851562,0.4517669677734375,1.067522764205933,0.0882768630981445,0.9789058566093444,32.39599609375,96.64347839355467,-3.753768920898438
131633,-1.421295166015625,1.912353515625,0.29266357421875,1.141624212265015,0.9003995656967163,0.9597784876823424,32.58534240722656,96.87042236328124,-4.064285278320312
131634,-1.428298950195312,1.824798583984375,0.0329742431640625,1.006640553474426,1.120578050613403,0.893762469291687,33.0059814453125,97.15975952148438,-4.604644775390625
131635,-1.39886474609375,1.503219604492188,0.06640625,0.6756365299224854,0.6277584433555603,0.9652973413467408,33.96372985839844,97.63442993164062,-6.043533325195312
131636,-1.195770263671875,1.415313720703125,0.1829986572265625,0.4142946600914001,0.5346295833587646,1.001034021377563,34.63967895507812,97.80361938476562,-6.688674926757812
131637,-1.195770263671875,1.415313720703125,0.1829986572265625,0.4142946600914001,0.5346295833587646,1.001034021377563,34.63967895507812,97.80361938476562,-6.688674926757812
131638,-0.9528045654296876,1.330596923828125,0.201446533203125,0.2144385278224945,0.4885401129722595,1.022623181343079,35.28605651855469,97.96751403808594,-7.18133544921875
131639,-0.7054290771484375,1.21417236328125,0.09197998046875,0.201682522892952,0.4728937745094299,1.078524589538574,36.1279296875,97.92512512207033,-7.4444580078125
131640,-0.5012664794921875,1.032135009765625,-0.0252838134765625,0.4382809400558472,0.3616540729999542,1.177347302436829,36.82525634765625,97.8887176513672,-7.591629028320312
131641,-0.3408355712890625,0.823211669921875,-0.042205810546875,0.6763790249824524,0.3126327395439148,1.331896424293518,37.48294067382812,97.93321228027344,-7.76708984375
131642,-0.2129669189453125,0.6591339111328125,0.02691650390625,0.8121642470359802,0.4759287238121033,1.4939204454422,38.26676940917969,97.90203857421876,-7.913803100585938
131643,-0.1181182861328125,0.56842041015625,0.0934295654296875,0.8852584362030029,0.8324354290962219,1.586954236030579,38.92440795898438,97.81289672851562,-7.944564819335938
131644,-0.046722412109375,0.51678466796875,0.1226348876953125,0.9069347381591796,1.146843671798706,1.576369285583496,39.67501831054688,97.84823608398438,-8.099822998046875
131645,0.0098876953125,0.478302001953125,0.1548309326171875,0.9185705780982972,1.327899217605591,1.495716452598572,40.39201354980469,98.02586364746094,-8.522903442382812
131646,0.04541015625,0.3733673095703125,0.2337646484375,0.9810640811920166,1.225369930267334,1.281773328781128,42.04449462890625,98.46183776855467,-9.364852905273438
131647,0.04541015625,0.3733673095703125,0.2337646484375,0.9810640811920166,1.225369930267334,1.281773328781128,42.04449462890625,98.46183776855467,-9.364852905273438
131648,0.01202392578125,0.306976318359375,0.24273681640625,0.918944239616394,1.05983579158783,1.151430726051331,42.86244201660156,98.58792114257812,-9.672866821289062
131649,-0.0749359130859375,0.2490386962890625,0.255950927734375,0.7203238010406494,0.911259949207306,0.9903928637504578,43.60733032226562,98.71627807617188,-10.12820434570312
131650,-0.1914520263671875,0.2059173583984375,0.3252716064453125,0.3398787379264832,0.8911448121070862,0.8813020586967468,44.24984741210938,98.71739196777344,-10.56900024414062
131651,-0.2957763671875,0.208465576171875,0.3956756591796875,-0.1835336089134216,1.023040771484375,0.8386110663414001,44.85252380371094,98.76812744140624,-11.04721069335938
131652,-0.3634796142578125,0.20867919921875,0.3799285888671875,-0.7084716558456421,1.111777305603027,0.7366197109222412,45.27397155761719,98.82644653320312,-11.43914794921875
131653,-0.4081268310546875,0.15472412109375,0.2838287353515625,-1.156552314758301,1.009604334831238,0.5987516045570374,45.68069458007812,98.87001037597656,-11.54299926757812
131654,-0.44158935546875,0.0688629150390625,0.2379913330078125,-1.506938815116882,0.8152673840522766,0.4554333090782166,45.92942810058594,98.99610900878906,-11.46725463867188
131655,-0.4756317138671875,0.01708984375,0.3130035400390625,-1.780381798744202,0.7342553734779358,0.3260063230991364,46.233154296875,99.02682495117188,-11.00115966796875
131656,-0.5179595947265625,0.0556640625,0.462158203125,-2.021165132522583,0.8734310865402222,0.2122329026460648,46.38941955566406,98.96200561523438,-10.42613220214844
131657,-0.559326171875,0.1704254150390625,0.5720367431640625,-2.25403904914856,1.121558308601379,0.0620878711342811,46.45207214355469,98.79080200195312,-9.708236694335938
131658,-0.6126861572265625,0.303375244140625,0.617401123046875,-2.473201274871826,1.303122282028198,-0.1304506808519363,46.44483947753906,98.81947326660156,-8.825698852539062
131659,-0.667938232421875,0.534637451171875,0.602630615234375,-2.810650825500488,1.228898048400879,-0.5369009971618652,46.13499450683594,98.65444946289062,-6.856918334960938
131660,-0.667938232421875,0.534637451171875,0.602630615234375,-2.810650825500488,1.228898048400879,-0.5369009971618652,46.13499450683594,98.65444946289062,-6.856918334960938
131661,-0.664581298828125,0.60321044921875,0.569000244140625,-2.936778783798218,1.028783082962036,-0.6204115748405457,45.84141540527344,98.49757385253906,-5.695053100585938
131662,-0.6600494384765625,0.6743011474609375,0.5130767822265625,-3.001971244812012,0.7723667621612549,-0.6590737700462341,45.3736572265625,98.31706237792967,-4.559661865234375
131663,-0.6645660400390625,0.7335205078125,0.4467010498046875,-2.966251134872437,0.5036833882331848,-0.7078189253807068,44.83027648925781,98.0871124267578,-3.299346923828125
131664,-0.6416015625,0.751220703125,0.3424072265625,-2.755896806716919,0.2111282199621201,-0.7674974799156189,44.18402099609375,97.68984985351562,-1.985122680664062
131665,-0.5519866943359375,0.7120819091796875,0.2452850341796875,-2.347852230072021,-0.0604681372642517,-0.7779719233512878,43.71080017089844,97.16876220703124,-0.634002685546875
131666,-0.4184417724609375,0.679443359375,0.195465087890625,-1.875308275222778,-0.1374761015176773,-0.8221308588981628,43.26148986816406,96.71961975097656,0.7491455078125
131667,-0.2161865234375,0.736053466796875,0.030975341796875,-1.16154146194458,0.1010139659047127,-0.8936247825622559,42.39651489257812,95.7573699951172,2.737167358398438
131668,-0.2161865234375,0.736053466796875,0.030975341796875,-1.16154146194458,0.1010139659047127,-0.8936247825622559,42.39651489257812,95.7573699951172,2.737167358398438
131669,-0.14642333984375,0.7236328125,-0.0937957763671875,-0.8945824503898621,0.0830466821789741,-0.8595131039619446,42.03599548339844,95.38595581054688,3.4161376953125
131670,-0.028594970703125,0.481231689453125,-0.1959228515625,-0.3679255545139313,-0.0657614395022392,-0.6044946908950806,41.03732299804688,94.58763122558594,4.477066040039062
131671,-0.028594970703125,0.481231689453125,-0.1959228515625,-0.3679255545139313,-0.0657614395022392,-0.6044946908950806,41.03732299804688,94.58763122558594,4.477066040039062
131672,0.0069122314453125,0.3413238525390625,-0.2130279541015625,-0.1489415466785431,-0.0992139354348182,-0.4433625340461731,40.70242309570312,94.34271240234376,4.745376586914062
131673,0.0355377197265625,0.22454833984375,-0.240753173828125,0.011860653758049,-0.1703536212444305,-0.2930592894554138,40.60438537597656,94.14999389648438,4.970458984375
131674,0.058441162109375,0.1306610107421875,-0.27630615234375,0.1444554477930069,-0.3311773836612701,-0.1562628448009491,40.50985717773438,94.17774963378906,5.032638549804688
131675,0.07879638671875,0.067901611328125,-0.2899627685546875,0.2419590950012207,-0.5649827122688293,-0.0250030867755413,40.48393249511719,94.0519561767578,5.101425170898438
131676,0.0874786376953125,0.0417938232421875,-0.27508544921875,0.3122961223125458,-0.8031949996948242,0.0679404363036155,40.48838806152344,94.03482055664062,5.135711669921875
131677,0.0936431884765625,0.0307769775390625,-0.2435760498046875,0.338991105556488,-1.000316262245178,0.1346012204885483,40.55914306640625,94.09733581542967,5.282440185546875
131678,0.0978240966796875,0.04522705078125,-0.19635009765625,0.3236337304115295,-1.097137093544006,0.1768650561571121,40.68367004394531,94.2471923828125,5.336334228515625
131679,0.063568115234375,0.189056396484375,-0.099151611328125,0.2181616276502609,-0.9140447974205016,0.0934455245733261,41.03176879882812,94.36970520019533,5.476593017578125
131680,0.063568115234375,0.189056396484375,-0.099151611328125,0.2181616276502609,-0.9140447974205016,0.0934455245733261,41.03176879882812,94.36970520019533,5.476593017578125
131681,0.0324554443359375,0.282684326171875,-0.0902557373046875,0.1479758769273758,-0.6895467042922974,-0.0609035640954971,41.19281005859375,94.54086303710938,5.56182861328125
131682,0.0052490234375,0.35888671875,-0.1377410888671875,0.0916787907481193,-0.5110054612159729,-0.2191525846719742,41.29960632324219,94.48329162597656,5.729034423828125
131683,-0.0363616943359375,0.4252777099609375,-0.2541961669921875,0.1085879951715469,-0.4956534206867218,-0.321551650762558,41.205322265625,94.49501037597656,5.929824829101562
131684,-0.0852813720703125,0.4930267333984375,-0.3679656982421875,0.303202211856842,-0.6454024314880371,-0.3440764248371124,41.055419921875,94.53675842285156,6.011505126953125
131685,-0.1488037109375,0.588653564453125,-0.3947601318359375,0.6487612128257751,-0.7364726662635803,-0.3461829721927643,40.94436645507812,94.45672607421876,6.191787719726562
131686,-0.2385101318359375,0.7060699462890625,-0.4088897705078125,1.086692810058594,-0.5612225532531738,-0.3717615604400635,40.68891906738281,94.61653137207033,6.282150268554688
131687,-0.34930419921875,0.824005126953125,-0.499755859375,1.530827641487122,-0.0671782344579696,-0.3939664661884308,40.49192810058594,94.8575439453125,6.118942260742188
131688,-0.46759033203125,0.953765869140625,-0.648162841796875,1.77167797088623,0.7589465975761414,-0.2860069870948792,40.25588989257812,94.95614624023438,5.76123046875
131689,-0.6636962890625,1.446929931640625,-0.5002899169921875,0.6370880603790283,1.960810661315918,-0.1705365777015686,39.49929809570312,95.5106964111328,4.41876220703125
131690,-0.6636962890625,1.446929931640625,-0.5002899169921875,0.6370880603790283,1.960810661315918,-0.1705365777015686,39.49929809570312,95.5106964111328,4.41876220703125
131691,-0.8729705810546875,2.395492553710938,-0.441680908203125,-0.1198041662573814,1.324652910232544,-1.981083154678345,38.50199890136719,95.85708618164062,3.173202514648438
131692,-1.075729370117188,3.087112426757812,-0.366363525390625,0.6980592608451843,0.7878498435020447,-3.150005578994751,37.70028686523438,95.8528289794922,2.719406127929688
131693,-1.075729370117188,3.087112426757812,-0.366363525390625,0.6980592608451843,0.7878498435020447,-3.150005578994751,37.70028686523438,95.8528289794922,2.719406127929688
131694,-1.782012939453125,2.935455322265625,0.1931915283203125,1.029839873313904,1.044261693954468,-3.671356439590454,36.28096008300781,95.78268432617188,2.160568237304688
131695,-3.196014404296875,2.10516357421875,0.365997314453125,0.4380774796009064,2.538810729980469,-1.883521676063538,34.55467224121094,95.51263427734376,1.34619140625
131696,-3.5601806640625,2.061996459960938,-0.610687255859375,0.3351103365421295,2.414972305297852,0.0086938897147774,32.81137084960938,95.40382385253906,0.0809326171875
131697,-2.724563598632812,2.012588500976562,-0.9280548095703124,0.7175804972648621,-0.0005206479690968,0.2766893804073334,31.70089721679688,95.4068603515625,-0.7902374267578125
131698,-1.487930297851562,1.535598754882812,0.0644683837890625,0.4942142367362976,-0.0881338566541671,0.8646461367607117,31.32252502441406,95.9013671875,-2.922256469726562
131699,-1.487930297851562,1.535598754882812,0.0644683837890625,0.4942142367362976,-0.0881338566541671,0.8646461367607117,31.32252502441406,95.9013671875,-2.922256469726562
131700,-1.404586791992188,1.52886962890625,0.010284423828125,0.4898117780685425,0.391855388879776,1.178124189376831,31.67897033691406,96.0177764892578,-3.129135131835938
131701,-1.42303466796875,1.564468383789062,0.1021728515625,0.4023466408252716,0.426151841878891,1.368558526039124,32.21749877929688,96.28475952148438,-3.375518798828125
131702,-1.411758422851562,1.702117919921875,0.1870269775390625,0.1172496601939201,0.2309083193540573,1.469504833221436,32.8896484375,96.3935089111328,-3.593246459960938
131703,-1.372329711914062,1.857421875,0.34967041015625,-0.1752740889787674,0.2113082557916641,1.389820694923401,33.61367797851562,96.515869140625,-3.726974487304688
131704,-1.267623901367188,1.896774291992188,0.4759979248046875,-0.2514783143997192,0.4513879716396332,1.137498140335083,34.41056823730469,96.71331787109376,-3.9473876953125
131705,-1.09881591796875,1.760650634765625,0.4655609130859375,-0.0951800420880317,0.7100597023963928,0.8474085330963135,35.21754455566406,96.76310729980467,-3.899826049804688
131706,-0.9385223388671876,1.452880859375,0.375518798828125,0.2042245119810104,0.7998412847518921,0.6576934456825256,35.8804931640625,96.75666809082033,-3.752944946289062
131707,-0.7820281982421875,1.135421752929688,0.326995849609375,0.4832830429077148,0.7863718271255493,0.5957496762275696,36.43367004394531,96.74606323242188,-3.6944580078125
131708,-0.5968780517578125,0.9027862548828124,0.2498626708984375,0.693300187587738,0.6480754613876343,0.6088609099388123,36.97457885742188,96.75848388671876,-3.8887939453125
131709,-0.2382049560546875,0.634002685546875,0.093902587890625,1.046012997627258,-0.035338282585144,0.7953570485115051,37.84820556640625,96.7799835205078,-4.262420654296875
131710,-0.2382049560546875,0.634002685546875,0.093902587890625,1.046012997627258,-0.035338282585144,0.7953570485115051,37.84820556640625,96.7799835205078,-4.262420654296875
131711,0.08843994140625,0.4733428955078125,-0.0440826416015625,1.218898415565491,-0.8185872435569763,1.313124775886536,38.99626159667969,96.8336944580078,-4.995010375976562
131712,0.08843994140625,0.4733428955078125,-0.0440826416015625,1.218898415565491,-0.8185872435569763,1.313124775886536,38.99626159667969,96.8336944580078,-4.995010375976562
131713,0.1284942626953125,0.362884521484375,-0.010772705078125,1.185425162315369,-0.5934503078460693,1.511719465255737,39.59452819824219,96.8896942138672,-5.136581420898438
131714,0.0724029541015625,0.257843017578125,0.0473480224609375,1.009400844573975,0.240348681807518,1.479820847511292,40.28404235839844,97.106201171875,-5.426925659179688
131715,-0.0168304443359375,0.2081756591796875,0.062591552734375,0.7408573031425476,1.241251945495605,1.276380181312561,40.92323303222656,97.43772888183594,-5.770263671875
131716,-0.1478271484375,0.24298095703125,0.0706939697265625,0.4845661520957947,1.872406482696533,1.099545478820801,41.45877075195312,97.6656494140625,-6.191925048828125
131717,-0.2831878662109375,0.3323211669921875,0.1786346435546875,0.247929647564888,2.144717693328857,1.071510910987854,41.97013854980469,97.69146728515624,-6.615127563476562
131718,-0.343475341796875,0.383697509765625,0.3420562744140625,0.0121986092999577,2.306172609329224,0.966321051120758,42.55673217773438,97.7777099609375,-6.986648559570312
131719,-0.3283843994140625,0.28802490234375,0.3772125244140625,-0.5084842443466187,2.400219440460205,0.6324834227561951,43.41241455078125,97.86116027832033,-7.34649658203125
131720,-0.3283843994140625,0.28802490234375,0.3772125244140625,-0.5084842443466187,2.400219440460205,0.6324834227561951,43.41241455078125,97.86116027832033,-7.34649658203125
131721,-0.290557861328125,0.207061767578125,0.3520050048828125,-0.843410313129425,2.23243522644043,0.5179318189620972,43.70228576660156,97.9185028076172,-7.206771850585938
131722,-0.2653350830078125,0.153167724609375,0.3598480224609375,-1.187001824378967,2.031831741333008,0.4222878515720367,43.91950988769531,97.79588317871094,-7.07281494140625
131723,-0.273223876953125,0.142608642578125,0.4110107421875,-1.509255766868591,1.810537219047546,0.294874519109726,43.938232421875,97.8657684326172,-6.970672607421875
131724,-0.322845458984375,0.1685028076171875,0.5162200927734375,-1.804611444473267,1.619445085525513,0.1404508501291275,43.81227111816406,97.93038940429688,-6.755157470703125
131725,-0.4449310302734375,0.254638671875,0.70404052734375,-2.060403347015381,1.559062957763672,0.0221420545130968,43.72776794433594,97.74607849121094,-6.157623291015625
131726,-0.610015869140625,0.4258575439453125,0.90789794921875,-2.293996095657349,1.783277988433838,-0.0346053801476955,43.54719543457031,97.4993133544922,-5.430404663085938
131727,-0.8409881591796875,0.815826416015625,0.8436737060546875,-2.846303939819336,2.093790292739868,-0.2949384450912476,42.69256591796875,97.18283081054688,-3.8355712890625
131728,-0.8409881591796875,0.815826416015625,0.8436737060546875,-2.846303939819336,2.093790292739868,-0.2949384450912476,42.69256591796875,97.18283081054688,-3.8355712890625
131729,-0.885894775390625,0.943695068359375,0.6074676513671875,-3.063290357589722,1.724449753761292,-0.4906299114227295,42.18467712402344,96.71824645996094,-2.670761108398438
131730,-0.849456787109375,0.956451416015625,0.356048583984375,-3.099439144134521,1.015775918960571,-0.6276010870933533,41.50627136230469,96.31289672851562,-1.5631103515625
131731,-0.746002197265625,0.9125518798828124,0.1787109375,-2.934765100479126,0.1787793338298798,-0.7215704321861267,40.6959228515625,95.962158203125,-0.509521484375
131732,-0.6374969482421875,0.8278045654296875,0.1214447021484375,-2.641241073608398,-0.4611748158931732,-0.8401884436607361,39.99639892578125,95.43708801269533,0.7376556396484375
131733,-0.529205322265625,0.730316162109375,0.0860443115234375,-2.285434007644653,-0.7907921075820923,-0.9430796504020692,39.42948913574219,95.05718994140624,1.828399658203125
131734,-0.407867431640625,0.671722412109375,-0.01007080078125,-1.901525259017944,-0.9122940301895142,-1.036105155944824,38.99456787109375,94.37928771972656,3.093185424804688
131735,-0.2791595458984375,0.6717376708984375,-0.2802734375,-1.421579122543335,-1.219884634017944,-1.086974263191223,38.57630920410156,93.84771728515624,4.033187866210938
131736,-0.0921173095703125,0.6310272216796875,-0.139068603515625,-0.4412048161029816,-1.189813017845154,-1.000535488128662,38.17318725585938,92.6455078125,5.739532470703125
131737,-0.0921173095703125,0.6310272216796875,-0.139068603515625,-0.4412048161029816,-1.189813017845154,-1.000535488128662,38.17318725585938,92.6455078125,5.739532470703125
131738,0.0938720703125,0.4520111083984375,-0.1058197021484375,0.1338904201984406,-0.1910855323076248,-0.5433764457702637,38.14382934570312,91.76768493652344,6.785369873046875
131739,0.0938720703125,0.4520111083984375,-0.1058197021484375,0.1338904201984406,-0.1910855323076248,-0.5433764457702637,38.14382934570312,91.76768493652344,6.785369873046875
131740,0.1423492431640625,0.3396759033203125,-0.185211181640625,0.3101197779178619,0.0953699275851249,-0.2474356293678284,38.1319580078125,91.38497924804688,6.902938842773438
131741,0.1611328125,0.1799163818359375,-0.3480224609375,0.6394447088241577,-0.1655359715223312,0.2614758014678955,38.01220703125,91.1143035888672,7.000564575195312
131742,0.1611328125,0.1799163818359375,-0.3480224609375,0.6394447088241577,-0.1655359715223312,0.2614758014678955,38.01220703125,91.1143035888672,7.000564575195312
131743,0.1188812255859375,0.13067626953125,-0.315887451171875,0.8179824948310852,-0.8839290142059326,0.2436563372612,38.11463928222656,91.4726104736328,6.91217041015625
131744,0.1188812255859375,0.13067626953125,-0.315887451171875,0.8179824948310852,-0.8839290142059326,0.2436563372612,38.11463928222656,91.4726104736328,6.91217041015625
131745,0.117645263671875,0.1043853759765625,-0.206146240234375,0.7749601602554321,-1.058413743972778,0.1111393049359322,38.29765319824219,91.8258056640625,6.890090942382812
131746,0.085418701171875,0.059783935546875,-0.06280517578125,0.4741555750370026,-0.8634080290794373,-0.1929380297660828,38.78004455566406,92.48713684082033,6.81927490234375
131747,0.085418701171875,0.059783935546875,-0.06280517578125,0.4741555750370026,-0.8634080290794373,-0.1929380297660828,38.78004455566406,92.48713684082033,6.81927490234375
131748,0.0389251708984375,0.0836334228515625,-0.0437469482421875,0.2871454954147339,-0.6683977842330933,-0.4040723741054535,38.87266540527344,92.62562561035156,6.865615844726562
131749,-0.01544189453125,0.1276702880859375,-0.08135986328125,0.1155708059668541,-0.5636100769042969,-0.6702625155448914,38.86907958984375,92.77011108398438,6.98419189453125
131750,-0.13726806640625,0.212188720703125,-0.223968505859375,0.1217131167650223,-0.7025232315063477,-0.962055206298828,38.62309265136719,92.89591979980467,7.341415405273438
131751,-0.13726806640625,0.212188720703125,-0.223968505859375,0.1217131167650223,-0.7025232315063477,-0.962055206298828,38.62309265136719,92.89591979980467,7.341415405273438
131752,-0.2292633056640625,0.3569793701171875,-0.3894195556640625,0.480283796787262,-0.7566445469856262,-1.087607860565186,38.37213134765625,92.87220764160156,7.434616088867188
131753,-0.321044921875,0.5998687744140625,-0.62701416015625,1.279460549354553,-0.6633114218711853,-1.182238221168518,38.02291870117188,92.7316436767578,7.592803955078125
131754,-0.39202880859375,0.90948486328125,-0.7957611083984375,2.242256879806519,-0.1941052973270416,-1.000107049942017,37.67919921875,92.72691345214844,7.724945068359375
131755,-0.52374267578125,1.242935180664062,-0.8415069580078125,2.347537517547607,0.5158239603042603,-0.4340065717697144,37.17401123046875,92.7908935546875,7.438919067382812
131756,-0.7800445556640625,1.538848876953125,-0.62615966796875,1.161247134208679,1.606258988380432,0.1466272622346878,36.63638305664062,93.1944580078125,6.65899658203125
131757,-1.071563720703125,1.943267822265625,-0.60638427734375,-0.1488153040409088,2.340595960617065,-0.273958832025528,36.15182495117188,93.39875793457033,5.7056884765625
131758,-1.163009643554688,2.48736572265625,-0.8910369873046875,-0.3374139964580536,1.956872344017029,-1.321934580802917,35.71183776855469,93.57974243164062,4.903076171875
131759,-1.23333740234375,2.915969848632812,-0.648101806640625,0.4105393290519714,1.398379564285278,-2.022713422775269,35.14607238769531,93.61915588378906,4.392913818359375
131760,-1.719741821289062,2.984588623046875,-0.1945953369140625,0.812995970249176,1.711841344833374,-2.208173513412476,34.33529663085938,93.45108032226562,4.066513061523438
131761,-2.615097045898438,2.4276123046875,-0.2681732177734375,0.5722885727882385,2.675482511520386,-1.533182382583618,33.07279968261719,93.2644500732422,3.659820556640625
131762,-2.969253540039062,1.9229736328125,-0.717498779296875,0.4227621853351593,2.577508449554443,-0.4413339793682098,31.71821594238281,93.20948791503906,2.916824340820312
131763,-2.431732177734375,1.694381713867188,-0.783477783203125,0.5722177028656006,1.253417253494263,-0.0940868183970451,30.44955444335938,93.2818603515625,2.05865478515625
131764,-1.857315063476562,1.46234130859375,-0.53021240234375,0.6920695304870605,0.3504538834095001,0.0235623177140951,29.57786560058594,93.4090576171875,1.318359375
131765,-1.623489379882812,1.207351684570312,-0.491973876953125,0.6448138952255249,0.1148315072059631,0.3024006187915802,29.13859558105469,93.58146667480467,0.816558837890625
131766,-1.45635986328125,0.9595184326171876,-0.5782012939453125,0.2941775619983673,0.1203487813472748,0.6732156872749329,28.91685485839844,93.80145263671876,0.4208526611328125
131767,-1.64617919921875,1.095794677734375,0.0475921630859375,-0.4765175580978394,0.5031904578208923,1.115867137908936,29.08747863769531,94.180908203125,-0.4476776123046875
131768,-1.64617919921875,1.095794677734375,0.0475921630859375,-0.4765175580978394,0.5031904578208923,1.115867137908936,29.08747863769531,94.180908203125,-0.4476776123046875
131769,-1.710952758789062,1.34539794921875,0.2301177978515625,-0.7711137533187866,0.6252121925354004,1.240739583969116,29.42706298828125,94.42123413085938,-0.79864501953125
131770,-1.669036865234375,1.5989990234375,0.227294921875,-0.9757928848266602,0.7266349792480469,1.247806787490845,29.93788146972656,94.4863739013672,-0.86090087890625
131771,-1.480087280273438,1.728988647460938,0.1500701904296875,-0.9021524786949158,0.6796522736549377,1.159807205200195,30.5670166015625,94.42745971679688,-0.657989501953125
131772,-1.232559204101562,1.707366943359375,0.2219390869140625,-0.55642169713974,0.7483365535736084,0.9757920503616332,31.12831115722656,94.46734619140624,-0.565399169921875
131773,-0.9576873779296876,1.497848510742188,0.24383544921875,-0.1131646409630775,0.9162155389785768,0.6508342027664185,31.69839477539062,94.38761901855467,-0.3459014892578125
131774,-0.7251739501953125,1.183120727539062,0.21343994140625,0.2212921679019928,1.071560621261597,0.4013471603393555,32.18077087402344,94.31521606445312,-0.1423797607421875
131775,-0.32989501953125,0.8046417236328125,0.0393829345703125,0.3085884749889374,0.7871087193489075,0.349001407623291,32.81986999511719,94.35357666015624,-0.61065673828125
131776,-0.32989501953125,0.8046417236328125,0.0393829345703125,0.3085884749889374,0.7871087193489075,0.349001407623291,32.81986999511719,94.35357666015624,-0.61065673828125
131777,-0.1464080810546875,0.743988037109375,0.0120849609375,0.2606299817562103,0.307843029499054,0.5253165364265442,32.98448181152344,94.24549865722656,-0.843414306640625
131778,0.102752685546875,0.8178558349609375,0.042266845703125,0.3620639443397522,-0.7399896383285522,1.089615345001221,33.71998596191406,94.27955627441406,-1.1329345703125
131779,0.102752685546875,0.8178558349609375,0.042266845703125,0.3620639443397522,-0.7399896383285522,1.089615345001221,33.71998596191406,94.27955627441406,-1.1329345703125
131780,-0.0490875244140625,0.8393402099609375,0.087799072265625,0.4050172567367554,-0.5486279726028442,0.9989184141159058,34.17703247070312,94.41452026367188,-1.206863403320312
131781,-0.3094329833984375,0.6910400390625,0.0605316162109375,0.2220248132944107,0.1523445248603821,0.5667968392372131,34.71284484863281,94.6212158203125,-1.09710693359375
131782,-0.5253753662109375,0.5040740966796875,-0.035308837890625,-0.0442833080887794,0.7060873508453369,0.3953007161617279,35.21687316894531,94.70774841308594,-1.018630981445312
131783,-0.6002197265625,0.427947998046875,-0.0408477783203125,-0.1906575709581375,0.9988033771514891,0.3258230984210968,35.52517700195312,94.85563659667967,-1.007781982421875
131784,-0.61163330078125,0.3094024658203125,-0.0107879638671875,-0.1426287889480591,1.101271390914917,0.3080150783061981,35.75567626953125,94.86099243164062,-1.167083740234375
131785,-0.54632568359375,0.1941070556640625,0.0763702392578125,-0.0263336021453142,1.174553155899048,0.3765510022640228,35.92536926269531,94.75941467285156,-1.134613037109375
131786,-0.42034912109375,0.1726226806640625,0.1558685302734375,0.0203667897731065,1.318167805671692,0.3917456567287445,36.04112243652344,94.80673217773438,-1.07177734375
131787,-0.3174896240234375,0.174835205078125,0.1862030029296875,-0.0213260613381862,1.501398921012878,0.3673998415470123,36.1253662109375,94.84625244140624,-1.25482177734375
131788,-0.281829833984375,0.1853485107421875,0.2193450927734375,-0.1563163697719574,1.682144999504089,0.3334479928016663,36.17048645019531,94.94212341308594,-1.589569091796875
131789,-0.3032073974609375,0.203948974609375,0.2791595458984375,-0.3844012022018433,1.861647009849548,0.2679523527622223,36.10845947265625,95.14508056640624,-1.88507080078125
131790,-0.379852294921875,0.26300048828125,0.337677001953125,-0.7207949161529541,1.980981707572937,0.1687040627002716,36.09332275390625,95.06289672851562,-2.010696411132812
131791,-0.4737701416015625,0.3518524169921875,0.3985595703125,-1.129546523094177,2.01598334312439,0.049165416508913,35.931884765625,95.02212524414062,-2.102752685546875
131792,-0.5377197265625,0.4382171630859375,0.44696044921875,-1.540907979011536,1.935355424880981,-0.0801331847906112,35.802734375,94.98782348632812,-2.018997192382812
131793,-0.552215576171875,0.5180816650390625,0.475830078125,-1.856311202049255,1.688030004501343,-0.1623241901397705,35.49491882324219,95.02761840820312,-1.7861328125
131794,-0.541534423828125,0.5846099853515625,0.5114288330078125,-2.022700548171997,1.351551532745361,-0.1865440458059311,35.19180297851562,94.90837097167967,-1.44140625
131795,-0.534149169921875,0.6394500732421875,0.50537109375,-2.052122831344604,0.9720807075500488,-0.1845879554748535,34.80429077148438,94.75070190429688,-1.1475830078125
131796,-0.556854248046875,0.685333251953125,0.5087738037109375,-2.013891220092773,0.6505910754203796,-0.2194551229476929,34.32391357421875,94.56918334960938,-0.711273193359375
