time_idx,accelerometerAccelerationX(G),accelerometerAccelerationY(G),accelerometerAccelerationZ(G),gyroRotationX(rad/s),gyroRotationY(rad/s),gyroRotationZ(rad/s),magnetometerX(µT),magnetometerY(µT),magnetometerZ(µT)
260183,-0.1553802490234375,1.286605834960938,-1.162261962890625,2.28656268119812,-0.0494311973452568,-0.7993313074111938,54.48155212402344,101.3772430419922,-27.13273620605469
260184,-0.0548095703125,1.446563720703125,-1.1156005859375,2.28656268119812,-0.0494311973452568,-0.7993313074111938,53.05264282226562,101.1479797363281,-28.10899353027344
260185,0.0463409423828125,1.611312866210938,-0.998687744140625,1.963602662086487,0.4463231563568115,-0.6642602682113647,52.454833984375,101.0028228759766,-29.03680419921875
260186,0.0479278564453125,1.806182861328125,-0.761077880859375,1.104844808578491,0.195688009262085,-0.7796566486358643,52.00308227539062,100.6091613769531,-29.88729858398438
260187,-0.0305633544921875,1.928787231445312,-0.4726409912109375,0.339106947183609,-0.5340309143066406,-1.160484433174133,51.65785217285156,100.4283294677734,-30.5950927734375
260188,-0.0305633544921875,1.928787231445312,-0.4726409912109375,0.339106947183609,-0.5340309143066406,-1.160484433174133,51.65785217285156,100.4283294677734,-30.5950927734375
260189,-0.28082275390625,2.49261474609375,-0.36163330078125,0.5936843752861023,-1.946564078330994,-1.388497591018677,50.52473449707031,100.5832366943359,-31.05363464355469
260190,-0.623992919921875,2.856826782226562,-0.3301544189453125,1.138838529586792,-1.176502585411072,-1.207964897155762,49.62687683105469,100.6671600341797,-31.25733947753906
260191,-1.018890380859375,2.948776245117188,-0.5928192138671875,1.314542412757874,0.0203478820621967,-0.7995898723602295,48.81961059570312,100.8699035644531,-31.8720703125
260192,-1.018890380859375,2.948776245117188,-0.5928192138671875,1.314542412757874,0.0203478820621967,-0.7995898723602295,48.81961059570312,100.8699035644531,-31.8720703125
260193,-1.175888061523438,2.763595581054688,-0.4253082275390625,0.8892033696174622,0.0578840710222721,0.0340407900512218,47.96607971191406,100.9060974121094,-33.48982238769531
260194,-0.82061767578125,2.76434326171875,-0.1427154541015625,0.8203103542327881,-0.4968395829200745,0.1384865045547485,47.97755432128906,100.8010711669922,-34.14213562011719
260195,-0.591339111328125,2.784500122070312,0.093414306640625,0.7491006255149841,-0.9720314145088196,0.0589810274541378,48.12326049804688,100.5677185058594,-34.544189453125
260196,-0.591339111328125,2.784500122070312,0.093414306640625,0.7491006255149841,-0.9720314145088196,0.0589810274541378,48.12326049804688,100.5677185058594,-34.544189453125
260197,-0.1816864013671875,2.601882934570312,0.3502044677734375,0.6823495626449585,-1.033020496368408,0.2827739119529724,48.13565063476562,100.3020629882812,-35.44882202148438
260198,-0.16021728515625,2.345199584960938,0.524871826171875,0.813529372215271,-0.5073041915893555,0.5229942202568054,48.04646301269531,99.94204711914062,-35.87664794921875
260199,-0.236297607421875,2.134613037109375,0.572662353515625,1.047179460525513,0.0935941338539123,0.719226062297821,48.11674499511719,99.77296447753906,-36.24169921875
260200,-0.236297607421875,2.134613037109375,0.572662353515625,1.047179460525513,0.0935941338539123,0.719226062297821,48.11674499511719,99.77296447753906,-36.24169921875
260201,-0.3646392822265625,1.633148193359375,0.480682373046875,1.540958523750305,0.5915698409080505,0.6977876424789429,48.9835205078125,99.24974060058594,-37.28916931152344
260202,-0.3661956787109375,1.355865478515625,0.38787841796875,1.719428181648254,0.5176769495010376,0.7385808229446411,49.58506774902344,98.85594177246094,-38.00276184082031
260203,-0.2959136962890625,1.136886596679688,0.252288818359375,1.781817436218262,0.2116589844226837,0.7707470655441284,50.26475524902344,98.2730712890625,-38.87626647949219
260204,-0.2023773193359375,0.9888763427734376,0.1854095458984375,1.680275678634644,-0.1385714560747147,0.7120264768600464,50.84011840820312,97.73294067382812,-39.54020690917969
260205,-0.08648681640625,0.8390655517578125,0.1602630615234375,1.37544310092926,-0.4726748764514923,0.6443366408348083,51.33082580566406,97.06744384765624,-40.31004333496094
260206,-0.013580322265625,0.72503662109375,0.1798858642578125,0.9876159429550172,-0.733576774597168,0.6160983443260193,51.58174133300781,96.50823974609376,-40.95893859863281
260207,0.0372314453125,0.6509857177734375,0.22662353515625,0.60475754737854,-0.7922936081886292,0.6044121384620667,51.72428894042969,96.09432983398438,-41.59622192382812
260208,0.0372314453125,0.6509857177734375,0.22662353515625,0.60475754737854,-0.7922936081886292,0.6044121384620667,51.72428894042969,96.09432983398438,-41.59622192382812
260209,0.0680389404296875,0.6732025146484375,0.2034912109375,0.0843132808804512,-0.3523569703102112,0.6767444014549255,51.96882629394531,95.52919006347656,-42.04144287109375
260210,0.0448150634765625,0.7398834228515625,0.148712158203125,-0.0648170784115791,0.0305778831243515,0.7355656027793884,52.09794616699219,95.43356323242188,-42.177978515625
260211,-0.0546875,0.848388671875,0.1342620849609375,-0.1227357760071754,0.5107706189155579,0.7653184533119202,52.36398315429688,95.44158935546876,-42.291748046875
260212,-0.0546875,0.848388671875,0.1342620849609375,-0.1227357760071754,0.5107706189155579,0.7653184533119202,52.36398315429688,95.44158935546876,-42.291748046875
260213,-0.1350250244140625,0.8682708740234375,0.01727294921875,0.0079117184504866,0.8159320950508118,0.7576858401298523,53.14535522460938,95.30076599121094,-42.12464904785156
260214,-0.0753936767578125,0.761505126953125,0.056915283203125,0.1673490405082703,0.7530117034912109,0.7152441143989563,53.67160034179688,95.2412109375,-42.02503967285156
260215,-0.0027618408203125,0.640106201171875,0.0983123779296875,0.3023268282413483,0.7872709035873413,0.693751871585846,54.26692199707031,95.21397399902344,-41.92507934570312
260216,-0.0027618408203125,0.640106201171875,0.0983123779296875,0.3023268282413483,0.7872709035873413,0.693751871585846,54.26692199707031,95.21397399902344,-41.92507934570312
260217,0.076416015625,0.41107177734375,0.1519775390625,0.4551677703857422,1.145783543586731,0.7408799529075623,55.44754028320312,94.9132843017578,-42.06333923339844
260218,0.0922393798828125,0.299072265625,0.218414306640625,0.5163408517837524,1.496617913246155,0.7826218008995056,56.04328918457031,94.83499145507812,-42.18206787109375
260219,0.1257171630859375,0.1827850341796875,0.2709808349609375,0.5068232417106628,1.867653012275696,0.878972053527832,56.78805541992188,94.66644287109376,-42.32878112792969
260220,0.1257171630859375,0.1827850341796875,0.2709808349609375,0.5068232417106628,1.867653012275696,0.878972053527832,56.78805541992188,94.66644287109376,-42.32878112792969
260221,0.1726226806640625,0.0292205810546875,0.33026123046875,-0.0530634857714176,2.213599443435669,1.277444005012512,58.56793212890625,94.4026336669922,-42.030029296875
260222,0.1379241943359375,0.0486602783203125,0.3538970947265625,-0.576737642288208,2.10167407989502,1.362960338592529,59.690673828125,94.26921081542967,-41.6885986328125
260223,0.0483856201171875,0.17193603515625,0.3875885009765625,-1.078861951828003,1.908191919326782,1.108112573623657,60.83688354492188,94.10667419433594,-41.13529968261719
260224,0.0483856201171875,0.17193603515625,0.3875885009765625,-1.078861951828003,1.908191919326782,1.108112573623657,60.83688354492188,94.10667419433594,-41.13529968261719
260225,-0.1639862060546875,0.445892333984375,0.371307373046875,-1.644047856330872,1.200215816497803,0.1787606924772263,62.84550476074219,94.28778076171876,-39.71449279785156
260226,-0.263397216796875,0.606048583984375,0.298126220703125,-1.754442095756531,0.8604683876037598,-0.1372561305761337,63.37245178222656,94.6640167236328,-38.74215698242188
260227,-0.2801361083984375,0.7866363525390625,0.073699951171875,-1.796096801757812,0.1997306942939758,-0.3966091275215149,63.69515991210938,95.1063995361328,-37.90010070800781
260228,-0.2801361083984375,0.7866363525390625,0.073699951171875,-1.796096801757812,0.1997306942939758,-0.3966091275215149,63.69515991210938,95.1063995361328,-37.90010070800781
260229,-0.1533660888671875,0.8834228515625,0.303466796875,-1.713871717453003,-0.8800144195556641,-0.4487548768520355,63.5853271484375,96.1352081298828,-36.49943542480469
260230,-0.0604705810546875,0.9141082763671876,0.4138641357421875,-1.627424955368042,-0.7825259566307068,-0.361225038766861,63.16165161132812,96.50944519042967,-35.76179504394531
260231,0.0147705078125,0.90411376953125,0.386016845703125,-1.581255316734314,-0.6754442453384399,-0.4818395972251892,62.85763549804688,96.97134399414062,-35.23605346679688
260232,0.0147705078125,0.90411376953125,0.386016845703125,-1.581255316734314,-0.6754442453384399,-0.4818395972251892,62.85763549804688,96.97134399414062,-35.23605346679688
260233,0.0547332763671875,0.6519927978515625,0.2970123291015625,-1.592505097389221,-0.6922801733016968,-0.5742979049682617,62.25126647949219,97.34849548339844,-33.76860046386719
260234,0.0547332763671875,0.6519927978515625,0.2970123291015625,-1.592505097389221,-0.6922801733016968,-0.5742979049682617,62.25126647949219,97.34849548339844,-33.76860046386719
260235,0.0356597900390625,0.2826385498046875,0.2225189208984375,-1.491261005401611,-0.1589257419109344,-0.7485650181770325,61.70985412597656,97.92486572265624,-32.46490478515625
260236,0.0099945068359375,0.140899658203125,0.146575927734375,-1.491261005401611,-0.1589257419109344,-0.7485650181770325,61.38691711425781,98.27693176269533,-31.92048645019531
260237,0.0095062255859375,0.00701904296875,-0.148223876953125,-1.355808615684509,-0.1321516484022141,-0.7621056437492371,60.94903564453125,98.6090850830078,-31.19841003417969
260238,0.031524658203125,-0.1057891845703125,-0.563018798828125,-1.028400659561157,-0.9041325449943542,-0.70197594165802,60.66934204101562,98.89070129394533,-30.53010559082031
260239,0.0453948974609375,-0.1350555419921875,-0.5969085693359375,-0.1503269225358963,-2.634865283966064,-0.5451509356498718,60.29620361328125,99.09486389160156,-29.78617858886719
260240,0.0453948974609375,-0.1350555419921875,-0.5969085693359375,-0.1503269225358963,-2.634865283966064,-0.5451509356498718,60.29620361328125,99.09486389160156,-29.78617858886719
260241,0.0396881103515625,-0.076904296875,-0.1777801513671875,0.0758143365383148,-2.64515495300293,-0.5442177653312683,59.03790283203125,99.6766357421875,-29.38212585449219
260242,0.0343780517578125,-0.06964111328125,-0.05218505859375,0.1510619521141052,-1.906151175498962,-0.6060616970062256,58.14654541015625,99.98133850097656,-29.602783203125
260243,0.0669097900390625,0.0062408447265625,-0.120208740234375,-0.0604337826371192,1.199429392814636,-0.7995818853378296,57.27842712402344,100.2734222412109,-29.86863708496094
260244,0.0669097900390625,0.0062408447265625,-0.120208740234375,-0.0604337826371192,1.199429392814636,-0.7995818853378296,57.27842712402344,100.2734222412109,-29.86863708496094
260245,0.0677490234375,0.32269287109375,-0.7997283935546875,-0.1802984029054642,0.4169495701789856,-0.9145516157150269,56.16397094726562,100.4212188720703,-30.12411499023438
260246,0.0412750244140625,0.3745574951171875,-0.4915313720703125,-0.1802984029054642,0.4169495701789856,-0.9145516157150269,55.87458801269531,100.5518646240234,-30.08747863769531
260247,-0.00372314453125,0.473358154296875,-0.39300537109375,-0.2540210783481598,0.1645937412977219,-1.151816129684448,55.63356018066406,100.7020416259766,-29.9017333984375
260248,-0.00372314453125,0.473358154296875,-0.39300537109375,-0.2540210783481598,0.1645937412977219,-1.151816129684448,55.63356018066406,100.7020416259766,-29.9017333984375
260249,-0.1797943115234375,1.093338012695312,-0.79669189453125,0.1630746722221375,-0.2094815820455551,-1.320603013038635,54.5279541015625,101.112060546875,-29.54324340820312
260250,-0.2955474853515625,1.318923950195312,-0.975677490234375,0.9196060299873352,-0.6485257744789124,-1.496375322341919,53.86996459960938,101.4170532226562,-29.53048706054688
260251,-0.403900146484375,1.461471557617188,-0.89959716796875,1.707488417625427,-0.431122899055481,-1.530640363693237,53.14021301269531,101.4607391357422,-29.69969177246094
260252,-0.403900146484375,1.461471557617188,-0.89959716796875,1.707488417625427,-0.431122899055481,-1.530640363693237,53.14021301269531,101.4607391357422,-29.69969177246094
260253,-0.51470947265625,1.836044311523438,-1.136627197265625,1.698094606399536,0.7945642471313477,-1.305734872817993,51.20182800292969,101.3780670166016,-30.97798156738281
260254,-0.4836273193359375,1.9296875,-1.054290771484375,0.4139798581600189,-0.7247321605682373,-1.50639820098877,50.50300598144531,101.1760101318359,-31.71235656738281
260255,-0.4986419677734375,1.929489135742188,-0.8620452880859375,0.4139798581600189,-0.7247321605682373,-1.50639820098877,49.98033142089844,100.9607086181641,-32.31300354003906
260256,-0.4986419677734375,1.929489135742188,-0.8620452880859375,0.4139798581600189,-0.7247321605682373,-1.50639820098877,49.98033142089844,100.9607086181641,-32.31300354003906
260257,-0.7572784423828125,2.232406616210938,-0.8032073974609375,0.8621291518211365,-0.7646800875663757,-1.030642032623291,48.58567810058594,100.9453735351562,-32.99758911132812
260258,-0.9228363037109376,2.513290405273438,-0.7565155029296875,1.061957001686096,0.2422616332769394,-0.647136926651001,47.79214477539062,100.9953002929688,-33.26692199707031
260259,-1.028030395507812,3.087371826171875,-0.5120391845703125,-0.0267144348472356,1.076744556427002,-0.2171946316957474,46.88888549804688,101.0458374023438,-34.46603393554688
260260,-1.028030395507812,3.087371826171875,-0.5120391845703125,-0.0267144348472356,1.076744556427002,-0.2171946316957474,46.88888549804688,101.0458374023438,-34.46603393554688
260261,-1.17510986328125,3.349716186523438,-0.2547149658203125,-0.7683405876159668,0.824360191822052,0.1664952337741852,46.89019775390625,101.0220184326172,-34.85736083984375
260262,-1.2054443359375,3.7484130859375,-0.003692626953125,-1.129212498664856,0.1973719298839569,0.8674451112747192,47.18168640136719,101.0070037841797,-34.87808227539062
260263,-0.938323974609375,4.102066040039062,0.286285400390625,-0.5965321063995361,-0.1511775404214859,1.344889998435974,47.54853820800781,101.0558319091797,-34.74395751953125
260264,-0.5326995849609375,3.848175048828125,0.4091339111328125,0.4044657349586487,0.0713037401437759,1.678974509239197,48.1575927734375,101.2060394287109,-34.42021179199219
260265,-0.2969970703125,2.973388671875,0.2913818359375,1.14052939414978,0.2611799240112305,1.768296837806702,48.86257934570312,101.098388671875,-34.19204711914062
260266,-0.256103515625,2.250457763671875,0.290069580078125,1.537421584129333,0.3940351903438568,1.763350367546082,49.82981872558594,100.8511199951172,-34.63919067382812
260267,-0.2517242431640625,1.866912841796875,0.274688720703125,2.075021982192993,0.6146492958068848,1.655141234397888,50.76762390136719,100.3789978027344,-35.14389038085938
260268,-0.2517242431640625,1.866912841796875,0.274688720703125,2.075021982192993,0.6146492958068848,1.655141234397888,50.76762390136719,100.3789978027344,-35.14389038085938
260269,-0.1806488037109375,1.38397216796875,0.205413818359375,2.247629880905151,0.587127149105072,1.554978251457214,52.83050537109375,99.4191436767578,-36.78668212890625
260270,-0.09637451171875,1.205947875976562,0.2771759033203125,2.278901815414429,0.6463358998298645,1.418830513954163,53.7939453125,98.73187255859376,-37.69389343261719
260271,-0.0186614990234375,1.023818969726562,0.3170013427734375,2.148268461227417,0.5667830109596252,1.397849321365356,54.66738891601562,98.05255126953124,-38.71902465820312
260272,0.0583953857421875,0.9113311767578124,0.3127593994140625,1.838992834091187,0.3228446245193481,1.460657000541687,55.49319458007812,97.244873046875,-39.65010070800781
260273,0.1364288330078125,0.8524627685546875,0.252349853515625,1.385324716567993,-0.2764928340911865,1.575522661209106,56.36773681640625,96.37785339355467,-40.48152160644531
260274,0.180084228515625,0.8470458984375,0.306884765625,0.9481449723243712,-0.9720109105110168,1.625886678695679,57.19964599609375,95.67523193359376,-41.21176147460938
260275,0.18109130859375,0.87884521484375,0.4411773681640625,0.5687114000320435,-1.474149703979492,1.459818363189697,58.00260925292969,95.01856994628906,-41.73699951171875
260276,0.18109130859375,0.87884521484375,0.4411773681640625,0.5687114000320435,-1.474149703979492,1.459818363189697,58.00260925292969,95.01856994628906,-41.73699951171875
260277,0.1107330322265625,0.7151336669921875,0.684539794921875,-0.0519148632884025,-1.787622690200806,0.5522165894508362,58.95013427734375,93.92727661132812,-42.13813781738281
260278,-0.0155181884765625,0.5263824462890625,0.8326568603515625,-0.1394902467727661,-1.285922527313232,0.1623883694410324,59.12898254394531,93.48199462890624,-42.16703796386719
260279,-0.0636138916015625,0.385589599609375,0.8095703125,0.114018976688385,0.3942029774188995,0.0567229352891445,59.03343200683594,93.18545532226562,-42.18464660644531
260280,-0.0636138916015625,0.385589599609375,0.8095703125,0.114018976688385,0.3942029774188995,0.0567229352891445,59.03343200683594,93.18545532226562,-42.18464660644531
260281,0.0389404296875,0.1897430419921875,0.41925048828125,0.1753992438316345,0.8066640496253967,0.0503214932978153,58.906494140625,93.28614807128906,-42.15093994140625
260282,0.0389404296875,0.1897430419921875,0.41925048828125,0.1753992438316345,0.8066640496253967,0.0503214932978153,58.906494140625,93.28614807128906,-42.15093994140625
260283,0.0849456787109375,-0.0670623779296875,0.098663330078125,0.020341757684946,0.7223254442214966,0.1575944274663925,59.437255859375,93.4255828857422,-41.69035339355469
260284,0.0849456787109375,-0.0670623779296875,0.098663330078125,0.020341757684946,0.7223254442214966,0.1575944274663925,59.437255859375,93.4255828857422,-41.69035339355469
260285,0.0803680419921875,-0.0847015380859375,0.061187744140625,-0.0882267951965332,0.4479455649852753,0.1747457087039948,59.70526123046875,93.48190307617188,-41.43867492675781
260286,0.0904083251953125,-0.0885162353515625,0.0450897216796875,-0.2372391819953918,0.0971515849232673,0.1992071121931076,60.0111083984375,93.4565887451172,-41.17630004882812
260287,0.1022796630859375,-0.0944061279296875,0.0559539794921875,-0.6551370620727539,-0.742240846157074,0.2695640921592712,60.30413818359375,93.4622039794922,-41.06576538085938
260288,0.1022796630859375,-0.0944061279296875,0.0559539794921875,-0.6551370620727539,-0.742240846157074,0.2695640921592712,60.30413818359375,93.4622039794922,-41.06576538085938
260289,0.157440185546875,-0.0917816162109375,0.2146148681640625,-0.9340733885765076,-1.16833758354187,0.2914505004882812,60.45747375488281,93.39707946777344,-40.41030883789062
260290,0.1788482666015625,-0.0476837158203125,0.3104705810546875,-1.207760810852051,-1.625753879547119,0.2658180892467499,60.31672668457031,93.40884399414062,-39.93081665039062
260291,0.152191162109375,0.081756591796875,0.4250946044921875,-1.512817978858948,-2.208391427993774,-0.3622743189334869,60.16067504882812,93.42936706542967,-39.46652221679688
260292,0.152191162109375,0.081756591796875,0.4250946044921875,-1.512817978858948,-2.208391427993774,-0.3622743189334869,60.16067504882812,93.42936706542967,-39.46652221679688
260293,-0.0036773681640625,0.26251220703125,0.6641082763671875,-1.514148235321045,-2.054730415344238,-0.6956954598426819,59.37925720214844,93.85539245605467,-38.57078552246094
260294,-0.0036773681640625,0.26251220703125,0.6641082763671875,-1.514148235321045,-2.054730415344238,-0.6956954598426819,59.37925720214844,93.85539245605467,-38.57078552246094
260295,-0.1124267578125,0.1694793701171875,0.6219329833984375,-1.466153502464294,-1.238513469696045,-0.9832664728164672,58.23098754882812,94.42886352539062,-37.60855102539062
260296,-0.1276092529296875,0.13055419921875,0.50439453125,-1.428318023681641,-0.8185361623764038,-1.077740550041199,57.64356994628906,94.71037292480467,-37.0875244140625
260297,-0.119873046875,0.10748291015625,0.3509063720703125,-1.467153310775757,-0.5352306365966797,-1.182743906974792,56.96609497070312,95.12043762207033,-36.4970703125
260298,-0.1056671142578125,0.09716796875,0.2198486328125,-1.587835192680359,-0.4093715250492096,-1.303677797317505,56.39689636230469,95.55027770996094,-36.06556701660156
260299,-0.0849151611328125,0.0931243896484375,0.106719970703125,-1.761708498001099,-0.3962085843086243,-1.429982781410217,55.76852416992188,95.99069213867188,-35.56095886230469
260300,-0.0849151611328125,0.0931243896484375,0.106719970703125,-1.761708498001099,-0.3962085843086243,-1.429982781410217,55.76852416992188,95.99069213867188,-35.56095886230469
260301,-0.05792236328125,0.2167205810546875,-0.090850830078125,-1.974970936775208,-0.3342134058475494,-1.755326271057129,54.484619140625,96.87809753417967,-34.47389221191406
260302,-0.0349884033203125,0.43194580078125,-1.92584228515625,-1.543831825256348,-2.273836851119995,-1.981860876083374,53.82560729980469,97.54930114746094,-33.83418273925781
260303,0.0871429443359375,0.402313232421875,-2.013671875,-0.3880372047424316,-6.975727081298828,-1.899005651473999,52.88482666015625,98.2388916015625,-33.29066467285156
260304,-0.1502685546875,0.135650634765625,-0.39202880859375,-2.18411660194397,-3.663749217987061,-0.919697642326355,51.39898681640625,99.04035949707033,-32.91322326660156
260305,0.100616455078125,0.419647216796875,-0.463714599609375,-1.72566282749176,-1.577471256256104,-0.3288686871528625,49.40562438964844,99.83157348632812,-32.62103271484375
260306,0.15850830078125,0.510040283203125,0.0226898193359375,-0.6410513520240784,-0.3909379243850708,-0.1995253562927246,47.78268432617188,100.5890350341797,-31.86463928222656
260307,0.15850830078125,0.510040283203125,0.0226898193359375,-0.6410513520240784,-0.3909379243850708,-0.1995253562927246,47.78268432617188,100.5890350341797,-31.86463928222656
260308,0.1597137451171875,0.529937744140625,0.2172088623046875,-0.0714214518666267,0.4900272190570831,-0.0819566547870636,47.00907897949219,100.8941650390625,-30.82876586914062
260309,0.2493896484375,0.574920654296875,0.144500732421875,-0.1291784942150116,1.356495976448059,0.4072593748569489,46.87966918945312,100.9095306396484,-29.90925598144531
260310,0.264862060546875,0.6661529541015625,-0.0779876708984375,-0.2917279899120331,1.094540238380432,0.5902765989303589,47.14283752441406,100.7294311523438,-29.96685791015625
260311,0.262969970703125,0.7760162353515625,-0.293426513671875,-0.2330074161291122,-0.759570837020874,0.3905674815177917,47.41079711914062,100.6772155761719,-29.87710571289062
260312,0.262969970703125,0.7760162353515625,-0.293426513671875,-0.2330074161291122,-0.759570837020874,0.3905674815177917,47.41079711914062,100.6772155761719,-29.87710571289062
260313,0.3223419189453125,0.8687286376953125,-0.2559967041015625,-0.1092031896114349,-1.618897318840027,0.2244309782981873,48.22377014160156,100.6881256103516,-29.40505981445312
260314,0.3616943359375,0.9085235595703124,-0.07867431640625,0.0314940102398395,-1.884492754936218,0.2024527043104172,48.324462890625,100.7156372070312,-29.14918518066406
260315,0.383331298828125,1.061737060546875,-0.0042572021484375,0.2825515270233154,-1.391152501106262,0.2956210076808929,48.20669555664062,100.7487182617188,-29.01954650878906
260316,0.383331298828125,1.061737060546875,-0.0042572021484375,0.2825515270233154,-1.391152501106262,0.2956210076808929,48.20669555664062,100.7487182617188,-29.01954650878906
260317,0.379058837890625,1.648910522460938,-0.62408447265625,1.126295566558838,0.6796213984489441,0.5432885885238647,47.76155090332031,100.955810546875,-28.938232421875
260318,0.3274383544921875,1.889312744140625,-0.916168212890625,1.488059401512146,0.8702318072319031,0.6357186436653137,47.66400146484375,100.8772277832031,-29.02392578125
260319,0.18157958984375,2.211471557617188,-0.8955841064453125,1.547526955604553,1.014121055603027,0.638231635093689,47.89537048339844,100.7874145507812,-29.30853271484375
260320,0.18157958984375,2.211471557617188,-0.8955841064453125,1.547526955604553,1.014121055603027,0.638231635093689,47.89537048339844,100.7874145507812,-29.30853271484375
260321,-0.483612060546875,3.4005126953125,-0.7848052978515625,0.8584073781967163,2.44280743598938,-0.3453350365161896,48.39984130859375,100.5166015625,-30.68560791015625
260322,-0.8823394775390625,4.237289428710938,-0.7871246337890625,0.4527224600315094,2.884798288345337,-1.56335973739624,48.71296691894531,100.4377593994141,-31.54600524902344
260323,-1.230392456054688,5.135299682617188,-1.077484130859375,0.2815209031105042,2.75803542137146,-2.921868085861206,48.90745544433594,100.2367401123047,-32.28713989257812
260324,-1.230392456054688,5.135299682617188,-1.077484130859375,0.2815209031105042,2.75803542137146,-2.921868085861206,48.90745544433594,100.2367401123047,-32.28713989257812
260325,-2.538803100585938,3.471145629882812,-0.75775146484375,1.441606879234314,2.376153230667114,-0.9246063828468324,48.65277099609375,100.0320892333984,-33.48722839355469
260326,-1.162216186523438,2.5089111328125,-0.30035400390625,2.273621320724487,2.312786340713501,0.2927855253219604,48.11782836914062,99.88784790039062,-34.12789916992188
260327,-0.24005126953125,1.875732421875,-0.1380157470703125,2.699395179748535,1.997679233551025,1.046125054359436,47.92433166503906,99.59298706054688,-35.04690551757812
260328,-0.134124755859375,1.345703125,-0.0330352783203125,2.699395179748535,1.997679233551025,1.046125054359436,48.16940307617188,99.17317199707033,-35.98167419433594
260329,-0.1246185302734375,1.136184692382812,0.0391387939453125,2.631205558776855,1.956037759780884,1.075334429740906,48.98512268066406,98.69239807128906,-37.07437133789062
260330,-0.091064453125,1.012542724609375,0.04461669921875,2.426451683044434,1.849351286888123,1.033729910850525,49.75184631347656,97.9900360107422,-38.25947570800781
260331,-0.0790863037109375,0.91961669921875,-0.0321502685546875,2.163840532302856,1.561533093452454,0.9589235782623292,50.58750915527344,97.26455688476562,-39.60336303710938
260332,-0.079071044921875,0.83038330078125,-0.1775970458984375,1.956234812736511,1.022573709487915,0.8238816261291504,51.45159912109375,96.77574157714844,-40.69679260253906
260333,-0.0473175048828125,0.7500762939453125,-0.2789306640625,1.821897029876709,0.2491943836212158,0.6320738196372986,52.24296569824219,96.00123596191406,-41.59980773925781
260334,-0.0473175048828125,0.7500762939453125,-0.2789306640625,1.821897029876709,0.2491943836212158,0.6320738196372986,52.24296569824219,96.00123596191406,-41.59980773925781
260335,0.129364013671875,0.7353668212890625,0.015899658203125,0.9954349994659424,-0.3082995116710663,0.3915603160858154,53.1763916015625,94.91006469726562,-43.21987915039062
260336,0.2190704345703125,0.8013153076171875,0.204071044921875,0.9954349994659424,-0.3082995116710663,0.3915603160858154,53.259765625,94.41218566894533,-44.01890563964844
260337,0.2661285400390625,0.952880859375,0.404022216796875,0.6102316379547119,0.2436720430850983,0.4919878542423248,53.20697021484375,94.00758361816406,-44.60240173339844
260338,0.2661285400390625,0.952880859375,0.404022216796875,0.6102316379547119,0.2436720430850983,0.4919878542423248,53.20697021484375,94.00758361816406,-44.60240173339844
260339,0.2412872314453125,1.2008056640625,0.51226806640625,0.2890733480453491,0.90617036819458,0.4906578660011292,53.26681518554688,93.70994567871094,-45.00119018554688
260340,-0.0569610595703125,1.396530151367188,0.304290771484375,0.2275644540786743,0.8524773120880127,-0.2410251349210739,53.72149658203125,93.22108459472656,-45.0948486328125
260341,-0.258331298828125,1.137893676757812,0.2462158203125,0.5746989846229553,0.3503412306308746,-0.362972617149353,54.30332946777344,93.10137939453124,-44.98970031738281
260342,-0.270721435546875,0.898284912109375,0.2068328857421875,0.8357667922973633,-0.1467316597700119,-0.3820323050022125,54.75096130371094,93.04656982421876,-45.03094482421875
260343,-0.261962890625,0.721923828125,0.2453460693359375,0.69322669506073,-0.2761940360069275,-0.5894547700881958,54.91015625,92.78012084960938,-45.16661071777344
260344,-0.261962890625,0.721923828125,0.2453460693359375,0.69322669506073,-0.2761940360069275,-0.5894547700881958,54.91015625,92.78012084960938,-45.16661071777344
260345,-0.2873992919921875,0.467803955078125,0.2498321533203125,0.4223246276378632,-0.1521858125925064,-0.7759290337562561,54.73789978027344,92.53849792480467,-45.73197937011719
260346,-0.3224029541015625,0.333587646484375,0.255523681640625,0.1395754665136337,-0.0299669541418552,-0.9488813877105712,54.52665710449219,92.52774047851562,-46.03279113769531
260347,-0.4415283203125,0.1224822998046875,0.308990478515625,-0.2304387986660004,0.3063822984695435,-0.9006989002227783,54.26544189453125,92.56703186035156,-46.27534484863281
260348,-0.4415283203125,0.1224822998046875,0.308990478515625,-0.2304387986660004,0.3063822984695435,-0.9006989002227783,54.26544189453125,92.56703186035156,-46.27534484863281
260349,-0.4322967529296875,0.0359954833984375,0.139495849609375,-0.6169223189353943,0.6674187779426575,-0.3931358456611633,53.69346618652344,93.0056610107422,-46.00550842285156
260350,-0.43792724609375,0.0794525146484375,0.1215362548828125,-0.2698599696159363,0.0195998009294271,-0.3061338365077972,53.72209167480469,93.2279052734375,-45.50958251953125
260351,-0.4616546630859375,0.1900787353515625,0.2551727294921875,0.0510024651885032,-0.3423280417919159,-0.2399377673864365,53.74163818359375,93.47581481933594,-45.28945922851562
260352,-0.4616546630859375,0.1900787353515625,0.2551727294921875,0.0510024651885032,-0.3423280417919159,-0.2399377673864365,53.74163818359375,93.47581481933594,-45.28945922851562
260353,-0.3558197021484375,0.52972412109375,0.3527069091796875,0.0425573140382766,-0.3209303617477417,-0.3741541504859924,53.39279174804688,93.74989318847656,-45.0770263671875
260354,-0.3558197021484375,0.52972412109375,0.3527069091796875,0.0425573140382766,-0.3209303617477417,-0.3741541504859924,53.39279174804688,93.74989318847656,-45.0770263671875
260355,-0.3739013671875,0.7069854736328125,0.381134033203125,-0.5716094374656677,-0.6410534977912903,-0.6423872113227844,52.94929504394531,93.87705993652344,-45.04087829589844
260356,-0.386627197265625,0.7256317138671875,0.4033660888671875,-0.954521656036377,-0.9593175053596495,-0.7564807534217834,52.74778747558594,93.89317321777344,-44.8897705078125
260357,-0.38818359375,0.6789398193359375,0.422698974609375,-1.313704013824463,-1.17960512638092,-0.8189356327056885,52.33367919921875,94.03616333007812,-44.48257446289062
260358,-0.3278045654296875,0.57928466796875,0.3597564697265625,-1.601024508476257,-1.36770761013031,-0.8332498073577881,51.89608764648438,94.22689819335938,-44.36094665527344
260359,-0.227935791015625,0.48065185546875,0.2772674560546875,-1.789522051811218,-1.63887894153595,-0.8517681360244751,51.28578186035156,94.6033172607422,-44.00279235839844
260360,-0.227935791015625,0.48065185546875,0.2772674560546875,-1.789522051811218,-1.63887894153595,-0.8517681360244751,51.28578186035156,94.6033172607422,-44.00279235839844
260361,-0.1003570556640625,0.4005126953125,0.27813720703125,-2.165746927261353,-1.536922216415405,-0.7196226119995117,50.07708740234375,95.21424865722656,-42.66885375976562
260362,-0.0567779541015625,0.3467254638671875,0.2053680419921875,-2.357645034790039,-1.252219080924988,-0.6583970785140991,49.43643188476562,95.4719696044922,-41.79072570800781
260363,-0.03857421875,0.2875213623046875,0.1392974853515625,-2.465242624282837,-1.047674298286438,-0.6173058152198792,48.80815124511719,95.89013671875,-40.87509155273438
260364,-0.031005859375,0.2761383056640625,0.0856475830078125,-2.588203191757202,-0.8121237754821777,-0.5735237002372742,48.29791259765625,96.303955078125,-39.83224487304688
260365,-0.0064239501953125,0.2794036865234375,-0.028778076171875,-2.73314094543457,-0.598865270614624,-0.4658928513526917,47.98123168945312,96.67233276367188,-38.53018188476562
260366,0.171661376953125,0.2688446044921875,-0.8923797607421875,-2.6722571849823,-1.146619200706482,-0.1699379086494446,47.5850830078125,97.2026824951172,-37.35490417480469
260367,0.37060546875,0.2270660400390625,-1.764389038085938,-1.874281406402588,-3.706454753875732,0.4462789595127106,47.25656127929688,97.72761535644533,-36.0272216796875
260368,0.37060546875,0.2270660400390625,-1.764389038085938,-1.874281406402588,-3.706454753875732,0.4462789595127106,47.25656127929688,97.72761535644533,-36.0272216796875
260369,0.1453094482421875,0.248779296875,-0.0980682373046875,-0.1674465239048004,-1.328258514404297,1.008802533149719,45.88442993164062,99.12638854980467,-34.06436157226562
260370,0.269744873046875,0.2409210205078125,-0.3388824462890625,0.229531466960907,0.2248648107051849,0.9453002214431764,45.61114501953125,99.37448120117188,-33.48936462402344
260371,0.330474853515625,0.2402801513671875,-0.5385894775390625,0.2509693801403046,0.4615878760814667,0.9289201498031616,45.85604858398438,99.39480590820312,-33.1864013671875
260372,0.330474853515625,0.2402801513671875,-0.5385894775390625,0.2509693801403046,0.4615878760814667,0.9289201498031616,45.85604858398438,99.39480590820312,-33.1864013671875
260373,0.3689727783203125,0.333892822265625,-0.407928466796875,-0.1311375200748444,-0.3266628086566925,1.048449516296387,46.86363220214844,98.96549987792967,-33.06455993652344
260374,0.4234771728515625,0.481719970703125,-0.440185546875,-0.2425109148025513,-0.7185991406440735,1.158695340156555,47.30693054199219,98.885986328125,-33.05776977539062
260375,0.4683990478515625,0.75018310546875,-0.5686492919921875,-0.0793789774179458,-1.132474303245544,1.222285985946655,47.62236022949219,98.93853759765624,-32.78260803222656
260376,0.4683990478515625,0.75018310546875,-0.5686492919921875,-0.0793789774179458,-1.132474303245544,1.222285985946655,47.62236022949219,98.93853759765624,-32.78260803222656
260377,0.4435272216796875,1.3358154296875,-0.766876220703125,0.7785197496414185,-0.5203078985214233,0.8414382338523865,47.9599609375,99.04917907714844,-32.4598388671875
260378,0.302154541015625,1.556640625,-1.117172241210938,1.25262176990509,0.274248868227005,0.6541376113891602,48.06953430175781,99.06216430664062,-32.59913635253906
260379,0.0855560302734375,1.7344970703125,-1.19525146484375,1.378541707992554,0.7077131867408752,0.4628169238567352,48.21678161621094,99.03968811035156,-33.0045166015625
260380,0.0855560302734375,1.7344970703125,-1.19525146484375,1.378541707992554,0.7077131867408752,0.4628169238567352,48.21678161621094,99.03968811035156,-33.0045166015625
260381,0.03125,1.86114501953125,-0.362579345703125,0.0757786482572555,0.3852901756763458,-0.5355116128921509,48.47361755371094,98.54818725585938,-34.10690307617188
260382,0.1552886962890625,1.951934814453125,0.07403564453125,-0.6266175508499146,0.111661285161972,-0.7356287240982056,48.48793029785156,98.410888671875,-34.49220275878906
260383,0.2649383544921875,2.343902587890625,0.3514862060546875,-0.8901445269584656,0.0192860793322324,-0.5382557511329651,48.32345581054688,98.22000122070312,-34.41162109375
260384,0.2649383544921875,2.343902587890625,0.3514862060546875,-0.8901445269584656,0.0192860793322324,-0.5382557511329651,48.32345581054688,98.22000122070312,-34.41162109375
260385,0.5864105224609375,3.746322631835938,0.383544921875,-0.1285372078418732,-0.1846436113119125,0.898185133934021,47.84652709960938,98.67164611816406,-34.15458679199219
260386,0.5337677001953125,4.356597900390625,0.3765869140625,0.3473526239395142,-0.1672816723585129,1.409650802612305,47.74667358398438,98.88623046875,-34.10801696777344
260387,0.2694549560546875,4.198486328125,0.2796173095703125,0.7389611601829529,0.0463467240333557,0.984913408756256,47.95559692382812,99.14878845214844,-34.21900939941406
260388,0.2694549560546875,4.198486328125,0.2796173095703125,0.7389611601829529,0.0463467240333557,0.984913408756256,47.95559692382812,99.14878845214844,-34.21900939941406
260389,-0.3804473876953125,2.773757934570312,0.5600738525390625,1.23212718963623,1.06084406375885,-0.0918593481183052,48.82664489746094,99.21824645996094,-35.03521728515625
260390,-0.435028076171875,2.4124755859375,0.62255859375,1.337809920310974,1.423762917518616,-0.4978619813919067,49.22276306152344,99.08482360839844,-35.66061401367188
260391,-0.44171142578125,2.104339599609375,0.6101226806640625,1.392914772033691,1.365556120872498,-0.6969956159591675,49.57785034179688,98.95445251464844,-36.14752197265625
260392,-0.440216064453125,1.87127685546875,0.5562286376953125,1.319061040878296,0.8442116975784302,-0.6630551815032959,49.94349670410156,98.6076202392578,-36.83877563476562
260393,-0.4766082763671875,1.665191650390625,0.501068115234375,0.7896658778190613,-0.3962807655334473,-0.576745331287384,50.19085693359375,98.09457397460938,-37.4239501953125
260394,-0.4948272705078125,1.358367919921875,0.3394622802734375,0.7896658778190613,-0.3962807655334473,-0.576745331287384,50.27130126953125,97.79617309570312,-38.02629089355469
260395,-0.4801025390625,0.9882965087890624,0.08984375,0.4948720633983612,-1.092180967330933,-0.5532280206680298,50.14215087890625,97.60995483398438,-38.58094787597656
260396,-0.4801025390625,0.9882965087890624,0.08984375,0.4948720633983612,-1.092180967330933,-0.5532280206680298,50.14215087890625,97.60995483398438,-38.58094787597656
260397,-0.4468841552734375,0.5526885986328125,0.0238037109375,0.2701161801815033,-2.00349760055542,-0.4006603360176086,49.49131774902344,97.53746032714844,-39.22386169433594
260398,-0.4468841552734375,0.5526885986328125,0.0238037109375,0.2701161801815033,-2.00349760055542,-0.4006603360176086,49.49131774902344,97.53746032714844,-39.22386169433594
260399,-0.3450469970703125,0.46563720703125,0.2570648193359375,1.145799517631531,0.563138484954834,0.1362630277872086,48.23779296875,97.8415069580078,-39.70074462890625
260400,-0.220977783203125,0.5402069091796875,0.209991455078125,1.145799517631531,0.563138484954834,0.1362630277872086,47.80439758300781,97.8157958984375,-40.01771545410156
260401,-0.1416015625,0.7066650390625,0.1168060302734375,1.208959817886353,1.101765990257263,0.1252961307764053,47.73170471191406,97.59724426269533,-40.41166687011719
260402,-0.1831207275390625,0.782928466796875,0.067047119140625,1.03344714641571,1.26168155670166,-0.0796167999505996,48.02496337890625,97.1608428955078,-40.9190673828125
260403,-0.2559967041015625,0.7740631103515625,-0.0291748046875,0.7644955515861511,1.074885606765747,-0.4394937455654144,48.43597412109375,96.87057495117188,-41.30801391601562
260404,-0.2559967041015625,0.7740631103515625,-0.0291748046875,0.7644955515861511,1.074885606765747,-0.4394937455654144,48.43597412109375,96.87057495117188,-41.30801391601562
260405,-0.3921966552734375,0.685882568359375,-0.2269287109375,0.5435951352119446,0.1549837291240692,-0.9921596050262452,48.71406555175781,96.36875915527344,-41.88961791992188
260406,-0.400665283203125,0.5857696533203125,-0.2415924072265625,0.670292317867279,-0.2726251482963562,-1.067578673362732,48.49844360351562,96.2195281982422,-42.18768310546875
260407,-0.433349609375,0.4414825439453125,-0.162109375,0.8041385412216187,-0.2884440422058105,-0.9345080256462096,48.00923156738281,96.05392456054688,-42.5570068359375
260408,-0.433349609375,0.4414825439453125,-0.162109375,0.8041385412216187,-0.2884440422058105,-0.9345080256462096,48.00923156738281,96.05392456054688,-42.5570068359375
260409,-0.407440185546875,0.294891357421875,-0.14959716796875,0.5881332755088806,0.5393585562705994,-0.2239500135183334,47.02922058105469,95.60597229003906,-43.27621459960938
260410,-0.2687835693359375,0.41534423828125,-0.19268798828125,0.3080087006092072,0.7168942093849182,-0.0058485679328441,46.73164367675781,95.44981384277344,-43.58244323730469
260411,-0.1734771728515625,0.552734375,-0.1292724609375,0.1544026285409927,0.6171572208404541,0.0907783731818199,46.873779296875,95.1925811767578,-43.949951171875
260412,-0.1734771728515625,0.552734375,-0.1292724609375,0.1544026285409927,0.6171572208404541,0.0907783731818199,46.873779296875,95.1925811767578,-43.949951171875
260413,-0.00286865234375,0.6410980224609375,0.076202392578125,0.5490484833717346,0.214566633105278,0.4872402250766754,47.39962768554688,94.97444152832033,-44.0201416015625
260414,0.05902099609375,0.654693603515625,0.119140625,0.5490484833717346,0.214566633105278,0.4872402250766754,47.64895629882812,94.9437255859375,-43.97709655761719
260415,0.109527587890625,0.640045166015625,0.1492767333984375,0.6947532296180725,0.1065085977315903,0.6924508810043335,47.87654113769531,94.85606384277344,-44.06883239746094
260416,0.109527587890625,0.640045166015625,0.1492767333984375,0.6947532296180725,0.1065085977315903,0.6924508810043335,47.87654113769531,94.85606384277344,-44.06883239746094
260417,0.1019134521484375,0.68304443359375,0.2555694580078125,0.6788312196731567,-0.1945649534463882,0.7513887882232666,48.51173400878906,94.57704162597656,-44.29718017578125
260418,0.03662109375,0.8282470703125,0.3467559814453125,0.4984982013702393,-0.4897611737251282,0.367127925157547,48.89988708496094,94.37887573242188,-44.43183898925781
260419,-0.0674591064453125,0.9744415283203124,0.45123291015625,-0.1719238311052322,-1.542408585548401,-0.5886573791503906,49.2249755859375,94.1571807861328,-44.47360229492188
260420,-0.0674591064453125,0.9744415283203124,0.45123291015625,-0.1719238311052322,-1.542408585548401,-0.5886573791503906,49.2249755859375,94.1571807861328,-44.47360229492188
260421,-0.421051025390625,0.9072265625,0.7947235107421875,-0.6721144914627075,-1.803833842277527,-0.8264617323875427,49.12580871582031,93.57127380371094,-44.77032470703125
260422,-0.5045623779296875,0.8192596435546875,0.8990936279296875,-1.15845775604248,-1.91846776008606,-0.984927535057068,48.68977355957031,93.48391723632812,-44.73744201660156
260423,-0.557373046875,0.6913909912109375,0.9373016357421876,-1.482398271560669,-1.821352601051331,-1.055013656616211,48.06452941894531,93.56793212890624,-44.3861083984375
260424,-0.557373046875,0.6913909912109375,0.9373016357421876,-1.482398271560669,-1.821352601051331,-1.055013656616211,48.06452941894531,93.56793212890624,-44.3861083984375
260425,-0.4817047119140625,0.4344940185546875,0.6857147216796875,-1.585052728652954,-1.398392796516418,-0.8745280504226685,46.69761657714844,94.21592712402344,-43.21519470214844
260426,-0.4817047119140625,0.4344940185546875,0.6857147216796875,-1.585052728652954,-1.398392796516418,-0.8745280504226685,46.69761657714844,94.21592712402344,-43.21519470214844
260427,-0.322296142578125,0.2894439697265625,0.300384521484375,-1.564265489578247,-1.175966739654541,-0.6631473302841187,45.41264343261719,94.80130004882812,-41.99665832519531
260428,-0.2525787353515625,0.2399444580078125,0.148284912109375,-1.604910612106323,-1.187212467193604,-0.6199985146522522,44.77410888671875,95.27838134765624,-41.48249816894531
260429,-0.200408935546875,0.1970977783203125,0.0361175537109375,-1.660046339035034,-1.233157873153687,-0.6193961501121521,44.13154602050781,95.83322143554688,-40.77326965332031
260430,-0.17376708984375,0.1429901123046875,-0.003509521484375,-1.754818558692932,-1.138184666633606,-0.6297428011894226,43.45571899414062,96.26496887207033,-39.97929382324219
260431,-0.0395660400390625,-0.004974365234375,-0.848388671875,-2.050761938095093,-0.9943172931671144,-0.5735037326812744,42.75521850585938,96.8339385986328,-39.29826354980469
260432,-0.0395660400390625,-0.004974365234375,-0.848388671875,-2.050761938095093,-0.9943172931671144,-0.5735037326812744,42.75521850585938,96.8339385986328,-39.29826354980469
260433,0.2056732177734375,-0.0015106201171875,-0.7438507080078125,-1.200019001960754,-3.991024255752563,0.6655617952346802,41.51959228515625,97.734375,-37.39253234863281
260434,0.0827484130859375,0.149261474609375,0.0239715576171875,-0.2446219921112061,-2.193144798278809,0.7812715768814087,40.67570495605469,98.15275573730467,-36.30302429199219
260435,0.0929412841796875,0.107391357421875,0.0007781982421875,0.9853453636169434,-0.6907707452774048,0.7662606835365295,40.01097106933594,98.5652313232422,-35.38160705566406
260436,0.0992889404296875,0.0534210205078125,-0.0178985595703125,0.9853453636169434,-0.6907707452774048,0.7662606835365295,39.84779357910156,98.63909912109376,-34.84957885742188
260437,0.1055145263671875,0.0272064208984375,-0.0296783447265625,1.01104724407196,-0.6688196063041687,0.826153576374054,39.89561462402344,98.37457275390624,-34.85871887207031
260438,0.1055145263671875,0.0272064208984375,-0.0296783447265625,1.01104724407196,-0.6688196063041687,0.826153576374054,39.89561462402344,98.37457275390624,-34.85871887207031
260439,0.1345977783203125,0.03436279296875,-0.0769805908203125,0.3530334234237671,-1.302410125732422,1.050274014472961,40.06500244140625,98.03904724121094,-34.94561767578125
260440,0.3193511962890625,0.264434814453125,-0.527191162109375,-0.0174322538077831,-2.028707981109619,1.171522974967957,40.47090148925781,97.804443359375,-35.02037048339844
260441,0.42950439453125,0.6898651123046875,-1.021820068359375,-0.1394734680652618,-2.75258207321167,1.057764649391174,40.61726379394531,97.57283020019533,-34.63848876953125
260442,0.419708251953125,1.313858032226562,-1.52783203125,0.2755181193351746,-2.990783929824829,0.4977959394454956,40.58621215820312,97.65779113769533,-34.23309326171875
260443,0.346923828125,1.810684204101562,-1.634780883789062,1.976686596870422,0.5100504755973816,0.0253887139260768,40.35098266601562,97.77247619628906,-33.79206848144531
260444,0.346923828125,1.810684204101562,-1.634780883789062,1.976686596870422,0.5100504755973816,0.0253887139260768,40.35098266601562,97.77247619628906,-33.79206848144531
260445,0.1442108154296875,1.881454467773438,-0.427490234375,1.280192494392395,1.624981760978699,-0.0618476532399654,39.46461486816406,97.51568603515624,-33.70686340332031
260446,-0.0385284423828125,2.105697631835938,0.215667724609375,0.0754819735884666,1.918700456619263,-0.8299105167388916,39.27798461914062,97.09364318847656,-34.31806945800781
260447,-0.020477294921875,2.631378173828125,0.2165374755859375,-0.8649358749389648,1.218042016029358,-1.518530488014221,39.45549011230469,96.72689819335938,-34.98326110839844
260448,0.08807373046875,3.307144165039062,0.0266876220703125,-1.140608668327332,-0.2436728477478027,-1.433485627174377,39.66371154785156,96.38775634765624,-35.21249389648438
260449,0.167388916015625,3.807937622070312,-0.0549774169921875,-0.578605592250824,-1.669112801551819,-0.5783155560493469,39.59521484375,96.34945678710938,-35.22271728515625
260450,0.1943511962890625,3.728286743164062,0.206634521484375,0.3705841898918152,-2.060622692108154,0.9575321078300476,39.07850646972656,96.3420867919922,-34.91448974609375
260451,0.1714935302734375,3.06268310546875,0.340606689453125,1.179195046424866,-0.4904059171676636,2.032945871353149,38.49229431152344,96.58035278320312,-34.92814636230469
260452,0.1714935302734375,3.06268310546875,0.340606689453125,1.179195046424866,-0.4904059171676636,2.032945871353149,38.49229431152344,96.58035278320312,-34.92814636230469
260453,0.2569427490234375,2.63543701171875,-0.1969757080078125,1.75024139881134,0.711456835269928,2.048867225646973,38.20893859863281,96.90855407714844,-35.15571594238281
260454,-0.1260833740234375,2.714080810546875,0.0375823974609375,1.943570971488953,0.4582434594631195,0.3877005875110626,39.48345947265625,97.16159057617188,-36.11332702636719
260455,-0.3456268310546875,2.675704956054688,0.31048583984375,1.730060219764709,0.5511803030967712,-0.5543904900550842,40.27328491210938,96.9316864013672,-36.61004638671875
260456,-0.3456268310546875,2.675704956054688,0.31048583984375,1.730060219764709,0.5511803030967712,-0.5543904900550842,40.27328491210938,96.9316864013672,-36.61004638671875
260457,-0.4524078369140625,2.338363647460938,0.3621978759765625,1.172399401664734,0.8697460889816284,-1.645893454551697,40.95103454589844,96.3402099609375,-38.37966918945312
260458,-0.4805450439453125,1.906784057617188,0.2026519775390625,0.9411251544952391,0.7021892666816711,-1.659434080123901,40.82693481445312,95.91622924804688,-39.385009765625
260459,-0.5461883544921875,1.5345458984375,0.1742095947265625,0.9288618564605712,0.4646427631378174,-1.147451996803284,40.63395690917969,95.49856567382812,-40.58116149902344
260460,-0.648895263671875,1.186187744140625,0.2471923828125,0.9288618564605712,0.4646427631378174,-1.147451996803284,40.4134521484375,95.217529296875,-41.67791748046875
260461,-0.797943115234375,0.763763427734375,0.2218780517578125,0.916327953338623,0.5347965359687805,0.1227269843220711,40.12556457519531,94.87995910644533,-42.28094482421875
260462,-0.8961639404296875,0.401336669921875,0.1349029541015625,0.916327953338623,0.5347965359687805,0.1227269843220711,40.01014709472656,94.65608215332033,-42.75677490234375
260463,-0.813934326171875,0.2387237548828125,0.062164306640625,1.087355136871338,-0.10199373960495,0.8575445413589478,40.00872802734375,94.31599426269533,-43.36489868164062
260464,-0.698272705078125,0.225860595703125,0.1020660400390625,1.087355136871338,-0.10199373960495,0.8575445413589478,40.19760131835938,94.13508605957033,-43.80331420898438
260465,-0.6025238037109375,0.3321533203125,0.2368316650390625,1.129380822181702,-0.1384617388248444,0.7878813147544861,40.59149169921875,93.9787139892578,-44.19894409179688
260466,-0.6025238037109375,0.3321533203125,0.2368316650390625,1.129380822181702,-0.1384617388248444,0.7878813147544861,40.59149169921875,93.9787139892578,-44.19894409179688
260467,-0.278045654296875,0.9312591552734376,0.017608642578125,0.7078927159309387,-0.1919033974409103,0.0748049989342689,41.53614807128906,93.19691467285156,-45.37547302246094
260468,-0.278045654296875,0.9312591552734376,0.017608642578125,0.7078927159309387,-0.1919033974409103,0.0748049989342689,41.53614807128906,93.19691467285156,-45.37547302246094
260469,-0.185211181640625,0.9546356201171876,-0.0639495849609375,0.6750285029411316,-0.6186195611953735,-0.0798817798495292,41.6990966796875,92.979736328125,-45.62716674804688
260470,-0.1217041015625,0.8370819091796875,-0.0375518798828125,0.661468505859375,-1.013888597488403,-0.2181081026792526,41.62657165527344,92.64329528808594,-45.85366821289062
260471,-0.1152191162109375,0.6419677734375,0.0550384521484375,0.6451225280761719,-1.131194472312927,-0.3729221820831299,41.50909423828125,92.55740356445312,-46.0843505859375
260472,-0.1152191162109375,0.6419677734375,0.0550384521484375,0.6451225280761719,-1.131194472312927,-0.3729221820831299,41.50909423828125,92.55740356445312,-46.0843505859375
260473,-0.2050933837890625,0.2989654541015625,0.11285400390625,0.5147698521614075,-0.6288554072380066,-0.5670397281646729,40.55369567871094,92.03152465820312,-46.30662536621094
260474,-0.265869140625,0.2122344970703125,0.037139892578125,0.4588573276996613,-0.360508918762207,-0.4498220086097717,40.17689514160156,91.76852416992188,-46.38600158691406
260475,-0.294219970703125,0.225982666015625,-0.0107879638671875,0.3884114027023315,-0.1886002719402313,-0.2354601919651031,39.76350402832031,91.51824951171876,-46.55126953125
260476,-0.2539215087890625,0.3542022705078125,-0.0424346923828125,0.2563889026641846,-0.1397158205509186,-0.0758963599801063,39.50019836425781,91.37629699707033,-46.58607482910156
260477,-0.2031402587890625,0.499359130859375,-0.0544281005859375,0.0981217697262764,-0.2647874653339386,-0.0086576705798506,39.360595703125,91.18836975097656,-46.72938537597656
260478,-0.1633148193359375,0.6074981689453125,-0.0352020263671875,-0.0001486043911427,-0.5876898765563965,0.029534189030528,39.26371765136719,90.98193359375,-46.85951232910156
260479,-0.148284912109375,0.7084197998046875,0.0277557373046875,0.0904273688793182,-1.375588178634644,0.0618039779365062,39.15078735351562,90.97962951660156,-46.75819396972656
260480,-0.148284912109375,0.7084197998046875,0.0277557373046875,0.0904273688793182,-1.375588178634644,0.0618039779365062,39.15078735351562,90.97962951660156,-46.75819396972656
260481,-0.1728973388671875,0.9102325439453124,0.2774658203125,0.1771417558193207,-1.599488139152527,-0.0037795582320541,38.93312072753906,91.08370971679688,-46.505615234375
260482,-0.23492431640625,0.966400146484375,0.430908203125,0.1775529533624649,-1.651665091514587,-0.1772618591785431,38.62588500976562,91.14157104492188,-46.41036987304688
260483,-0.3390045166015625,0.9167022705078124,0.57379150390625,0.0668858215212822,-1.528157234191895,-0.3727522790431976,38.26817321777344,91.05876159667967,-46.20205688476562
260484,-0.4248199462890625,0.797607421875,0.6549224853515625,-0.1463604122400284,-1.279484033584595,-0.5430989861488342,37.83447265625,90.96954345703124,-45.99783325195312
260485,-0.4727783203125,0.6546173095703125,0.654296875,-0.413599044084549,-1.12105655670166,-0.6618013978004456,37.27238464355469,91.08314514160156,-45.85462951660156
260486,-0.5277099609375,0.527099609375,0.6236724853515625,-0.6774999499320984,-1.067169904708862,-0.7283913493156433,36.88494873046875,90.95457458496094,-45.67707824707031
260487,-0.568267822265625,0.4095611572265625,0.574554443359375,-0.9282445311546326,-1.05073070526123,-0.7453231811523438,36.42880249023438,90.969482421875,-45.31886291503906
260488,-0.568267822265625,0.4095611572265625,0.574554443359375,-0.9282445311546326,-1.05073070526123,-0.7453231811523438,36.42880249023438,90.969482421875,-45.31886291503906
260489,-0.5249786376953125,0.23223876953125,0.3814697265625,-1.404603362083435,-0.8776540756225586,-0.5644463300704956,35.52252197265625,91.11260986328124,-44.75401306152344
260490,-0.42510986328125,0.214385986328125,0.259307861328125,-2.086259365081787,-0.4322012066841125,-0.3962698578834534,34.92826843261719,91.45379638671876,-44.18348693847656
260491,-0.3047943115234375,0.2611541748046875,0.0917510986328125,-2.086259365081787,-0.4322012066841125,-0.3962698578834534,34.41708374023438,91.79483032226562,-43.50808715820312
260492,-0.3047943115234375,0.2611541748046875,0.0917510986328125,-2.086259365081787,-0.4322012066841125,-0.3962698578834534,34.41708374023438,91.79483032226562,-43.50808715820312
260493,-0.0805511474609375,0.1934356689453125,-0.7455291748046875,-2.32878565788269,-1.079421520233154,-0.4730959236621857,33.71884155273438,92.72306823730467,-41.84625244140625
260494,0.1407928466796875,0.0294189453125,-1.395156860351562,-1.691276669502258,-3.594997882843018,-0.0953595414757728,33.45164489746094,93.2645263671875,-40.90727233886719
260495,0.1680450439453125,0.042755126953125,-0.62261962890625,-1.691276669502258,-3.594997882843018,-0.0953595414757728,33.11843872070312,93.6385498046875,-39.67488098144531
260496,0.1205902099609375,0.1433258056640625,-0.04736328125,-1.005686640739441,-2.414605379104614,0.024792430922389,32.43020629882812,94.05796813964844,-38.31808471679688
260497,0.11199951171875,0.17864990234375,0.01690673828125,-0.3140125274658203,-1.390346169471741,0.1020414158701897,31.76992797851562,94.45086669921876,-36.80447387695312
260498,0.1072998046875,0.1754608154296875,-0.017303466796875,0.0820738300681114,-0.8292926549911499,0.2585141062736511,31.15304565429688,94.57951354980467,-35.52915954589844
260499,0.1108551025390625,0.18572998046875,-0.090362548828125,0.187148317694664,-0.700855016708374,0.489173948764801,30.91841125488281,94.57600402832033,-34.90313720703125
260500,0.1108551025390625,0.18572998046875,-0.090362548828125,0.187148317694664,-0.700855016708374,0.489173948764801,30.91841125488281,94.57600402832033,-34.90313720703125
260501,0.1507415771484375,0.30657958984375,-0.277496337890625,0.1529498696327209,-1.257991552352905,0.9200105667114258,31.00691223144531,94.36482238769533,-34.4134521484375
260502,0.2006683349609375,0.389739990234375,-0.3139495849609375,0.2226136326789856,-1.489211440086365,0.9693975448608398,31.06927490234375,94.42359924316406,-34.11811828613281
260503,0.2906494140625,0.454986572265625,-0.3172149658203125,0.2125170528888702,-1.149245619773865,1.053600072860718,31.08578491210938,94.59527587890624,-33.92445373535156
260504,0.3691253662109375,0.5370330810546875,-0.4561614990234375,0.2125170528888702,-1.149245619773865,1.053600072860718,30.95335388183594,94.67332458496094,-33.64222717285156
260505,0.3955078125,0.627410888671875,-0.462860107421875,0.4057261943817139,-1.430154800415039,1.13900625705719,30.96943664550781,94.77731323242188,-33.31692504882812
260506,0.414337158203125,0.7229766845703125,-0.355194091796875,0.5385023355484009,-1.56479275226593,1.192617297172546,31.11131286621094,94.83796691894533,-33.10943603515625
260507,0.4390106201171875,0.91552734375,-0.4296875,0.5828008651733398,-1.373391628265381,1.077606797218323,31.21524047851562,95.0788116455078,-32.947509765625
260508,0.4754180908203125,1.256057739257812,-0.7830810546875,0.5828008651733398,-1.373391628265381,1.077606797218323,31.28691101074219,95.23088073730467,-32.84999084472656
260509,0.44775390625,1.690780639648438,-1.114120483398438,0.6538308262825012,-0.8989505767822266,0.8905559778213501,31.408935546875,95.36842346191406,-32.54861450195312
260510,0.1712188720703125,1.967697143554688,-0.9648895263671876,0.7497733235359192,-0.2677848339080811,0.6042773723602295,31.53956604003906,95.36613464355467,-32.34359741210938
260511,-0.1403961181640625,2.000900268554688,-0.4329071044921875,0.4620842635631561,0.1746807247400284,-0.6259682774543762,31.57539367675781,95.5654754638672,-32.39820861816406
260512,-0.2437744140625,2.158187866210938,-0.179412841796875,0.4620842635631561,0.1746807247400284,-0.6259682774543762,31.72111511230469,95.5614776611328,-32.50750732421875
260513,-0.140899658203125,2.392791748046875,-0.1927490234375,0.3722271025180817,-0.2080898135900497,-1.034766674041748,31.67604064941406,95.59384155273438,-32.75930786132812
260514,-0.140899658203125,2.392791748046875,-0.1927490234375,0.3722271025180817,-0.2080898135900497,-1.034766674041748,31.67604064941406,95.59384155273438,-32.75930786132812
260515,0.1126556396484375,2.769027709960938,0.140625,0.6696805953979492,-0.4269880652427673,-0.0191300194710493,31.0177001953125,95.00604248046876,-33.62232971191406
260516,0.2029266357421875,2.910614013671875,0.1542205810546875,0.809555172920227,-0.0179640874266624,0.8913379311561584,30.75970458984375,94.75753784179688,-34.01498413085938
260517,0.245574951171875,2.768218994140625,0.0218963623046875,0.9569494128227234,0.3321388065814972,1.318878054618835,30.72056579589844,94.8450927734375,-34.64004516601562
260518,0.178436279296875,2.5576171875,-0.036773681640625,1.125629544258118,0.3987393975257874,1.354471445083618,31.13436889648438,95.03768920898438,-35.1982421875
260519,0.0475616455078125,2.441757202148438,0.209747314453125,1.278942584991455,0.5921933054924011,1.273159027099609,31.68962097167969,95.15443420410156,-35.77078247070312
260520,0.0475616455078125,2.441757202148438,0.209747314453125,1.278942584991455,0.5921933054924011,1.273159027099609,31.68962097167969,95.15443420410156,-35.77078247070312
260521,-0.3160552978515625,2.578170776367188,0.7798004150390625,1.377049803733826,1.591432929039001,0.9290578365325928,33.20265197753906,95.45809936523438,-37.11907958984375
260522,-0.5519256591796875,2.72125244140625,1.061904907226562,1.204625487327576,2.124415397644043,0.4026177525520325,34.0916748046875,95.33506774902344,-37.93807983398438
260523,-0.7286834716796875,2.626800537109375,1.14447021484375,0.8000391721725464,2.688877105712891,-0.1357892602682114,35.10482788085938,95.04470825195312,-38.75997924804688
260524,-0.820343017578125,2.353591918945312,0.937225341796875,0.329497218132019,2.907699108123779,-0.4797556698322296,35.95802307128906,94.72468566894533,-39.48483276367188
260525,-0.8648223876953125,1.953826904296875,0.6681060791015625,0.0689697489142417,2.624244213104248,-0.542816162109375,36.89202880859375,94.58137512207033,-40.11465454101562
260526,-0.8592376708984375,1.49560546875,0.4521331787109375,0.0643632784485817,1.905652284622192,-0.3167984485626221,37.55497741699219,94.52108764648438,-40.62577819824219
260527,-0.806182861328125,1.106842041015625,0.3364715576171875,0.1602546572685242,1.099236011505127,0.0034469293896108,38.1043701171875,94.65118408203124,-41.06532287597656
260528,-0.7029876708984375,0.8331146240234375,0.27008056640625,0.2795328497886658,0.3841519355773926,0.2699265480041504,38.50569152832031,94.73487854003906,-41.183837890625
260529,-0.5662689208984375,0.67681884765625,0.21441650390625,0.417151153087616,-0.2111274152994156,0.4003556668758392,38.77366638183594,94.78280639648438,-41.40653991699219
260530,-0.408721923828125,0.5617218017578125,0.0809783935546875,0.5442420244216919,-0.770412802696228,0.4194342792034149,39.022705078125,94.75173950195312,-41.48677062988281
260531,-0.249786376953125,0.50140380859375,-0.0935211181640625,0.6247738599777222,-1.536440968513489,0.3905099630355835,39.06060791015625,94.76626586914062,-41.69590759277344
260532,-0.15716552734375,0.540740966796875,0.0460052490234375,0.6156442761421204,-1.971801519393921,0.2763913869857788,38.8883056640625,94.64865112304688,-41.68473815917969
260533,-0.1133880615234375,0.6473388671875,0.212188720703125,0.5213190913200378,-1.801596999168396,0.1134301573038101,38.73239135742188,94.39976501464844,-41.70402526855469
260534,-0.07879638671875,0.8375244140625,0.118865966796875,0.4237174391746521,-1.549757838249207,-0.080782726407051,38.26739501953125,94.10458374023438,-41.66275024414062
260535,-0.0693359375,1.036575317382812,-0.2160797119140625,0.42853644490242,-1.803885817527771,-0.3995969295501709,37.86149597167969,93.8740692138672,-41.57453918457031
260536,-0.068023681640625,1.075180053710938,-0.5183563232421875,0.6385900974273682,-2.618887662887573,-0.756969690322876,37.33082580566406,93.49504089355467,-41.49317932128906
260537,-0.0450897216796875,0.919891357421875,-0.540069580078125,1.140032172203064,-3.2080979347229,-0.894070029258728,36.5804443359375,93.22373962402344,-41.47474670410156
260538,-0.0450897216796875,0.919891357421875,-0.540069580078125,1.140032172203064,-3.2080979347229,-0.894070029258728,36.5804443359375,93.22373962402344,-41.47474670410156
260539,-0.129119873046875,0.58270263671875,-0.4012298583984375,1.752969861030579,-1.908976435661316,-0.7339285612106323,35.5362548828125,92.78427124023438,-41.52714538574219
260540,-0.139495849609375,0.2672271728515625,-0.4311676025390625,1.633841276168823,-0.8553785681724548,-0.2573393881320953,33.96348571777344,91.37998962402344,-42.2386474609375
260541,-0.1191253662109375,0.1790924072265625,-0.2049407958984375,1.125272870063782,-0.9845549464225768,-0.1688766330480576,33.77961730957031,90.64666748046876,-42.72232055664062
260542,-0.104339599609375,0.1017303466796875,0.0078582763671875,0.7131657600402832,-0.9076132774353028,-0.1068148612976074,33.601806640625,90.15403747558594,-43.24867248535156
260543,-0.04461669921875,0.0526885986328125,0.0834197998046875,0.3665153980255127,-0.4543278217315674,0.0964160189032554,32.92269897460938,89.63523864746094,-43.50997924804688
260544,-0.04461669921875,0.0526885986328125,0.0834197998046875,0.3665153980255127,-0.4543278217315674,0.0964160189032554,32.92269897460938,89.63523864746094,-43.50997924804688
260545,-0.007049560546875,0.1407318115234375,0.02587890625,0.3174179196357727,-0.447221964597702,0.2687947154045105,32.69673156738281,89.67137145996094,-43.42489624023438
260546,0.042877197265625,0.42144775390625,0.0804290771484375,0.2595125436782837,-0.4284040927886963,0.4361754357814789,32.58238220214844,89.71659851074219,-43.51593017578125
260547,0.0672607421875,0.6966552734375,0.2096099853515625,0.1064393594861031,-0.226340189576149,0.5457988977432251,32.4512939453125,89.76028442382812,-43.48213195800781
260548,0.0494842529296875,0.9137420654296876,0.368438720703125,-0.1500089317560196,0.1465819776058197,0.6766999363899231,32.48905944824219,89.88180541992188,-43.47207641601562
260549,-0.0072784423828125,1.217880249023438,0.50701904296875,-0.5363649129867554,0.6487053036689758,0.7537760734558105,32.706787109375,90.05215454101562,-43.42137145996094
260550,-0.07708740234375,1.53900146484375,0.572509765625,-0.9841480255126952,1.024514555931091,0.651679515838623,33.13423156738281,90.21038818359376,-43.43228149414062
260551,-0.15167236328125,1.747177124023438,0.5536041259765625,-1.208292126655579,0.8068792223930359,0.3569322824478149,33.88241577148438,90.40530395507812,-43.21394348144531
260552,-0.313140869140625,1.738433837890625,0.5435028076171875,-1.053058385848999,0.0587650462985038,-0.0480673946440219,34.54144287109375,90.72962951660156,-42.85481262207031
260553,-0.4921112060546875,1.446685791015625,0.5761566162109375,-0.635246217250824,-0.943611204624176,-0.3775941729545593,35.103759765625,90.99765014648438,-42.39045715332031
260554,-0.4921112060546875,1.446685791015625,0.5761566162109375,-0.635246217250824,-0.943611204624176,-0.3775941729545593,35.103759765625,90.99765014648438,-42.39045715332031
260555,-0.49078369140625,1.147598266601562,0.5017852783203125,-0.6567959785461426,-1.103824853897095,-0.4754070043563843,35.36286926269531,91.26730346679688,-41.92626953125
260556,-0.434844970703125,0.8208770751953125,0.4084320068359375,-0.7514388561248779,-1.053357481956482,-0.6011657118797302,35.30499267578125,91.801025390625,-40.91183471679688
260557,-0.406005859375,0.6693267822265625,0.3481597900390625,-0.8723239898681641,-0.9289411902427672,-0.6793636083602905,34.99896240234375,92.26019287109376,-40.45472717285156
260558,-0.402374267578125,0.548309326171875,0.31005859375,-0.9803426265716552,-0.7088634371757507,-0.7104597091674805,34.72093200683594,92.66690063476562,-40.14607238769531
260559,-0.4831390380859375,0.2032012939453125,0.2030487060546875,-1.025473356246948,0.2762361168861389,-0.3923677802085876,34.31790161132812,93.78434753417967,-39.48698425292969
260560,-0.4831390380859375,0.2032012939453125,0.2030487060546875,-1.025473356246948,0.2762361168861389,-0.3923677802085876,34.31790161132812,93.78434753417967,-39.48698425292969
260561,-0.3963775634765625,0.08624267578125,0.0142822265625,-0.9190766215324402,0.653266191482544,-0.1594703495502472,34.15382385253906,94.21299743652344,-39.08819580078125
260562,-0.216583251953125,0.020111083984375,-0.3347015380859375,-0.345191478729248,-0.6086865067481995,0.1495146602392197,34.01524353027344,94.54405212402344,-38.70765686035156
260563,-0.216583251953125,0.020111083984375,-0.3347015380859375,-0.345191478729248,-0.6086865067481995,0.1495146602392197,34.01524353027344,94.54405212402344,-38.70765686035156
260564,0.031158447265625,-0.012786865234375,-0.304443359375,-0.0614969171583652,-1.339255809783936,0.2764395773410797,33.65925598144531,95.01614379882812,-38.3128662109375
260565,0.0554046630859375,-0.00628662109375,-0.15008544921875,0.0518000796437263,-1.723751783370972,0.3555804789066315,33.18377685546875,94.9135284423828,-37.97200012207031
260566,0.0844573974609375,-0.030120849609375,-0.131622314453125,0.0320516750216484,-2.041384935379028,0.417041689157486,32.76820373535156,94.73667907714844,-37.86114501953125
260567,0.115936279296875,-0.0604705810546875,-0.1690216064453125,-0.0118601210415363,-2.451937198638916,0.4884823262691498,32.4189453125,94.39390563964844,-37.46844482421875
260568,0.115936279296875,-0.0604705810546875,-0.1690216064453125,-0.0118601210415363,-2.451937198638916,0.4884823262691498,32.4189453125,94.39390563964844,-37.46844482421875
260569,0.16046142578125,-0.059661865234375,-0.1806640625,0.0576731488108634,-3.358516454696655,0.6359735131263733,31.58718872070312,93.78065490722656,-36.47442626953125
260570,0.2063446044921875,-0.0462646484375,-0.15460205078125,0.1047650277614594,-3.65843391418457,0.7127841114997864,31.00080871582031,93.50831604003906,-35.8072509765625
260571,0.2063446044921875,-0.0462646484375,-0.15460205078125,0.1047650277614594,-3.65843391418457,0.7127841114997864,31.00080871582031,93.50831604003906,-35.8072509765625
260572,0.3177337646484375,-0.022430419921875,-0.0112152099609375,0.0217750705778598,-3.165168762207031,0.7607724666595459,30.27366638183594,93.57882690429688,-34.99966430664062
260573,0.472930908203125,0.1441650390625,-0.3554840087890625,-0.4236055910587311,-0.6923614144325256,0.8421400189399719,28.92765808105469,93.91667175292967,-33.07978820800781
260574,0.42095947265625,0.481903076171875,-0.591766357421875,-0.1925944834947586,-0.6839202642440796,0.8636564612388611,28.73695373535156,94.01947021484376,-32.00497436523438
260575,0.3401031494140625,0.9933319091796876,-0.991790771484375,0.3429094254970551,-1.196151375770569,0.5309730768203735,28.840087890625,93.88565063476562,-31.3359375
260576,0.3401031494140625,0.9933319091796876,-0.991790771484375,0.3429094254970551,-1.196151375770569,0.5309730768203735,28.840087890625,93.88565063476562,-31.3359375
260577,0.4493255615234375,1.886764526367188,-0.9525909423828124,1.723558664321899,-0.6239269971847534,-0.2920414507389069,28.71963500976562,93.84686279296876,-30.64312744140625
260578,0.3812408447265625,2.110275268554688,-0.653961181640625,1.38757860660553,0.8713125586509705,-0.2003852874040604,28.32969665527344,93.60929870605467,-30.68692016601562
260579,0.1538543701171875,2.353591918945312,-0.7848052978515625,0.6221392154693604,0.6186296939849854,-0.5034183859825134,27.97906494140625,93.35035705566406,-31.11320495605469
260580,0.1538543701171875,2.353591918945312,-0.7848052978515625,0.6221392154693604,0.6186296939849854,-0.5034183859825134,27.97906494140625,93.35035705566406,-31.11320495605469
260581,0.0447235107421875,2.925949096679688,-1.483169555664062,0.8348088264465332,-3.374634981155396,-1.652840852737427,27.79544067382812,92.59185791015624,-32.13252258300781
260582,-0.2884674072265625,2.251266479492188,-0.9827880859375,1.126200437545776,-1.528098344802856,-0.5932353734970093,27.13575744628906,92.03683471679688,-31.96565246582031
260583,-0.351165771484375,1.406875610351562,-0.880615234375,0.8445125818252563,1.101184606552124,1.619735598564148,26.23570251464844,91.5709228515625,-32.05523681640625
260584,-0.351165771484375,1.406875610351562,-0.880615234375,0.8445125818252563,1.101184606552124,1.619735598564148,26.23570251464844,91.5709228515625,-32.05523681640625
260585,0.4857940673828125,1.914764404296875,-0.8685150146484375,0.5075020790100098,0.2001927495002747,1.493900418281555,26.14274597167969,91.34262084960938,-32.90542602539062
260586,0.453033447265625,2.112945556640625,-0.721923828125,0.6475872993469238,-0.6034475564956665,1.037054657936096,26.88594055175781,91.5268096923828,-33.41639709472656
260587,0.228057861328125,2.203857421875,-0.53857421875,1.052186489105225,-0.6206643581390381,0.6645364761352539,27.51632690429688,91.72943115234376,-33.70140075683594
260588,0.228057861328125,2.203857421875,-0.53857421875,1.052186489105225,-0.6206643581390381,0.6645364761352539,27.51632690429688,91.72943115234376,-33.70140075683594
260589,-0.212188720703125,2.358291625976562,-0.4678192138671875,1.371297836303711,-0.0645422413945198,-0.0687971711158752,27.8685302734375,92.10348510742188,-34.23825073242188
260590,-0.212188720703125,2.358291625976562,-0.4678192138671875,1.371297836303711,-0.0645422413945198,-0.0687971711158752,27.8685302734375,92.10348510742188,-34.23825073242188
260591,-0.4602813720703125,2.233474731445312,-0.3368988037109375,1.072908997535706,0.3247346878051758,-0.9423220157623292,27.88465881347656,91.96627807617188,-35.54862976074219
260592,-0.562713623046875,2.052749633789062,-0.2893829345703125,0.8787329196929932,0.551045298576355,-1.234796762466431,27.70903015136719,91.73020935058594,-36.14567565917969
260593,-0.62628173828125,1.87261962890625,-0.1388092041015625,0.7141000032424927,0.6273486018180847,-1.436541080474854,27.51736450195312,91.43692016601562,-36.56285095214844
260594,-0.62628173828125,1.87261962890625,-0.1388092041015625,0.7141000032424927,0.6273486018180847,-1.436541080474854,27.51736450195312,91.43692016601562,-36.56285095214844
260595,-0.82843017578125,1.50201416015625,0.385833740234375,0.2725247442722321,1.563124299049377,-1.434278130531311,27.22622680664062,90.69647216796876,-37.9176025390625
260596,-1.054275512695312,1.240966796875,0.3171539306640625,0.1674478501081467,2.063568115234375,-1.022386193275452,27.10252380371094,90.33120727539062,-38.6429443359375
260597,-1.285888671875,0.8982086181640625,0.269378662109375,0.4682827889919281,2.168663740158081,-0.0467448681592941,27.25421142578125,89.83486938476562,-39.47373962402344
260598,-1.102783203125,0.7935638427734375,0.2050628662109375,1.00732684135437,1.816763162612915,0.7603617906570435,27.69660949707031,89.70988464355469,-40.32077026367188
260599,-0.6207275390625,0.92974853515625,0.2614288330078125,1.307973742485046,1.360354900360107,0.7475346922874451,28.43649291992188,89.48367309570312,-41.17242431640625
260600,-0.361846923828125,0.9653167724609376,0.412078857421875,1.254840970039368,1.156864643096924,0.7163567543029785,29.06886291503906,89.42356872558594,-41.98707580566406
260601,-0.2549285888671875,0.9778900146484376,0.481842041015625,0.8147121071815491,1.537201642990112,0.5753431916236877,29.60198974609375,89.30433654785156,-42.77188110351562
260602,-0.2549285888671875,0.9778900146484376,0.481842041015625,0.8147121071815491,1.537201642990112,0.5753431916236877,29.60198974609375,89.30433654785156,-42.77188110351562
260603,-0.155517578125,0.982513427734375,0.4040985107421875,0.5921519994735718,1.385141491889954,0.513538658618927,30.03643798828125,89.23365783691406,-43.45819091796875
260604,-0.085845947265625,0.9468231201171876,0.2789306640625,0.3947933912277222,0.929335594177246,0.4347266852855682,30.58460998535156,89.11485290527344,-44.19580078125
260605,-0.0217742919921875,0.80523681640625,-0.0186920166015625,0.2602978944778442,0.166504830121994,0.2823054492473602,31.61448669433594,89.00970458984375,-45.07820129394531
260606,-0.0217742919921875,0.80523681640625,-0.0186920166015625,0.2602978944778442,0.166504830121994,0.2823054492473602,31.61448669433594,89.00970458984375,-45.07820129394531
260607,-0.0406036376953125,0.583251953125,-0.088348388671875,0.0962607562541961,-1.542311906814575,-0.229231059551239,32.194580078125,88.82270812988281,-45.41677856445312
260608,-0.0630950927734375,0.474212646484375,-0.0306396484375,0.0001257012045243,-2.025219678878784,-0.413748174905777,32.08934020996094,88.64488220214844,-45.34040832519531
260609,-0.1022186279296875,0.42816162109375,0.003204345703125,-0.1257645785808563,-2.233911752700806,-0.4449407160282135,31.75074768066406,88.37419128417969,-44.91957092285156
260610,-0.168365478515625,0.427215576171875,0.0362091064453125,-0.2915458381175995,-2.186676979064941,-0.4244354367256165,31.15809631347656,88.18876647949219,-44.55302429199219
260611,-0.2461395263671875,0.4127044677734375,0.0894317626953125,-0.5265141129493713,-1.8338623046875,-0.372807651758194,30.34678649902344,88.19442749023438,-44.18582153320312
260612,-0.32305908203125,0.4097747802734375,0.1331634521484375,-0.7552799582481384,-1.291614174842834,-0.2863374948501587,29.52943420410156,88.33137512207031,-43.81169128417969
260613,-0.3814849853515625,0.4674072265625,0.208282470703125,-0.9205439686775208,0.0738537162542343,-0.1458751857280731,28.93548583984375,88.40586853027344,-43.24766540527344
260614,-0.36114501953125,0.576385498046875,0.287689208984375,-0.9205439686775208,0.0738537162542343,-0.1458751857280731,28.43998718261719,88.45040893554688,-42.61537170410156
260615,-0.2994842529296875,0.6699981689453125,0.33453369140625,-0.773994505405426,1.075032949447632,-0.0569727383553981,28.35890197753906,88.5921630859375,-42.00071716308594
260616,-0.2994842529296875,0.6699981689453125,0.33453369140625,-0.773994505405426,1.075032949447632,-0.0569727383553981,28.35890197753906,88.5921630859375,-42.00071716308594
260617,-0.28448486328125,0.76953125,0.42669677734375,-0.6836305260658264,1.336273789405823,-0.0490940436720848,28.57113647460938,88.87678527832031,-41.25285339355469
260618,-0.3604736328125,0.790435791015625,0.42498779296875,-0.568976879119873,1.339095711708069,-0.1098663136363029,28.82322692871094,89.18063354492188,-41.22126770019531
260619,-0.4463043212890625,0.77606201171875,0.42071533203125,-0.4966446459293365,1.125035047531128,-0.2140728831291199,29.08761596679688,89.37977600097656,-41.26383972167969
260620,-0.4463043212890625,0.77606201171875,0.42071533203125,-0.4966446459293365,1.125035047531128,-0.2140728831291199,29.08761596679688,89.37977600097656,-41.26383972167969
260621,-0.5221710205078125,0.690643310546875,0.3659515380859375,-0.7378641963005066,0.4799631536006927,-0.5472756028175354,29.83468627929688,89.74700927734375,-41.3555908203125
260622,-0.5287322998046875,0.612884521484375,0.3072509765625,-1.021012306213379,0.1930011510848999,-0.6810064911842346,29.87593078613281,89.97148132324219,-41.30746459960938
260623,-0.4927520751953125,0.501983642578125,0.2281646728515625,-1.314681172370911,-0.0147826746106147,-0.720797598361969,29.73110961914062,90.32870483398438,-41.447021484375
260624,-0.382568359375,0.410400390625,0.0867156982421875,-1.544029712677002,-0.2842043042182922,-0.6890931725502014,29.47747802734375,90.53907775878906,-41.22518920898438
260625,-0.2144927978515625,0.396759033203125,-0.1437225341796875,-1.69081723690033,-0.8408241271972656,-0.7114882469177246,29.25144958496094,90.72677612304688,-40.74917602539062
260626,-0.2144927978515625,0.396759033203125,-0.1437225341796875,-1.69081723690033,-0.8408241271972656,-0.7114882469177246,29.25144958496094,90.72677612304688,-40.74917602539062
260627,-0.0169830322265625,0.25634765625,-0.0706787109375,-1.591850161552429,-1.644835948944092,-0.4613566994667053,28.41343688964844,91.42153930664062,-39.37052917480469
260628,0.034393310546875,0.165496826171875,-0.0026397705078125,-1.591850161552429,-1.644835948944092,-0.4613566994667053,27.83573913574219,91.66256713867188,-38.48281860351562
260629,0.0752105712890625,0.0915985107421875,-0.1092987060546875,-1.401267170906067,-1.47110915184021,-0.2425407320261002,27.12550354003906,91.83192443847656,-37.425048828125
260630,0.0944366455078125,0.0271453857421875,-0.2002410888671875,-1.141459345817566,-1.542850375175476,-0.019193135201931,26.62774658203125,91.96156311035156,-36.33712768554688
260631,0.13043212890625,-0.0261993408203125,-0.1658782958984375,-0.8474498391151428,-1.76158595085144,0.3441643118858337,25.82022094726562,92.09414672851562,-34.35905456542969
260632,0.13043212890625,-0.0261993408203125,-0.1658782958984375,-0.8474498391151428,-1.76158595085144,0.3441643118858337,25.82022094726562,92.09414672851562,-34.35905456542969
260633,0.2139892578125,-0.0230560302734375,-0.245513916015625,-1.295098900794983,-1.098712682723999,0.4143814742565155,25.52297973632812,92.10525512695312,-33.42596435546875
260634,0.2780609130859375,0.083984375,-0.6134490966796875,-1.41024923324585,-1.107658267021179,0.5198708772659302,25.19732666015625,92.29995727539062,-32.57496643066406
260635,0.2470855712890625,0.2457122802734375,-0.5771636962890625,-1.192743539810181,-1.335553169250488,0.5903679728507996,25.00357055664062,92.5201416015625,-31.72055053710938
260636,0.2470855712890625,0.2457122802734375,-0.5771636962890625,-1.192743539810181,-1.335553169250488,0.5903679728507996,25.00357055664062,92.5201416015625,-31.72055053710938
260637,0.176483154296875,0.5671234130859375,-0.4544677734375,-0.7408682107925415,-1.236437201499939,0.6141917705535889,24.74369812011719,93.23143005371094,-29.953857421875
260638,0.1810760498046875,0.7248992919921875,-0.4145965576171875,-0.5631536245346069,-1.148136377334595,0.6157311201095581,24.72560119628906,93.46955871582033,-29.07705688476562
260639,0.1810760498046875,0.7248992919921875,-0.4145965576171875,-0.5631536245346069,-1.148136377334595,0.6157311201095581,24.72560119628906,93.46955871582033,-29.07705688476562
260640,0.2182769775390625,0.9371490478515624,-0.3835296630859375,-0.3755054473876953,-0.8324229121208191,0.5167536735534668,24.71339416503906,93.70570373535156,-27.70008850097656
260641,0.206573486328125,0.982025146484375,-0.40802001953125,-0.3251948654651642,-0.743509829044342,0.4262684881687164,24.66656494140625,94.03225708007812,-27.197265625
260642,0.113189697265625,1.193145751953125,-0.4858551025390625,-0.2562280595302582,-0.5558400750160217,0.5046958923339844,24.80424499511719,94.35581970214844,-26.29168701171875
260643,0.113189697265625,1.193145751953125,-0.4858551025390625,-0.2562280595302582,-0.5558400750160217,0.5046958923339844,24.80424499511719,94.35581970214844,-26.29168701171875
260644,0.084442138671875,1.466705322265625,-0.5079193115234375,-0.1585558205842972,-0.3119557499885559,0.5907208323478699,24.85224914550781,94.58015441894533,-25.83976745605469
260645,0.042083740234375,1.7764892578125,-0.4336395263671875,-0.00716124009341,0.0476982817053794,0.6429110765457153,25.01420593261719,94.57652282714844,-25.46366882324219
260646,0.0140380859375,1.981292724609375,-0.2240447998046875,0.2451985776424408,0.3061255812644958,0.5991848707199097,25.09521484375,94.78526306152344,-25.20980834960938
260647,-0.084716796875,2.071701049804688,-0.03936767578125,1.109355449676514,0.3430905044078827,0.1626650840044022,25.36994934082031,94.9192352294922,-25.03196716308594
260648,-0.084716796875,2.071701049804688,-0.03936767578125,1.109355449676514,0.3430905044078827,0.1626650840044022,25.36994934082031,94.9192352294922,-25.03196716308594
260649,-0.1619110107421875,2.266036987304688,-0.3607177734375,1.498441696166992,0.118667259812355,0.0906249731779098,25.89601135253906,94.95899963378906,-25.61801147460938
260650,-0.1619110107421875,2.266036987304688,-0.3607177734375,1.498441696166992,0.118667259812355,0.0906249731779098,25.89601135253906,94.95899963378906,-25.61801147460938
260651,0.1767120361328125,1.867691040039062,-0.5196380615234375,1.437443017959595,0.843343198299408,0.9534897208213806,26.09165954589844,94.61761474609376,-26.85139465332031
260652,0.357513427734375,1.805023193359375,-0.4674072265625,1.077088117599487,1.104775071144104,1.162891626358032,26.24520874023438,94.4843292236328,-27.62190246582031
260653,0.23388671875,2.11468505859375,-0.3346710205078125,0.7421060800552368,0.644210696220398,1.165083408355713,26.65524291992188,94.41007995605467,-28.519287109375
260654,0.23388671875,2.11468505859375,-0.3346710205078125,0.7421060800552368,0.644210696220398,1.165083408355713,26.65524291992188,94.41007995605467,-28.519287109375
260655,0.0161590576171875,2.481002807617188,-0.29046630859375,0.7421060800552368,0.644210696220398,1.165083408355713,27.15872192382812,94.3998565673828,-29.15103149414062
260656,-0.4967803955078125,3.0958251953125,0.1815338134765625,1.238327264785767,0.685682475566864,0.3112875819206238,28.38894653320312,94.92117309570312,-30.33470153808594
260657,-0.65338134765625,3.31390380859375,0.4000091552734375,1.470141053199768,1.445913195610046,-0.3224843144416809,28.76531982421875,95.26036071777344,-30.81275939941406
260658,-0.738128662109375,3.365707397460938,0.316680908203125,1.515170097351074,2.018176555633545,-0.960576355457306,28.92851257324219,95.447265625,-31.50807189941406
260659,-0.775146484375,2.916229248046875,0.05792236328125,1.337351083755493,1.912886500358582,-1.341677069664001,29.07432556152344,95.39971923828124,-32.75775146484375
260660,-0.8322906494140625,2.172531127929688,0.0111541748046875,1.063865423202515,1.534650802612305,-1.311836957931519,29.168701171875,95.24249267578124,-34.05255126953125
260661,-0.97802734375,1.592330932617188,0.1602325439453125,0.7876279950141907,1.535553097724915,-0.9984790086746216,29.13966369628906,94.90298461914062,-35.25419616699219
260662,-1.145599365234375,1.118011474609375,0.2607879638671875,0.6060361266136169,1.794933557510376,-0.4202372431755066,29.22181701660156,94.5181884765625,-36.28251647949219
260663,-1.1820068359375,0.709503173828125,0.1424560546875,0.6177865266799927,1.835254311561584,0.309888631105423,29.35955810546875,94.15618896484376,-37.30032348632812
260664,-0.9837493896484376,0.539703369140625,-0.09063720703125,0.8333965539932251,1.100942015647888,0.6125898957252502,29.75416564941406,93.97186279296876,-38.07406616210938
260665,-0.7754669189453125,0.4870452880859375,-0.0606536865234375,1.075334072113037,0.2123966813087463,0.5955600738525391,30.38375854492188,93.97332763671876,-38.73213195800781
260666,-0.577239990234375,0.451202392578125,0.0471343994140625,1.103290677070618,-0.15606789290905,0.4935838878154755,30.98611450195312,93.69285583496094,-39.14772033691406
260667,-0.33966064453125,0.4569854736328125,0.0099334716796875,0.9835967421531676,-0.26091068983078,0.3447169065475464,31.40591430664062,93.52908325195312,-39.66787719726562
260668,-0.14007568359375,0.5433502197265625,0.0318756103515625,0.8343837857246399,-0.2275583297014236,0.1811799108982086,31.59172058105469,93.37736511230467,-39.95765686035156
260669,-0.0295867919921875,0.7228851318359375,0.1293792724609375,0.7536522150039673,0.0573405213654041,0.0199236404150724,31.62709045410156,93.24032592773438,-40.36659240722656
260670,-0.0295867919921875,0.7228851318359375,0.1293792724609375,0.7536522150039673,0.0573405213654041,0.0199236404150724,31.62709045410156,93.24032592773438,-40.36659240722656
260671,0.0898590087890625,0.9734344482421876,-0.0164337158203125,0.6039833426475525,0.1784829199314117,0.1634789407253265,31.75906372070312,92.60267639160156,-40.86798095703125
260672,0.102783203125,1.0130615234375,-0.13677978515625,0.6039833426475525,0.1784829199314117,0.1634789407253265,31.71011352539062,92.30181884765624,-41.17469787597656
260673,0.080535888671875,0.9420013427734376,-0.1105194091796875,0.5107122659683228,-0.2128520905971527,0.1223070025444031,31.66603088378906,92.0339813232422,-41.46229553222656
260674,0.0568084716796875,0.77398681640625,-0.020782470703125,0.3998672366142273,-0.4275870323181152,0.0130745228379964,31.55354309082031,91.9219207763672,-41.80914306640625
260675,-0.0098724365234375,0.584716796875,0.0504913330078125,0.2771298587322235,-0.4678660035133362,-0.110727846622467,31.4932861328125,91.89459228515624,-42.10308837890625
260676,-0.133544921875,0.456451416015625,0.0890960693359375,0.1671272069215775,-0.3428260684013367,-0.2305503934621811,31.48860168457031,91.82858276367188,-42.09049987792969
260677,-0.256103515625,0.411102294921875,0.112518310546875,0.069008894264698,-0.042796466499567,-0.3318160176277161,31.43768310546875,91.74943542480467,-42.11311340332031
260678,-0.3371429443359375,0.361480712890625,0.10626220703125,-0.0751354992389679,0.291549026966095,-0.4413049519062042,31.388916015625,91.57791137695312,-41.89700317382812
260679,-0.394287109375,0.3208160400390625,0.118377685546875,-0.3003129661083221,0.5952058434486389,-0.537733256816864,31.20454406738281,91.62258911132812,-42.02946472167969
260680,-0.41748046875,0.296661376953125,0.1396026611328125,-0.5904891490936279,0.8342903256416321,-0.6038499474525452,31.23155212402344,91.6838836669922,-42.04106140136719
260681,-0.4186553955078125,0.2852325439453125,0.167144775390625,-0.8105290532112122,0.9337005615234376,-0.6509101390838623,31.32014465332031,91.63926696777344,-41.83021545410156
260682,-0.442047119140625,0.3117828369140625,0.1954193115234375,-0.7594943642616272,0.7725422978401184,-0.6173420548439026,31.39401245117188,91.65447998046876,-41.7183837890625
260683,-0.459869384765625,0.403717041015625,0.2122802734375,-0.4995312392711639,0.4262711405754089,-0.5408629775047302,31.52825927734375,91.80177307128906,-41.44537353515625
260684,-0.4592742919921875,0.5095367431640625,0.2462005615234375,-0.2188993245363235,-0.0016690030461177,-0.4932179749011993,31.551513671875,91.82464599609376,-41.38995361328125
260685,-0.4492950439453125,0.61016845703125,0.32257080078125,-0.0852762833237648,-0.3590992987155914,-0.5673907399177551,31.39137268066406,92.03167724609376,-41.2681884765625
260686,-0.4492950439453125,0.61016845703125,0.32257080078125,-0.0852762833237648,-0.3590992987155914,-0.5673907399177551,31.39137268066406,92.03167724609376,-41.2681884765625
260687,-0.4485931396484375,0.6138458251953125,0.4772796630859375,-0.3652719855308533,-0.6262244582176208,-0.9606000781059264,30.61672973632812,92.1571044921875,-41.18618774414062
260688,-0.4318389892578125,0.4965362548828125,0.49847412109375,-0.6594418287277222,-0.6393906474113464,-1.103518605232239,30.13204956054688,92.16336059570312,-41.01138305664062
260689,-0.3899688720703125,0.3762664794921875,0.45513916015625,-0.960433065891266,-0.727077305316925,-1.157032132148743,29.71044921875,92.13201904296876,-40.63328552246094
260690,-0.344818115234375,0.277923583984375,0.392120361328125,-1.223209619522095,-0.936649203300476,-1.147971868515015,29.16944885253906,92.04815673828124,-40.13511657714844
260691,-0.2708587646484375,0.2137603759765625,0.307586669921875,-1.407155156135559,-1.268807172775269,-1.063329935073853,28.70613098144531,91.8519287109375,-39.59121704101562
260692,-0.2708587646484375,0.2137603759765625,0.307586669921875,-1.407155156135559,-1.268807172775269,-1.063329935073853,28.70613098144531,91.8519287109375,-39.59121704101562
260693,-0.163482666015625,0.2192535400390625,0.16845703125,-1.708885788917542,-2.007700681686401,-0.9258719086647034,27.69082641601562,91.66201782226562,-38.028564453125
260694,-0.112579345703125,0.22076416015625,0.11883544921875,-1.908717632293701,-2.322598457336426,-0.8780484795570374,27.21372985839844,91.54928588867188,-36.97198486328125
260695,-0.0725860595703125,0.222991943359375,0.099090576171875,-2.125002861022949,-2.553965091705322,-0.8304479122161865,26.56967163085938,91.4333038330078,-35.75767517089844
260696,-0.0438385009765625,0.2344970703125,0.1529998779296875,-2.427627325057983,-2.465980529785156,-0.762789785861969,25.97941589355469,91.27944946289062,-34.30464172363281
260697,0.010467529296875,0.218170166015625,0.21099853515625,-2.802994251251221,-1.893435835838318,-0.5511307716369629,25.31678771972656,91.47315979003906,-32.83132934570312
260698,0.1082916259765625,0.171295166015625,-0.08294677734375,-2.965310335159302,-1.261419534683228,-0.1342406272888184,24.48294067382812,91.68482971191406,-31.21337890625
260699,0.382781982421875,0.17535400390625,-1.791976928710938,-2.054335594177246,-3.370927095413208,0.4721425175666809,23.64903259277344,92.2197265625,-29.64973449707031
260700,0.382781982421875,0.17535400390625,-1.791976928710938,-2.054335594177246,-3.370927095413208,0.4721425175666809,23.64903259277344,92.2197265625,-29.64973449707031
260701,0.2261810302734375,0.3016510009765625,-0.144744873046875,-0.2586105167865753,-0.0291621461510658,0.1689080595970154,22.43359375,93.3781280517578,-26.02810668945312
260702,0.2261810302734375,0.3016510009765625,-0.144744873046875,-0.2586105167865753,-0.0291621461510658,0.1689080595970154,22.43359375,93.3781280517578,-26.02810668945312
260703,0.2078094482421875,0.21844482421875,-0.339263916015625,-0.2586105167865753,-0.0291621461510658,0.1689080595970154,22.15275573730469,93.59158325195312,-24.56462097167969
260704,0.17816162109375,0.1468963623046875,-0.108673095703125,0.1435382515192032,0.7314878106117249,0.2996258735656738,22.13005065917969,93.7218017578125,-23.83154296875
260705,0.16534423828125,0.27801513671875,-0.2315826416015625,-0.3391503691673279,-0.0167073402553796,0.4951056241989136,22.53323364257812,93.54289245605467,-23.5570068359375
260706,0.16534423828125,0.27801513671875,-0.2315826416015625,-0.3391503691673279,-0.0167073402553796,0.4951056241989136,22.53323364257812,93.54289245605467,-23.5570068359375
260707,0.107086181640625,0.622802734375,-0.5668792724609375,-0.4636446237564087,-0.6364278793334961,0.4661006033420563,22.98835754394531,93.49073791503906,-23.57508850097656
260708,0.075927734375,0.779449462890625,-0.522705078125,-0.3218536674976349,-0.8858669996261597,0.4955391883850098,23.02777099609375,93.67967224121094,-23.29280090332031
260709,0.0435791015625,0.9510955810546876,-0.44744873046875,0.0593456141650676,-0.8008785843849182,0.5755091309547424,23.11439514160156,93.86366271972656,-23.07929992675781
260710,0.035552978515625,1.109344482421875,-0.3197784423828125,0.484802633523941,-0.4346470534801483,0.6696729063987732,23.05499267578125,94.0831298828125,-22.82034301757812
260711,0.048065185546875,1.233016967773438,-0.231964111328125,0.7872464060783386,0.0642354413866996,0.787007212638855,23.17506408691406,94.23513793945312,-22.71064758300781
260712,0.036651611328125,1.401718139648438,-0.258758544921875,0.9905726313591005,0.372882217168808,0.8380253911018372,23.43049621582031,94.31344604492188,-22.87982177734375
260713,0.0303802490234375,1.62774658203125,-0.327178955078125,1.131136655807495,0.3576449453830719,0.803661048412323,23.70770263671875,94.41845703125,-23.18084716796875
260714,0.0303802490234375,1.62774658203125,-0.327178955078125,1.131136655807495,0.3576449453830719,0.803661048412323,23.70770263671875,94.41845703125,-23.18084716796875
260715,-0.083953857421875,2.086212158203125,-0.074127197265625,0.9925177693367004,0.4259832799434662,0.559334397315979,24.19384765625,94.55508422851562,-24.16001892089844
260716,-0.13897705078125,2.316970825195312,0.286773681640625,0.6570372581481934,0.8203534483909607,0.3650267124176025,24.39007568359375,94.55638122558594,-24.77543640136719
260717,-0.1612396240234375,2.697219848632812,0.4880828857421875,0.3410726487636566,1.258538842201233,0.2935858070850372,24.61073303222656,94.61143493652344,-25.42878723144531
260718,-0.2316436767578125,3.301116943359375,0.5046539306640625,0.1528497338294983,1.509299159049988,0.4253443777561188,24.64820861816406,94.75172424316406,-26.24571228027344
260719,-0.36981201171875,3.998764038085938,0.4617919921875,0.1315939724445343,1.364099025726318,0.723564863204956,24.864501953125,94.8898468017578,-27.07044982910156
260720,-0.36981201171875,3.998764038085938,0.4617919921875,0.1315939724445343,1.364099025726318,0.723564863204956,24.864501953125,94.8898468017578,-27.07044982910156
260721,-0.986572265625,4.248992919921875,0.3757781982421875,0.6224702000617981,0.6413315534591675,0.4023005664348602,25.47256469726562,95.42422485351562,-28.44670104980469
260722,-1.025131225585938,3.400924682617188,0.4693145751953125,0.8676046133041382,0.5686978101730347,-0.179268553853035,25.98469543457031,95.64981079101562,-29.05509948730469
260723,-1.017181396484375,2.584793090820312,0.61065673828125,0.9426562190055848,0.9228827953338624,-0.5433943271636963,26.21275329589844,95.76515197753906,-29.63681030273438
260724,-1.182052612304688,1.937240600585938,0.587890625,0.9191626310348512,1.582597017288208,-0.6194749474525452,26.29771423339844,95.8267822265625,-30.25907897949219
260725,-1.289230346679688,1.387283325195312,0.2620086669921875,0.9151433706283568,1.888005137443542,-0.360924631357193,26.29940795898438,95.6239013671875,-30.91978454589844
260726,-1.19696044921875,1.0367431640625,-0.1062164306640625,0.943003237247467,1.389142394065857,-0.1930991560220718,26.4527587890625,95.36207580566406,-31.712646484375
260727,-0.9598388671875,0.873077392578125,-0.1412811279296875,0.8451094031333923,0.8672229647636414,-0.175602987408638,26.67442321777344,95.23809814453124,-32.44459533691406
260728,-0.9598388671875,0.873077392578125,-0.1412811279296875,0.8451094031333923,0.8672229647636414,-0.175602987408638,26.67442321777344,95.23809814453124,-32.44459533691406
260729,-0.3618621826171875,0.91851806640625,-0.376922607421875,0.386703759431839,0.3664578795433044,0.0287442971020937,27.06593322753906,94.73681640625,-33.62533569335938
260730,-0.2185821533203125,0.9320831298828124,-0.4044952392578125,0.4322861731052399,-0.0492509044706821,0.2276624590158463,27.29629516601562,94.43536376953124,-33.95849609375
260731,-0.133575439453125,0.919769287109375,-0.3072967529296875,0.6103968024253845,-0.2987616658210754,0.4132621586322784,27.54400634765625,94.18496704101562,-34.02967834472656
260732,-0.133575439453125,0.919769287109375,-0.3072967529296875,0.6103968024253845,-0.2987616658210754,0.4132621586322784,27.54400634765625,94.18496704101562,-34.02967834472656
260733,-0.035400390625,0.9063873291015624,-0.103057861328125,0.8236456513404846,-0.1452378928661346,0.5110912322998047,27.85629272460938,93.90869140625,-34.22894287109375
260734,-0.035400390625,0.9063873291015624,-0.103057861328125,0.8236456513404846,-0.1452378928661346,0.5110912322998047,27.85629272460938,93.90869140625,-34.22894287109375
260735,-0.0150146484375,0.933685302734375,-0.005706787109375,0.7925434112548828,0.0926614925265312,0.392341136932373,28.06181335449219,93.81805419921876,-34.37551879882812
260736,-0.042144775390625,0.9704742431640624,0.0234375,0.6129060387611389,0.3207575082778931,-0.1528031229972839,28.51901245117188,93.4970703125,-34.93489074707031
260737,-0.1172943115234375,0.8614959716796875,-0.02020263671875,0.5998511910438538,0.0736177638173103,-0.4894879460334778,28.6934814453125,93.30320739746094,-34.98019409179688
260738,-0.2847137451171875,0.6239013671875,0.0045928955078125,0.8063181042671204,-0.49727663397789,-0.7921718955039978,28.73965454101562,92.830078125,-35.55561828613281
260739,-0.2847137451171875,0.6239013671875,0.0045928955078125,0.8063181042671204,-0.49727663397789,-0.7921718955039978,28.73965454101562,92.830078125,-35.55561828613281
260740,-0.2847137451171875,0.6239013671875,0.0045928955078125,0.8063181042671204,-0.49727663397789,-0.7921718955039978,28.73965454101562,92.830078125,-35.55561828613281
260741,-0.3318634033203125,0.4184417724609375,0.05621337890625,0.8716529011726379,-0.5540962219238281,-0.80045086145401,28.22442626953125,92.17625427246094,-35.96377563476562
260742,-0.3399200439453125,0.3487701416015625,0.0854339599609375,0.748589277267456,-0.3405051231384277,-0.7145029306411743,27.85536193847656,91.74365234375,-36.23963928222656
260743,-0.3406829833984375,0.307159423828125,0.0973358154296875,0.5916150808334351,-0.1413778960704803,-0.644970178604126,27.52151489257812,91.37794494628906,-36.41824340820312
260744,-0.3406829833984375,0.307159423828125,0.0973358154296875,0.5916150808334351,-0.1413778960704803,-0.644970178604126,27.52151489257812,91.37794494628906,-36.41824340820312
260745,-0.315948486328125,0.252777099609375,0.1436309814453125,0.2320071309804916,-9.853696246864274e-05,-0.6139587759971619,27.04750061035156,90.83029174804688,-36.91581726074219
260746,-0.315948486328125,0.252777099609375,0.1436309814453125,0.2320071309804916,-9.853696246864274e-05,-0.6139587759971619,27.04750061035156,90.83029174804688,-36.91581726074219
260747,-0.2799835205078125,0.1923370361328125,0.25445556640625,-0.0499068386852741,-0.1672132313251495,-0.6072550415992737,26.759033203125,90.3960418701172,-36.99140930175781
260748,-0.24700927734375,0.2100677490234375,0.3087005615234375,-0.0577746145427227,-0.2285687327384949,-0.5025931000709534,26.69889831542969,90.20417785644533,-37.14506530761719
260749,-0.2155303955078125,0.318023681640625,0.3207244873046875,0.0075934710912406,-0.3721394836902618,-0.4278237819671631,26.52851867675781,90.20066833496094,-37.02827453613281
260750,-0.22357177734375,0.439788818359375,0.3855743408203125,0.0166303757578134,-0.491712212562561,-0.4057831764221191,26.18228149414062,90.21833801269533,-37.01620483398438
260751,-0.283294677734375,0.5869140625,0.4824066162109375,-0.1286967247724533,-0.5105050802230835,-0.4891718327999115,25.88771057128906,90.2036590576172,-37.06259155273438
260752,-0.3610382080078125,0.7052459716796875,0.550750732421875,-0.4249904453754425,-0.5079106092453003,-0.646226704120636,25.55131530761719,90.31163024902344,-36.94114685058594
260753,-0.450653076171875,0.7554779052734375,0.5934906005859375,-1.127483367919922,-0.7817363142967224,-0.9990715384483336,25.17362976074219,90.42828369140624,-36.8409423828125
260754,-0.516326904296875,0.7173309326171875,0.58795166015625,-1.127483367919922,-0.7817363142967224,-0.9990715384483336,24.90371704101562,90.38078308105467,-36.41552734375
260755,-0.516326904296875,0.7173309326171875,0.58795166015625,-1.127483367919922,-0.7817363142967224,-0.9990715384483336,24.90371704101562,90.38078308105467,-36.41552734375
260756,-0.57745361328125,0.4483795166015625,0.5865325927734375,-1.653703927993774,-2.025909423828125,-1.069766759872437,24.398193359375,90.1578369140625,-35.40647888183594
260757,-0.54925537109375,0.34197998046875,0.5758514404296875,-1.726087093353271,-2.149998188018799,-0.9379009008407592,24.08760070800781,89.93162536621094,-34.37954711914062
260758,-0.49493408203125,0.3002471923828125,0.55633544921875,-1.726087093353271,-2.149998188018799,-0.9379009008407592,23.59877014160156,89.67115783691406,-33.33456420898438
260759,-0.4057159423828125,0.2983551025390625,0.481231689453125,-1.765194296836853,-2.035878419876099,-0.8199114203453064,23.04069519042969,89.59783935546875,-32.30958557128906
260760,-0.4057159423828125,0.2983551025390625,0.481231689453125,-1.765194296836853,-2.035878419876099,-0.8199114203453064,23.04069519042969,89.59783935546875,-32.30958557128906
260761,-0.2046966552734375,0.3009185791015625,0.1631622314453125,-1.913693189620972,-1.789382934570312,-0.7015895247459412,21.90464782714844,89.23167419433594,-30.00636291503906
260762,-0.0261383056640625,0.2946624755859375,-0.341705322265625,-1.875280261039734,-2.094566106796265,-0.5354048013687134,21.27738952636719,89.12677001953125,-28.7203369140625
260763,0.313568115234375,0.2585906982421875,-1.314865112304688,-0.9431057572364808,-3.949321031570435,0.0735565051436424,20.70527648925781,89.14201354980469,-27.35650634765625
260764,0.313568115234375,0.2585906982421875,-1.314865112304688,-0.9431057572364808,-3.949321031570435,0.0735565051436424,20.70527648925781,89.14201354980469,-27.35650634765625
260765,0.090240478515625,0.3261871337890625,0.321502685546875,0.8849122524261475,-3.367627620697021,1.04288375377655,18.98826599121094,89.54949951171875,-24.50753784179688
260766,0.107940673828125,0.2475128173828125,0.2202911376953125,0.8308252692222595,-0.0383449904620647,1.010566830635071,18.30807495117188,90.076416015625,-22.92771911621094
260767,0.2196502685546875,0.1883697509765625,-0.3636016845703125,0.8989574909210205,1.087578773498535,1.072975039482117,18.00399780273438,90.56330871582033,-21.88291931152344
260768,0.2196502685546875,0.1883697509765625,-0.3636016845703125,0.8989574909210205,1.087578773498535,1.072975039482117,18.00399780273438,90.56330871582033,-21.88291931152344
260769,0.2459564208984375,0.1981658935546875,-0.3641204833984375,0.7610933780670166,0.0629195794463157,1.130941390991211,18.77949523925781,90.78396606445312,-22.03309631347656
260770,0.284210205078125,0.2064971923828125,-0.3431549072265625,0.1901994943618774,-0.2376823276281357,1.022768616676331,19.39707946777344,90.78770446777344,-22.44232177734375
260771,0.3039703369140625,0.260406494140625,-0.4079437255859375,-0.4621569812297821,-0.7594107389450073,0.7067121267318726,19.89886474609375,90.95744323730467,-22.45816040039062
260772,0.3039703369140625,0.260406494140625,-0.4079437255859375,-0.4621569812297821,-0.7594107389450073,0.7067121267318726,19.89886474609375,90.95744323730467,-22.45816040039062
260773,0.2727813720703125,0.5453338623046875,-0.3811492919921875,-0.4078383445739746,-0.599229633808136,0.4030305445194244,20.57315063476562,91.47087097167967,-21.7098388671875
260774,0.157989501953125,0.6598052978515625,-0.4757537841796875,-0.0830594673752784,-0.3338533341884613,0.1854476183652878,20.70877075195312,91.6303253173828,-21.17587280273438
260775,0.04644775390625,0.7602691650390625,-0.606842041015625,0.3935922980308533,-0.1467819809913635,0.0901900827884674,20.72406005859375,91.85969543457033,-20.84130859375
260776,0.04644775390625,0.7602691650390625,-0.606842041015625,0.3935922980308533,-0.1467819809913635,0.0901900827884674,20.72406005859375,91.85969543457033,-20.84130859375
260777,-0.032806396484375,1.227996826171875,-0.6192169189453125,1.121367931365967,0.4040614664554596,0.16632080078125,20.67446899414062,91.9558563232422,-20.7568359375
260778,-0.0723114013671875,1.461624145507812,-0.4349212646484375,1.110085725784302,0.8847423195838928,0.4058095514774323,20.67071533203125,91.85383605957033,-20.95761108398438
260779,-0.1073455810546875,1.699081420898438,-0.1164093017578125,0.8360192775726318,1.376419425010681,0.5543721318244934,20.76890563964844,91.97209167480467,-21.58485412597656
260780,-0.1073455810546875,1.699081420898438,-0.1164093017578125,0.8360192775726318,1.376419425010681,0.5543721318244934,20.76890563964844,91.97209167480467,-21.58485412597656
260781,-0.2453460693359375,2.347503662109375,0.0066070556640625,0.0316002704203128,1.792234659194946,-0.1464648097753525,21.11906433105469,92.04627990722656,-22.89437866210938
260782,-0.311492919921875,2.692367553710938,-0.0320587158203125,-0.2806939780712128,1.317330241203308,-0.6926043033599854,21.39996337890625,92.17816162109376,-23.52873229980469
260783,-0.3819580078125,3.021209716796875,0.1253662109375,-0.4393582046031952,1.023735642433167,-1.083333730697632,21.43080139160156,92.2451171875,-24.36518859863281
260784,-0.3819580078125,3.021209716796875,0.1253662109375,-0.4393582046031952,1.023735642433167,-1.083333730697632,21.43080139160156,92.2451171875,-24.36518859863281
260785,-0.5362396240234375,3.528427124023438,0.2975616455078125,-0.0238653849810361,1.360540509223938,-1.076377511024475,20.83682250976562,92.11882019042967,-25.37945556640625
260786,-0.816009521484375,3.371017456054688,0.4372100830078125,0.5588361024856567,1.949748635292053,-0.3169633150100708,20.38870239257812,92.01373291015624,-25.85653686523438
260787,-1.050460815429688,3.061630249023438,0.412384033203125,1.170520782470703,2.597169160842896,0.5086928009986877,20.02049255371094,92.10841369628906,-26.54142761230469
260788,-0.9996490478515624,2.767364501953125,0.3599700927734375,1.650283455848694,2.807577133178711,0.4433753192424774,19.8748779296875,92.21192932128906,-27.49092102050781
260789,-1.0167236328125,2.443466186523438,0.501556396484375,1.838459968566895,2.836126804351807,-0.0167816430330276,20.2008056640625,92.30747985839844,-28.9027099609375
260790,-1.162643432617188,2.091293334960938,0.54736328125,1.606757998466492,2.8184974193573,-0.3706979155540466,20.81880187988281,92.2852783203125,-30.44857788085938
260791,-1.316360473632812,1.725906372070312,0.3968963623046875,0.6217514276504517,1.731011867523193,-0.5147653222084045,21.428466796875,92.10823059082033,-32.06321716308594
260792,-1.316360473632812,1.725906372070312,0.3968963623046875,0.6217514276504517,1.731011867523193,-0.5147653222084045,21.428466796875,92.10823059082033,-32.06321716308594
260793,-1.197357177734375,1.187835693359375,-0.158416748046875,0.3628871142864227,0.6916924118995667,-0.3743179440498352,22.348388671875,91.44195556640624,-34.74974060058594
260794,-0.870452880859375,1.10986328125,-0.1891632080078125,0.4149625599384308,-0.1887150555849075,-0.1981439739465714,22.43467712402344,91.33465576171876,-35.52641296386719
260795,-0.667572021484375,1.025344848632812,-0.123626708984375,0.5920785069465637,-0.6459324359893799,-0.0841502994298934,22.37760925292969,91.18571472167967,-35.9853515625
260796,-0.5029296875,0.8913116455078125,-0.131805419921875,0.7238160371780396,-0.7147091031074524,0.0636356994509697,22.28231811523438,90.9872589111328,-36.35513305664062
260797,-0.3585205078125,0.8050079345703125,-0.2111968994140625,0.7751721739768982,-0.6259187459945679,0.2202207893133163,22.17860412597656,90.82107543945312,-36.37763977050781
260798,-0.30096435546875,0.80352783203125,-0.2156219482421875,0.8306971788406372,-0.3967108726501465,0.2789173722267151,22.09944152832031,90.54954528808594,-36.47235107421875
260799,-0.2941741943359375,0.8566436767578125,-0.2005767822265625,1.008689880371094,0.4320446252822876,0.0087207872420549,22.03665161132812,90.31867980957033,-36.57994079589844
260800,-0.29034423828125,0.91058349609375,-0.213958740234375,1.008689880371094,0.4320446252822876,0.0087207872420549,21.99478149414062,90.11262512207033,-36.70782470703125
260801,-0.2880859375,0.91229248046875,-0.1997222900390625,1.141951203346252,0.8355206847190857,-0.1273041665554047,22.08554077148438,89.70457458496094,-36.93685913085938
260802,-0.2880859375,0.91229248046875,-0.1997222900390625,1.141951203346252,0.8355206847190857,-0.1273041665554047,22.08554077148438,89.70457458496094,-36.93685913085938
260803,-0.2969512939453125,0.8183746337890625,-0.1696929931640625,1.175707101821899,0.4330813884735107,-0.1752253472805023,22.42660522460938,89.35392761230469,-37.91354370117188
260804,-0.26409912109375,0.7130584716796875,-0.2104034423828125,1.175707101821899,0.4330813884735107,-0.1752253472805023,22.60662841796875,89.101806640625,-38.32585144042969
260805,-0.2219085693359375,0.60101318359375,-0.2205963134765625,1.17469847202301,0.0020836573094129,-0.1690851598978043,22.83229064941406,88.74290466308594,-39.00112915039062
260806,-0.179168701171875,0.5000152587890625,-0.1417999267578125,1.112719774246216,-0.2942955493927002,-0.1586389094591141,22.98089599609375,88.35336303710938,-39.41546630859375
260807,-0.1371917724609375,0.3869476318359375,-0.101165771484375,0.8967332243919373,-0.4725369215011597,-0.0850669592618942,23.00198364257812,88.04043579101562,-39.76559448242188
260808,-0.1014404296875,0.267730712890625,-0.0570831298828125,0.8967332243919373,-0.4725369215011597,-0.0850669592618942,22.9793701171875,87.66275024414062,-40.04179382324219
260809,-0.0721282958984375,0.1623077392578125,-0.070037841796875,0.7530199885368347,-0.3740052878856659,-0.0245101358741521,22.95375061035156,87.24043273925781,-40.13644409179688
260810,-0.0500335693359375,0.078094482421875,-0.058074951171875,0.6169441938400269,-0.2025610953569412,0.0671638548374176,22.84939575195312,87.01579284667969,-40.25262451171875
260811,-0.0463409423828125,0.0145721435546875,-0.0601959228515625,0.4336507618427277,0.0820202976465225,0.1742311865091324,22.8408203125,86.81027221679688,-40.20924377441406
260812,-0.01019287109375,0.0150909423828125,-0.1437530517578125,0.319380134344101,0.1552444398403168,0.2691766023635864,22.84725952148438,86.70088195800781,-40.26222229003906
260813,0.0265045166015625,0.0906524658203125,-0.117645263671875,0.3697234690189362,-0.1224758476018906,0.27862149477005,23.02101135253906,86.62992858886719,-40.18412780761719
260814,0.0265045166015625,0.0906524658203125,-0.117645263671875,0.3697234690189362,-0.1224758476018906,0.27862149477005,23.02101135253906,86.62992858886719,-40.18412780761719
260815,0.013885498046875,0.1454315185546875,0.0217132568359375,0.4363946318626404,-0.3328858017921448,0.195276290178299,23.23664855957031,86.61448669433594,-40.09223937988281
260816,-0.01422119140625,0.2300567626953125,0.1044921875,0.5875716209411621,-0.7347472310066223,-0.0598596036434173,23.50302124023438,86.58128356933594,-40.02360534667969
260817,-0.2062530517578125,0.648040771484375,0.272064208984375,0.637117326259613,-0.9034547805786132,-0.2412901222705841,23.62779235839844,86.60450744628906,-39.77053833007812
260818,-0.2062530517578125,0.648040771484375,0.272064208984375,0.637117326259613,-0.9034547805786132,-0.2412901222705841,23.62779235839844,86.60450744628906,-39.77053833007812
260819,-0.5155029296875,1.064346313476562,0.50506591796875,0.3753954470157623,-1.009076476097107,-0.8602774739265442,23.37809753417969,86.54278564453125,-39.823486328125
260820,-0.665252685546875,1.122512817382812,0.5533294677734375,0.1315013021230698,-1.14008355140686,-1.262443780899048,23.13117980957031,86.33482360839844,-39.96601867675781
260821,-0.80499267578125,0.985748291015625,0.5732574462890625,-0.1366081833839417,-1.376448154449463,-1.602400898933411,22.809814453125,85.97908020019531,-39.90139770507812
260822,-0.80499267578125,0.985748291015625,0.5732574462890625,-0.1366081833839417,-1.376448154449463,-1.602400898933411,22.809814453125,85.97908020019531,-39.90139770507812
260823,-0.93402099609375,0.714569091796875,0.5846405029296875,-0.4881992340087891,-1.492910265922546,-1.668476581573486,22.46849060058594,85.65625,-39.69979858398438
260824,-0.947967529296875,0.193267822265625,0.4176788330078125,-1.131861329078674,-1.15343451499939,-0.8716363906860352,21.50166320800781,84.88819885253906,-39.15484619140625
260825,-0.6813507080078125,0.2227630615234375,0.2583160400390625,-1.10301947593689,-1.346279263496399,-0.6333854794502258,20.98329162597656,84.46971130371094,-38.55216979980469
260826,-0.4092254638671875,0.31439208984375,0.1882476806640625,-1.062860131263733,-1.491694569587708,-0.5866445899009705,20.60000610351562,84.30088806152344,-38.01118469238281
260827,-0.2489471435546875,0.3368377685546875,0.13671875,-1.060980677604675,-1.498299241065979,-0.5655193328857422,20.13320922851562,84.32542419433594,-37.30848693847656
260828,-0.1599578857421875,0.3246612548828125,0.076416015625,-1.058819890022278,-1.491025805473328,-0.576664924621582,19.59150695800781,84.27638244628906,-36.52687072753906
260829,-0.105072021484375,0.2641143798828125,0.033233642578125,-1.100300669670105,-1.442342519760132,-0.572478175163269,19.11195373535156,84.29771423339844,-35.51229858398438
260830,-0.105072021484375,0.2641143798828125,0.033233642578125,-1.100300669670105,-1.442342519760132,-0.572478175163269,19.11195373535156,84.29771423339844,-35.51229858398438
260831,-0.0211334228515625,0.091461181640625,-0.0494842529296875,-1.284593105316162,-1.222132921218872,-0.5070682764053345,18.34278869628906,84.39982604980469,-33.68876647949219
260832,0.0868377685546875,-0.03167724609375,-0.4339599609375,-1.367472767829895,-1.419583320617676,-0.4139050245285034,17.83320617675781,84.40435791015625,-32.74220275878906
260833,0.2872314453125,-0.1626434326171875,-1.058929443359375,-1.206840991973877,-2.905225038528442,-0.0983476117253303,17.48435974121094,84.44606018066406,-31.77122497558594
260834,0.289703369140625,-0.188018798828125,-0.8136138916015625,-0.8856232762336731,-4.307996273040771,0.3809129893779755,17.29814147949219,84.30841064453125,-30.74534606933594
260835,0.169342041015625,-0.12005615234375,-0.2248687744140625,-0.5579066872596741,-4.436173915863037,0.8086494207382202,17.03245544433594,84.26658630371094,-29.45585632324219
260836,0.169342041015625,-0.12005615234375,-0.2248687744140625,-0.5579066872596741,-4.436173915863037,0.8086494207382202,17.03245544433594,84.26658630371094,-29.45585632324219
260837,0.2325592041015625,0.07537841796875,0.215576171875,-0.4576288163661957,-1.164204359054565,0.9354579448699952,15.94023132324219,84.80844116210938,-25.98829650878906
260838,0.2325592041015625,0.07537841796875,0.215576171875,-0.4576288163661957,-1.164204359054565,0.9354579448699952,15.94023132324219,84.80844116210938,-25.98829650878906
260839,0.287322998046875,0.2719879150390625,-0.5304412841796875,0.4098205268383026,-0.3096596002578735,0.7392394542694092,15.37086486816406,85.75909423828125,-23.16476440429688
260840,0.235565185546875,0.4332427978515625,-0.315399169921875,0.4098205268383026,-0.3096596002578735,0.7392394542694092,15.45614624023438,86.16845703125,-22.64335632324219
260841,0.197540283203125,0.6306304931640625,-0.3502197265625,0.508671760559082,-0.3146554231643677,0.5984599590301514,15.59335327148438,86.29299926757812,-22.26893615722656
260842,0.1605072021484375,0.8536834716796875,-0.446014404296875,0.5630529522895813,-0.5318188667297363,0.4879145324230194,15.80836486816406,86.27593994140625,-22.30610656738281
260843,0.0767822265625,1.062759399414062,-0.6306610107421875,0.6957167387008667,-1.023174524307251,0.4706074595451355,15.96363830566406,86.2705078125,-22.33572387695312
260844,-0.028594970703125,1.273101806640625,-0.9070587158203124,0.6957167387008667,-1.023174524307251,0.4706074595451355,16.01292419433594,86.38668823242188,-22.36727905273438
260845,-0.11279296875,1.47955322265625,-0.84674072265625,0.8798367977142334,-0.5544775724411011,0.5510266423225403,15.86637878417969,86.56462097167969,-22.2003173828125
260846,-0.184112548828125,1.611648559570312,-0.3747711181640625,0.924688160419464,1.053520917892456,0.6474059224128723,15.77436828613281,86.8341064453125,-22.06298828125
260847,-0.2710418701171875,1.77777099609375,-0.1158447265625,0.5852104425430298,2.190884351730347,0.3623507618904114,15.73294067382812,86.96548461914062,-22.19937133789062
260848,-0.3595733642578125,2.21099853515625,-0.0359344482421875,0.0754766464233398,2.229496955871582,-0.3766708374023438,16.01046752929688,87.21511840820312,-23.4097900390625
260849,-0.4051971435546875,2.802505493164062,0.3016357421875,-0.478714644908905,2.050108671188354,-1.164495944976807,16.09053039550781,87.26353454589844,-24.36967468261719
260850,-0.4051971435546875,2.802505493164062,0.3016357421875,-0.478714644908905,2.050108671188354,-1.164495944976807,16.09053039550781,87.26353454589844,-24.36967468261719
260851,-0.747528076171875,4.603317260742188,0.7921295166015625,-0.9849016666412354,2.339955806732178,-1.367805957794189,15.90679931640625,86.85194396972656,-26.24090576171875
260852,-1.091964721679688,5.112136840820312,0.7726593017578125,-0.4464778900146484,1.838054060935974,-0.4537874758243561,15.68901062011719,86.80613708496094,-27.35556030273438
260853,-1.305816650390625,4.416824340820312,0.584381103515625,0.4784390032291412,1.073615074157715,0.7172664999961853,15.63764953613281,86.76126098632812,-28.48182678222656
260854,-1.305816650390625,4.416824340820312,0.584381103515625,0.4784390032291412,1.073615074157715,0.7172664999961853,15.63764953613281,86.76126098632812,-28.48182678222656
260855,-0.6593780517578125,2.0892333984375,0.345855712890625,1.187402009963989,0.0859146416187286,0.9354702234268188,16.04037475585938,87.23399353027344,-29.90264892578125
260856,-0.6056976318359375,1.671005249023438,0.5760498046875,1.070990204811096,0.2563723921775818,0.6886276602745056,16.32130432128906,87.41769409179688,-30.10551452636719
260857,-0.6193084716796875,1.502960205078125,0.4892425537109375,0.8681558966636658,0.6008282899856567,0.2672689855098724,16.62977600097656,87.53854370117188,-30.36434936523438
260858,-0.6859283447265625,1.47052001953125,0.1685791015625,0.7328923344612122,0.3624325096607208,-0.0885104238986969,16.80543518066406,87.638427734375,-30.79075622558594
260859,-0.6464385986328125,1.417922973632812,-0.0406036376953125,0.6531447768211365,-0.328348845243454,-0.2055206596851349,17.03529357910156,87.52888488769531,-31.44483947753906
260860,-0.5264892578125,1.2073974609375,-0.0874786376953125,0.6085597276687622,-0.9552441835403442,-0.1770722419023514,17.1357421875,87.22171020507812,-31.86320495605469
260861,-0.4801025390625,0.9676361083984376,-0.105926513671875,0.5498412847518921,-1.260844349861145,-0.0766558945178985,17.05258178710938,86.939453125,-31.88414001464844
260862,-0.476654052734375,0.756744384765625,-0.140533447265625,0.4844023585319519,-1.294597983360291,0.0390129126608371,16.85566711425781,86.7723388671875,-31.71382141113281
260863,-0.4913177490234375,0.583953857421875,-0.1593017578125,0.4060894548892975,-1.104168891906738,0.15426866710186,16.61061096191406,86.67762756347656,-31.54837036132812
260864,-0.5249481201171875,0.5152740478515625,-0.1033477783203125,0.3729754388332367,-0.6331793069839478,0.2408829182386398,16.4962158203125,86.63546752929688,-31.31051635742188
260865,-0.548431396484375,0.5973663330078125,-0.0189056396484375,0.4495269358158112,0.0099474396556615,0.2313677072525024,16.37968444824219,86.52981567382812,-30.98356628417969
260866,-0.5570068359375,0.7999420166015625,0.0550994873046875,0.5915077924728394,0.5008037090301514,0.2012127339839935,16.3717041015625,86.60700988769531,-30.88998413085938
260867,-0.565948486328125,0.995574951171875,0.1147003173828125,0.6594820618629456,0.7771053314208984,0.1015039905905724,16.59858703613281,86.58146667480469,-31.18031311035156
260868,-0.58099365234375,1.05517578125,0.096649169921875,0.6702404022216797,0.8386483192443848,-0.0554464794695377,16.82037353515625,86.5523681640625,-31.59881591796875
260869,-0.6007537841796875,0.98529052734375,0.0417633056640625,0.6840497255325317,0.7162052392959595,-0.2153796851634979,17.093994140625,86.4993896484375,-31.97280883789062
260870,-0.6088409423828125,0.859588623046875,-0.02935791015625,0.7275663018226624,0.5554930567741394,-0.3238528966903687,17.25210571289062,86.46923828125,-32.40742492675781
260871,-0.5655517578125,0.7341461181640625,-0.10394287109375,0.8027715682983398,0.4035986065864563,-0.3711130917072296,17.26248168945312,86.37486267089844,-32.9986572265625
260872,-0.4902801513671875,0.6333770751953125,-0.1581573486328125,0.8782761693000793,0.2721462845802307,-0.3403056561946869,17.34515380859375,86.21769714355469,-33.36796569824219
