time_idx,accelerometerAccelerationX(G),accelerometerAccelerationY(G),accelerometerAccelerationZ(G),gyroRotationX(rad/s),gyroRotationY(rad/s),gyroRotationZ(rad/s),magnetometerX(µT),magnetometerY(µT),magnetometerZ(µT)
296646,-0.0680084228515625,1.048492431640625,0.0366363525390625,-0.756726861000061,0.0672866255044937,-0.0852509811520576,41.0684814453125,97.33494567871094,-37.81217956542969
296647,-0.0680084228515625,1.048492431640625,0.0366363525390625,-0.756726861000061,0.0672866255044937,-0.0852509811520576,41.0684814453125,97.33494567871094,-37.81217956542969
296648,-0.0178680419921875,1.095062255859375,0.051055908203125,-0.7618589997291565,0.1156781315803528,-0.0751658603549003,40.89468383789062,97.44821166992188,-37.29690551757812
296649,0.0150604248046875,1.140777587890625,0.0358123779296875,-0.6965891718864441,0.1725248992443085,-0.0637619346380233,40.83810424804688,97.7318878173828,-36.85475158691406
296650,0.0226287841796875,1.20556640625,-0.0009307861328125,-0.5836780667304993,0.1929092705249786,-0.0470732375979423,40.86418151855469,97.89627075195312,-36.3973388671875
296651,0.0226287841796875,1.20556640625,-0.0009307861328125,-0.5836780667304993,0.1929092705249786,-0.0470732375979423,40.86418151855469,97.89627075195312,-36.3973388671875
296652,0.0296630859375,1.289443969726562,-0.0998687744140625,-0.3480751514434814,0.1744002997875214,-0.0251415725797414,40.77156066894531,98.06971740722656,-35.71202087402344
296653,0.0375518798828125,1.29486083984375,-0.1459503173828125,-0.2464531809091568,0.1313505619764328,-0.0103407884016633,40.79725646972656,98.12936401367188,-35.44517517089844
296654,0.06121826171875,1.27978515625,-0.1789703369140625,-0.1376915574073792,0.0556086674332618,0.0036330842413008,40.85304260253906,98.16427612304688,-35.23626708984375
296655,0.06121826171875,1.27978515625,-0.1789703369140625,-0.1376915574073792,0.0556086674332618,0.0036330842413008,40.85304260253906,98.16427612304688,-35.23626708984375
296656,0.087799072265625,1.229217529296875,-0.1998748779296875,-0.0126281771808862,-0.0089253177866339,-0.0107056414708495,40.67398071289062,98.13446044921876,-34.87876892089844
296657,0.135498046875,1.0897216796875,-0.2598876953125,0.2836229205131531,-0.1113323867321014,-0.0140881221741437,40.8411865234375,97.87165832519533,-34.26504516601562
296658,0.1587066650390625,1.021804809570312,-0.3101806640625,0.5152683854103088,-0.2311474680900574,-0.0365420319139957,40.89692687988281,97.86036682128906,-34.48165893554688
296659,0.1780853271484375,0.9630584716796876,-0.36083984375,0.5152683854103088,-0.2311474680900574,-0.0365420319139957,40.86868286132812,97.85867309570312,-34.69963073730469
296660,0.1904754638671875,0.93212890625,-0.4122772216796875,0.604312539100647,-0.2851483821868896,-0.0295030307024717,40.81498718261719,97.67790222167967,-34.99623107910156
296661,0.2020263671875,0.9281005859375,-0.4553680419921875,0.6827492713928223,-0.3288511335849762,-0.0093293199315667,40.82884216308594,97.49058532714844,-35.22523498535156
296662,0.20318603515625,0.9712066650390624,-0.464385986328125,0.762791097164154,-0.352480560541153,0.0375886559486389,40.86451721191406,97.14230346679688,-36.04037475585938
296663,0.20318603515625,0.9712066650390624,-0.464385986328125,0.762791097164154,-0.352480560541153,0.0375886559486389,40.86451721191406,97.14230346679688,-36.04037475585938
296664,0.2187347412109375,0.997283935546875,-0.444183349609375,0.7491828799247742,-0.3625867068767548,0.0576675571501255,40.79812622070312,96.97315979003906,-36.32757568359375
296665,0.2358856201171875,1.01849365234375,-0.4232635498046875,0.722587525844574,-0.3718912601470947,0.0759738609194755,40.73410034179688,96.75569152832033,-36.63298034667969
296666,0.23504638671875,1.036941528320312,-0.382720947265625,0.6947801113128662,-0.3945217430591583,0.094371773302555,40.81898498535156,96.5237274169922,-36.85211181640625
296667,0.23504638671875,1.036941528320312,-0.382720947265625,0.6947801113128662,-0.3945217430591583,0.094371773302555,40.81898498535156,96.5237274169922,-36.85211181640625
296668,0.1926422119140625,1.101669311523438,-0.2929534912109375,0.6348618865013123,-0.5115690231323242,0.1048744842410088,40.90190124511719,96.19361877441406,-37.34024047851562
296669,0.1706695556640625,1.146682739257812,-0.2681121826171875,0.6093006134033203,-0.5878896117210388,0.0713772475719451,40.92071533203125,96.1540985107422,-37.57322692871094
296670,0.14007568359375,1.163253784179688,-0.2354278564453125,0.5524687767028809,-0.6689173579216003,-0.0059220711700618,40.83015441894531,95.96954345703124,-37.8037109375
296671,0.0945892333984375,1.147476196289062,-0.1620025634765625,0.4648039042949677,-0.697792649269104,-0.0932961255311965,40.73178100585938,95.8553466796875,-38.11550903320312
296672,0.021026611328125,1.115753173828125,-0.081329345703125,0.4031069874763489,-0.6544766426086426,-0.1603374779224396,40.61114501953125,95.60305786132812,-38.31027221679688
296673,-0.06475830078125,1.08013916015625,-0.0396270751953125,0.4548793733119965,-0.6581576466560364,-0.1960675120353699,40.60459899902344,95.4822998046875,-38.46182250976562
296674,-0.1591033935546875,1.059417724609375,0.004150390625,0.551108717918396,-0.7110278010368347,-0.2113631069660187,40.43386840820312,95.27134704589844,-38.66397094726562
296675,-0.253997802734375,1.02056884765625,0.0548248291015625,0.7166017889976501,-0.8315211534500122,-0.1753451824188232,40.36972045898438,95.07949829101562,-38.70481872558594
296676,-0.3151092529296875,0.994598388671875,0.0722198486328125,0.7166017889976501,-0.8315211534500122,-0.1753451824188232,40.14715576171875,94.97962951660156,-38.86482238769531
296677,-0.3227996826171875,0.977264404296875,0.0649566650390625,0.8178245425224304,-0.8990440368652344,-0.1737425029277802,39.95622253417969,94.9158935546875,-39.14582824707031
296678,-0.3258209228515625,0.934600830078125,0.001861572265625,0.8629235625267029,-0.9556266069412231,-0.1752522438764572,39.72793579101562,94.70748901367188,-39.36602783203125
296679,-0.3258209228515625,0.934600830078125,0.001861572265625,0.8629235625267029,-0.9556266069412231,-0.1752522438764572,39.72793579101562,94.70748901367188,-39.36602783203125
296680,-0.3046875,0.915771484375,-0.0506591796875,0.8691958785057068,-0.8517225980758667,-0.1894399672746658,39.19583129882812,94.2081298828125,-39.97026062011719
296681,-0.305267333984375,0.921051025390625,-0.0621795654296875,0.8613041043281555,-0.7593822479248047,-0.216833770275116,38.95555114746094,93.95663452148438,-40.23423767089844
296682,-0.3357086181640625,0.9068603515625,-0.016845703125,0.814866840839386,-0.5194405317306519,-0.2036111801862717,38.372802734375,93.57252502441406,-40.95912170410156
296683,-0.3357086181640625,0.9068603515625,-0.016845703125,0.814866840839386,-0.5194405317306519,-0.2036111801862717,38.372802734375,93.57252502441406,-40.95912170410156
296684,-0.3405303955078125,0.89337158203125,0.0260467529296875,0.7638582587242126,-0.4240993559360504,-0.1535999476909637,38.20039367675781,93.20034790039062,-41.29415893554688
296685,-0.368560791015625,0.8733673095703125,0.0728759765625,0.7007437348365784,-0.3252553343772888,-0.1123819351196289,38.01809692382812,92.83200073242188,-41.57180786132812
296686,-0.394134521484375,0.84442138671875,0.098358154296875,0.5925325751304626,-0.227364718914032,-0.0870542079210281,37.99617004394531,92.61959838867188,-41.83694458007812
296687,-0.394134521484375,0.84442138671875,0.098358154296875,0.5925325751304626,-0.227364718914032,-0.0870542079210281,37.99617004394531,92.61959838867188,-41.83694458007812
296688,-0.346466064453125,0.7336273193359375,0.1075592041015625,0.2878847718238831,-0.0248869732022285,-0.0651976466178894,37.7506103515625,92.37454223632812,-42.2626953125
296689,-0.274200439453125,0.69158935546875,0.13543701171875,0.1463076770305634,0.1355626285076141,-0.0389141105115413,37.61773681640625,92.34552001953124,-42.33912658691406
296690,-0.22174072265625,0.6819000244140625,0.1573028564453125,0.0295184776186943,0.31784588098526,0.0001472728035878,37.58285522460938,92.31375122070312,-42.60137939453125
296691,-0.22174072265625,0.6819000244140625,0.1573028564453125,0.0295184776186943,0.31784588098526,0.0001472728035878,37.58285522460938,92.31375122070312,-42.60137939453125
296692,-0.15838623046875,0.7588958740234375,0.1697235107421875,-0.2484228610992432,0.697417140007019,0.0700278207659721,37.64132690429688,92.23001098632812,-42.60400390625
296693,-0.147430419921875,0.8159027099609375,0.147796630859375,-0.3841753602027893,0.7894312739372253,0.085139662027359,37.73904418945312,92.41128540039062,-42.67819213867188
296694,-0.123016357421875,0.8420867919921875,0.1131134033203125,-0.4917580187320709,0.8016274571418762,0.0893168300390243,38.01345825195312,92.41563415527344,-42.54043579101562
296695,-0.123016357421875,0.8420867919921875,0.1131134033203125,-0.4917580187320709,0.8016274571418762,0.0893168300390243,38.01345825195312,92.41563415527344,-42.54043579101562
296696,-0.0276031494140625,0.86859130859375,0.032562255859375,-0.6261653304100037,0.7255577445030212,0.1192140057682991,38.4051513671875,92.63490295410156,-42.57322692871094
296697,-0.0005340576171875,0.910552978515625,0.053497314453125,-0.6922445297241211,0.7689952254295349,0.1299417465925217,38.61630249023438,92.71002197265624,-42.47422790527344
296698,0.0613250732421875,0.948974609375,0.061492919921875,-0.8087490200996399,0.8210453391075134,0.1259448826313019,38.77336120605469,93.0030517578125,-42.27952575683594
296699,0.0851593017578125,0.9901885986328124,0.0902099609375,-0.9103227853775024,0.9028204083442688,0.1145880967378616,38.91001892089844,93.21565246582033,-42.14469909667969
296700,0.1064605712890625,1.003814697265625,0.099822998046875,-0.985139787197113,0.9465327262878418,0.1274935156106949,39.161865234375,93.38888549804688,-41.85377502441406
296701,0.1391143798828125,1.03314208984375,0.1109619140625,-1.025674104690552,0.9715555310249328,0.1115377098321915,39.46023559570312,93.73347473144533,-41.49787902832031
296702,0.1235198974609375,1.057662963867188,0.0986328125,-1.033177018165588,0.9393038153648376,0.1043514385819435,39.55439758300781,93.9604034423828,-41.25160217285156
296703,0.1235198974609375,1.057662963867188,0.0986328125,-1.033177018165588,0.9393038153648376,0.1043514385819435,39.55439758300781,93.9604034423828,-41.25160217285156
296704,0.0338134765625,1.160400390625,0.0447235107421875,-1.044184684753418,0.672233521938324,0.0307118389755487,39.99595642089844,94.75616455078124,-40.61065673828125
296705,-0.0047607421875,1.194778442382812,0.02239990234375,-1.024269580841064,0.4591542780399323,-0.0167563427239656,40.23411560058594,94.90966796875,-40.30572509765625
296706,-0.0272369384765625,1.232131958007812,-0.004486083984375,-0.9629428386688232,0.3060515224933624,-0.067385695874691,40.29652404785156,95.21730041503906,-39.98626708984375
296707,-0.0272369384765625,1.232131958007812,-0.004486083984375,-0.9629428386688232,0.3060515224933624,-0.067385695874691,40.29652404785156,95.21730041503906,-39.98626708984375
296708,-0.037078857421875,1.311538696289062,-0.0388336181640625,-0.7181499004364014,0.1399278044700623,-0.1383173912763596,40.31813049316406,95.60824584960938,-39.07786560058594
296709,-0.065277099609375,1.328262329101562,-0.039764404296875,-0.6134253144264221,0.1265062689781189,-0.1818472892045975,40.24453735351562,95.93630981445312,-38.82540893554688
296710,-0.119415283203125,1.286087036132812,-0.0885772705078125,-0.4719065427780151,0.025937857106328,-0.271632581949234,40.11668395996094,96.1940460205078,-38.16166687011719
296711,-0.119415283203125,1.286087036132812,-0.0885772705078125,-0.4719065427780151,0.025937857106328,-0.271632581949234,40.11668395996094,96.1940460205078,-38.16166687011719
296712,-0.1347503662109375,1.226715087890625,-0.133453369140625,-0.3907978534698486,0.0016815199051052,-0.2857140302658081,40.00172424316406,96.14903259277344,-37.87599182128906
296713,-0.1310882568359375,1.146591186523438,-0.1854400634765625,-0.2749849557876587,0.0253644790500402,-0.2616299986839294,39.85665893554688,96.26824951171876,-37.61328125
296714,-0.11688232421875,1.051361083984375,-0.230804443359375,-0.0190256219357252,0.1959388852119446,-0.1618075370788574,39.77227783203125,96.32044982910156,-37.48832702636719
296715,-0.11688232421875,1.051361083984375,-0.230804443359375,-0.0190256219357252,0.1959388852119446,-0.1618075370788574,39.77227783203125,96.32044982910156,-37.48832702636719
296716,-0.0496063232421875,0.83258056640625,-0.3167572021484375,0.0592039339244365,0.2481256574392319,-0.1074127405881882,39.5787353515625,96.34674072265624,-37.36776733398438
296717,-0.00775146484375,0.734710693359375,-0.35369873046875,0.0893999189138412,0.2586984038352966,-0.0567738004028797,39.52203369140625,96.34507751464844,-37.36575317382812
296718,0.035247802734375,0.6844024658203125,-0.3977508544921875,0.0688792020082473,0.2553476095199585,-0.0035859462805092,39.45957946777344,96.330322265625,-37.43057250976562
296719,0.0764312744140625,0.681884765625,-0.4403839111328125,0.0235969386994838,0.2582856118679047,0.0546395443379879,39.60380554199219,96.16325378417967,-37.46405029296875
296720,0.1149139404296875,0.733734130859375,-0.478424072265625,-0.0157504677772522,0.2560834288597107,0.1104721799492836,39.68661499023438,96.026611328125,-37.47491455078125
296721,0.1339111328125,0.815399169921875,-0.4847869873046875,-0.0056978329084813,0.25605708360672,0.1580386310815811,39.80715942382812,96.08560180664062,-37.40242004394531
296722,0.1298828125,0.906707763671875,-0.4756622314453125,0.1151481568813324,0.2718163430690765,0.2161919474601746,39.99516296386719,96.02751159667967,-37.35971069335938
296723,0.1298828125,0.906707763671875,-0.4756622314453125,0.1151481568813324,0.2718163430690765,0.2161919474601746,39.99516296386719,96.02751159667967,-37.35971069335938
296724,0.094970703125,1.092010498046875,-0.4044952392578125,0.1715312749147415,0.270855188369751,0.2146105617284775,40.12664794921875,96.2698974609375,-37.65873718261719
296725,0.071624755859375,1.164230346679688,-0.36883544921875,0.2261772155761719,0.2458651661872864,0.1955356746912003,40.21107482910156,96.31460571289062,-37.70228576660156
296726,0.03662109375,1.216094970703125,-0.328125,0.298647940158844,0.1932474821805954,0.1503125429153442,40.378173828125,96.4153289794922,-37.89363098144531
296727,0.03662109375,1.216094970703125,-0.328125,0.298647940158844,0.1932474821805954,0.1503125429153442,40.378173828125,96.4153289794922,-37.89363098144531
296728,-0.0599365234375,1.235198974609375,-0.2089996337890625,0.3182123303413391,0.1829165518283844,0.1377051323652267,40.69944763183594,96.25672912597656,-38.03327941894531
296729,-0.0953216552734375,1.196670532226562,-0.142486572265625,0.3076235949993134,0.206855446100235,0.1452179104089737,40.74540710449219,96.24652099609376,-38.11744689941406
296730,-0.1190338134765625,1.150741577148438,-0.073516845703125,0.258035272359848,0.2448787242174149,0.1624480336904526,40.87849426269531,96.1995086669922,-38.25559997558594
296731,-0.1269683837890625,1.093154907226562,-0.0229339599609375,0.1710899919271469,0.1554279327392578,0.2335754781961441,40.96241760253906,96.2490234375,-38.52836608886719
296732,-0.1220550537109375,1.043853759765625,0.032623291015625,0.1710899919271469,0.1554279327392578,0.2335754781961441,41.09664916992188,96.23544311523438,-38.73307800292969
296733,-0.11944580078125,1.02557373046875,0.090057373046875,0.1153439059853554,-0.0154993310570716,0.2729774713516235,41.28121948242188,96.16038513183594,-38.81840515136719
296734,-0.126129150390625,1.024017333984375,0.12677001953125,0.1153439059853554,-0.0154993310570716,0.2729774713516235,41.3543701171875,96.03468322753906,-38.83099365234375
296735,-0.126129150390625,1.024017333984375,0.12677001953125,0.1153439059853554,-0.0154993310570716,0.2729774713516235,41.3543701171875,96.03468322753906,-38.83099365234375
296736,-0.12896728515625,1.023574829101562,0.131500244140625,-0.0177164133638143,-0.1355570256710052,0.2701742351055145,41.7686767578125,95.98904418945312,-38.88838195800781
296737,-0.127044677734375,1.023574829101562,0.138946533203125,-0.0637587383389473,-0.145344153046608,0.2800958454608917,41.94761657714844,95.84480285644533,-38.67694091796875
296738,-0.1085662841796875,1.023468017578125,0.1370086669921875,-0.0462974570691585,-0.0846312642097473,0.2826263606548309,42.08285522460938,95.89552307128906,-38.67459106445312
296739,-0.1085662841796875,1.023468017578125,0.1370086669921875,-0.0462974570691585,-0.0846312642097473,0.2826263606548309,42.08285522460938,95.89552307128906,-38.67459106445312
296740,-0.064361572265625,0.9976654052734376,0.1053619384765625,0.1178358197212219,0.1220875605940819,0.2828950881958008,42.1328125,95.95060729980467,-39.07853698730469
296741,-0.030548095703125,0.96148681640625,0.069915771484375,0.2137213349342346,0.1956565827131271,0.2797283232212067,42.41752624511719,96.07736206054688,-39.14399719238281
296742,-0.0011444091796875,0.9122467041015624,0.027801513671875,0.3005238771438599,0.1416300982236862,0.2611874043941498,42.552734375,96.0559539794922,-39.29275512695312
296743,-0.0011444091796875,0.9122467041015624,0.027801513671875,0.3005238771438599,0.1416300982236862,0.2611874043941498,42.552734375,96.0559539794922,-39.29275512695312
296744,0.0490875244140625,0.82720947265625,-0.0320587158203125,0.3010764718055725,0.0879769921302795,0.2295053601264954,42.75595092773438,96.0385284423828,-39.469970703125
296745,0.0526580810546875,0.8033905029296875,-0.0485076904296875,0.3033774495124817,0.0632125213742256,0.1982007026672363,42.87530517578125,95.91908264160156,-39.45933532714844
296746,0.043792724609375,0.8077850341796875,-0.046600341796875,0.3186109960079193,0.0645188018679618,0.1569712460041046,43.07952880859375,95.87190246582033,-39.54286193847656
296747,0.043792724609375,0.8077850341796875,-0.046600341796875,0.3186109960079193,0.0645188018679618,0.1569712460041046,43.07952880859375,95.87190246582033,-39.54286193847656
296748,-0.053466796875,0.8621063232421875,-0.0126495361328125,0.3778985738754272,0.109348863363266,0.0763203352689743,43.1719970703125,95.91452026367188,-40.07839965820312
296749,-0.127838134765625,0.8805389404296875,-0.0031585693359375,0.3984544277191162,0.101873368024826,0.0262366645038127,43.24009704589844,95.9130401611328,-40.21336364746094
296750,-0.200836181640625,0.8780059814453125,-0.0102081298828125,0.3890060782432556,0.0432457402348518,-0.018788868561387,43.29063415527344,95.89236450195312,-40.376220703125
296751,-0.2723236083984375,0.86151123046875,-0.021087646484375,0.2525925636291504,-0.1892982870340347,-0.1243808045983315,43.30690002441406,95.8691864013672,-40.57257080078125
296752,-0.3141021728515625,0.8253021240234375,-0.024871826171875,0.2525925636291504,-0.1892982870340347,-0.1243808045983315,43.30451965332031,95.7282257080078,-40.78303527832031
296753,-0.3360748291015625,0.792083740234375,-0.0040130615234375,0.1539059430360794,-0.277350127696991,-0.1828686147928238,43.3428955078125,95.62287902832033,-40.93214416503906
296754,-0.356353759765625,0.7764739990234375,0.0368194580078125,0.0861151739954948,-0.2845494449138641,-0.2413295358419418,43.25202941894531,95.4649658203125,-40.96745300292969
296755,-0.356353759765625,0.7764739990234375,0.0368194580078125,0.0861151739954948,-0.2845494449138641,-0.2413295358419418,43.25202941894531,95.4649658203125,-40.96745300292969
296756,-0.3537750244140625,0.84356689453125,0.0897674560546875,0.0386874750256538,-0.0849324688315391,-0.2587580680847168,42.95906066894531,95.44801330566406,-41.07020568847656
296757,-0.348785400390625,0.950653076171875,0.1004638671875,0.0154452687129378,0.0100606232881546,-0.2526767253875732,42.79013061523438,95.44627380371094,-41.15359497070312
296758,-0.357391357421875,1.018478393554688,0.13201904296875,-0.0521140657365322,0.0652394592761993,-0.2673624753952026,42.59562683105469,95.4551239013672,-41.24018859863281
296759,-0.357391357421875,1.018478393554688,0.13201904296875,-0.0521140657365322,0.0652394592761993,-0.2673624753952026,42.59562683105469,95.4551239013672,-41.24018859863281
296760,-0.3837738037109375,1.058273315429688,0.188995361328125,-0.3565083146095276,0.0222006440162658,-0.3160900473594666,42.23016357421875,95.58908081054688,-41.26826477050781
296761,-0.3922119140625,1.07861328125,0.2091827392578125,-0.5475480556488037,-0.0972975268959999,-0.3021627962589264,42.21092224121094,95.60964965820312,-41.03518676757812
296762,-0.3651885986328125,1.108612060546875,0.2225341796875,-0.719829797744751,-0.1763774305582047,-0.2431037276983261,42.05342102050781,95.63322448730467,-40.8997802734375
296763,-0.3651885986328125,1.108612060546875,0.2225341796875,-0.719829797744751,-0.1763774305582047,-0.2431037276983261,42.05342102050781,95.63322448730467,-40.8997802734375
296764,-0.15228271484375,1.23944091796875,0.06317138671875,-0.7396565079689026,-0.3670240640640259,-0.0854184925556182,41.64471435546875,95.9026336669922,-40.60429382324219
296765,-0.0425262451171875,1.277099609375,0.0225830078125,-0.5470194220542908,-0.4283305704593658,-0.0684267282485961,41.38784790039062,96.07449340820312,-40.25314331054688
296766,0.034942626953125,1.262771606445312,-0.0051116943359375,-0.3588953018188477,-0.3425743877887726,-0.0604825168848037,41.20698547363281,96.22254943847656,-39.83233642578125
296767,0.034942626953125,1.262771606445312,-0.0051116943359375,-0.3588953018188477,-0.3425743877887726,-0.0604825168848037,41.20698547363281,96.22254943847656,-39.83233642578125
296768,0.0946044921875,1.169403076171875,-0.0528717041015625,-0.1009306088089943,-0.2845595479011536,-0.0277112554758787,40.76509094238281,96.58377075195312,-39.15126037597656
296769,0.11279296875,1.120681762695312,-0.07757568359375,-0.0613986440002918,-0.347171813249588,-0.0288947653025388,40.68490600585938,96.62762451171876,-38.90055847167969
296770,0.128509521484375,1.089431762695312,-0.1265411376953125,-0.0423786155879497,-0.4535411298274994,-0.0231410060077905,40.53285217285156,96.6243133544922,-39.09161376953125
296771,0.128509521484375,1.089431762695312,-0.1265411376953125,-0.0423786155879497,-0.4535411298274994,-0.0231410060077905,40.53285217285156,96.6243133544922,-39.09161376953125
296772,0.15185546875,0.9808349609375,-0.2210845947265625,0.0711476802825927,-0.5329278111457825,0.0622311495244503,40.33111572265625,96.79022216796876,-39.04054260253906
296773,0.161834716796875,0.90960693359375,-0.2616729736328125,0.1899560838937759,-0.4993754625320435,0.114435501396656,40.18930053710938,96.65028381347656,-38.80561828613281
296774,0.176666259765625,0.8304901123046875,-0.3251800537109375,0.3138306140899658,-0.5001714825630188,0.1591976433992386,40.17832946777344,96.72898864746094,-38.72512817382812
296775,0.176666259765625,0.8304901123046875,-0.3251800537109375,0.3138306140899658,-0.5001714825630188,0.1591976433992386,40.17832946777344,96.72898864746094,-38.72512817382812
296776,0.22662353515625,0.7127227783203125,-0.461822509765625,0.5373470783233643,-0.5699303150177002,0.240027517080307,40.11703491210938,96.52268981933594,-38.79841613769531
296777,0.2439422607421875,0.7179718017578125,-0.514984130859375,0.6694177389144897,-0.6375367641448975,0.2510370314121246,40.13044738769531,96.38380432128906,-38.78648376464844
296778,0.2375640869140625,0.743499755859375,-0.5412139892578125,0.6694177389144897,-0.6375367641448975,0.2510370314121246,40.06996154785156,96.25985717773438,-38.88775634765625
296779,0.2375640869140625,0.743499755859375,-0.5412139892578125,0.6694177389144897,-0.6375367641448975,0.2510370314121246,40.06996154785156,96.25985717773438,-38.88775634765625
296780,0.150238037109375,0.8429107666015625,-0.50244140625,0.7645182013511658,-0.6468431949615479,0.240922600030899,39.99879455566406,96.04965209960938,-39.5313720703125
296781,0.1458740234375,0.9228668212890624,-0.4866485595703125,0.7645182013511658,-0.6468431949615479,0.240922600030899,39.97589111328125,95.79852294921876,-39.68852233886719
296782,0.1364288330078125,0.99737548828125,-0.4772491455078125,0.7157649993896484,-0.5677574276924133,0.1985597014427185,39.88798522949219,95.53382873535156,-39.92579650878906
296783,0.11895751953125,1.085906982421875,-0.46063232421875,0.7157649993896484,-0.5677574276924133,0.1985597014427185,39.87648010253906,95.58883666992188,-40.27337646484375
296784,0.102783203125,1.169174194335938,-0.4370880126953125,0.6652733683586121,-0.5460902452468872,0.1579395681619644,39.81295776367188,95.448486328125,-40.52125549316406
296785,0.1032867431640625,1.242507934570312,-0.408203125,0.6206526160240173,-0.5383644104003906,0.1175332888960838,39.80601501464844,95.23684692382812,-40.81001281738281
296786,0.1114959716796875,1.302520751953125,-0.35687255859375,0.5863606929779053,-0.5483954548835754,0.071752481162548,39.80563354492188,95.1239013671875,-41.15162658691406
296787,0.1229248046875,1.341644287109375,-0.2870025634765625,0.5610737204551697,-0.5485243797302246,0.0447805225849151,39.73541259765625,94.85752868652344,-41.46659851074219
296788,0.110443115234375,1.374923706054688,-0.2273712158203125,0.5641137361526489,-0.5391162037849426,0.0129866385832428,39.680419921875,94.84515380859376,-41.69752502441406
296789,0.0791473388671875,1.381805419921875,-0.196014404296875,0.6061288118362427,-0.5795179605484009,-0.0157113187015056,39.61116027832031,94.63613891601562,-41.83723449707031
296790,-0.023956298828125,1.33734130859375,-0.17608642578125,0.7648507952690125,-0.7364985346794128,-0.0621701627969741,39.39694213867188,94.32485961914062,-42.18061828613281
296791,-0.023956298828125,1.33734130859375,-0.17608642578125,0.7648507952690125,-0.7364985346794128,-0.0621701627969741,39.39694213867188,94.32485961914062,-42.18061828613281
296792,-0.0740203857421875,1.243988037109375,-0.1714324951171875,0.7565435767173767,-0.7713755369186401,-0.1117443740367889,39.31784057617188,94.11875915527344,-42.31587219238281
296793,-0.120269775390625,1.133377075195312,-0.1468963623046875,0.7336175441741943,-0.8111386895179749,-0.1296264380216599,39.18638610839844,94.00048828125,-42.49945068359375
296794,-0.1456451416015625,1.028915405273438,-0.1265411376953125,0.7138603329658508,-0.84429532289505,-0.122176505625248,38.99069213867188,93.9254150390625,-42.76994323730469
296795,-0.1436614990234375,0.9430389404296876,-0.138153076171875,0.6868162155151367,-0.918499231338501,-0.1022794991731644,38.76397705078125,93.7803955078125,-43.03999328613281
296796,-0.124359130859375,0.8805694580078125,-0.1361541748046875,0.653099000453949,-0.9912282824516296,-0.0585240311920642,38.52511596679688,93.51829528808594,-43.329833984375
296797,-0.1074066162109375,0.8457183837890625,-0.116973876953125,0.6130269169807434,-1.011490941047668,-0.0355769023299217,38.32286071777344,93.43394470214844,-43.60415649414062
296798,-0.0927581787109375,0.820831298828125,-0.0962677001953125,0.5676381587982178,-1.006074070930481,-0.0113685019314289,37.85954284667969,93.034423828125,-43.95065307617188
296799,-0.0927581787109375,0.820831298828125,-0.0962677001953125,0.5676381587982178,-1.006074070930481,-0.0113685019314289,37.85954284667969,93.034423828125,-43.95065307617188
296800,-0.1334228515625,0.8422088623046875,-0.0280914306640625,0.4746291041374207,-0.887126624584198,0.0257282666862011,37.34007263183594,92.68077087402344,-44.08078002929688
296801,-0.1617431640625,0.8558349609375,0.0427093505859375,0.3746734857559204,-0.7845640778541565,0.0374770686030387,37.14651489257812,92.46783447265624,-43.99436950683594
296802,-0.1797332763671875,0.8546905517578125,0.12030029296875,0.2387228310108185,-0.630315899848938,0.056347694247961,36.99278259277344,92.48263549804688,-44.22999572753906
296803,-0.1797332763671875,0.8546905517578125,0.12030029296875,0.2387228310108185,-0.630315899848938,0.056347694247961,36.99278259277344,92.48263549804688,-44.22999572753906
296804,-0.201416015625,0.801055908203125,0.244384765625,-0.085611306130886,-0.2429316937923431,0.1118839234113693,36.81500244140625,92.47477722167967,-44.29135131835938
296805,-0.2055511474609375,0.7631988525390625,0.2682342529296875,-0.2625674307346344,-0.0516900904476642,0.1389432400465012,36.80711364746094,92.4468994140625,-44.1875
296806,-0.2195892333984375,0.733917236328125,0.275909423828125,-0.4200819730758667,0.0816916674375534,0.1662446409463882,36.89637756347656,92.42880249023438,-44.14048767089844
296807,-0.237579345703125,0.7055206298828125,0.2364654541015625,-0.5297418832778931,0.0920111462473869,0.187166690826416,37.06863403320312,92.4635772705078,-44.00985717773438
296808,-0.239593505859375,0.6819000244140625,0.173980712890625,-0.5943490862846375,-0.092141643166542,0.2125026732683182,37.32191467285156,92.44125366210938,-43.56585693359375
296809,-0.214752197265625,0.6963653564453125,0.1623382568359375,-0.6241320371627808,-0.3816307187080383,0.2486513555049896,37.50181579589844,92.58448791503906,-43.16360473632812
296810,-0.1465301513671875,0.765869140625,0.1961517333984375,-0.6525527834892273,-0.5968332886695862,0.254973977804184,37.59759521484375,92.73486328125,-42.96241760253906
296811,-0.1465301513671875,0.765869140625,0.1961517333984375,-0.6525527834892273,-0.5968332886695862,0.254973977804184,37.59759521484375,92.73486328125,-42.96241760253906
296812,-0.0341339111328125,0.93890380859375,0.203887939453125,-0.6864819526672363,-0.7959908843040466,0.2212506234645844,37.46400451660156,93.25358581542967,-42.48626708984375
296813,0.0072021484375,1.05633544921875,0.1921539306640625,-0.6468738317489624,-0.8463888168334961,0.2119359523057938,37.41371154785156,93.411865234375,-42.16592407226562
296814,0.0150146484375,1.16998291015625,0.18853759765625,-0.5882158279418945,-0.832197368144989,0.1725523322820663,37.23043823242188,93.71865844726562,-41.78236389160156
296815,0.0150146484375,1.16998291015625,0.18853759765625,-0.5882158279418945,-0.832197368144989,0.1725523322820663,37.23043823242188,93.71865844726562,-41.78236389160156
296816,-0.01275634765625,1.3123779296875,0.1371002197265625,-0.4694226086139679,-0.6122042536735535,-0.0227673631161451,36.81405639648438,93.85563659667967,-40.95895385742188
296817,-0.040252685546875,1.343215942382812,0.0803680419921875,-0.3973215222358704,-0.530343234539032,-0.133726641535759,36.59140014648438,93.98049926757812,-40.71389770507812
296818,-0.0700225830078125,1.339309692382812,0.0391082763671875,-0.3060722947120667,-0.4888056516647339,-0.2180955857038498,36.41717529296875,94.14466857910156,-40.692138671875
296819,-0.10101318359375,1.3148193359375,0.0123443603515625,-0.2300707548856735,-0.3197188675403595,-0.2409817278385162,36.12200927734375,94.22740173339844,-40.39140319824219
296820,-0.1286163330078125,1.283248901367188,-0.0710296630859375,-0.1836851388216019,0.020822724327445,-0.2210610061883926,35.88139343261719,94.3734893798828,-40.30616760253906
296821,-0.1346282958984375,1.250762939453125,-0.2096099853515625,-0.1720138341188431,0.2757303714752197,-0.195534348487854,35.68603515625,94.5050811767578,-40.1424560546875
296822,-0.1319732666015625,1.212478637695312,-0.2969512939453125,-0.1565864086151123,0.3031026124954224,-0.1750964522361755,35.54533386230469,94.58596801757812,-39.87478637695312
296823,-0.1319732666015625,1.212478637695312,-0.2969512939453125,-0.1565864086151123,0.3031026124954224,-0.1750964522361755,35.54533386230469,94.58596801757812,-39.87478637695312
296824,-0.1353607177734375,1.14886474609375,-0.3022308349609375,-0.123717412352562,0.2493626922369003,-0.1206438615918159,35.43681335449219,94.5527801513672,-39.85469055175781
296825,-0.1165008544921875,1.115371704101562,-0.330322265625,-0.0796255841851234,0.2815930545330048,-0.0932266190648078,35.47444152832031,94.5548858642578,-39.73867797851562
296826,-0.09368896484375,1.077041625976562,-0.3682861328125,-0.0072813485749065,0.3001848459243774,-0.0766447111964225,35.52963256835938,94.52867126464844,-39.79541015625
296827,-0.09368896484375,1.077041625976562,-0.3682861328125,-0.0072813485749065,0.3001848459243774,-0.0766447111964225,35.52963256835938,94.52867126464844,-39.79541015625
296828,-0.014678955078125,0.876739501953125,-0.38330078125,0.1089102402329445,0.2421676218509674,-0.0373284630477428,35.49395751953125,94.6438446044922,-39.88810729980469
296829,0.017181396484375,0.7773590087890625,-0.3841705322265625,0.1295092552900314,0.2203565984964371,0.0064483117312192,35.57272338867188,94.5946044921875,-39.80508422851562
296830,0.0422821044921875,0.68768310546875,-0.42279052734375,0.1503756493330002,0.1993594467639923,0.0667065903544426,35.62718200683594,94.52230834960938,-39.77963256835938
296831,0.0422821044921875,0.68768310546875,-0.42279052734375,0.1503756493330002,0.1993594467639923,0.0667065903544426,35.62718200683594,94.52230834960938,-39.77963256835938
296832,0.0941619873046875,0.610382080078125,-0.55438232421875,0.2466350793838501,0.1651828289031982,0.1929763853549957,35.76252746582031,94.49058532714844,-39.96633911132812
296833,0.124267578125,0.634246826171875,-0.61724853515625,0.2876043617725372,0.148056834936142,0.2340622991323471,35.91493225097656,94.47663879394533,-40.0218505859375
296834,0.1488037109375,0.706268310546875,-0.6466522216796875,0.3023345470428467,0.0971734225749969,0.2331293970346451,36.0819091796875,94.43083190917967,-40.04583740234375
296835,0.1536102294921875,0.7958526611328125,-0.59295654296875,0.2971224784851074,0.0988919585943222,0.2018596231937408,36.16636657714844,94.30625915527344,-39.88235473632812
296836,0.1251678466796875,0.8714752197265625,-0.521820068359375,0.3100212514400482,0.1473849266767502,0.1554298102855682,36.36264038085938,94.3123016357422,-39.8599853515625
296837,0.0970001220703125,0.9410247802734376,-0.479736328125,0.3500749170780182,0.1464757174253464,0.1271193325519562,36.4808349609375,94.31251525878906,-40.06098937988281
296838,0.077972412109375,1.006439208984375,-0.4495697021484375,0.3936362564563751,0.1108468919992447,0.1015556529164314,36.41883850097656,94.28515625,-40.52891540527344
296839,0.077972412109375,1.006439208984375,-0.4495697021484375,0.3936362564563751,0.1108468919992447,0.1015556529164314,36.41883850097656,94.28515625,-40.52891540527344
296840,0.015655517578125,1.084640502929688,-0.420135498046875,0.4675147235393524,0.0842190086841583,0.0436606630682945,36.55567932128906,94.1062469482422,-40.8570556640625
296841,-0.014190673828125,1.089065551757812,-0.376373291015625,0.4675147235393524,0.0842190086841583,0.0436606630682945,36.62864685058594,94.04928588867188,-40.93972778320312
296842,-0.0345306396484375,1.062911987304688,-0.313079833984375,0.4627178311347961,0.0911746472120285,0.0362653285264968,36.67910766601562,94.01295471191406,-41.22978210449219
296843,-0.0345306396484375,1.062911987304688,-0.313079833984375,0.4627178311347961,0.0911746472120285,0.0362653285264968,36.67910766601562,94.01295471191406,-41.22978210449219
296844,-0.0576324462890625,0.987030029296875,-0.1763458251953125,0.3359748125076294,0.0176168102771043,0.042933352291584,36.74171447753906,93.94862365722656,-41.9017333984375
296845,-0.0634307861328125,0.9469757080078124,-0.0940399169921875,0.1870031803846359,-0.0237695109099149,0.0821723639965057,36.71435546875,93.9468994140625,-42.01893615722656
296846,-0.071685791015625,0.9358367919921876,-0.0330352783203125,0.0406265221536159,-0.0700009241700172,0.1482078433036804,36.72515869140625,93.87825012207033,-42.23417663574219
296847,-0.071685791015625,0.9358367919921876,-0.0330352783203125,0.0406265221536159,-0.0700009241700172,0.1482078433036804,36.72515869140625,93.87825012207033,-42.23417663574219
296848,-0.0595855712890625,0.986572265625,0.0319366455078125,-0.1472496390342712,-0.2533702254295349,0.1958635151386261,36.85874938964844,93.90573120117188,-42.37493896484375
296849,-0.0709228515625,1.046966552734375,0.0537872314453125,-0.1796153038740158,-0.325472891330719,0.2037675082683563,36.88375854492188,93.92214965820312,-42.30570983886719
296850,-0.0882415771484375,1.102218627929688,0.080963134765625,-0.1751925945281982,-0.3628370463848114,0.2301325350999832,36.97409057617188,93.97029113769533,-42.30221557617188
296851,-0.0882415771484375,1.102218627929688,0.080963134765625,-0.1751925945281982,-0.3628370463848114,0.2301325350999832,36.97409057617188,93.97029113769533,-42.30221557617188
296852,-0.07916259765625,1.128738403320312,0.1224822998046875,-0.1212228313088417,-0.3558188378810883,0.3592119514942169,37.03059387207031,93.84878540039062,-41.98883056640625
296853,-0.035003662109375,1.091400146484375,0.117919921875,-0.0926268696784973,-0.3493127226829529,0.4160720407962799,37.14361572265625,93.95745849609376,-41.85881042480469
296854,0.0696868896484375,0.936187744140625,0.089599609375,0.0107708889991045,-0.2933501303195953,0.4226745665073395,37.46873474121094,93.80751037597656,-41.76992797851562
296855,0.0696868896484375,0.936187744140625,0.089599609375,0.0107708889991045,-0.2933501303195953,0.4226745665073395,37.46873474121094,93.80751037597656,-41.76992797851562
296856,0.0905609130859375,0.893035888671875,0.0459442138671875,0.1052422672510147,-0.2502098381519318,0.388228178024292,37.52609252929688,93.7598114013672,-41.54904174804688
296857,0.084503173828125,0.8833160400390625,-0.0168914794921875,0.2111039906740189,-0.274327427148819,0.3265328407287598,37.63227844238281,93.87190246582033,-41.53475952148438
296858,0.045257568359375,0.899169921875,-0.0689544677734375,0.2614374756813049,-0.3693167865276337,0.221035972237587,37.76622009277344,93.85560607910156,-41.47340393066406
296859,0.045257568359375,0.899169921875,-0.0689544677734375,0.2614374756813049,-0.3693167865276337,0.221035972237587,37.76622009277344,93.85560607910156,-41.47340393066406
296860,-0.077911376953125,0.943389892578125,-0.090911865234375,0.1432066857814789,-0.5144340395927429,0.0075306207872927,37.87139892578125,93.83351135253906,-41.61334228515625
296861,-0.11907958984375,0.9605712890625,-0.1026153564453125,0.0586838200688362,-0.5453874468803406,-0.086207590997219,37.8218994140625,93.77333068847656,-41.49102783203125
296862,-0.19183349609375,0.9067230224609376,-0.0821075439453125,-0.072019062936306,-0.5720645785331726,-0.224372386932373,37.50300598144531,93.68995666503906,-41.51066589355469
296863,-0.19183349609375,0.9067230224609376,-0.0821075439453125,-0.072019062936306,-0.5720645785331726,-0.224372386932373,37.50300598144531,93.68995666503906,-41.51066589355469
296864,-0.2158660888671875,0.8460540771484375,-0.064239501953125,-0.133258193731308,-0.5515840649604797,-0.2628356218338013,37.30853271484375,93.68771362304688,-41.48056030273438
296865,-0.2377166748046875,0.7991180419921875,-0.0435943603515625,-0.2029264867305756,-0.5239287614822388,-0.2826378345489502,37.12741088867188,93.77272033691406,-41.40550231933594
296866,-0.267730712890625,0.7892303466796875,-0.0275726318359375,-0.3512946367263794,-0.4340206980705261,-0.3472873866558075,36.92437744140625,93.77952575683594,-41.28854370117188
296867,-0.267730712890625,0.7892303466796875,-0.0275726318359375,-0.3512946367263794,-0.4340206980705261,-0.3472873866558075,36.92437744140625,93.77952575683594,-41.28854370117188
296868,-0.3509521484375,0.8414764404296875,0.004638671875,-0.4151769578456879,-0.3708342611789703,-0.3841226398944855,36.50038146972656,94.08676147460938,-40.79342651367188
296869,-0.38818359375,0.8788909912109375,0.0379180908203125,-0.4717430174350739,-0.2651749551296234,-0.4291297793388367,36.33273315429688,94.0543975830078,-40.60234069824219
296870,-0.4188690185546875,0.9050750732421876,0.063873291015625,-0.514882504940033,-0.1477215439081192,-0.4479703307151794,36.11907958984375,94.0438232421875,-40.01341247558594
296871,-0.4188690185546875,0.9050750732421876,0.063873291015625,-0.514882504940033,-0.1477215439081192,-0.4479703307151794,36.11907958984375,94.0438232421875,-40.01341247558594
296872,-0.4581451416015625,0.950592041015625,0.1339111328125,-0.6097200512886047,0.0159589927643537,-0.4123553335666656,35.83644104003906,94.20164489746094,-39.62434387207031
296873,-0.4673614501953125,0.972900390625,0.162811279296875,-0.6767646074295044,0.0826083272695541,-0.3511984944343567,35.68919372558594,94.17434692382812,-39.2401123046875
296874,-0.4621429443359375,0.992279052734375,0.165283203125,-0.7487155199050903,0.1144402921199799,-0.2461208254098892,35.64512634277344,94.2628936767578,-38.94485473632812
296875,-0.4621429443359375,0.992279052734375,0.165283203125,-0.7487155199050903,0.1144402921199799,-0.2461208254098892,35.64512634277344,94.2628936767578,-38.94485473632812
296876,-0.38104248046875,1.074310302734375,0.0973663330078125,-0.7883851528167725,0.0867697820067405,0.0669782310724258,35.28782653808594,94.6763916015625,-38.51742553710938
296877,-0.3090972900390625,1.112091064453125,0.045928955078125,-0.7342681288719177,0.0675540119409561,0.20102658867836,35.14091491699219,94.8903350830078,-38.07447814941406
296878,-0.22906494140625,1.164871215820312,-0.0074920654296875,-0.5996160507202148,0.1220364272594452,0.334920197725296,35.11398315429688,95.06544494628906,-38.04457092285156
296879,-0.22906494140625,1.164871215820312,-0.0074920654296875,-0.5996160507202148,0.1220364272594452,0.334920197725296,35.11398315429688,95.06544494628906,-38.04457092285156
296880,-0.0035552978515625,1.173629760742188,-0.1331024169921875,-0.5625600218772888,0.1581347733736038,0.3412081897258759,35.30056762695312,95.43853759765624,-37.37277221679688
296881,0.079254150390625,1.167388916015625,-0.19268798828125,-0.5009501576423645,0.2481842339038849,0.3221932351589203,35.41838073730469,95.64381408691406,-37.07521057128906
296882,0.138214111328125,1.180328369140625,-0.253448486328125,-0.5009501576423645,0.2481842339038849,0.3221932351589203,35.58531188964844,95.80328369140624,-36.69404602050781
296883,0.19378662109375,1.181350708007812,-0.3219451904296875,-0.4365871846675873,0.2070013880729675,0.2629163265228271,35.65202331542969,95.93418884277344,-36.396728515625
296884,0.2498931884765625,1.1396484375,-0.3685150146484375,-0.357480376958847,0.0547532588243484,0.1899041533470154,35.8170166015625,95.99713134765624,-36.15838623046875
296885,0.3072052001953125,1.072067260742188,-0.396514892578125,-0.2760835289955139,-0.1378191113471985,0.145474910736084,35.8243408203125,96.12513732910156,-36.04946899414062
296886,0.3529510498046875,1.010421752929688,-0.4243621826171875,0.0461182259023189,-0.4129334986209869,0.1884399503469467,35.81260681152344,96.09945678710938,-35.89862060546875
296887,0.3529510498046875,1.010421752929688,-0.4243621826171875,0.0461182259023189,-0.4129334986209869,0.1884399503469467,35.81260681152344,96.09945678710938,-35.89862060546875
296888,0.409088134765625,0.9139251708984376,-0.5126190185546875,0.2965525686740875,-0.4460136890411377,0.2602821886539459,35.80548095703125,96.1515655517578,-35.53584289550781
296889,0.424896240234375,0.881378173828125,-0.5617218017578125,0.5241934657096863,-0.4429973959922791,0.3256129920482635,35.81550598144531,96.19473266601562,-35.45419311523438
296890,0.436309814453125,0.86749267578125,-0.6082916259765625,0.6849581003189087,-0.4632033407688141,0.3882553279399872,35.84172058105469,96.0960693359375,-35.44210815429688
296891,0.44976806640625,0.87762451171875,-0.6260528564453125,0.7498774528503418,-0.508232593536377,0.4279622733592987,35.89076232910156,95.92369079589844,-35.64881896972656
296892,0.467193603515625,0.8991241455078125,-0.6218719482421875,0.7348641157150269,-0.5521824955940247,0.4410820603370667,36.01341247558594,95.96102905273438,-35.75889587402344
296893,0.4739837646484375,0.9339447021484376,-0.6091156005859375,0.6802184581756592,-0.5916185975074768,0.4284136593341827,36.10116577148438,95.7703094482422,-36.04316711425781
296894,0.4622650146484375,0.9843902587890624,-0.568115234375,0.6049309372901917,-0.6119893789291382,0.3791310787200928,36.17521667480469,95.6044921875,-36.23765563964844
296895,0.4622650146484375,0.9843902587890624,-0.568115234375,0.6049309372901917,-0.6119893789291382,0.3791310787200928,36.17521667480469,95.6044921875,-36.23765563964844
296896,0.3594818115234375,1.1474609375,-0.440765380859375,0.4713813662528992,-0.5366573333740234,0.271522045135498,36.29458618164062,95.42005920410156,-36.80496215820312
296897,0.3040313720703125,1.230255126953125,-0.3894500732421875,0.4350670278072357,-0.479012668132782,0.214903250336647,36.302978515625,95.21257019042967,-36.91123962402344
296898,0.264801025390625,1.29669189453125,-0.3482818603515625,0.4355056583881378,-0.4740200340747833,0.0145648280158639,36.32749938964844,95.14315795898438,-36.97386169433594
296899,0.2100982666015625,1.328720092773438,-0.2999725341796875,0.4518063366413116,-0.4847459197044373,-0.0967446491122245,36.42379760742188,95.1903839111328,-37.17755126953125
296900,0.1453094482421875,1.368743896484375,-0.2291412353515625,0.4518063366413116,-0.4847459197044373,-0.0967446491122245,36.479248046875,95.12472534179688,-37.34065246582031
296901,0.082672119140625,1.398590087890625,-0.172576904296875,0.4619878828525543,-0.5359292030334473,-0.2470590621232986,36.40596008300781,95.05918884277344,-37.5306396484375
296902,0.021148681640625,1.355148315429688,-0.1244354248046875,0.4859475195407867,-0.6475992798805237,-0.4093504846096039,36.36502075195312,95.04745483398438,-37.70204162597656
296903,0.021148681640625,1.355148315429688,-0.1244354248046875,0.4859475195407867,-0.6475992798805237,-0.4093504846096039,36.36502075195312,95.04745483398438,-37.70204162597656
296904,-0.1305694580078125,1.128433227539062,-0.070465087890625,0.5605831742286682,-0.8815273642539978,-0.6020895838737488,35.90716552734375,94.84671020507812,-38.04991149902344
296905,-0.193115234375,1.006790161132812,-0.0588836669921875,0.5584608912467957,-1.014928579330444,-0.5797184705734253,35.7333984375,94.53309631347656,-38.09329223632812
296906,-0.2123260498046875,0.90191650390625,-0.0302886962890625,0.4859209060668945,-1.135554313659668,-0.4884437024593353,35.44920349121094,94.45742797851562,-38.22537231445312
296907,-0.2123260498046875,0.90191650390625,-0.0302886962890625,0.4859209060668945,-1.135554313659668,-0.4884437024593353,35.44920349121094,94.45742797851562,-38.22537231445312
296908,-0.183502197265625,0.838348388671875,0.017059326171875,0.2528487741947174,-1.180003762245178,-0.2573114335536957,34.66830444335938,94.22406005859376,-38.71823120117188
296909,-0.2163543701171875,0.8594818115234375,-0.001220703125,0.2061363905668259,-1.234654545783997,-0.1564926654100418,34.27378845214844,93.97923278808594,-38.61822509765625
296910,-0.25506591796875,0.8998870849609375,0.0280303955078125,0.2365451604127884,-1.275049090385437,-0.0669814273715019,34.05465698242188,93.86566162109376,-38.59495544433594
296911,-0.25506591796875,0.8998870849609375,0.0280303955078125,0.2365451604127884,-1.275049090385437,-0.0669814273715019,34.05465698242188,93.86566162109376,-38.59495544433594
296912,-0.2983245849609375,0.88885498046875,0.1168365478515625,0.449168473482132,-1.117728710174561,0.0160649865865707,33.59266662597656,93.76266479492188,-38.29403686523438
296913,-0.2916259765625,0.8459930419921875,0.137786865234375,0.5435866117477417,-0.9397482872009276,0.035577967762947,33.42709350585938,93.65476989746094,-38.22122192382812
296914,-0.259674072265625,0.784027099609375,0.1380462646484375,0.4721449017524719,-0.5549710988998413,0.0768010392785072,33.19903564453125,93.50439453125,-38.148681640625
296915,-0.259674072265625,0.784027099609375,0.1380462646484375,0.4721449017524719,-0.5549710988998413,0.0768010392785072,33.19903564453125,93.50439453125,-38.148681640625
296916,-0.148284912109375,0.669158935546875,0.1882171630859375,0.2968388497829437,-0.3385120034217834,0.0927650928497314,32.873291015625,93.39289855957033,-38.20600891113281
296917,-0.0955963134765625,0.61688232421875,0.2285003662109375,0.0575778074562549,-0.0845108926296234,0.1249336823821068,32.82254028320312,93.3726043701172,-38.40965270996094
296918,-0.04449462890625,0.57843017578125,0.251861572265625,-0.2017853111028671,0.132980689406395,0.191852793097496,32.79684448242188,93.28907775878906,-38.46002197265625
296919,-0.0042877197265625,0.5706329345703125,0.277374267578125,-0.4803186655044556,0.2786009907722473,0.2587924003601074,32.90200805664062,93.302734375,-38.48582458496094
296920,0.0173492431640625,0.581268310546875,0.3083648681640625,-1.019987225532532,0.4015452861785889,0.2870719730854034,32.98835754394531,93.37692260742188,-38.33413696289062
296921,0.0118408203125,0.6132659912109375,0.361053466796875,-1.019987225532532,0.4015452861785889,0.2870719730854034,33.19880676269531,93.5142059326172,-38.15597534179688
296922,-0.0247955322265625,0.7173614501953125,0.4217529296875,-1.329661726951599,0.4161407649517059,0.2195097208023071,33.38079833984375,93.60928344726562,-37.91554260253906
296923,-0.0247955322265625,0.7173614501953125,0.4217529296875,-1.329661726951599,0.4161407649517059,0.2195097208023071,33.38079833984375,93.60928344726562,-37.91554260253906
296924,-0.113800048828125,0.9677886962890624,0.4121246337890625,-1.342692255973816,0.1832089722156525,0.1516638249158859,33.91123962402344,94.09117126464844,-37.1209716796875
296925,-0.14215087890625,1.079635620117188,0.4152984619140625,-1.267961621284485,-0.1782578825950623,0.0688043609261512,34.07328796386719,94.4031219482422,-36.54185485839844
296926,-0.156097412109375,1.199905395507812,0.4593963623046875,-1.187573552131653,-0.4828753173351288,-0.0180048327893018,34.22042846679688,94.58192443847656,-36.086669921875
296927,-0.156097412109375,1.199905395507812,0.4593963623046875,-1.187573552131653,-0.4828753173351288,-0.0180048327893018,34.22042846679688,94.58192443847656,-36.086669921875
296928,-0.1566162109375,1.443588256835938,0.421478271484375,-1.075385808944702,-0.840336799621582,-0.2536365389823914,34.15432739257812,94.98037719726562,-35.05474853515625
296929,-0.14947509765625,1.52520751953125,0.3250579833984375,-0.9559088945388794,-0.9967839121818542,-0.3770026862621307,33.95820617675781,95.20053100585938,-34.50395202636719
296930,-0.1645050048828125,1.514129638671875,0.267669677734375,-0.3933182656764984,0.3337785005569458,-0.2721255123615265,33.26141357421875,95.63609313964844,-33.382568359375
296931,-0.1645050048828125,1.514129638671875,0.267669677734375,-0.3933182656764984,0.3337785005569458,-0.2721255123615265,33.26141357421875,95.63609313964844,-33.382568359375
296932,-0.129913330078125,1.404144287109375,0.1042327880859375,-0.2925554215908051,0.7673808336257935,-0.2745937407016754,32.83395385742188,95.72076416015624,-32.78117370605469
296933,-0.0662078857421875,1.249267578125,-0.1553802490234375,-0.2925554215908051,0.7673808336257935,-0.2745937407016754,32.43852233886719,95.94468688964844,-32.30856323242188
296934,-0.0343475341796875,1.093780517578125,-0.2507781982421875,-0.2773194909095764,0.6258428692817688,-0.2408000975847244,32.28623962402344,96.06773376464844,-32.09230041503906
296935,-0.016998291015625,1.013412475585938,-0.2035064697265625,-0.3267698585987091,0.3641614317893982,-0.2032447308301926,32.13565063476562,96.21058654785156,-31.87789916992188
296936,-4.57763671875e-05,0.9987640380859376,-0.18280029296875,-0.3969098031520844,0.1805484741926193,-0.1959663033485413,32.03250122070312,96.17262268066406,-31.749755859375
296937,-0.00152587890625,0.992340087890625,-0.2296295166015625,-0.4342372119426727,0.0408765934407711,-0.1826555579900742,32.0889892578125,96.02122497558594,-31.34774780273438
296938,-0.0189971923828125,0.9875030517578124,-0.2846221923828125,-0.3954741060733795,-0.0322724506258964,-0.1291180402040482,31.9764404296875,96.00564575195312,-31.15496826171875
296939,-0.0189971923828125,0.9875030517578124,-0.2846221923828125,-0.3954741060733795,-0.0322724506258964,-0.1291180402040482,31.9764404296875,96.00564575195312,-31.15496826171875
296940,-0.062164306640625,0.9921112060546876,-0.3421783447265625,-0.1843312233686447,-0.0040504015050828,0.0121844941750168,31.70855712890625,96.38442993164062,-31.25328063964844
296941,-0.0655670166015625,0.971923828125,-0.3673553466796875,-0.0792705863714218,0.0304151643067598,0.0607720054686069,31.68649291992188,96.38629150390624,-31.19552612304688
296942,-0.015625,0.9069976806640624,-0.3878173828125,0.030298251658678,0.0862310230731964,0.153305396437645,31.62315368652344,96.36256408691406,-31.05247497558594
296943,-0.015625,0.9069976806640624,-0.3878173828125,0.030298251658678,0.0862310230731964,0.153305396437645,31.62315368652344,96.36256408691406,-31.05247497558594
296944,0.103485107421875,0.8676300048828125,-0.505279541015625,0.2897258400917053,0.2543300092220306,0.2953898310661316,31.68257141113281,96.31124877929688,-30.97674560546875
296945,0.160919189453125,0.8683929443359375,-0.5306854248046875,0.3667473793029785,0.3013870120048523,0.3390824496746063,31.78524780273438,96.18519592285156,-31.08847045898438
296946,0.195556640625,0.9044036865234376,-0.5194091796875,0.4011407792568207,0.3531053364276886,0.3408547937870026,31.93902587890625,96.20887756347656,-31.07228088378906
296947,0.195556640625,0.9044036865234376,-0.5194091796875,0.4011407792568207,0.3531053364276886,0.3408547937870026,31.93902587890625,96.20887756347656,-31.07228088378906
296948,0.152587890625,1.003692626953125,-0.4511871337890625,0.4104980528354645,0.4146603047847748,0.2377603650093079,32.28117370605469,96.2936553955078,-31.71192932128906
296949,0.097259521484375,1.033645629882812,-0.4332733154296875,0.4485959112644196,0.4454160928726196,0.2112906724214554,32.52621459960938,96.16818237304688,-32.00437927246094
296950,0.059967041015625,1.063400268554688,-0.418792724609375,0.5087870955467224,0.4624070525169373,0.180981770157814,32.68142700195312,96.14176940917967,-32.26620483398438
296951,0.059967041015625,1.063400268554688,-0.418792724609375,0.5087870955467224,0.4624070525169373,0.180981770157814,32.68142700195312,96.14176940917967,-32.26620483398438
296952,0.013214111328125,1.110443115234375,-0.34454345703125,0.5001727938652039,0.4488150775432587,0.185637503862381,32.99522399902344,96.3513641357422,-32.8948974609375
296953,0.001495361328125,1.130950927734375,-0.2786865234375,0.4327144026756287,0.4290815889835358,0.1806427538394928,33.1409912109375,96.31106567382812,-32.98271179199219
296954,-0.0018157958984375,1.144134521484375,-0.204925537109375,0.3263245820999146,0.3668576180934906,0.1824936419725418,33.35533142089844,96.31973266601562,-33.328857421875
296955,-0.0018157958984375,1.144134521484375,-0.204925537109375,0.3263245820999146,0.3668576180934906,0.1824936419725418,33.35533142089844,96.31973266601562,-33.328857421875
296956,-0.0061492919921875,1.141036987304688,-0.0094146728515625,0.1036723330616951,0.2233161777257919,0.2193323522806168,33.61900329589844,96.39256286621094,-33.93650817871094
296957,-0.010498046875,1.100128173828125,0.0626983642578125,0.0435181818902492,0.1387213915586472,0.2636668086051941,33.8018798828125,96.28631591796876,-34.17485046386719
296958,-0.0249481201171875,1.050857543945312,0.1138916015625,0.0031973912846297,0.0653443858027458,0.327034592628479,34.01011657714844,96.2439422607422,-34.26405334472656
296959,-0.0249481201171875,1.050857543945312,0.1138916015625,0.0031973912846297,0.0653443858027458,0.327034592628479,34.01011657714844,96.2439422607422,-34.26405334472656
296960,-0.0132904052734375,0.98248291015625,0.0982666015625,-0.070988692343235,-0.1733358353376389,0.3965678513050079,34.31549072265625,96.30509948730467,-34.33149719238281
296961,0.0052642822265625,0.950225830078125,0.1069793701171875,-0.1037676706910133,-0.2885811924934387,0.3975167274475098,34.48844909667969,96.3786163330078,-34.28506469726562
296962,0.0330963134765625,0.9242095947265624,0.1307525634765625,-0.14652019739151,-0.3465331792831421,0.3709426522254944,34.60261535644531,96.29710388183594,-34.19355773925781
296963,0.0330963134765625,0.9242095947265624,0.1307525634765625,-0.14652019739151,-0.3465331792831421,0.3709426522254944,34.60261535644531,96.29710388183594,-34.19355773925781
296964,0.094207763671875,0.9229583740234376,0.1311492919921875,-0.166917085647583,-0.3667343258857727,0.2877159416675568,35.2637939453125,96.37371826171876,-34.00784301757812
296965,0.118621826171875,0.944580078125,0.093902587890625,-0.1094942688941956,-0.4509133696556091,0.255416601896286,35.29904174804688,96.36871337890624,-33.83261108398438
296966,0.1498565673828125,0.941802978515625,0.0491485595703125,0.0116691729053854,-0.6119235754013062,0.2380365282297134,35.42356872558594,96.40560913085938,-33.80915832519531
296967,0.1498565673828125,0.941802978515625,0.0491485595703125,0.0116691729053854,-0.6119235754013062,0.2380365282297134,35.42356872558594,96.40560913085938,-33.80915832519531
296968,0.2151641845703125,0.8809967041015625,0.01556396484375,0.306749016046524,-0.9181516766548156,0.1832768768072128,35.54086303710938,96.22470092773438,-33.56898498535156
296969,0.2114715576171875,0.829742431640625,0.016265869140625,0.3993662893772125,-0.9156150221824646,0.1315755993127823,35.45449829101562,96.18997192382812,-33.43858337402344
296970,0.1609954833984375,0.8054962158203125,0.0227813720703125,0.4526668190956116,-0.7753309011459351,0.0714582055807113,35.45252990722656,96.10749816894533,-33.54449462890625
296971,0.1609954833984375,0.8054962158203125,0.0227813720703125,0.4526668190956116,-0.7753309011459351,0.0714582055807113,35.45252990722656,96.10749816894533,-33.54449462890625
296972,-0.0261383056640625,0.886077880859375,0.067413330078125,0.3976051509380341,-0.4854204952716827,-0.0786338225007057,35.19087219238281,96.1997528076172,-33.75299072265625
296973,-0.127044677734375,0.9396209716796876,0.1317596435546875,0.305325835943222,-0.4719094932079315,-0.1664717942476273,35.10124206542969,96.11192321777344,-33.82183837890625
296974,-0.201324462890625,0.978179931640625,0.2030029296875,0.200823649764061,-0.4447846412658691,-0.267417311668396,35.00529479980469,96.1517333984375,-33.81880187988281
296975,-0.201324462890625,0.978179931640625,0.2030029296875,0.200823649764061,-0.4447846412658691,-0.267417311668396,35.00529479980469,96.1517333984375,-33.81880187988281
296976,-0.3271636962890625,0.9622344970703124,0.2304840087890625,0.0287898369133472,-0.354231595993042,-0.4293572306632996,34.67169189453125,96.12127685546876,-34.10574340820312
296977,-0.3822479248046875,0.912109375,0.2219390869140625,-0.0356453470885753,-0.3634240031242371,-0.4543595016002655,34.52938842773438,95.94415283203124,-33.99455261230469
296978,-0.4300079345703125,0.8704986572265625,0.225830078125,-0.1009353995323181,-0.356322705745697,-0.4332931041717529,34.30427551269531,95.90203857421876,-33.92359924316406
296979,-0.4300079345703125,0.8704986572265625,0.225830078125,-0.1009353995323181,-0.356322705745697,-0.4332931041717529,34.30427551269531,95.90203857421876,-33.92359924316406
296980,-0.4824676513671875,0.850006103515625,0.2648773193359375,-0.2493483126163483,-0.1606293618679047,-0.3199556469917297,33.96875,95.99481201171876,-33.63270568847656
296981,-0.4727630615234375,0.873016357421875,0.289398193359375,-0.3194043636322021,0.0003696467611007,-0.2966111600399017,33.75233459472656,96.0124969482422,-33.5919189453125
296982,-0.4430389404296875,0.9025421142578124,0.31842041015625,-0.4666638374328613,0.28743577003479,-0.3166687488555908,33.43023681640625,96.10086059570312,-33.37492370605469
296983,-0.4430389404296875,0.9025421142578124,0.31842041015625,-0.4666638374328613,0.28743577003479,-0.3166687488555908,33.43023681640625,96.10086059570312,-33.37492370605469
296984,-0.4172515869140625,0.8964080810546875,0.307281494140625,-0.5699276328086853,0.3002141416072845,-0.3089661002159119,33.33163452148438,96.19856262207033,-33.10501098632812
296985,-0.39337158203125,0.8894500732421875,0.2938232421875,-0.6963859796524048,0.2326785176992416,-0.2861574590206146,33.12237548828125,96.33444213867188,-33.00619506835938
296986,-0.354095458984375,0.8916778564453125,0.2557525634765625,-0.8320199847221375,0.1036033555865288,-0.2426640391349792,33.03288269042969,96.49887084960938,-32.80291748046875
296987,-0.29571533203125,0.90185546875,0.183441162109375,-0.9487479329109192,-0.0989731848239898,-0.186702772974968,32.81338500976562,96.536376953125,-32.46224975585938
296988,-0.20849609375,0.9180908203125,0.115325927734375,-1.000374674797058,-0.3282226324081421,-0.1203908622264862,32.76885986328125,96.63502502441406,-32.20498657226562
296989,-0.098358154296875,0.9507598876953124,0.082305908203125,-0.9867283701896667,-0.4512737095355988,-0.0465517900884151,32.60118103027344,96.69709777832033,-31.80595397949219
296990,0.011138916015625,1.007980346679688,0.04425048828125,-0.909466564655304,-0.381243497133255,-0.0101980427280068,32.44903564453125,96.98527526855467,-31.21383666992188
296991,0.011138916015625,1.007980346679688,0.04425048828125,-0.909466564655304,-0.381243497133255,-0.0101980427280068,32.44903564453125,96.98527526855467,-31.21383666992188
296992,0.1546478271484375,1.15899658203125,-0.0802764892578125,-0.6012616157531738,-0.0874270498752594,-0.0663699656724929,32.0946044921875,97.11756896972656,-29.98930358886719
296993,0.185760498046875,1.218307495117188,-0.110931396484375,-0.4475553929805756,-0.0552858933806419,-0.1358529031276703,31.90191650390625,97.21417236328124,-29.53201293945312
296994,0.2181854248046875,1.25738525390625,-0.1419677734375,-0.3356496393680573,-0.3296822905540466,-0.2374692857265472,31.51473999023438,97.363037109375,-28.99147033691406
296995,0.2181854248046875,1.25738525390625,-0.1419677734375,-0.3356496393680573,-0.3296822905540466,-0.2374692857265472,31.51473999023438,97.363037109375,-28.99147033691406
296996,0.213531494140625,1.245819091796875,-0.187255859375,-0.2985920310020447,-0.5174401998519897,-0.2426568567752838,31.37826538085938,97.36541748046876,-28.72427368164062
296997,0.213958740234375,1.18304443359375,-0.257110595703125,-0.1686508059501648,-0.6470967531204224,-0.2182894647121429,31.09982299804688,97.3782196044922,-28.32760620117188
296998,0.221282958984375,1.079193115234375,-0.34930419921875,0.085128478705883,-0.7124879956245422,-0.1460291147232056,31.0185546875,97.2397918701172,-28.18379211425781
296999,0.221282958984375,1.079193115234375,-0.34930419921875,0.085128478705883,-0.7124879956245422,-0.1460291147232056,31.0185546875,97.2397918701172,-28.18379211425781
297000,0.216552734375,0.9209442138671876,-0.54351806640625,0.7400722503662109,-0.670221209526062,0.0792460888624191,30.69087219238281,97.06016540527344,-27.92190551757812
297001,0.212066650390625,0.8582611083984375,-0.6159820556640625,0.9777787923812866,-0.6178914308547974,0.1898096203804016,30.66403198242188,96.85922241210938,-27.760009765625
297002,0.2048797607421875,0.8192138671875,-0.644744873046875,1.085325717926025,-0.6010373830795288,0.2704871594905853,30.70414733886719,96.68553161621094,-28.02574157714844
297003,0.2048797607421875,0.8192138671875,-0.644744873046875,1.085325717926025,-0.6010373830795288,0.2704871594905853,30.70414733886719,96.68553161621094,-28.02574157714844
297004,0.2266693115234375,0.8793182373046875,-0.5882720947265625,0.9095475077629088,-0.6253944039344788,0.2720781266689301,30.78271484375,96.46009826660156,-28.91256713867188
297005,0.2596282958984375,0.9439849853515624,-0.566162109375,0.8014370203018188,-0.6110255718231201,0.2804364562034607,30.896240234375,96.42169189453124,-29.29730224609375
297006,0.2751922607421875,1.047988891601562,-0.552734375,0.7592416405677795,-0.5867313742637634,0.3005345165729523,30.95918273925781,96.36955261230467,-29.56295776367188
297007,0.281585693359375,1.168182373046875,-0.5178680419921875,0.7148526310920715,-0.5757413506507874,0.2985616624355316,31.06076049804688,96.37164306640624,-29.71176147460938
297008,0.285919189453125,1.309829711914062,-0.4596710205078125,0.6313060522079468,-0.5496684312820435,0.2722235321998596,31.05233764648438,96.25405883789062,-29.91680908203125
297009,0.284698486328125,1.436050415039062,-0.3969573974609375,0.5432891249656677,-0.5179161429405212,0.23391954600811,31.11990356445312,96.21202087402344,-30.21676635742188
297010,0.2755279541015625,1.547744750976562,-0.3157196044921875,0.5027331709861755,-0.5841050148010254,0.0727069601416587,31.23489379882812,96.11767578125,-30.33595275878906
297011,0.2755279541015625,1.547744750976562,-0.3157196044921875,0.5027331709861755,-0.5841050148010254,0.0727069601416587,31.23489379882812,96.11767578125,-30.33595275878906
297012,0.17266845703125,1.6876220703125,-0.096405029296875,0.5661494135856628,-0.69068843126297,-0.054600927978754,31.40678405761719,96.01789855957033,-30.61032104492188
297013,0.1151123046875,1.692047119140625,0.0073394775390625,0.6548010110855103,-0.770262598991394,-0.1807189136743546,31.46720886230469,95.92958068847656,-30.67611694335938
297014,0.044830322265625,1.62786865234375,0.0588836669921875,0.7546788454055786,-0.7529515624046326,-0.3025087416172028,31.39492797851562,95.85174560546876,-30.79649353027344
297015,0.044830322265625,1.62786865234375,0.0588836669921875,0.7546788454055786,-0.7529515624046326,-0.3025087416172028,31.39492797851562,95.85174560546876,-30.79649353027344
297016,-0.1609344482421875,1.249221801757812,0.0499420166015625,1.034060120582581,-0.8298851847648621,-0.4014922976493835,31.12106323242188,95.57809448242188,-31.30165100097656
297017,-0.1609344482421875,1.249221801757812,0.0499420166015625,1.034060120582581,-0.8298851847648621,-0.4014922976493835,31.12106323242188,95.57809448242188,-31.30165100097656
297018,-0.24713134765625,1.072341918945312,0.08074951171875,1.135982275009155,-0.9121813774108888,-0.3141968250274658,30.97456359863281,95.33453369140624,-31.67755126953125
297019,-0.2408599853515625,0.77288818359375,0.169281005859375,1.078427076339722,-0.9940853118896484,-0.0683660060167312,30.72001647949219,94.6641845703125,-32.24104309082031
297020,-0.2303009033203125,0.698089599609375,0.1520538330078125,0.8753291368484497,-1.023248553276062,0.1148261874914169,30.62530517578125,94.42404174804688,-32.44831848144531
297021,-0.2176971435546875,0.6933135986328125,0.1239471435546875,0.8753291368484497,-1.023248553276062,0.1148261874914169,30.40029907226562,94.20108032226562,-32.80070495605469
297022,-0.2154693603515625,0.7080535888671875,0.100433349609375,0.8725013732910156,-1.088691234588623,0.1308379024267197,30.306396484375,93.98834228515624,-32.92706298828125
297023,-0.2154693603515625,0.7080535888671875,0.100433349609375,0.8725013732910156,-1.088691234588623,0.1308379024267197,30.306396484375,93.98834228515624,-32.92706298828125
297024,-0.220489501953125,0.7491455078125,0.0626068115234375,1.02278733253479,-1.150769948959351,0.090500608086586,30.24783325195312,93.69734191894533,-33.26448059082031
297025,-0.201904296875,0.73822021484375,0.0774078369140625,1.043403625488281,-1.052997350692749,0.0529782623052597,30.06494140625,93.62269592285156,-33.36531066894531
297026,-0.1677703857421875,0.721435546875,0.0993499755859375,0.93701833486557,-0.8119991421699524,0.05176492780447,29.97358703613281,93.57620239257812,-33.51315307617188
297027,-0.1677703857421875,0.721435546875,0.0993499755859375,0.93701833486557,-0.8119991421699524,0.05176492780447,29.97358703613281,93.57620239257812,-33.51315307617188
297028,-0.0806732177734375,0.7234344482421875,0.1756744384765625,0.3348818421363831,-0.367647796869278,0.1599473208189011,29.66159057617188,93.31846618652344,-34.0919189453125
297029,-0.0696563720703125,0.709014892578125,0.2593231201171875,-0.0337004400789737,-0.1736508905887604,0.20648393034935,29.60475158691406,93.23793029785156,-34.36775207519531
297030,-0.0602569580078125,0.6842041015625,0.327362060546875,-0.3612061440944672,0.0299712140113115,0.2464883327484131,29.52255249023438,93.17445373535156,-34.32002258300781
297031,-0.0602569580078125,0.6842041015625,0.327362060546875,-0.3612061440944672,0.0299712140113115,0.2464883327484131,29.52255249023438,93.17445373535156,-34.32002258300781
297032,-0.0640106201171875,0.6826934814453125,0.365142822265625,-0.6035063862800598,0.2262493818998337,0.2534631490707397,29.60054016113281,93.27333068847656,-34.36454772949219
297033,-0.1050567626953125,0.6746978759765625,0.3144378662109375,-0.8151834607124329,0.0088076060637831,0.2977083921432495,29.94073486328125,93.40652465820312,-33.76043701171875
297034,-0.1184234619140625,0.7959442138671875,0.31256103515625,-0.7519965171813965,-0.188441276550293,0.3190538883209229,30.21403503417969,93.48391723632812,-33.28988647460938
297035,-0.0898590087890625,0.93267822265625,0.31842041015625,-0.7519965171813965,-0.188441276550293,0.3190538883209229,30.3939208984375,93.70573425292967,-32.84382629394531
297036,-0.059844970703125,1.026321411132812,0.3076629638671875,-0.7193520069122314,-0.3549138903617859,0.2932926118373871,30.57682800292969,93.86668395996094,-32.44004821777344
297037,-0.0412445068359375,1.10540771484375,0.29931640625,-0.7423662543296814,-0.4415497183799744,0.2452949732542038,30.59307861328125,94.12496948242188,-32.17620849609375
297038,-0.03173828125,1.198806762695312,0.259613037109375,-0.7724019289016724,-0.5021584630012512,0.1614528149366379,30.61408996582031,94.39024353027344,-32.09574890136719
297039,-0.03173828125,1.198806762695312,0.259613037109375,-0.7724019289016724,-0.5021584630012512,0.1614528149366379,30.61408996582031,94.39024353027344,-32.09574890136719
297040,-0.0383453369140625,1.3343505859375,0.1921844482421875,-0.8089807033538818,-0.4274402856826782,-0.049568086862564,30.45692443847656,94.82331848144533,-31.32420349121094
297041,-0.0383453369140625,1.3343505859375,0.1921844482421875,-0.8089807033538818,-0.4274402856826782,-0.049568086862564,30.45692443847656,94.82331848144533,-31.32420349121094
297042,-0.0357666015625,1.358078002929688,0.15948486328125,-0.816146731376648,-0.2907796502113342,-0.139405831694603,30.31024169921875,95.04307556152344,-30.85845947265625
297043,-0.07080078125,1.252090454101562,0.050445556640625,-0.6378361582756042,0.0245303772389888,-0.3205457925796509,30.10945129394531,95.07505798339844,-30.10322570800781
297044,-0.090362548828125,1.113861083984375,0.015045166015625,-0.5188692808151245,0.0641433000564575,-0.3604215681552887,29.95639038085938,95.25743103027344,-29.73063659667969
297045,-0.0894317626953125,1.017471313476562,-0.02215576171875,-0.4427915513515472,0.0647414475679397,-0.3447525799274445,29.73344421386719,95.32867431640624,-29.43434143066406
297046,-0.071807861328125,0.9513397216796876,-0.141754150390625,-0.3642687797546387,0.0227553788572549,-0.2507933378219604,29.4112548828125,95.47589111328124,-28.91171264648438
297047,-0.071807861328125,0.9513397216796876,-0.141754150390625,-0.3642687797546387,0.0227553788572549,-0.2507933378219604,29.4112548828125,95.47589111328124,-28.91171264648438
297048,-0.087554931640625,0.939178466796875,-0.1968231201171875,-0.3394859135150909,-0.0063708140514791,-0.2018271237611771,29.27488708496094,95.41607666015624,-28.697509765625
297049,-0.11474609375,0.94134521484375,-0.234527587890625,-0.3085591793060303,-0.0017595505341887,-0.1612703800201416,29.179931640625,95.4127960205078,-28.41885375976562
297050,-0.1347808837890625,0.91436767578125,-0.2659149169921875,-0.2897782921791077,-0.0076232985593378,-0.1409312933683395,29.07844543457031,95.35696411132812,-28.25433349609375
297051,-0.135406494140625,0.8701324462890625,-0.2933197021484375,-0.2652865350246429,-0.0080741718411445,-0.0925307348370552,28.99960327148438,95.36187744140624,-28.18013000488281
297052,-0.1294403076171875,0.854888916015625,-0.332305908203125,-0.2136427760124207,-0.031005585566163,-0.0669609233736991,28.89599609375,95.35198974609376,-28.01335144042969
297053,-0.092987060546875,0.8270111083984375,-0.3907318115234375,-0.1132932677865028,-0.0313227698206901,-0.0144614968448877,28.8272705078125,95.36192321777344,-27.91537475585938
297054,-0.0284881591796875,0.8145294189453125,-0.4806976318359375,0.0500756837427616,0.011919243261218,0.0736555755138397,28.78840637207031,95.43374633789062,-27.8902587890625
297055,0.0427398681640625,0.841339111328125,-0.5790863037109375,0.2366434335708618,0.0715626031160354,0.1923505365848541,28.75895690917969,95.40567016601562,-27.81167602539062
297056,0.1229248046875,0.8942108154296875,-0.6522064208984375,0.382928729057312,0.1645913422107697,0.2975416779518127,28.75758361816406,95.34320068359376,-27.78900146484375
297057,0.19732666015625,0.95379638671875,-0.6797332763671875,0.4374276697635651,0.2729231417179108,0.3667449653148651,28.90602111816406,95.36947631835938,-27.87846374511719
297058,0.22607421875,1.028884887695312,-0.63958740234375,0.4186718165874481,0.3416188359260559,0.3620697855949402,28.95509338378906,95.30117797851562,-27.85197448730469
297059,0.1991424560546875,1.099502563476562,-0.569061279296875,0.372947484254837,0.3786868453025818,0.3003896474838257,29.10810852050781,95.35354614257812,-28.18632507324219
297060,0.163482666015625,1.150711059570312,-0.5243377685546875,0.3683628439903259,0.3486437499523163,0.244105339050293,29.27738952636719,95.37167358398438,-28.55894470214844
297061,0.125091552734375,1.1595458984375,-0.511260986328125,0.4353528022766113,0.3409512042999268,0.2238080650568008,29.49784851074219,95.4872589111328,-28.75697326660156
297062,0.090789794921875,1.152420043945312,-0.498046875,0.5289850234985352,0.3616064190864563,0.2213310599327087,29.53286743164062,95.43862915039062,-29.11788940429688
297063,0.090789794921875,1.152420043945312,-0.498046875,0.5289850234985352,0.3616064190864563,0.2213310599327087,29.53286743164062,95.43862915039062,-29.11788940429688
297064,0.0547332763671875,1.148788452148438,-0.3926239013671875,0.504036009311676,0.500684380531311,0.2300457209348679,29.88896179199219,95.47706604003906,-29.67926025390625
297065,0.0607757568359375,1.134246826171875,-0.3442230224609375,0.3736750483512878,0.5153347253799438,0.2294235974550247,30.11386108398438,95.5279541015625,-29.90950012207031
297066,0.0580291748046875,1.087982177734375,-0.2711181640625,-0.020026171579957,0.2747868299484253,0.2417119592428207,30.31877136230469,95.51528930664062,-30.15147399902344
297067,0.038482666015625,1.014678955078125,-0.1711578369140625,-0.020026171579957,0.2747868299484253,0.2417119592428207,30.39846801757812,95.53556823730467,-30.43968200683594
297068,0.01751708984375,0.966461181640625,-0.063507080078125,-0.11574337631464,0.1627012938261032,0.2860048711299896,30.54115295410156,95.67369079589844,-30.82044982910156
297069,0.004364013671875,0.951080322265625,0.0446014404296875,-0.1138115227222443,0.125708132982254,0.3639896810054779,30.7171630859375,95.7857666015625,-30.90211486816406
297070,-0.0092926025390625,0.9737548828125,0.1201934814453125,-0.0646911114454269,0.094384029507637,0.4484347701072693,30.93092346191406,95.83648681640624,-31.0799560546875
297071,-0.0092926025390625,0.9737548828125,0.1201934814453125,-0.0646911114454269,0.094384029507637,0.4484347701072693,30.93092346191406,95.83648681640624,-31.0799560546875
297072,-0.01593017578125,1.107376098632812,0.209136962890625,0.0072635053656995,-0.0229854770004749,0.5700360536575317,31.40406799316406,95.94284057617188,-31.09585571289062
297073,0.005157470703125,1.155670166015625,0.2539215087890625,0.008879511617124,-0.0183324012905359,0.5837050080299377,31.74923706054688,95.92153930664062,-30.93106079101562
297074,0.039520263671875,1.161834716796875,0.2707061767578125,0.041062481701374,-0.0087189227342605,0.5771032571792603,32.03828430175781,95.89674377441406,-30.89994812011719
297075,0.039520263671875,1.161834716796875,0.2707061767578125,0.041062481701374,-0.0087189227342605,0.5771032571792603,32.03828430175781,95.89674377441406,-30.89994812011719
297076,0.108856201171875,1.044387817382812,0.1969146728515625,0.2775123119354248,-0.2752707302570343,0.5380517244338989,32.6141357421875,95.94131469726562,-31.05599975585938
297077,0.1478424072265625,0.96197509765625,0.1313934326171875,0.4078039824962616,-0.5591748952865601,0.4956347942352295,32.92062377929688,95.94540405273438,-30.937255859375
297078,0.18609619140625,0.9102783203125,0.0628662109375,0.4878799319267273,-0.884580135345459,0.4493775367736816,33.13529968261719,95.837158203125,-31.04714965820312
297079,0.2283172607421875,0.88330078125,-0.0108642578125,0.5383809208869934,-1.217714190483093,0.3897783756256104,33.22189331054688,95.89128112792967,-31.15620422363281
297080,0.2435150146484375,0.8805694580078125,-0.0542755126953125,0.5998560190200806,-1.446126580238342,0.304512232542038,33.22401428222656,95.94189453125,-31.22525024414062
297081,0.2022705078125,0.8863677978515625,-0.055633544921875,0.6508363485336304,-1.396410942077637,0.2010236531496048,33.2041015625,95.93072509765624,-31.14248657226562
297082,0.1134796142578125,0.884490966796875,-0.0371246337890625,0.3140415549278259,-0.3223839104175568,-0.0586673095822334,33.06240844726562,96.0319366455078,-31.21571350097656
297083,-0.01995849609375,0.8917388916015625,-0.1299896240234375,0.3140415549278259,-0.3223839104175568,-0.0586673095822334,32.87104797363281,96.12649536132812,-31.44964599609375
297084,-0.1112060546875,0.9255218505859376,-0.0343475341796875,0.2043310403823853,-0.3953145742416382,-0.1777494847774506,32.71401977539062,96.1356201171875,-31.60324096679688
297085,-0.1687774658203125,0.9049224853515624,0.055450439453125,0.1113438382744789,-0.5342404842376709,-0.3000703454017639,32.6771240234375,96.11244201660156,-31.58299255371094
297086,-0.2228851318359375,0.8553466796875,0.0601043701171875,-0.1048728823661804,-0.7107305526733398,-0.4475519359111786,32.62911987304688,95.9953155517578,-31.55299377441406
297087,-0.2228851318359375,0.8553466796875,0.0601043701171875,-0.1048728823661804,-0.7107305526733398,-0.4475519359111786,32.62911987304688,95.9953155517578,-31.55299377441406
297088,-0.300384521484375,0.78857421875,0.0551300048828125,-0.2264065146446228,-0.64966881275177,-0.4756917059421539,32.34043884277344,95.7495574951172,-31.25611877441406
297089,-0.324615478515625,0.785430908203125,0.0808868408203125,-0.3260659873485565,-0.5017893314361572,-0.4862031936645508,32.09432983398438,95.74745178222656,-31.11399841308594
297090,-0.3367767333984375,0.79248046875,0.133148193359375,-0.3795337378978729,-0.306596964597702,-0.4864439368247986,31.91445922851562,95.68106079101562,-31.06990051269531
297091,-0.3367767333984375,0.79248046875,0.133148193359375,-0.3795337378978729,-0.306596964597702,-0.4864439368247986,31.91445922851562,95.68106079101562,-31.06990051269531
297092,-0.34130859375,0.816802978515625,0.24664306640625,-0.476739376783371,0.1572484821081161,-0.4321812391281128,31.40327453613281,95.8314971923828,-30.51176452636719
297093,-0.3441314697265625,0.8469696044921875,0.2714691162109375,-0.594080924987793,0.3436907827854156,-0.3914979994297028,31.28903198242188,95.7449951171875,-30.26187133789062
297094,-0.349884033203125,0.8780670166015625,0.278900146484375,-0.7412126064300537,0.4339413344860077,-0.3641891479492188,31.1307373046875,95.74348449707033,-30.09136962890625
297095,-0.36346435546875,0.90966796875,0.2663726806640625,-0.8806285262107849,0.412926584482193,-0.3409014046192169,30.9853515625,95.77413940429688,-30.01860046386719
297096,-0.3802032470703125,0.941680908203125,0.2316131591796875,-0.988438069820404,0.2683475613594055,-0.314485490322113,30.9564208984375,95.82855224609376,-29.75193786621094
297097,-0.371429443359375,0.9780731201171876,0.1949310302734375,-1.073397159576416,0.0795299783349037,-0.2797906398773193,30.81317138671875,95.8962860107422,-29.37113952636719
297098,-0.3245697021484375,1.01416015625,0.151092529296875,-1.145054817199707,-0.0641739293932914,-0.2471136450767517,30.75874328613281,96.05702209472656,-29.08561706542969
297099,-0.3245697021484375,1.01416015625,0.151092529296875,-1.145054817199707,-0.0641739293932914,-0.2471136450767517,30.75874328613281,96.05702209472656,-29.08561706542969
297100,-0.12890625,1.08758544921875,0.0145111083984375,-1.164182186126709,-0.2745546102523804,-0.1082276701927185,30.32232666015625,96.45890808105467,-28.26290893554688
297101,-0.0172576904296875,1.138565063476562,-0.038848876953125,-1.039497852325439,-0.2401340305805206,-0.0199766382575035,30.09649658203125,96.62042236328124,-27.57835388183594
297102,0.0628204345703125,1.182708740234375,-0.10858154296875,-0.8574537038803101,-0.2216351926326752,0.0381361991167068,29.94578552246094,96.75851440429688,-26.90733337402344
297103,0.0628204345703125,1.182708740234375,-0.10858154296875,-0.8574537038803101,-0.2216351926326752,0.0381361991167068,29.94578552246094,96.75851440429688,-26.90733337402344
297104,0.1729583740234375,1.241592407226562,-0.139434814453125,-0.5236048698425293,-0.281535267829895,0.0746659785509109,29.59011840820312,96.93734741210938,-25.93875122070312
297105,0.2169952392578125,1.239532470703125,-0.1907501220703125,-0.4284605383872986,-0.3629273474216461,0.0542139708995819,29.47145080566406,97.05616760253906,-25.50595092773438
297106,0.2635345458984375,1.1796875,-0.2521209716796875,-0.3313318490982056,-0.5094829797744751,0.030591731891036,29.46658325195312,97.1103057861328,-25.14329528808594
297107,0.2635345458984375,1.1796875,-0.2521209716796875,-0.3313318490982056,-0.5094829797744751,0.030591731891036,29.46658325195312,97.1103057861328,-25.14329528808594
297108,0.3184051513671875,0.976898193359375,-0.3769989013671875,0.0178152155131101,-0.7968665361404419,0.0650309324264526,29.27613830566406,97.2260284423828,-24.60829162597656
297109,0.3087615966796875,0.877838134765625,-0.443359375,0.2685616910457611,-0.8801547884941101,0.1193479672074318,29.2525634765625,97.20783996582033,-24.12876892089844
297110,0.299072265625,0.8076934814453125,-0.497161865234375,0.4939077198505402,-0.910581648349762,0.1840244233608246,29.24917602539062,97.14816284179688,-23.78237915039062
297111,0.299072265625,0.8076934814453125,-0.497161865234375,0.4939077198505402,-0.910581648349762,0.1840244233608246,29.24917602539062,97.14816284179688,-23.78237915039062
297112,0.273529052734375,0.74365234375,-0.563873291015625,0.7518242001533508,-0.8517279028892517,0.3461821675300598,29.24923706054688,96.90777587890624,-23.83749389648438
297113,0.2924957275390625,0.78533935546875,-0.5629425048828125,0.7626236081123352,-0.8023220300674438,0.4111763536930084,29.30862426757812,96.93856811523438,-23.80900573730469
297114,0.322601318359375,0.8527069091796875,-0.561004638671875,0.7037736177444458,-0.766232967376709,0.4578711688518524,29.3419189453125,96.8494873046875,-23.78817749023438
297115,0.35211181640625,0.9497222900390624,-0.555145263671875,0.621424674987793,-0.738135039806366,0.491787850856781,29.57481384277344,96.76911926269533,-24.09574890136719
297116,0.3718719482421875,1.081512451171875,-0.5423736572265625,0.5468052625656128,-0.6765902042388916,0.4835371077060699,29.72027587890625,96.77033996582033,-24.24900817871094
297117,0.3718719482421875,1.081512451171875,-0.5423736572265625,0.5468052625656128,-0.6765902042388916,0.4835371077060699,29.72027587890625,96.77033996582033,-24.24900817871094
297118,0.37353515625,1.237701416015625,-0.526458740234375,0.465150386095047,-0.6001846194267273,0.4379999935626984,29.95878601074219,96.72218322753906,-24.33924865722656
297119,0.349578857421875,1.527999877929688,-0.41168212890625,0.3213157057762146,-0.4615929126739502,0.2752086818218231,30.26742553710938,96.73786926269533,-24.7030029296875
297120,0.3364410400390625,1.614166259765625,-0.303924560546875,0.30499267578125,-0.4826515913009644,0.0480532795190811,30.356689453125,96.80363464355467,-24.75810241699219
297121,0.300811767578125,1.679351806640625,-0.1790924072265625,0.30499267578125,-0.4826515913009644,0.0480532795190811,30.44009399414062,96.92666625976562,-24.79817199707031
297122,0.248077392578125,1.7078857421875,-0.0539398193359375,0.4611287415027618,-0.4854729473590851,-0.234745129942894,30.63278198242188,97.03158569335938,-25.05751037597656
297123,0.248077392578125,1.7078857421875,-0.0539398193359375,0.4611287415027618,-0.4854729473590851,-0.234745129942894,30.63278198242188,97.03158569335938,-25.05751037597656
297124,0.0683135986328125,1.502288818359375,0.0332183837890625,0.5835942029953003,-0.5660037398338318,-0.3409349620342255,30.78302001953125,96.93902587890624,-25.12211608886719
297125,-0.018951416015625,1.321609497070312,0.0705108642578125,0.7412360310554504,-0.671337902545929,-0.3726910054683685,30.72801208496094,96.78387451171876,-25.15367126464844
297126,-0.0845794677734375,1.136795043945312,0.1041412353515625,0.8776604533195496,-0.761522114276886,-0.3228329122066498,30.69937133789062,96.69711303710938,-25.2720947265625
297127,-0.0845794677734375,1.136795043945312,0.1041412353515625,0.8776604533195496,-0.761522114276886,-0.3228329122066498,30.69937133789062,96.69711303710938,-25.2720947265625
297128,-0.1553955078125,0.904022216796875,0.195892333984375,0.788116991519928,-0.921347200870514,-0.1238428503274918,30.38493347167969,96.4207763671875,-25.65689086914062
297129,-0.1643524169921875,0.843902587890625,0.232635498046875,0.6017260551452637,-0.9537384510040284,-0.0322362333536148,30.38432312011719,96.20538330078124,-25.95686340332031
297130,-0.166656494140625,0.82861328125,0.22210693359375,0.4483793973922729,-0.9888545870780944,0.0334029644727706,30.34111022949219,95.78492736816406,-26.26478576660156
297131,-0.166656494140625,0.82861328125,0.22210693359375,0.4483793973922729,-0.9888545870780944,0.0334029644727706,30.34111022949219,95.78492736816406,-26.26478576660156
297132,-0.1763458251953125,0.861572265625,0.1343994140625,0.5009051561355591,-1.281027317047119,0.0633603334426879,30.3797607421875,95.57756042480467,-26.27908325195312
297133,-0.1790924072265625,0.8681640625,0.1268463134765625,0.6453313231468201,-1.357342839241028,0.0398531407117843,30.39248657226562,95.5577392578125,-26.1513671875
297134,-0.16912841796875,0.8347320556640625,0.100616455078125,0.7877337336540222,-1.33093786239624,0.0108467889949679,30.34074401855469,95.478759765625,-26.039794921875
297135,-0.14556884765625,0.762603759765625,0.0639495849609375,0.848569929599762,-1.207464694976807,-0.0135959703475236,30.25509643554688,95.2320556640625,-25.99276733398438
297136,-0.098663330078125,0.6865081787109375,0.0654449462890625,0.7822667956352234,-0.924847424030304,-0.0201745107769966,30.13121032714844,95.13966369628906,-26.06889343261719
297137,-0.0491943359375,0.635772705078125,0.077667236328125,0.5834557414054871,-0.5943887829780579,0.0074057183228433,29.94967651367188,95.060302734375,-26.30760192871094
297138,-0.009674072265625,0.6276702880859375,0.1138916015625,0.3156335949897766,-0.3978954255580902,0.0615746825933456,29.86289978027344,95.05035400390624,-26.66007995605469
297139,-0.009674072265625,0.6276702880859375,0.1138916015625,0.3156335949897766,-0.3978954255580902,0.0615746825933456,29.86289978027344,95.05035400390624,-26.66007995605469
297140,0.020660400390625,0.579864501953125,0.21844482421875,-0.2608334720134735,-0.1597483903169632,0.1781039535999298,29.85867309570312,95.15716552734376,-26.947021484375
297141,0.020660400390625,0.579864501953125,0.21844482421875,-0.2608334720134735,-0.1597483903169632,0.1781039535999298,29.85867309570312,95.15716552734376,-26.947021484375
297142,0.055511474609375,0.5157012939453125,0.238861083984375,-0.6848864555358887,-0.1289220303297043,0.233402892947197,29.96766662597656,95.30259704589844,-26.59489440917969
297143,0.0711517333984375,0.5229034423828125,0.2663116455078125,-0.8237729668617249,-0.1729033291339874,0.270480215549469,30.10939025878906,95.35353088378906,-26.42326354980469
297144,0.0552520751953125,0.672454833984375,0.3321380615234375,-0.9171633720397948,-0.1534643918275833,0.3063806891441345,30.13638305664062,95.43952941894533,-25.95907592773438
297145,0.0227508544921875,0.9197235107421876,0.3676605224609375,-0.9909558296203612,-0.0924918502569198,0.3003795444965363,30.20735168457031,95.6162109375,-25.57858276367188
297146,-0.005950927734375,1.0826416015625,0.377044677734375,-1.052804589271545,-0.1471774727106094,0.1688633263111115,30.21726989746094,95.79988098144533,-25.20742797851562
297147,-0.005950927734375,1.0826416015625,0.377044677734375,-1.052804589271545,-0.1471774727106094,0.1688633263111115,30.21726989746094,95.79988098144533,-25.20742797851562
297148,-0.0443267822265625,1.304840087890625,0.43768310546875,-1.028771638870239,-0.1689725071191788,0.0608279295265674,30.48191833496094,96.15699768066406,-24.13798522949219
297149,-0.0508880615234375,1.379562377929688,0.411834716796875,-0.9871986508369446,-0.2275639176368713,-0.0885317325592041,30.48420715332031,96.24783325195312,-23.56190490722656
297150,-0.0599822998046875,1.42449951171875,0.3281097412109375,-0.8300068974494934,-0.3110018074512482,-0.3726537227630615,30.43923950195312,96.54045104980467,-22.60508728027344
297151,-0.0599822998046875,1.42449951171875,0.3281097412109375,-0.8300068974494934,-0.3110018074512482,-0.3726537227630615,30.43923950195312,96.54045104980467,-22.60508728027344
297152,-0.0737457275390625,1.394790649414062,0.2649993896484375,-0.6643625497817993,-0.2896880209445953,-0.4712681770324707,30.19224548339844,96.63865661621094,-22.04823303222656
297153,-0.1128082275390625,1.302810668945312,0.207427978515625,-0.4865451455116272,-0.1211165711283684,-0.5147594809532166,29.94491577148438,96.6414794921875,-21.6041259765625
297154,-0.15850830078125,1.182785034179688,0.1066131591796875,-0.3851527571678162,0.1591542363166809,-0.4919551014900208,29.70904541015625,96.62074279785156,-21.344482421875
297155,-0.1833038330078125,1.085952758789062,0.0112762451171875,-0.3274987637996674,0.2729162275791168,-0.4355053901672363,29.36514282226562,96.57643127441406,-21.17724609375
297156,-0.180145263671875,1.009323120117188,0.00421142578125,-0.3108223080635071,0.2793940901756287,-0.3904305994510651,29.09298706054688,96.5397491455078,-20.99850463867188
297157,-0.1837158203125,0.9640960693359376,0.002044677734375,-0.3253160417079926,0.3242846131324768,-0.3567259013652802,28.998779296875,96.5086669921875,-20.92886352539062
297158,-0.1904754638671875,0.937469482421875,-0.0457763671875,-0.3567381501197815,0.3602423369884491,-0.3188336491584778,28.76600646972656,96.37745666503906,-20.69232177734375
297159,-0.1904754638671875,0.937469482421875,-0.0457763671875,-0.3567381501197815,0.3602423369884491,-0.3188336491584778,28.76600646972656,96.37745666503906,-20.69232177734375
297160,-0.19061279296875,0.932464599609375,-0.209259033203125,-0.3975790441036224,0.3115656077861786,-0.2191874831914902,28.39979553222656,96.1472625732422,-20.43110656738281
297161,-0.147308349609375,0.9298095703125,-0.2884979248046875,-0.3264763951301575,0.2339294105768204,-0.1441036462783813,28.38996887207031,96.12355041503906,-20.12820434570312
297162,-0.068603515625,0.9026031494140624,-0.3288726806640625,-0.1870124936103821,0.2292060256004333,-0.0550206415355205,28.2911376953125,96.15126037597656,-20.06401062011719
297163,-0.068603515625,0.9026031494140624,-0.3288726806640625,-0.1870124936103821,0.2292060256004333,-0.0550206415355205,28.2911376953125,96.15126037597656,-20.06401062011719
297164,0.1249847412109375,0.8860015869140625,-0.456695556640625,0.1018446087837219,0.2739063799381256,0.114188626408577,28.14266967773438,96.17567443847656,-20.11790466308594
297165,0.2116851806640625,0.9080352783203124,-0.5282440185546875,0.2368234694004059,0.3198555111885071,0.1758756935596466,28.11846923828125,96.15122985839844,-20.14244079589844
297166,0.283966064453125,0.9455413818359376,-0.5707855224609375,0.3562028408050537,0.3648655712604523,0.2226676940917969,28.22311401367188,96.13713073730467,-20.24443054199219
297167,0.33782958984375,0.9790191650390624,-0.569976806640625,0.4139508306980133,0.4218612313270569,0.2337499111890793,28.25180053710938,96.13606262207033,-20.45169067382812
297168,0.35150146484375,1.03643798828125,-0.5504913330078125,0.4223864078521729,0.4195179045200348,0.2141149491071701,28.38229370117188,96.23680114746094,-20.68760681152344
297169,0.35150146484375,1.03643798828125,-0.5504913330078125,0.4223864078521729,0.4195179045200348,0.2141149491071701,28.38229370117188,96.23680114746094,-20.68760681152344
297170,0.3000335693359375,1.124465942382812,-0.52484130859375,0.5320503115653992,0.2978564500808716,0.1133771613240242,28.57188415527344,96.2538604736328,-21.16937255859375
297171,0.22021484375,1.129409790039062,-0.525421142578125,0.7108197808265686,0.3351404368877411,0.0906454771757125,28.73110961914062,96.21281433105467,-21.35023498535156
297172,0.158294677734375,1.116256713867188,-0.5226287841796875,0.7108197808265686,0.3351404368877411,0.0906454771757125,28.81654357910156,96.2183074951172,-21.65177917480469
297173,0.118743896484375,1.107559204101562,-0.494476318359375,0.6858052611351013,0.3484788835048676,0.0990940928459167,28.76364135742188,96.230712890625,-22.00729370117188
297174,0.095611572265625,1.0858154296875,-0.436065673828125,0.5889668464660645,0.3168682157993317,0.109836220741272,28.84701538085938,96.33277893066406,-22.50090026855469
297175,0.095611572265625,1.0858154296875,-0.436065673828125,0.5889668464660645,0.3168682157993317,0.109836220741272,28.84701538085938,96.33277893066406,-22.50090026855469
297176,0.092132568359375,1.0185546875,-0.2646026611328125,0.2749551236629486,0.1286605000495911,0.1180547326803207,28.94505310058594,96.4168701171875,-23.35090637207031
297177,0.0827178955078125,0.979522705078125,-0.110595703125,0.1070481538772583,0.0630822926759719,0.1682481318712234,29.06135559082031,96.4238739013672,-23.5711669921875
297178,0.064544677734375,0.96826171875,-0.0057830810546875,-0.0560153312981128,0.0481166616082191,0.2241153866052628,29.13990783691406,96.41358947753906,-23.74388122558594
297179,0.064544677734375,0.96826171875,-0.0057830810546875,-0.0560153312981128,0.0481166616082191,0.2241153866052628,29.13990783691406,96.41358947753906,-23.74388122558594
297180,0.01947021484375,1.036453247070312,0.1226654052734375,-0.1665990948677063,-0.0927214175462722,0.2801392376422882,29.25039672851562,96.51077270507812,-23.97557067871094
297181,0.0193023681640625,1.08001708984375,0.16229248046875,-0.113813117146492,-0.1252402067184448,0.3021529316902161,29.45011901855469,96.46183776855467,-23.886962890625
297182,0.0384521484375,1.136642456054688,0.1917266845703125,-0.0286846421658992,-0.1144908890128136,0.3083711564540863,29.66995239257812,96.53663635253906,-23.93110656738281
297183,0.0671234130859375,1.175689697265625,0.19244384765625,0.0508264303207397,-0.1143824979662895,0.3189028799533844,29.82257080078125,96.521484375,-23.8292236328125
297184,0.0844573974609375,1.181991577148438,0.184539794921875,0.1295633167028427,-0.1419336944818497,0.3425336480140686,29.99551391601562,96.6585693359375,-23.83079528808594
297185,0.1061859130859375,1.1441650390625,0.174041748046875,0.2267593741416931,-0.1949950605630875,0.3608292937278748,30.17193603515625,96.67001342773438,-23.83804321289062
297186,0.139312744140625,1.066543579101562,0.1507110595703125,0.3875671625137329,-0.4376652240753174,0.3580737113952637,30.38320922851562,96.560791015625,-23.7916259765625
297187,0.16448974609375,0.9759979248046876,0.111053466796875,0.3875671625137329,-0.4376652240753174,0.3580737113952637,30.57768249511719,96.66397094726562,-23.80838012695312
297188,0.17681884765625,0.903045654296875,0.06903076171875,0.4108559787273407,-0.6046531200408936,0.3420841097831726,30.8175048828125,96.53230285644533,-23.86830139160156
297189,0.1754608154296875,0.8596649169921875,0.0254669189453125,0.4104655683040619,-0.7750149965286255,0.2860373556613922,30.91462707519531,96.5529327392578,-23.89974975585938
297190,0.1533355712890625,0.8472442626953125,0.00616455078125,0.3988848030567169,-0.905716836452484,0.1890556812286377,30.94374084472656,96.56301879882812,-24.05538940429688
297191,0.097930908203125,0.8494873046875,0.0264434814453125,0.3780082762241364,-0.9021911025047302,0.069436065852642,31.06964111328125,96.6219482421875,-24.11918640136719
297192,0.0154571533203125,0.87353515625,0.0495758056640625,0.3274321854114532,-0.7587684392929077,-0.0592606589198112,30.9825439453125,96.70599365234376,-24.06207275390625
297193,-0.0825958251953125,0.899200439453125,0.0850067138671875,0.2264278084039688,-0.6275739073753357,-0.1833754181861877,30.958740234375,96.61376953125,-23.845458984375
297194,-0.16448974609375,0.914031982421875,0.1451263427734375,0.1153412386775017,-0.5383740067481995,-0.2988618016242981,30.89683532714844,96.65608215332033,-23.8779296875
297195,-0.16448974609375,0.914031982421875,0.1451263427734375,0.1153412386775017,-0.5383740067481995,-0.2988618016242981,30.89683532714844,96.65608215332033,-23.8779296875
297196,-0.26373291015625,0.8781890869140625,0.1974334716796875,-0.0989750474691391,-0.4011916220188141,-0.474831759929657,30.60609436035156,96.66448974609376,-24.00555419921875
297197,-0.31378173828125,0.8211822509765625,0.2192840576171875,-0.1790411174297333,-0.3226781785488129,-0.5108249187469482,30.4683837890625,96.60414123535156,-23.81813049316406
297198,-0.3761444091796875,0.7877044677734375,0.2590484619140625,-0.3030104637145996,-0.1698817163705826,-0.5110843181610107,30.3326416015625,96.44772338867188,-23.76924133300781
297199,-0.3761444091796875,0.7877044677734375,0.2590484619140625,-0.3030104637145996,-0.1698817163705826,-0.5110843181610107,30.3326416015625,96.44772338867188,-23.76924133300781
297200,-0.4921875,0.80633544921875,0.265960693359375,-0.5883868336677551,0.167498454451561,-0.4676196575164795,29.99868774414062,96.5652313232422,-23.5322265625
297201,-0.5126495361328125,0.8351898193359375,0.27349853515625,-0.6607545018196106,0.2490332573652267,-0.4480084180831909,29.86079406738281,96.49295043945312,-23.21440124511719
297202,-0.519989013671875,0.8610992431640625,0.2855682373046875,-0.6853322982788086,0.2716424167156219,-0.3691780269145966,29.6806640625,96.41253662109376,-22.86598205566406
297203,-0.519989013671875,0.8610992431640625,0.2855682373046875,-0.6853322982788086,0.2716424167156219,-0.3691780269145966,29.6806640625,96.41253662109376,-22.86598205566406
297204,-0.4723968505859375,0.8782501220703125,0.2827301025390625,-0.7003312110900879,0.1716998517513275,-0.2999622225761414,29.41827392578125,96.3391571044922,-22.41151428222656
297205,-0.419677734375,0.8652801513671875,0.274658203125,-0.7579423189163208,0.0392366200685501,-0.2288829833269119,29.33551025390625,96.32212829589844,-22.08993530273438
297206,-0.34906005859375,0.866424560546875,0.249755859375,-0.8352823853492737,-0.0939765647053718,-0.1659202575683594,29.23550415039062,96.28884887695312,-21.77304077148438
297207,-0.34906005859375,0.866424560546875,0.249755859375,-0.8352823853492737,-0.0939765647053718,-0.1659202575683594,29.23550415039062,96.28884887695312,-21.77304077148438
297208,-0.1824798583984375,0.8845367431640625,0.17279052734375,-0.9285560846328736,-0.4032007157802582,-0.1475596278905869,28.96710205078125,96.595458984375,-21.10894775390625
297209,-0.088409423828125,0.90093994140625,0.1396636962890625,-0.9051223993301392,-0.5118595361709595,-0.1631092876195908,28.84669494628906,96.53855895996094,-20.63453674316406
297210,0.0071258544921875,0.9365997314453124,0.08575439453125,-0.7793884873390198,-0.3859610259532928,-0.1647268980741501,28.70037841796875,96.47842407226562,-20.12104797363281
297211,0.0071258544921875,0.9365997314453124,0.08575439453125,-0.7793884873390198,-0.3859610259532928,-0.1647268980741501,28.70037841796875,96.47842407226562,-20.12104797363281
297212,0.1793060302734375,1.098358154296875,-0.085235595703125,-0.6158450841903687,-0.2202841639518738,-0.1634163558483124,28.29315185546875,96.4679718017578,-19.1483154296875
297213,0.200836181640625,1.178298950195312,-0.1808624267578125,-0.4790283739566803,-0.1929148584604263,-0.2006585299968719,27.98867797851562,96.6244659423828,-18.40406799316406
297214,0.210174560546875,1.233642578125,-0.19677734375,-0.3858717978000641,-0.4540692269802094,-0.245128259062767,27.79278564453125,96.74220275878906,-18.02220153808594
297215,0.210174560546875,1.233642578125,-0.19677734375,-0.3858717978000641,-0.4540692269802094,-0.245128259062767,27.79278564453125,96.74220275878906,-18.02220153808594
297216,0.1984100341796875,1.259323120117188,-0.2214813232421875,-0.3310823142528534,-0.5942838788032532,-0.2315349578857422,27.27908325195312,96.88223266601562,-17.34173583984375
297217,0.1920166015625,1.244232177734375,-0.299041748046875,-0.1671282649040222,-0.7196249961853027,-0.1959197074174881,27.18685913085938,96.74575805664062,-16.92202758789062
297218,0.19781494140625,1.172119140625,-0.40594482421875,0.1262197196483612,-0.8423551917076111,-0.1113965660333633,27.0487060546875,96.6292724609375,-16.63656616210938
297219,0.182952880859375,1.085800170898438,-0.5063323974609375,0.4802568852901459,-0.8374174237251282,-0.0190032515674829,27.06170654296875,96.44230651855467,-16.30194091796875
297220,0.1617889404296875,0.9948272705078124,-0.608734130859375,1.060394883155823,-0.6869445443153381,0.1910413205623627,26.99562072753906,96.282470703125,-16.08102416992188
297221,0.1371002197265625,0.9176788330078124,-0.65972900390625,1.060394883155823,-0.6869445443153381,0.1910413205623627,27.03030395507812,96.28961181640624,-16.10090637207031
297222,0.1184844970703125,0.8580169677734375,-0.65460205078125,1.144855618476868,-0.6207836270332336,0.2550767660140991,27.09339904785156,96.1857452392578,-16.17802429199219
297223,0.118255615234375,0.8656158447265625,-0.6260833740234375,1.093158602714539,-0.5831643342971802,0.2630595862865448,27.17652893066406,96.1798095703125,-16.59953308105469
297224,0.16888427734375,0.9206390380859376,-0.589599609375,0.9688692092895508,-0.5380530953407288,0.2601090669631958,27.36666870117188,96.1229248046875,-17.01261901855469
297225,0.19873046875,1.007461547851562,-0.562957763671875,0.8475432991981506,-0.4562450349330902,0.2499919980764389,27.56809997558594,96.16500854492188,-17.19636535644531
297226,0.2001190185546875,1.116195678710938,-0.5457305908203125,0.596098780632019,-0.4439958333969116,0.198488861322403,27.74090576171875,96.11634826660156,-17.53218078613281
297227,0.2078094482421875,1.242324829101562,-0.50714111328125,0.596098780632019,-0.4439958333969116,0.198488861322403,27.8096923828125,96.20770263671876,-17.97181701660156
297228,0.218109130859375,1.359970092773438,-0.429046630859375,0.4642632901668549,-0.4422237575054169,0.1295960694551468,27.91078186035156,96.09019470214844,-18.250732421875
297229,0.218841552734375,1.472320556640625,-0.3335723876953125,0.3733874261379242,-0.4697701632976532,0.0533084943890571,28.06282043457031,96.11868286132812,-18.43525695800781
297230,0.2104644775390625,1.59326171875,-0.214599609375,0.37418532371521,-0.4937388896942139,-0.0164524763822555,28.15411376953125,96.0787353515625,-18.58135986328125
297231,0.2104644775390625,1.59326171875,-0.214599609375,0.37418532371521,-0.4937388896942139,-0.0164524763822555,28.15411376953125,96.0787353515625,-18.58135986328125
297232,0.0893707275390625,1.746139526367188,-0.0112762451171875,0.5915370583534241,-0.4780653715133667,-0.1803117096424103,28.30113220214844,95.90219116210938,-18.75787353515625
297233,0.0893707275390625,1.746139526367188,-0.0112762451171875,0.5915370583534241,-0.4780653715133667,-0.1803117096424103,28.30113220214844,95.90219116210938,-18.75787353515625
297234,0.0067138671875,1.71044921875,0.0391998291015625,0.8575050830841064,-0.5068155527114868,-0.2895506024360657,28.40034484863281,95.90080261230467,-18.91139221191406
297235,-0.1689605712890625,1.334091186523438,0.0771484375,0.9784634709358216,-0.5216624140739441,-0.2543553113937378,28.33206176757812,95.80360412597656,-18.99830627441406
297236,-0.2410125732421875,1.133316040039062,0.0938568115234375,1.120686411857605,-0.5380725264549255,-0.1591723412275314,28.35905456542969,95.59710693359376,-19.2508544921875
297237,-0.2455902099609375,0.9938201904296876,0.093841552734375,1.200114369392395,-0.6730157136917114,-0.0708198472857475,28.26123046875,95.4867706298828,-19.51280212402344
297238,-0.1979217529296875,0.7890167236328125,0.11993408203125,1.057184934616089,-0.9643487334251404,0.049560360610485,28.06948852539062,95.42860412597656,-20.5625
297239,-0.1979217529296875,0.7890167236328125,0.11993408203125,1.057184934616089,-0.9643487334251404,0.049560360610485,28.06948852539062,95.42860412597656,-20.5625
297240,-0.1912384033203125,0.766357421875,0.1125030517578125,0.964585781097412,-1.061546444892883,0.0858682990074157,28.10963439941406,95.36819458007812,-20.96308898925781
297241,-0.172607421875,0.7709197998046875,0.0777435302734375,0.9225820899009703,-1.185842752456665,0.1129824742674828,28.13235473632812,95.2353515625,-21.3050537109375
297242,-0.1590728759765625,0.7905120849609375,0.059967041015625,0.9334321022033693,-1.19187319278717,0.1334033310413361,28.21592712402344,95.05117797851562,-21.41616821289062
297243,-0.1656341552734375,0.793243408203125,0.042266845703125,0.9334321022033693,-1.19187319278717,0.1334033310413361,28.27571105957031,95.06381225585938,-21.61528015136719
297244,-0.1651458740234375,0.7543487548828125,0.00897216796875,0.92701518535614,-1.057081341743469,0.1347146779298782,28.32609558105469,94.93748474121094,-21.73031616210938
297245,-0.1430816650390625,0.6815643310546875,-0.024658203125,0.8889362812042236,-0.8696107864379883,0.1432221382856369,28.36172485351562,94.84564208984376,-21.82049560546875
297246,-0.1209564208984375,0.624420166015625,-0.015472412109375,0.5926609039306641,-0.5735330581665039,0.1480065137147903,28.38945007324219,94.83721923828124,-22.0150146484375
297247,-0.0794830322265625,0.5680389404296875,0.042205810546875,0.5926609039306641,-0.5735330581665039,0.1480065137147903,28.35980224609375,94.74049377441406,-22.10557556152344
297248,-0.0295257568359375,0.5042266845703125,0.119415283203125,0.3271794617176056,-0.4645591676235199,0.1774437576532364,28.44378662109375,94.80825805664062,-22.35684204101562
297249,0.003814697265625,0.447479248046875,0.1793670654296875,0.040580715984106,-0.3523580431938171,0.2132853865623474,28.4326171875,94.78419494628906,-22.46414184570312
297250,0.0308837890625,0.40167236328125,0.218994140625,-0.4360228478908539,-0.1832422614097595,0.2819965183734894,28.40339660644531,94.83657836914062,-22.5479736328125
297251,0.0308837890625,0.40167236328125,0.218994140625,-0.4360228478908539,-0.1832422614097595,0.2819965183734894,28.40339660644531,94.83657836914062,-22.5479736328125
297252,0.09161376953125,0.3575897216796875,0.2627410888671875,-0.5922662615776062,-0.1557573676109314,0.3208957314491272,28.49935913085938,94.88121032714844,-22.45881652832031
297253,0.11370849609375,0.4132232666015625,0.28570556640625,-0.7303926944732666,-0.14743472635746,0.3521274030208588,28.64190673828125,94.9663543701172,-22.25563049316406
297254,0.086578369140625,0.6010589599609375,0.332366943359375,-0.8956823348999023,-0.1232106164097786,0.3486455976963043,28.78428649902344,95.00653076171876,-22.0399169921875
297255,0.0103759765625,0.8250885009765625,0.37738037109375,-1.058072805404663,-0.0040506678633391,0.308542400598526,28.89669799804688,95.15008544921876,-21.56890869140625
297256,-0.054656982421875,0.97705078125,0.3491363525390625,-1.216689586639404,0.0665385499596595,0.2395643889904022,29.00816345214844,95.36170959472656,-21.16987609863281
297257,-0.1110382080078125,1.122512817382812,0.29498291015625,-1.341095209121704,-0.0097700729966163,0.1429715305566788,29.20172119140625,95.52635192871094,-20.62046813964844
297258,-0.1535491943359375,1.312423706054688,0.255462646484375,-1.396078586578369,-0.2232935428619385,0.009035306982696,29.30308532714844,95.47471618652344,-19.97897338867188
297259,-0.1845550537109375,1.4639892578125,0.29278564453125,-1.371550559997559,-0.3684784173965454,-0.1162520423531532,29.22724914550781,95.76959228515624,-19.45802307128906
297260,-0.200103759765625,1.539962768554688,0.3656463623046875,-1.320477604866028,-0.2407252639532089,-0.1763899475336075,29.24661254882812,96.02394104003906,-18.87448120117188
297261,-0.1878662109375,1.572891235351562,0.37591552734375,-1.228570222854614,0.0636639297008514,-0.231195941567421,29.11190795898438,96.10890197753906,-18.27351379394531
297262,-0.1884613037109375,1.547439575195312,0.29510498046875,-1.05406391620636,0.2744129300117493,-0.308697909116745,29.07798767089844,96.16462707519533,-17.61289978027344
297263,-0.219696044921875,1.450286865234375,0.221282958984375,-0.8108358979225159,0.3654312491416931,-0.352592408657074,29.0076904296875,96.1079559326172,-17.14772033691406
297264,-0.2540283203125,1.362518310546875,0.1494140625,-0.6244617104530334,0.4070860147476196,-0.3543477058410645,28.77789306640625,96.13583374023438,-16.52703857421875
297265,-0.256195068359375,1.281234741210938,0.0432891845703125,-0.5372024774551392,0.3978341817855835,-0.3115613460540771,28.65223693847656,96.19081115722656,-16.15242004394531
297266,-0.2166748046875,1.189590454101562,-0.0540313720703125,-0.4789165258407593,0.3248446583747864,-0.2340013086795807,28.35145568847656,96.20773315429688,-16.01626586914062
297267,-0.164093017578125,1.093429565429688,-0.11334228515625,-0.4012278616428375,0.2839576900005341,-0.1700108796358109,28.14474487304688,96.23199462890624,-15.88475036621094
297268,-0.123046875,0.9889678955078124,-0.1540679931640625,-0.297380805015564,0.2888062298297882,-0.1031487584114075,27.90338134765625,96.29278564453124,-15.72752380371094
297269,-0.10223388671875,0.899505615234375,-0.2106170654296875,-0.2127117365598679,0.2563172578811646,-0.0504442639648914,27.8450927734375,96.11930847167967,-15.43569946289062
297270,-0.0890960693359375,0.837127685546875,-0.2773284912109375,-0.182369276881218,0.1591579616069794,-0.0248960293829441,27.78335571289062,96.12590026855467,-15.48626708984375
297271,-0.0890960693359375,0.837127685546875,-0.2773284912109375,-0.182369276881218,0.1591579616069794,-0.0248960293829441,27.78335571289062,96.12590026855467,-15.48626708984375
297272,0.023590087890625,0.7563323974609375,-0.4567718505859375,-0.1146490871906281,-0.0239785704761743,0.0471768341958522,27.71658325195312,96.12600708007812,-15.33038330078125
297273,0.094879150390625,0.7888641357421875,-0.5436248779296875,-0.0252390429377555,-0.0550419464707374,0.1033977642655373,27.67292785644531,95.95783996582033,-15.0040283203125
297274,0.1645660400390625,0.8621978759765625,-0.5984344482421875,0.0779184997081756,-0.0047787763178348,0.1448687762022018,27.72787475585938,95.89317321777344,-14.90260314941406
297275,0.1645660400390625,0.8621978759765625,-0.5984344482421875,0.0779184997081756,-0.0047787763178348,0.1448687762022018,27.72787475585938,95.89317321777344,-14.90260314941406
297276,0.2601318359375,1.040863037109375,-0.6128387451171875,0.171771764755249,0.2015200704336166,0.162975862622261,27.70982360839844,95.9471435546875,-14.90361022949219
297277,0.2670440673828125,1.124832153320312,-0.5771942138671875,0.1960070580244064,0.2623634338378906,0.1518068462610245,27.75901794433594,95.9980010986328,-15.00267028808594
297278,0.25360107421875,1.196640014648438,-0.516387939453125,0.3133755028247833,0.311130702495575,0.1503788530826569,27.83732604980469,96.0413818359375,-15.07891845703125
297279,0.22711181640625,1.244659423828125,-0.4884033203125,0.3133755028247833,0.311130702495575,0.1503788530826569,27.886474609375,96.01014709472656,-15.19279479980469
297280,0.1691436767578125,1.267349243164062,-0.48114013671875,0.4492646157741547,0.3322229385375977,0.1862186044454575,27.903076171875,96.03523254394533,-15.53839111328125
297281,0.0906829833984375,1.277664184570312,-0.462310791015625,0.4492646157741547,0.3322229385375977,0.1862186044454575,27.90579223632812,96.23841857910156,-15.780517578125
297282,0.0336456298828125,1.266342163085938,-0.415008544921875,0.3505058288574219,0.4907795786857605,0.2204266488552094,28.06671142578125,96.32656860351562,-15.9017333984375
297283,0.0081024169921875,1.231338500976562,-0.324066162109375,0.3505058288574219,0.4907795786857605,0.2204266488552094,28.18881225585938,96.30117797851562,-16.10389709472656
297284,-0.00152587890625,1.164901733398438,-0.2111968994140625,0.2251710742712021,0.5704246163368225,0.2524104118347168,28.2613525390625,96.28182983398438,-16.53404235839844
297285,-0.0149688720703125,1.074142456054688,-0.10992431640625,0.094387486577034,0.5988367795944214,0.2852972447872162,28.37078857421875,96.36685180664062,-16.84123229980469
297286,-0.0277862548828125,1.0059814453125,-0.0834197998046875,0.0488098822534084,0.4437668025493622,0.3222747147083282,28.49627685546875,96.40235900878906,-17.073974609375
297287,-0.0356903076171875,0.9818115234375,-0.0100555419921875,0.1024289056658745,0.2808095514774323,0.3378848433494568,28.65242004394531,96.61384582519533,-17.30496215820312
297288,-0.029266357421875,0.9841156005859376,0.0697479248046875,0.1580415666103363,0.2327839732170105,0.3380968272686005,28.83441162109375,96.71443176269533,-17.55094909667969
297289,-0.033905029296875,0.9940185546875,0.110626220703125,0.1738958954811096,0.1817112118005753,0.3258073925971985,28.99598693847656,96.7329559326172,-17.58798217773438
297290,-0.02642822265625,1.016510009765625,0.1614227294921875,0.1588045656681061,0.1108556762337685,0.2956297993659973,29.2958984375,96.77890014648438,-17.62509155273438
297291,-0.02642822265625,1.016510009765625,0.1614227294921875,0.1588045656681061,0.1108556762337685,0.2956297993659973,29.2958984375,96.77890014648438,-17.62509155273438
297292,0.023773193359375,1.08062744140625,0.2461090087890625,0.1264841705560684,0.0071242223493754,0.2796742618083954,29.60000610351562,96.81463623046876,-18.08949279785156
297293,0.04974365234375,1.099136352539062,0.2366943359375,0.1516417264938354,-0.0645845830440521,0.2942811548709869,29.76982116699219,96.87106323242188,-18.21572875976562
297294,0.078643798828125,1.076080322265625,0.213287353515625,0.2040894776582718,-0.1565448641777039,0.3171294927597046,29.9649658203125,96.9236297607422,-18.17149353027344
297295,0.1108245849609375,1.0118408203125,0.1701812744140625,0.269621878862381,-0.2486963719129562,0.3376065194606781,30.00764465332031,96.93804931640624,-18.17625427246094
297296,0.1403656005859375,0.9214324951171876,0.10003662109375,0.3228952288627625,-0.3543407618999481,0.3525146543979645,30.41587829589844,96.8110809326172,-18.37922668457031
297297,0.157012939453125,0.8399200439453125,0.0279693603515625,0.380122035741806,-0.4888117611408234,0.345458596944809,30.60922241210938,96.73182678222656,-18.55169677734375
297298,0.1553497314453125,0.77593994140625,-0.0533905029296875,0.4525426924228668,-0.6021891832351685,0.3105432093143463,30.83735656738281,96.83700561523438,-18.65361022949219
297299,0.1553497314453125,0.77593994140625,-0.0533905029296875,0.4525426924228668,-0.6021891832351685,0.3105432093143463,30.83735656738281,96.83700561523438,-18.65361022949219
297300,0.1224822998046875,0.7454376220703125,-0.091766357421875,0.4831874370574951,-0.4635926783084869,0.1582567542791367,30.96806335449219,96.9505615234375,-18.78273010253906
297301,0.0569915771484375,0.7757110595703125,-0.0816497802734375,0.4282714426517487,-0.2786119282245636,0.0276662483811378,31.02423095703125,96.95271301269533,-18.70172119140625
297302,-0.0265045166015625,0.8009796142578125,-0.017333984375,0.3641593158245087,-0.2425607144832611,-0.0958855152130127,31.09295654296875,96.90859985351562,-18.84259033203125
297303,-0.0902557373046875,0.8039398193359375,0.0570526123046875,0.2876056730747223,-0.2606451809406281,-0.2220924496650696,31.14857482910156,96.83595275878906,-19.02337646484375
297304,-0.144134521484375,0.7930450439453125,0.091552734375,0.205719068646431,-0.3141555488109589,-0.3470109403133392,31.03433227539062,96.97630310058594,-19.14512634277344
297305,-0.144134521484375,0.7930450439453125,0.091552734375,0.205719068646431,-0.3141555488109589,-0.3470109403133392,31.03433227539062,96.97630310058594,-19.14512634277344
297306,-0.2635040283203125,0.750213623046875,0.1138763427734375,-0.0178639516234397,-0.4059493839740753,-0.5025089383125305,30.76937866210938,96.91021728515624,-19.33192443847656
297307,-0.3099365234375,0.75042724609375,0.1186981201171875,-0.1475804001092911,-0.3883706331253052,-0.5336924195289612,30.66734313964844,96.84373474121094,-19.25129699707031
297308,-0.363677978515625,0.7816009521484375,0.1466522216796875,-0.3019534647464752,-0.282505989074707,-0.5622878670692444,30.42973327636719,96.8118896484375,-19.13600158691406
297309,-0.4080657958984375,0.8060302734375,0.185272216796875,-0.4466083943843842,-0.0941861569881439,-0.5681760907173157,30.22297668457031,96.72776794433594,-18.94914245605469
297310,-0.446441650390625,0.830322265625,0.2369842529296875,-0.5665739178657532,0.1301596015691757,-0.5541638731956482,30.04069519042969,96.80068969726562,-18.78842163085938
297311,-0.446441650390625,0.830322265625,0.2369842529296875,-0.5665739178657532,0.1301596015691757,-0.5541638731956482,30.04069519042969,96.80068969726562,-18.78842163085938
297312,-0.490234375,0.8917694091796875,0.3009185791015625,-0.7168723344802856,0.448340505361557,-0.493916243314743,29.5537109375,96.77467346191406,-18.36344909667969
297313,-0.4839935302734375,0.9189910888671876,0.31854248046875,-0.7796111106872559,0.4374207556247711,-0.4480297267436981,29.33929443359375,96.67762756347656,-18.04153442382812
297314,-0.476348876953125,0.953582763671875,0.3385467529296875,-0.8524786829948425,0.35135617852211,-0.3987071812152863,29.08251953125,96.75914001464844,-17.843017578125
297315,-0.4645538330078125,0.9931640625,0.33843994140625,-0.9299300312995912,0.244904026389122,-0.3637446463108063,28.90740966796875,96.7402801513672,-17.59544372558594
297316,-0.434417724609375,1.022796630859375,0.288055419921875,-1.060023903846741,-0.1048609018325806,-0.3069543540477753,28.71499633789062,96.775146484375,-17.29783630371094
297317,-0.3763580322265625,1.031097412109375,0.192962646484375,-1.060023903846741,-0.1048609018325806,-0.3069543540477753,28.35635375976562,96.84689331054688,-16.91023254394531
297318,-0.2669677734375,1.03790283203125,0.1258392333984375,-0.9339042901992798,-0.4838830530643463,-0.2995523512363434,28.23683166503906,96.82818603515624,-16.37559509277344
297319,-0.1298675537109375,1.052490234375,0.06793212890625,-0.9339042901992798,-0.4838830530643463,-0.2995523512363434,28.04281616210938,96.771728515625,-15.82940673828125
297320,-0.01226806640625,1.092071533203125,-0.0149078369140625,-0.8067913055419922,-0.5114576816558838,-0.2841417193412781,27.78921508789062,96.71395874023438,-15.21864318847656
297321,-0.01226806640625,1.092071533203125,-0.0149078369140625,-0.8067913055419922,-0.5114576816558838,-0.2841417193412781,27.78921508789062,96.71395874023438,-15.21864318847656
297322,0.12921142578125,1.2056884765625,-0.149627685546875,-0.500675618648529,-0.3898907899856567,-0.2055707275867462,27.27273559570312,96.75375366210938,-14.11264038085938
297323,0.127655029296875,1.210830688476562,-0.1581573486328125,-0.3482882082462311,-0.4132365882396698,-0.2311812937259674,27.102783203125,96.7896728515625,-13.82695007324219
297324,0.150543212890625,1.15972900390625,-0.178436279296875,-0.2475847601890564,-0.5274947285652161,-0.2474958151578903,26.92597961425781,96.60340881347656,-13.46908569335938
297325,0.184356689453125,1.102630615234375,-0.2647247314453125,-0.1874457895755768,-0.7271572351455688,-0.2324628084897995,26.78553771972656,96.54678344726562,-13.08621215820312
297326,0.2162628173828125,1.021987915039062,-0.37249755859375,-0.0639390349388122,-0.9406279325485228,-0.1644999980926514,26.6346435546875,96.51864624023438,-12.74592590332031
297327,0.2329559326171875,0.9348297119140624,-0.4603118896484375,0.1660504937171936,-1.048460125923157,-0.0788359567523002,26.55943298339844,96.3857421875,-12.34077453613281
297328,0.2164154052734375,0.87158203125,-0.5323486328125,0.4427753090858459,-1.040980935096741,0.0192519910633564,26.58651733398438,96.28443908691406,-12.13194274902344
297329,0.174835205078125,0.82293701171875,-0.5788726806640625,0.6812115907669067,-0.9810100197792052,0.1344451606273651,26.58921813964844,96.14436340332033,-12.0064697265625
297330,0.1454925537109375,0.7905426025390625,-0.5995025634765625,0.823091983795166,-0.8827494978904724,0.2503541707992554,26.58409118652344,96.10466003417967,-12.04611206054688
297331,0.1192626953125,0.7992706298828125,-0.5970611572265625,0.8843162059783936,-0.7537670135498047,0.3378803133964539,26.7156982421875,96.04612731933594,-12.1156005859375
297332,0.1031646728515625,0.8738250732421875,-0.5788116455078125,0.8537260890007019,-0.6352350115776062,0.3726758360862732,26.84730529785156,96.04158020019533,-12.16159057617188
297333,0.1031646728515625,0.8738250732421875,-0.5788116455078125,0.8537260890007019,-0.6352350115776062,0.3726758360862732,26.84730529785156,96.04158020019533,-12.16159057617188
