time_idx,accelerometerAccelerationX(G),accelerometerAccelerationY(G),accelerometerAccelerationZ(G),gyroRotationX(rad/s),gyroRotationY(rad/s),gyroRotationZ(rad/s),magnetometerX(µT),magnetometerY(µT),magnetometerZ(µT)
185953,-0.140045166015625,0.7288970947265625,0.0446014404296875,0.6953481435775757,-0.8178865909576416,-0.0257732737809419,51.46939086914062,97.29161071777344,-40.74758911132812
185954,-0.13226318359375,0.685302734375,0.0716705322265625,0.5566874742507935,-0.8395053148269653,-0.0295003671199083,51.07144165039062,96.68252563476562,-41.43754577636719
185955,-0.1514129638671875,0.6584625244140625,0.06939697265625,0.5201199054718018,-0.8188442587852478,-0.0486727319657802,51.01104736328125,96.36936950683594,-41.64079284667969
185956,-0.18896484375,0.6501312255859375,0.0532379150390625,0.4803016185760498,-0.7831680178642273,-0.0794207900762558,50.81663513183594,96.28176879882812,-41.92173767089844
185957,-0.18896484375,0.6501312255859375,0.0532379150390625,0.4803016185760498,-0.7831680178642273,-0.0794207900762558,50.81663513183594,96.28176879882812,-41.92173767089844
185958,-0.2142333984375,0.556915283203125,0.1105804443359375,0.3095389306545258,-0.5086494088172913,-0.1093248948454857,50.3785400390625,95.9715576171875,-42.32852172851562
185959,-0.165985107421875,0.5356292724609375,0.157623291015625,0.1536793112754822,-0.2691720724105835,-0.0560078769922256,50.29612731933594,95.76858520507812,-42.42881774902344
185960,-0.096099853515625,0.6398773193359375,0.2229156494140625,-0.0159765686839819,-0.0563698001205921,0.0891722217202186,50.19032287597656,95.73269653320312,-42.53843688964844
185961,-0.096099853515625,0.6398773193359375,0.2229156494140625,-0.0159765686839819,-0.0563698001205921,0.0891722217202186,50.19032287597656,95.73269653320312,-42.53843688964844
185962,-0.0864410400390625,0.898040771484375,0.326171875,-0.3696630001068115,0.1656792461872101,0.2812260687351227,50.20896911621094,95.72735595703124,-42.56501770019531
185963,-0.13751220703125,0.9131011962890624,0.3412933349609375,-0.4720476865768433,0.1733539402484894,0.3271389901638031,50.34442138671875,95.7273406982422,-42.56820678710938
185964,-0.15576171875,0.9103546142578124,0.2935028076171875,-0.4062031805515289,0.0026658242568373,0.394242912530899,50.86532592773438,95.9299774169922,-42.3272705078125
185965,-0.15576171875,0.9103546142578124,0.2935028076171875,-0.4062031805515289,0.0026658242568373,0.394242912530899,50.86532592773438,95.9299774169922,-42.3272705078125
185966,-0.104827880859375,0.8838043212890625,0.266265869140625,-0.3299297094345093,0.0175917763262987,0.4156067967414856,51.00794982910156,95.939208984375,-41.99461364746094
185967,-0.045806884765625,0.8810272216796875,0.2422332763671875,-0.2993781864643097,0.054182544350624,0.4005362391471863,51.05072021484375,96.0728759765625,-41.76683044433594
185968,-0.0173797607421875,0.90338134765625,0.2705078125,-0.3074145317077637,0.1741017550230026,0.3275437653064728,51.17755126953125,96.2209930419922,-41.5028076171875
185969,0.0052337646484375,0.8504180908203125,0.218841552734375,-0.4078708291053772,0.183001771569252,0.2602430284023285,51.26205444335938,96.25250244140624,-41.51129150390625
185970,0.0106201171875,0.83355712890625,0.230072021484375,-0.5146819949150085,0.1326248943805695,0.2030436545610428,51.44650268554688,96.31407165527344,-41.32197570800781
185971,0.002899169921875,0.8577117919921875,0.2482757568359375,-0.6210326552391052,0.0752787739038467,0.1420351713895798,51.57798767089844,96.33534240722656,-41.19572448730469
185972,-0.0198974609375,0.9034423828125,0.230682373046875,-0.6829394102096558,-0.011232147924602,0.0667505338788032,51.66848754882812,96.56379699707033,-40.97492980957031
185973,-0.0198974609375,0.9034423828125,0.230682373046875,-0.6829394102096558,-0.011232147924602,0.0667505338788032,51.66848754882812,96.56379699707033,-40.97492980957031
185974,-0.0620269775390625,1.01422119140625,0.185302734375,-0.7137879133224487,-0.0677694603800773,-0.0624884106218814,51.67616271972656,96.91957092285156,-40.39788818359375
185975,-0.068817138671875,1.069290161132812,0.1170654296875,-0.6531549096107483,-0.0738537162542343,-0.1054308190941811,51.50527954101562,97.27912902832033,-39.98417663574219
185976,-0.07391357421875,1.097030639648438,0.0473480224609375,-0.5382387042045593,-0.0340764783322811,-0.151952251791954,51.39170837402344,97.29849243164062,-39.595458984375
185977,-0.07391357421875,1.097030639648438,0.0473480224609375,-0.5382387042045593,-0.0340764783322811,-0.151952251791954,51.39170837402344,97.29849243164062,-39.595458984375
185978,-0.0643768310546875,1.106048583984375,-0.1455841064453125,-0.2584760189056396,0.1481303423643112,-0.1956275552511215,51.0494384765625,97.71148681640624,-38.94499206542969
185979,-0.0444793701171875,1.096710205078125,-0.2550201416015625,-0.1728796362876892,0.2482486963272095,-0.1898801922798157,50.87445068359375,97.8069305419922,-38.7039794921875
185980,-0.0074005126953125,1.075714111328125,-0.359039306640625,-0.1639045178890228,0.2893322110176086,-0.1677780747413635,50.75128173828125,97.99494934082033,-38.64971923828125
185981,0.0418701171875,1.089736938476562,-0.4493865966796875,-0.2328630685806274,0.2021387219429016,-0.1211202964186668,50.6055908203125,98.087646484375,-38.50558471679688
185982,0.091522216796875,1.125885009765625,-0.5076904296875,-0.3329534530639648,0.0592012703418731,-0.0815286785364151,50.45945739746094,98.16883850097656,-38.33995056152344
185983,0.1177215576171875,1.163833618164062,-0.5337982177734375,-0.3938383758068085,-0.0319030731916427,-0.0519143305718898,50.46298217773438,98.23869323730467,-38.19947814941406
185984,0.11444091796875,1.192520141601562,-0.556243896484375,-0.356173038482666,-0.0592561326920986,-0.0081324949860572,50.32510375976562,98.35484313964844,-38.05104064941406
185985,0.11444091796875,1.192520141601562,-0.556243896484375,-0.356173038482666,-0.0592561326920986,-0.0081324949860572,50.32510375976562,98.35484313964844,-38.05104064941406
185986,0.066680908203125,1.267318725585938,-0.6537628173828125,0.2198000103235245,0.1506038904190063,0.1281795352697372,50.25753784179688,98.48655700683594,-37.47187805175781
185987,0.1105804443359375,1.309432983398438,-0.706298828125,0.2198000103235245,0.1506038904190063,0.1281795352697372,50.17823791503906,98.61468505859376,-37.34307861328125
185988,0.1607818603515625,1.300445556640625,-0.692230224609375,0.4132584035396576,0.3192720115184784,0.1537829041481018,50.23338317871094,98.67141723632812,-37.27021789550781
185989,0.1501922607421875,1.236129760742188,-0.6521453857421875,0.5261977314949036,0.4645117521286011,0.1748458445072174,50.29898071289062,98.54550170898438,-37.37820434570312
185990,0.1077117919921875,1.172348022460938,-0.6140289306640625,0.6068372130393982,0.5026703476905823,0.1752421259880066,50.49089050292969,98.45352172851562,-37.50444030761719
185991,0.076934814453125,1.11187744140625,-0.572479248046875,0.6509314179420471,0.5526371002197266,0.1890458166599274,50.66136169433594,98.28030395507812,-37.82261657714844
185992,0.0480194091796875,1.082901000976562,-0.5345916748046875,0.6336315274238586,0.594679594039917,0.2036047875881195,50.98896789550781,98.1197509765625,-38.23458862304688
185993,0.0480194091796875,1.082901000976562,-0.5345916748046875,0.6336315274238586,0.594679594039917,0.2036047875881195,50.98896789550781,98.1197509765625,-38.23458862304688
185994,-0.0012359619140625,1.042434692382812,-0.396453857421875,0.4014028310775757,0.5158990621566772,0.1513767391443253,51.4429931640625,97.96719360351562,-38.87246704101562
185995,-0.0438079833984375,1.03057861328125,-0.2691497802734375,0.152499794960022,0.465343713760376,0.1119939088821411,51.75556945800781,97.89117431640624,-39.09117126464844
185996,-0.0738525390625,1.052978515625,-0.154541015625,-0.1205945909023285,0.3988741636276245,0.1047003120183945,52.00186157226562,97.75096130371094,-39.35374450683594
185997,-0.0738525390625,1.052978515625,-0.154541015625,-0.1205945909023285,0.3988741636276245,0.1047003120183945,52.00186157226562,97.75096130371094,-39.35374450683594
185998,-0.0670318603515625,1.174575805664062,0.093597412109375,-0.4237352907657623,0.0357438810169696,0.2507400810718536,52.48699951171875,97.74302673339844,-39.5552978515625
185999,-0.058197021484375,1.222381591796875,0.1707763671875,-0.4237352907657623,0.0357438810169696,0.2507400810718536,52.68577575683594,97.78289794921876,-39.39579772949219
186000,-0.0343475341796875,1.234710693359375,0.2141876220703125,-0.2833880484104156,-0.157875657081604,0.4645437002182007,52.75308227539062,97.96536254882812,-39.29278564453125
186001,-0.0343475341796875,1.234710693359375,0.2141876220703125,-0.2833880484104156,-0.157875657081604,0.4645437002182007,52.75308227539062,97.96536254882812,-39.29278564453125
186002,0.0784454345703125,1.174850463867188,0.24224853515625,-0.1217011362314224,-0.3222813606262207,0.5556557774543762,53.18377685546875,97.9958038330078,-38.86383056640625
186003,0.137939453125,1.110427856445312,0.2469024658203125,0.0922846570611,-0.5358218550682068,0.5382448434829712,53.40142822265625,97.98550415039062,-38.91676330566406
186004,0.1834259033203125,1.031494140625,0.240325927734375,0.5743775367736816,-0.9430487751960754,0.4818460047245026,53.61280822753906,97.82444763183594,-38.83078002929688
186005,0.21466064453125,0.9633941650390624,0.2385101318359375,0.5743775367736816,-0.9430487751960754,0.4818460047245026,53.83370971679688,97.66578674316406,-38.86085510253906
186006,0.2535247802734375,0.8856201171875,0.1925048828125,0.6022874712944031,-0.9269075989723206,0.4524292647838593,53.90802001953125,97.61656188964844,-39.04721069335938
186007,0.2756500244140625,0.865997314453125,0.1109161376953125,0.6022874712944031,-0.9269075989723206,0.4524292647838593,53.8487548828125,97.43832397460938,-39.31314086914062
186008,0.2416229248046875,0.8831634521484375,0.1238861083984375,0.3821835815906525,-0.3745578825473785,0.3996001183986664,53.90516662597656,97.2637176513672,-39.59956359863281
186009,0.2416229248046875,0.8831634521484375,0.1238861083984375,0.3821835815906525,-0.3745578825473785,0.3996001183986664,53.90516662597656,97.2637176513672,-39.59956359863281
186010,0.0643768310546875,0.8804931640625,0.172515869140625,0.2562946379184723,-0.1573334336280823,0.387072890996933,53.85107421875,96.92724609375,-39.93070983886719
186011,0.0465087890625,0.826202392578125,0.114013671875,0.1504723280668259,-0.196882963180542,0.3472570180892944,53.98802185058594,96.74676513671876,-40.17330932617188
186012,0.048980712890625,0.7331390380859375,0.1084136962890625,0.0934255570173263,-0.3019790351390839,0.2883990406990051,54.25334167480469,96.48617553710938,-40.3675537109375
186013,0.048980712890625,0.7331390380859375,0.1084136962890625,0.0934255570173263,-0.3019790351390839,0.2883990406990051,54.25334167480469,96.48617553710938,-40.3675537109375
186014,0.017547607421875,0.6303558349609375,0.149627685546875,-0.0401900298893451,0.1863224655389786,0.0786319598555564,54.52995300292969,96.42657470703124,-40.47116088867188
186015,-0.055450439453125,0.666778564453125,0.161285400390625,-0.1637686938047409,0.4249302446842194,-0.0556459501385688,54.708251953125,96.429931640625,-40.49409484863281
186016,-0.26739501953125,0.8386077880859375,0.15386962890625,-0.2599231898784637,0.5693111419677734,-0.203717440366745,54.91926574707031,96.29623413085938,-40.41224670410156
186017,-0.26739501953125,0.8386077880859375,0.15386962890625,-0.2599231898784637,0.5693111419677734,-0.203717440366745,54.91926574707031,96.29623413085938,-40.41224670410156
186018,-0.344451904296875,0.9146881103515624,0.108001708984375,-0.2587194442749023,0.57286536693573,-0.3232475519180298,55.055419921875,96.18800354003906,-40.242431640625
186019,-0.3510894775390625,0.9416656494140624,0.1114044189453125,-0.2065009772777557,0.4531911909580231,-0.3765257000923157,55.21035766601562,96.3921356201172,-40.16354370117188
186020,-0.3250579833984375,0.9614105224609376,0.1851959228515625,-0.1854359060525894,0.3763989210128784,-0.3779792487621307,55.17909240722656,96.48565673828124,-40.00236511230469
186021,-0.3250579833984375,0.9614105224609376,0.1851959228515625,-0.1854359060525894,0.3763989210128784,-0.3779792487621307,55.17909240722656,96.48565673828124,-40.00236511230469
186022,-0.2483367919921875,0.9514007568359376,0.2155609130859375,-0.2438720464706421,0.352138876914978,-0.3728974163532257,55.19293212890625,96.51521301269533,-39.62257385253906
186023,-0.2115936279296875,0.9297637939453124,0.215240478515625,-0.2298023104667664,0.4041179120540619,-0.3537761867046356,55.08560180664062,96.63900756835938,-39.32096862792969
186024,-0.1955108642578125,0.9039764404296876,0.2077484130859375,-0.1995900720357895,0.4845752120018005,-0.3389351963996887,54.95463562011719,96.77108764648438,-39.310791015625
186025,-0.1992645263671875,0.8670654296875,0.2029266357421875,-0.1778261959552765,0.5809329152107239,-0.3319044411182404,54.70124816894531,97.0386962890625,-39.61064147949219
186026,-0.2008514404296875,0.805908203125,0.19708251953125,-0.1859932988882065,0.656385064125061,-0.3540624678134918,54.60726928710938,97.24392700195312,-39.62162780761719
186027,-0.194580078125,0.7475128173828125,0.1738739013671875,-0.2217275947332382,0.6896122694015503,-0.3902489840984344,54.52825927734375,97.39396667480467,-39.58808898925781
186028,-0.19024658203125,0.6956634521484375,0.161376953125,-0.2674695253372192,0.6603472828865051,-0.431085079908371,54.46458435058594,97.5252685546875,-39.53228759765625
186029,-0.19024658203125,0.6956634521484375,0.161376953125,-0.2674695253372192,0.6603472828865051,-0.431085079908371,54.46458435058594,97.5252685546875,-39.53228759765625
186030,-0.1757659912109375,0.652801513671875,0.13385009765625,-0.4395494163036346,0.5705068707466125,-0.4650467932224274,54.44139099121094,97.6188507080078,-39.18963623046875
186031,-0.1569061279296875,0.68768310546875,0.064605712890625,-0.5780308246612549,0.4619284868240356,-0.4608637392520905,54.33444213867188,97.7065887451172,-39.05345153808594
186032,-0.132110595703125,0.761962890625,-0.0435638427734375,-0.7326984405517578,0.2424485981464386,-0.4493402540683746,54.18287658691406,97.80050659179688,-38.83616638183594
186033,-0.132110595703125,0.761962890625,-0.0435638427734375,-0.7326984405517578,0.2424485981464386,-0.4493402540683746,54.18287658691406,97.80050659179688,-38.83616638183594
186034,-0.0415496826171875,0.917083740234375,-0.1407470703125,-0.9640235900878906,0.0167294461280107,-0.4159753620624542,53.85482788085938,98.27873229980467,-38.04412841796875
186035,0.0083770751953125,0.9545745849609376,-0.160614013671875,-1.000321865081787,0.0231559183448553,-0.4239675104618073,53.50970458984375,98.6939697265625,-37.58023071289062
186036,0.060272216796875,0.9784698486328124,-0.1351318359375,-1.020914554595947,-0.0145214181393384,-0.449055016040802,53.15827941894531,98.9363250732422,-37.191650390625
186037,0.1164703369140625,1.02685546875,-0.110137939453125,-1.064112663269043,-0.0032107068691402,-0.4722423851490021,52.85737609863281,99.2292022705078,-36.7264404296875
186038,0.1542510986328125,1.11981201171875,-0.1446380615234375,-1.110028147697449,-0.0194301567971706,-0.5406166315078735,52.60432434082031,99.54791259765624,-36.18801879882812
186039,0.1744384765625,1.2054443359375,-0.1937713623046875,-1.118568420410156,-0.1737246513366699,-0.6248689293861389,52.34010314941406,99.79379272460938,-35.54106140136719
186040,0.15704345703125,1.286422729492188,-0.2319488525390625,-1.022703409194946,-0.382367879152298,-0.6784623861312866,51.95852661132812,100.1459503173828,-35.12966918945312
186041,0.15704345703125,1.286422729492188,-0.2319488525390625,-1.022703409194946,-0.382367879152298,-0.6784623861312866,51.95852661132812,100.1459503173828,-35.12966918945312
186042,0.1576080322265625,1.403793334960938,-0.3835601806640625,-0.5846131443977356,-0.6333668231964111,-0.5484585762023926,51.09176635742188,100.5385284423828,-33.97822570800781
186043,0.1820831298828125,1.39752197265625,-0.491546630859375,-0.2538453340530396,-0.6985687017440796,-0.4391432702541351,50.67835998535156,100.704345703125,-33.54510498046875
186044,0.22509765625,1.358322143554688,-0.59100341796875,0.4507711827754974,-0.5959104895591736,-0.2107122391462326,50.15875244140625,100.9458312988281,-33.03800964355469
186045,0.22509765625,1.358322143554688,-0.59100341796875,0.4507711827754974,-0.5959104895591736,-0.2107122391462326,50.15875244140625,100.9458312988281,-33.03800964355469
186046,0.19390869140625,1.367172241210938,-0.7030029296875,0.692332923412323,-0.5357347726821899,-0.1267992258071899,49.495849609375,101.0590209960938,-32.7896728515625
186047,0.1659088134765625,1.344741821289062,-0.6708984375,0.814486563205719,-0.4974718391895294,-0.0621690973639488,49.27688598632812,100.9911041259766,-32.76081848144531
186048,0.12506103515625,1.352157592773438,-0.5555267333984375,0.8811057806015015,-0.3901397883892059,0.131743386387825,49.20365905761719,100.7490234375,-33.50392150878906
186049,0.12506103515625,1.352157592773438,-0.5555267333984375,0.8811057806015015,-0.3901397883892059,0.131743386387825,49.20365905761719,100.7490234375,-33.50392150878906
186050,0.1307525634765625,1.326278686523438,-0.4516448974609375,0.8811057806015015,-0.3901397883892059,0.131743386387825,49.11326599121094,100.5770263671875,-33.92225646972656
186051,0.1247100830078125,1.272247314453125,-0.30645751953125,0.833697497844696,-0.4253416955471039,0.1656353026628494,49.03010559082031,100.4125823974609,-34.23472595214844
186052,0.0821075439453125,1.253692626953125,-0.136688232421875,0.5585240125656128,-0.5151376128196716,0.0966642275452613,49.17405700683594,100.2191772460938,-34.80682373046875
186053,0.02996826171875,1.2371826171875,0.0349884033203125,0.5585240125656128,-0.5151376128196716,0.0966642275452613,49.25340270996094,99.992919921875,-35.13938903808594
186054,-0.020050048828125,1.244232177734375,0.1941680908203125,0.4123694598674774,-0.5754646062850952,0.0131064811721444,49.30076599121094,99.8823699951172,-35.57687377929688
186055,-0.0655059814453125,1.29248046875,0.32244873046875,0.3251924812793732,-0.5490860342979431,-0.067374512553215,49.39509582519531,99.68133544921876,-36.06825256347656
186056,-0.1005401611328125,1.341171264648438,0.36651611328125,0.3617755174636841,-0.5091465711593628,-0.2329099476337433,49.47825622558594,99.5827178955078,-36.27481079101562
186057,-0.1005401611328125,1.341171264648438,0.36651611328125,0.3617755174636841,-0.5091465711593628,-0.2329099476337433,49.47825622558594,99.5827178955078,-36.27481079101562
186058,-0.148895263671875,1.332061767578125,0.31451416015625,0.4496585130691528,-0.5557292699813843,-0.2854370772838593,49.47622680664062,99.5154266357422,-36.63970947265625
186059,-0.183868408203125,1.278656005859375,0.2572479248046875,0.5890645980834961,-0.5960849523544312,-0.293820708990097,49.44461059570312,99.45274353027344,-36.78054809570312
186060,-0.2270355224609375,1.18975830078125,0.18017578125,0.9091144800186156,-0.6831095814704895,-0.194803312420845,49.24269104003906,99.20069885253906,-37.06632995605469
186061,-0.2270355224609375,1.18975830078125,0.18017578125,0.9091144800186156,-0.6831095814704895,-0.194803312420845,49.24269104003906,99.20069885253906,-37.06632995605469
186062,-0.247955322265625,0.9997100830078124,0.1355133056640625,0.9348440766334534,-0.6383943557739258,-0.128047451376915,48.90443420410156,99.00926208496094,-37.73922729492188
186063,-0.225341796875,0.9311370849609376,0.1368865966796875,0.905954658985138,-0.537283718585968,-0.1422221213579178,48.74087524414062,98.79792785644533,-38.025146484375
186064,-0.2303924560546875,0.8761444091796875,0.1059722900390625,0.8591434955596924,-0.4913375079631805,-0.1822821944952011,48.57710266113281,98.53436279296876,-38.45419311523438
186065,-0.2303924560546875,0.8761444091796875,0.1059722900390625,0.8591434955596924,-0.4913375079631805,-0.1822821944952011,48.57710266113281,98.53436279296876,-38.45419311523438
186066,-0.25164794921875,0.8448638916015625,0.0117645263671875,0.6737448573112488,-0.5305511951446533,-0.2096669375896454,48.27192687988281,98.17962646484376,-39.35566711425781
186067,-0.2447052001953125,0.8401031494140625,-0.0474395751953125,0.5289146900177002,-0.6089706420898438,-0.2005722522735596,48.09434509277344,98.080322265625,-39.71797180175781
186068,-0.2313690185546875,0.81011962890625,-0.07891845703125,0.3930764496326447,-0.7939549088478088,-0.142074853181839,47.90890502929688,97.81578063964844,-39.91728210449219
186069,-0.2313690185546875,0.81011962890625,-0.07891845703125,0.3930764496326447,-0.7939549088478088,-0.142074853181839,47.90890502929688,97.81578063964844,-39.91728210449219
186070,-0.203338623046875,0.7274932861328125,-0.010528564453125,0.4268072545528412,-0.8263639807701111,-0.1218950152397156,47.61123657226562,97.61453247070312,-40.47698974609375
186071,-0.209869384765625,0.6790771484375,0.049560546875,0.4598693251609802,-0.7374330163002014,-0.1091845408082008,47.48541259765625,97.4088134765625,-40.53913879394531
186072,-0.2278900146484375,0.62469482421875,0.09344482421875,0.4411979019641876,-0.5529449582099915,-0.093168556690216,47.35708618164062,97.2716827392578,-40.72854614257812
186073,-0.2278900146484375,0.62469482421875,0.09344482421875,0.4411979019641876,-0.5529449582099915,-0.093168556690216,47.35708618164062,97.2716827392578,-40.72854614257812
186074,-0.2538299560546875,0.55682373046875,0.2081756591796875,0.1830965876579285,0.0263836700469255,0.0025803367607295,47.08218383789062,97.12484741210938,-41.06568908691406
186075,-0.2324371337890625,0.5657196044921875,0.2744293212890625,0.024036094546318,0.3198584318161011,0.077102243900299,46.97111511230469,96.91233825683594,-41.22381591796875
186076,-0.20928955078125,0.616790771484375,0.351959228515625,-0.1349636763334274,0.5534663796424866,0.1471356600522995,46.86860656738281,96.95208740234376,-41.25006103515625
186077,-0.20928955078125,0.616790771484375,0.351959228515625,-0.1349636763334274,0.5534663796424866,0.1471356600522995,46.86860656738281,96.95208740234376,-41.25006103515625
186078,-0.202789306640625,0.79327392578125,0.4041748046875,-0.4353200495243073,0.6505843997001648,0.3001675605773926,47.11351013183594,96.8049774169922,-41.43096923828125
186079,-0.1966705322265625,0.8362274169921875,0.38922119140625,-0.5644007921218872,0.3487529158592224,0.3089586496353149,47.42353820800781,96.83424377441406,-41.29484558105469
186080,-0.17333984375,0.8343048095703125,0.3915863037109375,-0.6570268869400024,-0.0608383156359195,0.2954923808574677,47.70736694335938,96.95718383789062,-41.1572265625
186081,-0.17333984375,0.8343048095703125,0.3915863037109375,-0.6570268869400024,-0.0608383156359195,0.2954923808574677,47.70736694335938,96.95718383789062,-41.1572265625
186082,-0.12646484375,0.8896331787109375,0.468048095703125,-0.7981757521629333,-0.1131680980324745,0.2353243678808212,48.07400512695312,97.16465759277344,-40.70762634277344
186083,-0.0994873046875,0.8941192626953125,0.4104461669921875,-0.9092311263084412,0.0721833854913711,0.1713155657052994,48.0703125,97.64901733398438,-40.11814880371094
186084,-0.0811920166015625,0.879302978515625,0.3697509765625,-0.9842231273651124,0.2516777813434601,0.0951787158846855,48.02842712402344,97.91278076171876,-39.80393981933594
186085,-0.0950469970703125,0.854766845703125,0.353546142578125,-0.9771774411201476,0.3346818387508392,0.0167547445744276,48.05281066894531,98.16032409667967,-39.351806640625
186086,-0.124176025390625,0.829681396484375,0.3475799560546875,-0.939491331577301,0.3063253164291382,-0.0470194406807422,48.19772338867188,98.34683227539062,-38.85943603515625
186087,-0.14093017578125,0.81011962890625,0.32110595703125,-0.9255046844482422,0.201273187994957,-0.1059927418828011,48.29872131347656,98.47688293457033,-38.42631530761719
186088,-0.1459808349609375,0.815948486328125,0.2510528564453125,-0.9471449851989746,0.0056376457214355,-0.1506600826978683,48.34886169433594,98.66590881347656,-38.00358581542969
186089,-0.1459808349609375,0.815948486328125,0.2510528564453125,-0.9471449851989746,0.0056376457214355,-0.1506600826978683,48.34886169433594,98.66590881347656,-38.00358581542969
186090,-0.11395263671875,0.8927001953125,0.1204071044921875,-0.9435092210769652,-0.4925979673862457,-0.1673586368560791,48.11888122558594,98.96945190429688,-37.08607482910156
186091,-0.0880279541015625,0.942596435546875,0.0470733642578125,-0.909521460533142,-0.6123981475830078,-0.1653266400098801,47.74763488769531,99.25344848632812,-36.62760925292969
186092,-0.0644989013671875,1.022384643554688,-0.05511474609375,-0.8237658143043518,-0.5198208093643188,-0.1642123758792877,47.48269653320312,99.5192413330078,-36.13645935058594
186093,-0.0644989013671875,1.022384643554688,-0.05511474609375,-0.8237658143043518,-0.5198208093643188,-0.1642123758792877,47.48269653320312,99.5192413330078,-36.13645935058594
186094,-0.0250701904296875,1.199920654296875,-0.39031982421875,-0.3792381286621094,-0.0946095958352088,-0.2107463181018829,46.88999938964844,99.91526794433594,-35.13766479492188
186095,-0.0223388671875,1.258636474609375,-0.3842926025390625,-0.2315298914909363,-0.1023221090435982,-0.2439346313476562,46.64463806152344,100.0053863525391,-34.71061706542969
186096,-0.0134124755859375,1.332015991210938,-0.3567657470703125,-0.2311187088489532,-0.1545232683420181,-0.2639584243297577,46.30802917480469,100.1600189208984,-34.62532043457031
186097,-0.0134124755859375,1.332015991210938,-0.3567657470703125,-0.2311187088489532,-0.1545232683420181,-0.2639584243297577,46.30802917480469,100.1600189208984,-34.62532043457031
186098,0.037445068359375,1.473861694335938,-0.3622894287109375,-0.1787657588720322,-0.2417508363723755,-0.1535192579030991,45.84635925292969,100.2843475341797,-34.01765441894531
186099,0.064117431640625,1.42706298828125,-0.3564300537109375,0.0209284517914056,-0.167145311832428,-0.0045737125910818,45.666015625,100.3119049072266,-33.94837951660156
186100,0.0500030517578125,1.286224365234375,-0.3835906982421875,0.5035949945449829,0.1782618761062622,0.3431331217288971,45.55609130859375,100.1161499023438,-33.86369323730469
186101,0.00579833984375,1.124847412109375,-0.431304931640625,0.5035949945449829,0.1782618761062622,0.3431331217288971,45.62724304199219,100.0563659667969,-34.02238464355469
186102,-0.01678466796875,1.02374267578125,-0.4660797119140625,0.6351468563079834,0.3053343594074249,0.4476105272769928,45.69010925292969,100.0705261230469,-34.14949035644531
186103,-0.01678466796875,1.02374267578125,-0.4660797119140625,0.6351468563079834,0.3053343594074249,0.4476105272769928,45.69010925292969,100.0705261230469,-34.14949035644531
186104,0.0106658935546875,0.980377197265625,-0.47607421875,0.7827398180961609,0.5133740901947021,0.5341286659240723,46.22029113769531,99.9299774169922,-34.66285705566406
186105,0.0106658935546875,0.980377197265625,-0.47607421875,0.7827398180961609,0.5133740901947021,0.5341286659240723,46.22029113769531,99.9299774169922,-34.66285705566406
186106,0.029052734375,1.066741943359375,-0.3844146728515625,0.7205523252487183,0.586009681224823,0.4819823503494263,46.95085144042969,99.71397399902344,-35.37899780273438
186107,0.0235748291015625,1.123794555664062,-0.333343505859375,0.6313025951385498,0.611198365688324,0.4184039235115051,47.30354309082031,99.59507751464844,-35.90022277832031
186108,0.00274658203125,1.174179077148438,-0.2660675048828125,0.5526596903800964,0.6291640996932983,0.3373101353645325,47.80375671386719,99.41122436523438,-36.25177001953125
186109,0.00274658203125,1.174179077148438,-0.2660675048828125,0.5526596903800964,0.6291640996932983,0.3373101353645325,47.80375671386719,99.41122436523438,-36.25177001953125
186110,-0.0568084716796875,1.250732421875,-0.11151123046875,0.443632036447525,0.6196041107177734,0.2056205421686172,48.39653015136719,99.30465698242188,-36.77323913574219
186111,-0.0791778564453125,1.2928466796875,-0.0378875732421875,0.3756018579006195,0.5811475515365601,0.1529386788606644,48.64796447753906,99.19108581542967,-37.04562377929688
186112,-0.0911102294921875,1.322250366210938,0.0160675048828125,0.3025614619255066,0.4883004426956177,0.1313367187976837,48.89396667480469,99.1112823486328,-37.34278869628906
186113,-0.0911102294921875,1.322250366210938,0.0160675048828125,0.3025614619255066,0.4883004426956177,0.1313367187976837,48.89396667480469,99.1112823486328,-37.34278869628906
186114,-0.0584259033203125,1.253021240234375,0.0706329345703125,0.2131069451570511,0.1423166692256927,0.2241372317075729,49.31712341308594,98.95806884765624,-37.69432067871094
186115,-0.0167083740234375,1.163894653320312,0.073577880859375,0.2238253653049469,-0.0660125687718391,0.3368579149246216,49.50985717773438,98.92097473144533,-37.93894958496094
186116,0.0528106689453125,1.072067260742188,0.074859619140625,0.2944308221340179,-0.4473410248756409,0.6106178164482117,49.68257141113281,98.64706420898438,-38.06687927246094
186117,0.0528106689453125,1.072067260742188,0.074859619140625,0.2944308221340179,-0.4473410248756409,0.6106178164482117,49.68257141113281,98.64706420898438,-38.06687927246094
186118,0.1562042236328125,0.9600830078125,0.110992431640625,0.4611449837684631,-0.4780358076095581,0.6896644234657288,50.15634155273438,98.40335083007812,-38.37928771972656
186119,0.1221923828125,0.9407196044921876,0.1262054443359375,0.4611449837684631,-0.4780358076095581,0.6896644234657288,50.43045043945312,98.264892578125,-38.44743347167969
186120,0.052093505859375,0.9401397705078124,0.0839385986328125,0.5147174000740051,-0.4464853405952454,0.6090739965438843,50.66853332519531,98.1171875,-38.48292541503906
186121,0.052093505859375,0.9401397705078124,0.0839385986328125,0.5147174000740051,-0.4464853405952454,0.6090739965438843,50.66853332519531,98.1171875,-38.48292541503906
186122,-0.042327880859375,0.934906005859375,0.19671630859375,0.4456712305545807,-0.4871920347213745,0.3533199727535248,50.9798583984375,97.71763610839844,-38.64671325683594
186123,-0.0449066162109375,0.921539306640625,0.2531280517578125,0.3138031959533691,-0.3845418095588684,0.2905588746070862,51.1544189453125,97.580078125,-38.76312255859375
186124,-0.003021240234375,0.8938140869140625,0.1763153076171875,0.1753326654434204,-0.3769179880619049,0.2744850814342499,51.28065490722656,97.5132293701172,-39.27476501464844
186125,-0.003021240234375,0.8938140869140625,0.1763153076171875,0.1753326654434204,-0.3769179880619049,0.2744850814342499,51.28065490722656,97.5132293701172,-39.27476501464844
186126,0.1271209716796875,0.812255859375,0.036956787109375,0.1479545831680298,-0.7663360238075256,0.3487476110458374,51.62458801269531,97.03001403808594,-39.54032897949219
186127,0.1271209716796875,0.812255859375,0.036956787109375,0.1479545831680298,-0.7663360238075256,0.3487476110458374,51.62458801269531,97.03001403808594,-39.54032897949219
186128,0.1593170166015625,0.7747802734375,0.044647216796875,0.4198534786701202,-0.6229674220085144,0.3981335163116455,51.56547546386719,97.02438354492188,-39.69378662109375
186129,0.1279754638671875,0.7582244873046875,0.051483154296875,0.5333510041236877,-0.3556225597858429,0.35416579246521,51.56596374511719,96.8585968017578,-39.81866455078125
186130,0.00079345703125,0.7879638671875,0.0166473388671875,0.5370615720748901,-0.1520028412342072,0.2709619998931885,51.59086608886719,96.80557250976562,-39.89834594726562
186131,-0.120941162109375,0.83953857421875,0.018951416015625,0.4224580526351929,-0.1014829501509666,0.1735115945339203,51.70285034179688,96.5186767578125,-40.20884704589844
186132,-0.177032470703125,0.885406494140625,0.053955078125,0.2725585699081421,-0.08250392973423,0.0401942916214466,51.78462219238281,96.41693115234376,-40.36553955078125
186133,-0.177032470703125,0.885406494140625,0.053955078125,0.2725585699081421,-0.08250392973423,0.0401942916214466,51.78462219238281,96.41693115234376,-40.36553955078125
186134,-0.2177581787109375,0.9290924072265624,0.154541015625,0.1056246981024742,0.0245871022343635,-0.1564343422651291,51.93325805664062,96.09095764160156,-40.77554321289062
186135,-0.219879150390625,0.9311370849609376,0.199615478515625,0.0825987383723259,0.1085991784930229,-0.1996902078390121,51.86624145507812,96.08438110351562,-40.83628845214844
186136,-0.221832275390625,0.9169769287109376,0.20001220703125,0.0681830495595932,0.1453753113746643,-0.2364895045757294,51.90304565429688,96.10020446777344,-41.00498962402344
186137,-0.2269287109375,0.8848114013671875,0.1735992431640625,0.0433655828237533,0.1055384129285812,-0.2519717812538147,51.77690124511719,96.19996643066406,-40.97737121582031
186138,-0.227874755859375,0.8613128662109375,0.1590118408203125,0.0433655828237533,0.1055384129285812,-0.2519717812538147,51.73092651367188,96.10118103027344,-40.98042297363281
186139,-0.2277984619140625,0.8448028564453125,0.1598358154296875,0.0232978649437427,0.1652776449918747,-0.2545699775218964,51.57417297363281,96.1796875,-40.964111328125
186140,-0.230010986328125,0.827301025390625,0.1656036376953125,-0.0059255333617329,0.2798005044460297,-0.2576451301574707,51.52799987792969,96.11505126953124,-40.91836547851562
186141,-0.230010986328125,0.827301025390625,0.1656036376953125,-0.0059255333617329,0.2798005044460297,-0.2576451301574707,51.52799987792969,96.11505126953124,-40.91836547851562
186142,-0.2441253662109375,0.775604248046875,0.1754150390625,-0.0864057317376136,0.4749060571193695,-0.2659043967723846,51.2984619140625,96.13566589355467,-40.99171447753906
186143,-0.2477569580078125,0.7556304931640625,0.19354248046875,-0.153766393661499,0.5106638073921204,-0.2715087234973907,51.27798461914062,96.21861267089844,-40.92013549804688
186144,-0.2353363037109375,0.7310638427734375,0.2102203369140625,-0.2627424001693726,0.5337733626365662,-0.2799770534038544,51.20542907714844,96.41603088378906,-40.97210693359375
186145,-0.2353363037109375,0.7310638427734375,0.2102203369140625,-0.2627424001693726,0.5337733626365662,-0.2799770534038544,51.20542907714844,96.41603088378906,-40.97210693359375
186146,-0.2117156982421875,0.754730224609375,0.183837890625,-0.7957684993743896,0.2112627029418945,-0.297905445098877,51.11894226074219,96.53123474121094,-40.81010437011719
186147,-0.1926727294921875,0.8001861572265625,0.1261749267578125,-0.7957684993743896,0.2112627029418945,-0.297905445098877,51.02615356445312,96.8030242919922,-40.59384155273438
186148,-0.157501220703125,0.8438262939453125,0.075225830078125,-1.023564338684082,-0.2076248377561569,-0.2772142887115479,50.95870971679688,97.01316833496094,-40.35894775390625
186149,-0.157501220703125,0.8438262939453125,0.075225830078125,-1.023564338684082,-0.2076248377561569,-0.2772142887115479,50.95870971679688,97.01316833496094,-40.35894775390625
186150,-0.0070648193359375,0.9451446533203124,-0.0039215087890625,-1.014191150665283,-0.3169992566108704,-0.2467304170131683,50.57937622070312,97.59469604492188,-39.5333251953125
186151,0.0303497314453125,1.008499145507812,-0.043060302734375,-0.9511107206344604,-0.2908563315868378,-0.266253799200058,50.3533935546875,97.7131805419922,-38.95634460449219
186152,0.120635986328125,1.111923217773438,-0.2406005859375,-0.7377457022666931,-0.0679699927568435,-0.3122617602348328,49.8953857421875,97.99114990234376,-37.96548461914062
186153,0.120635986328125,1.111923217773438,-0.2406005859375,-0.7377457022666931,-0.0679699927568435,-0.3122617602348328,49.8953857421875,97.99114990234376,-37.96548461914062
186154,0.162384033203125,1.20001220703125,-0.348724365234375,-0.5654135942459106,-0.0210512224584817,-0.3251464068889618,49.71139526367188,98.2153778076172,-37.44522094726562
186155,0.1868743896484375,1.291229248046875,-0.437835693359375,-0.3778152167797089,-0.0403961576521396,-0.3295161128044128,49.51155090332031,98.41056823730467,-37.07247924804688
186156,0.1898345947265625,1.342422485351562,-0.49957275390625,-0.2354815006256104,-0.1297907531261444,-0.3055301010608673,49.23323059082031,98.60980224609376,-36.73297119140625
186157,0.1898345947265625,1.342422485351562,-0.49957275390625,-0.2354815006256104,-0.1297907531261444,-0.3055301010608673,49.23323059082031,98.60980224609376,-36.73297119140625
186158,0.1575775146484375,1.377731323242188,-0.58447265625,-0.013636183924973,-0.3117411136627197,-0.1701384484767914,48.70368957519531,98.95106506347656,-36.45703125
186159,0.1575775146484375,1.377731323242188,-0.58447265625,-0.013636183924973,-0.3117411136627197,-0.1701384484767914,48.70368957519531,98.95106506347656,-36.45703125
186160,0.2240447998046875,1.221771240234375,-0.6928253173828125,0.5111005306243896,-0.3439499139785767,0.0186823420226573,48.30615234375,98.80490112304688,-36.14730834960938
186161,0.2564239501953125,1.146774291992188,-0.7392425537109375,0.8009619116783142,-0.2704093754291534,0.1315702795982361,48.16558837890625,98.7375946044922,-36.31712341308594
186162,0.272369384765625,1.089080810546875,-0.7606964111328125,0.970418095588684,-0.1927721202373505,0.2090831845998764,48.22254943847656,98.64854431152344,-36.493408203125
186163,0.2668304443359375,1.057571411132812,-0.7301483154296875,0.9609971642494202,-0.1815077364444733,0.2024242132902145,48.235107421875,98.47380065917967,-36.75428771972656
186164,0.2495880126953125,1.043243408203125,-0.64404296875,0.8146705627441406,-0.219630628824234,0.1425677984952927,48.29978942871094,98.27491760253906,-37.16567993164062
186165,0.2495880126953125,1.043243408203125,-0.64404296875,0.8146705627441406,-0.219630628824234,0.1425677984952927,48.29978942871094,98.27491760253906,-37.16567993164062
186166,0.2000579833984375,1.082489013671875,-0.4465179443359375,0.5800418257713318,-0.2268318086862564,0.0895996540784835,48.45552062988281,97.88063049316406,-38.06468200683594
186167,0.185821533203125,1.118484497070312,-0.3610076904296875,0.5522059202194214,-0.2022828012704849,0.0952024161815643,48.61286926269531,97.67129516601562,-38.38890075683594
186168,0.1588134765625,1.170318603515625,-0.2755889892578125,0.4254005551338196,-0.1319561749696732,0.029985062777996,48.67924499511719,97.48977661132812,-38.67231750488281
186169,0.1181793212890625,1.230880737304688,-0.2083282470703125,0.4254005551338196,-0.1319561749696732,0.029985062777996,48.69351196289062,97.37971496582033,-38.9261474609375
186170,0.076141357421875,1.31036376953125,-0.137054443359375,0.3012498617172241,-0.1485015898942947,-0.0238824300467968,48.72221374511719,97.27011108398438,-39.17498779296875
186171,0.0316619873046875,1.414703369140625,-0.0442657470703125,0.059635367244482,-0.0958751291036605,-0.193037360906601,48.71949768066406,97.25320434570312,-39.40730285644531
186172,-0.02655029296875,1.504562377929688,0.0668487548828125,0.059635367244482,-0.0958751291036605,-0.193037360906601,48.7745361328125,97.24322509765624,-39.60917663574219
186173,-0.02655029296875,1.504562377929688,0.0668487548828125,0.059635367244482,-0.0958751291036605,-0.193037360906601,48.7745361328125,97.24322509765624,-39.60917663574219
186174,-0.168792724609375,1.5562744140625,0.20318603515625,0.2292433083057404,-0.1311241984367371,-0.3235788643360138,48.76054382324219,97.19937133789062,-39.78495788574219
186175,-0.211822509765625,1.474624633789062,0.220916748046875,0.4289204776287079,-0.2622806131839752,-0.3281552493572235,48.66778564453125,97.08938598632812,-39.87063598632812
186176,-0.2150726318359375,1.347122192382812,0.2288055419921875,0.6124444603919983,-0.3144921660423279,-0.2936595678329468,48.57200622558594,97.01725769042967,-40.04444885253906
186177,-0.2150726318359375,1.347122192382812,0.2288055419921875,0.6124444603919983,-0.3144921660423279,-0.2936595678329468,48.57200622558594,97.01725769042967,-40.04444885253906
186178,-0.195709228515625,1.075332641601562,0.0291748046875,0.8545388579368591,-0.664833128452301,-0.130213126540184,48.32568359375,96.84628295898438,-40.44854736328125
186179,-0.195709228515625,1.075332641601562,0.0291748046875,0.8545388579368591,-0.664833128452301,-0.130213126540184,48.32568359375,96.84628295898438,-40.44854736328125
186180,-0.1526641845703125,0.92120361328125,-0.078643798828125,0.9626984000205994,-1.648175001144409,0.1154568195343018,48.03524780273438,96.51829528808594,-41.17243957519531
186181,-0.134613037109375,0.8133697509765625,-0.1057586669921875,0.9626984000205994,-1.648175001144409,0.1154568195343018,47.83432006835938,96.26148986816406,-41.62718200683594
186182,-0.1515960693359375,0.7208251953125,-0.069732666015625,0.947275459766388,-1.873718857765198,0.2078189700841904,47.58845520019531,95.90837097167967,-42.18222045898438
186183,-0.15936279296875,0.6829376220703125,0.0210113525390625,0.9355208277702332,-1.957452654838562,0.2691177427768707,47.32249450683594,95.65545654296876,-42.46907043457031
186184,-0.15576171875,0.65423583984375,0.1271209716796875,0.8681055307388306,-1.541892170906067,0.1689282953739166,46.99209594726562,95.363525390625,-42.84312438964844
186185,-0.15576171875,0.65423583984375,0.1271209716796875,0.8681055307388306,-1.541892170906067,0.1689282953739166,46.99209594726562,95.363525390625,-42.84312438964844
186186,-0.17498779296875,0.61431884765625,0.1323089599609375,0.7496556043624878,-1.244241118431091,0.0801622122526168,46.25782775878906,94.89010620117188,-43.49957275390625
186187,-0.183197021484375,0.5788421630859375,0.1320343017578125,0.5887362360954285,-0.9369432330131532,0.0142553681507706,45.88322448730469,94.59049987792967,-43.82345581054688
186188,-0.1955718994140625,0.543426513671875,0.162445068359375,0.4050582647323608,-0.567029595375061,-0.0574696846306324,45.56805419921875,94.457275390625,-44.04129028320312
186189,-0.1955718994140625,0.543426513671875,0.162445068359375,0.4050582647323608,-0.567029595375061,-0.0574696846306324,45.56805419921875,94.457275390625,-44.04129028320312
186190,-0.134521484375,0.5404052734375,0.2401885986328125,0.0581573136150836,0.0988863632082939,0.0755213871598243,45.32420349121094,94.1253662109375,-44.29339599609375
186191,-0.1085205078125,0.6487579345703125,0.303436279296875,-0.0903032645583152,0.3544140160083771,0.2185850739479065,45.29953002929688,94.0005340576172,-44.38079833984375
186192,-0.1477203369140625,0.7241668701171875,0.355865478515625,-0.3684267699718475,0.6050097346305847,0.3590596318244934,45.34220886230469,93.92982482910156,-44.46867370605469
186193,-0.1988525390625,0.7623291015625,0.3701171875,-0.3684267699718475,0.6050097346305847,0.3590596318244934,45.5247802734375,93.95606994628906,-44.43270874023438
186194,-0.2287445068359375,0.8025970458984375,0.3770294189453125,-0.4825429618358612,0.512264609336853,0.3947947323322296,45.91616821289062,93.95602416992188,-44.3680419921875
186195,-0.2327117919921875,0.8284912109375,0.4043426513671875,-0.5348839163780212,0.3336959481239319,0.3930149376392365,46.23779296875,94.02735900878906,-44.21539306640625
186196,-0.1808624267578125,0.8474578857421875,0.4376373291015625,-0.6069887280464172,0.2216306626796722,0.3322890102863312,46.56660461425781,94.10798645019533,-43.98414611816406
186197,-0.106201171875,0.8686370849609375,0.4666748046875,-0.6069887280464172,0.2216306626796722,0.3322890102863312,46.84017944335938,94.2673797607422,-43.80950927734375
186198,-0.0664215087890625,0.9004364013671875,0.444580078125,-0.720504105091095,0.3212928175926208,0.2469594478607178,46.99769592285156,94.53424072265624,-43.631591796875
186199,-0.0503387451171875,0.952301025390625,0.401611328125,-0.8894340395927429,0.4112738370895386,0.148350328207016,47.12974548339844,94.79151916503906,-43.29766845703125
186200,-0.0424346923828125,1.016616821289062,0.3593597412109375,-1.058744788169861,0.4909713268280029,0.0503760874271392,47.19367980957031,95.0661163330078,-43.15867614746094
186201,-0.0497283935546875,1.085433959960938,0.292327880859375,-1.18696665763855,0.5524493455886841,-0.060366403311491,47.24456787109375,95.31809997558594,-42.88226318359375
186202,-0.073638916015625,1.14849853515625,0.183990478515625,-1.224854111671448,0.541856050491333,-0.1711949110031128,47.36813354492188,95.6659698486328,-42.37039184570312
186203,-0.1019134521484375,1.190658569335938,0.0884857177734375,-1.109001040458679,0.4266749024391174,-0.2847012281417847,47.32914733886719,95.93862915039062,-41.74215698242188
186204,-0.12103271484375,1.177841186523438,0.100311279296875,-0.956373393535614,0.4473133087158203,-0.3455968201160431,47.37788391113281,96.3212890625,-41.31222534179688
186205,-0.12103271484375,1.177841186523438,0.100311279296875,-0.956373393535614,0.4473133087158203,-0.3455968201160431,47.37788391113281,96.3212890625,-41.31222534179688
186206,-0.152496337890625,1.051727294921875,-0.0480194091796875,-0.7429356575012207,0.5741288065910339,-0.2917828559875488,47.23046875,96.98387145996094,-40.33619689941406
186207,-0.1380615234375,0.9786529541015624,-0.123870849609375,-0.6871451139450073,0.4412317276000977,-0.2443855106830597,47.27323913574219,97.20440673828124,-40.0087890625
186208,-0.1265716552734375,0.959625244140625,-0.1901702880859375,-0.6834955215454102,0.3232195973396301,-0.2480737268924713,47.16650390625,97.36968994140624,-39.57987976074219
186209,-0.1265716552734375,0.959625244140625,-0.1901702880859375,-0.6834955215454102,0.3232195973396301,-0.2480737268924713,47.16650390625,97.36968994140624,-39.57987976074219
186210,-0.0198822021484375,1.083251953125,-0.50146484375,-0.6894245147705078,0.2938404083251953,-0.295990377664566,46.88566589355469,97.80377197265624,-38.81358337402344
186211,0.0418701171875,1.198013305664062,-0.63043212890625,-0.5620337724685669,0.392829030752182,-0.2955778539180756,46.71070861816406,98.15055847167967,-38.55078125
186212,0.1048736572265625,1.2613525390625,-0.634918212890625,-0.2861236333847046,0.4810497164726257,-0.1775143295526505,46.43597412109375,98.36068725585938,-38.28689575195312
186213,0.1048736572265625,1.2613525390625,-0.634918212890625,-0.2861236333847046,0.4810497164726257,-0.1775143295526505,46.43597412109375,98.36068725585938,-38.28689575195312
186214,0.093536376953125,1.390228271484375,-0.64208984375,-0.1892855018377304,0.3665425777435303,-0.1227458938956261,46.09266662597656,98.55224609375,-37.69920349121094
186215,0.09808349609375,1.421676635742188,-0.7389678955078125,-0.0349744968116283,0.2589649856090546,-0.0438886284828186,45.91317749023438,98.7101593017578,-37.52491760253906
186216,0.1848907470703125,1.363967895507812,-0.799285888671875,0.2141173481941223,0.2831677794456482,0.1074569523334503,46.01371765136719,98.77442932128906,-37.39057922363281
186217,0.26617431640625,1.295303344726562,-0.7839202880859375,0.459883451461792,0.4466126561164856,0.2450355887413025,46.06488037109375,98.65611267089844,-37.40252685546875
186218,0.2799072265625,1.242141723632812,-0.721893310546875,0.6668251752853394,0.5963336825370789,0.369291216135025,46.08648681640625,98.63682556152344,-37.41531372070312
186219,0.249847412109375,1.173263549804688,-0.6605072021484375,0.76390141248703,0.632708728313446,0.4163905680179596,46.28158569335938,98.4805908203125,-37.54275512695312
186220,0.212432861328125,1.110061645507812,-0.6103668212890625,0.76390141248703,0.632708728313446,0.4163905680179596,46.51679992675781,98.36541748046876,-37.63363647460938
186221,0.212432861328125,1.110061645507812,-0.6103668212890625,0.76390141248703,0.632708728313446,0.4163905680179596,46.51679992675781,98.36541748046876,-37.63363647460938
186222,0.122283935546875,1.097702026367188,-0.513580322265625,0.8995175361633301,0.6722537875175476,0.4446198046207428,47.37644958496094,97.99386596679688,-38.20535278320312
186223,0.0625762939453125,1.08306884765625,-0.438507080078125,0.8341699838638306,0.7079752683639526,0.4291340410709381,47.74014282226562,97.78564453125,-38.49781799316406
186224,0.0625762939453125,1.08306884765625,-0.438507080078125,0.8341699838638306,0.7079752683639526,0.4291340410709381,47.74014282226562,97.78564453125,-38.49781799316406
186225,-0.052215576171875,1.04400634765625,-0.3094329833984375,0.5424337387084961,0.6337662935256958,0.3789414465427399,48.56649780273438,97.50799560546876,-39.31553649902344
186226,-0.078826904296875,1.055770874023438,-0.225860595703125,0.3169177770614624,0.301897257566452,0.4005545973777771,48.95880126953125,97.44281005859376,-39.90739440917969
186227,-0.0824127197265625,1.07257080078125,-0.1248626708984375,0.3169177770614624,0.301897257566452,0.4005545973777771,49.25062561035156,97.34596252441406,-40.37747192382812
186228,-0.067840576171875,1.083206176757812,-0.0197906494140625,0.254413366317749,0.0993084758520126,0.4405454397201538,49.60694885253906,97.31428527832033,-40.60923767089844
186229,-0.067840576171875,1.083206176757812,-0.0197906494140625,0.254413366317749,0.0993084758520126,0.4405454397201538,49.60694885253906,97.31428527832033,-40.60923767089844
186230,0.0199432373046875,1.119354248046875,0.1659393310546875,0.2813094258308411,-0.4909990131855011,0.5613150000572205,50.16462707519531,97.21588134765624,-41.0003662109375
186231,0.0199432373046875,1.119354248046875,0.1659393310546875,0.2813094258308411,-0.4909990131855011,0.5613150000572205,50.16462707519531,97.21588134765624,-41.0003662109375
186232,0.05810546875,1.17205810546875,0.2284698486328125,0.3928990960121155,-0.7538934946060181,0.5966317057609558,50.37922668457031,97.09278869628906,-41.07644653320312
186233,0.0806121826171875,1.24591064453125,0.1219482421875,0.528560221195221,-1.135311126708984,0.5990410447120667,50.65260314941406,96.9229736328125,-41.41195678710938
186234,0.080322265625,1.22637939453125,0.1166534423828125,0.6220819354057312,-1.437829971313477,0.5175515413284302,50.75556945800781,96.7958526611328,-41.59178161621094
186235,0.080322265625,1.22637939453125,0.1166534423828125,0.6220819354057312,-1.437829971313477,0.5175515413284302,50.75556945800781,96.7958526611328,-41.59178161621094
186236,0.111114501953125,1.000457763671875,0.18072509765625,0.5965262651443481,-1.553190469741821,0.2923202812671661,50.85093688964844,96.37425231933594,-42.22550964355469
186237,0.111114501953125,1.000457763671875,0.18072509765625,0.5965262651443481,-1.553190469741821,0.2923202812671661,50.85093688964844,96.37425231933594,-42.22550964355469
186238,0.1930389404296875,0.7038421630859375,0.2073974609375,0.3439789414405823,-1.091350317001343,0.3237937688827515,50.54562377929688,95.86813354492188,-42.50257873535156
186239,0.2097930908203125,0.618621826171875,0.2132568359375,0.305257648229599,-0.777804434299469,0.3975958228111267,50.36672973632812,95.5390625,-42.82170104980469
186240,0.1859893798828125,0.58709716796875,0.207000732421875,0.330773651599884,-0.3995181024074554,0.4258029758930206,50.23678588867188,95.23545837402344,-42.90957641601562
186241,0.1859893798828125,0.58709716796875,0.207000732421875,0.330773651599884,-0.3995181024074554,0.4258029758930206,50.23678588867188,95.23545837402344,-42.90957641601562
186242,0.0401763916015625,0.5262298583984375,0.1082000732421875,0.2524186670780182,0.1080236732959747,0.4748072624206543,50.30319213867188,94.91299438476562,-43.22312927246094
186243,-0.0496826171875,0.54583740234375,0.12164306640625,0.0859588533639907,0.2582302093505859,0.425517201423645,50.50213623046875,94.82237243652344,-43.36705017089844
186244,-0.1499481201171875,0.5964508056640625,0.223785400390625,-0.1883770972490311,0.4778304696083069,0.2950654625892639,50.72537231445312,94.6482391357422,-43.50776672363281
186245,-0.27001953125,0.69281005859375,0.3123779296875,-0.4642390310764313,0.7677773237228394,0.1445880681276321,51.04685974121094,94.55152893066406,-43.4810791015625
186246,-0.3781280517578125,0.808929443359375,0.30181884765625,-0.6218041777610779,0.915443241596222,-0.0348194986581802,51.28526306152344,94.63444519042967,-43.54788208007812
186247,-0.438232421875,0.92254638671875,0.2686614990234375,-0.6125880479812622,0.8365129828453064,-0.2352716326713562,51.66893005371094,94.59172058105467,-43.29702758789062
186248,-0.4294281005859375,0.9590606689453124,0.2658843994140625,-0.5199704766273499,0.6228124499320984,-0.3550417125225067,51.97085571289062,94.79574584960938,-43.08061218261719
186249,-0.4294281005859375,0.9590606689453124,0.2658843994140625,-0.5199704766273499,0.6228124499320984,-0.3550417125225067,51.97085571289062,94.79574584960938,-43.08061218261719
186250,-0.2933197021484375,0.9115142822265624,0.262176513671875,-0.4443415105342865,0.2387105822563171,-0.4489801824092865,52.37251281738281,95.34844970703124,-42.37504577636719
186251,-0.2164154052734375,0.870269775390625,0.2426910400390625,-0.4575569033622742,0.09813242405653,-0.4791029393672943,52.24263000488281,95.56045532226562,-42.04930114746094
186252,-0.157928466796875,0.84808349609375,0.2580108642578125,-0.4621548652648926,0.1093302220106125,-0.4768765270709991,52.10536193847656,95.5985870361328,-41.89990234375
186253,-0.1238250732421875,0.8554534912109375,0.25830078125,-0.45858433842659,0.292260617017746,-0.4564900398254395,51.88616943359375,95.6728515625,-41.70719909667969
186254,-0.115478515625,0.854339599609375,0.2388153076171875,-0.4645852446556091,0.557397723197937,-0.4417033791542053,51.75773620605469,95.78572082519533,-41.48347473144531
186255,-0.1415557861328125,0.8290557861328125,0.2224578857421875,-0.4744866192340851,0.81546550989151,-0.4414237439632416,51.49156188964844,96.03556823730467,-41.29208374023438
186256,-0.1878509521484375,0.787872314453125,0.213531494140625,-0.5485073328018188,1.015003085136414,-0.527046263217926,51.52507019042969,96.24766540527344,-41.22015380859375
186257,-0.2389984130859375,0.756927490234375,0.2005615234375,-0.5485073328018188,1.015003085136414,-0.527046263217926,51.468505859375,96.48158264160156,-40.95904541015625
186258,-0.2784576416015625,0.73828125,0.1542816162109375,-0.6365364789962769,0.9231663942337036,-0.5870754718780518,51.47451782226562,96.5998992919922,-40.54446411132812
186259,-0.28948974609375,0.741546630859375,0.099151611328125,-0.7451002597808838,0.7293055653572083,-0.6540947556495667,51.40695190429688,96.82138061523438,-40.29324340820312
186260,-0.261871337890625,0.768402099609375,0.0357208251953125,-0.8823515772819519,0.4891976416110992,-0.6581059694290161,51.22004699707031,97.06863403320312,-40.00393676757812
186261,-0.261871337890625,0.768402099609375,0.0357208251953125,-0.8823515772819519,0.4891976416110992,-0.6581059694290161,51.22004699707031,97.06863403320312,-40.00393676757812
186262,-0.1399383544921875,0.98565673828125,-0.1613616943359375,-1.192090272903442,0.0009052084642462,-0.480770081281662,50.74543762207031,97.68251037597656,-39.39654541015625
186263,-0.0743865966796875,1.071640014648438,-0.1817169189453125,-1.224817633628845,-0.1529623866081238,-0.442367821931839,50.38983154296875,98.02870178222656,-38.66545104980469
186264,0.01263427734375,1.061019897460938,-0.131561279296875,-1.093073725700378,-0.100914366543293,-0.423646867275238,50.03147888183594,98.45396423339844,-38.22625732421875
186265,0.01263427734375,1.061019897460938,-0.131561279296875,-1.093073725700378,-0.100914366543293,-0.423646867275238,50.03147888183594,98.45396423339844,-38.22625732421875
186266,0.1545562744140625,1.107391357421875,-0.1576080322265625,-1.070081233978271,-0.0759738609194755,-0.4323596656322479,49.42970275878906,98.92367553710938,-37.15423583984375
186267,0.1812286376953125,1.232925415039062,-0.244964599609375,-1.031336069107056,-0.0734971165657043,-0.4729553163051605,49.05960083007812,99.08511352539062,-36.50025939941406
186268,0.225982666015625,1.346511840820312,-0.363861083984375,-0.9059914350509644,-0.2040418088436127,-0.5246949195861816,48.78143310546875,99.3691864013672,-35.9661865234375
186269,0.2618865966796875,1.415298461914062,-0.42657470703125,-0.6819934844970703,-0.3742787837982178,-0.5147440433502197,48.39897155761719,99.5043487548828,-35.44985961914062
186270,0.2864837646484375,1.46026611328125,-0.48162841796875,-0.3904702663421631,-0.4507136344909668,-0.4312794804573059,48.04971313476562,99.68580627441406,-34.97024536132812
186271,0.2805938720703125,1.513076782226562,-0.5880279541015625,-0.0278422832489013,-0.4750733077526093,-0.2812705636024475,47.74407958984375,99.6969757080078,-34.60606384277344
186272,0.280975341796875,1.524871826171875,-0.6781158447265625,0.3644924759864807,-0.4435103237628937,-0.1102221086621284,47.38916015625,99.73095703125,-34.37921142578125
186273,0.2880401611328125,1.460540771484375,-0.734466552734375,0.7138331532478333,-0.40302574634552,0.0652863308787345,47.21652221679688,99.71812438964844,-34.2711181640625
186274,0.2694854736328125,1.358367919921875,-0.7524566650390625,0.9683580994606018,-0.3443840146064758,0.1964536756277084,47.1307373046875,99.64610290527344,-34.48007202148438
186275,0.251190185546875,1.259490966796875,-0.7372894287109375,1.108549356460571,-0.2768475711345673,0.2730784118175507,47.09774780273438,99.40959167480467,-34.892578125
186276,0.2172393798828125,1.198806762695312,-0.691680908203125,1.154932260513306,-0.1962720453739166,0.3000729978084564,47.17446899414062,99.16650390625,-35.43984985351562
186277,0.2172393798828125,1.198806762695312,-0.691680908203125,1.154932260513306,-0.1962720453739166,0.3000729978084564,47.17446899414062,99.16650390625,-35.43984985351562
186278,0.2190399169921875,1.106903076171875,-0.58477783203125,0.9838672876358032,-0.1573859006166458,0.3080087006092072,47.42689514160156,98.74554443359376,-36.58932495117188
186279,0.230224609375,1.13653564453125,-0.5218048095703125,0.8585354685783386,-0.1648347526788712,0.3172669112682343,47.61595153808594,98.47068786621094,-37.03285217285156
186280,0.233184814453125,1.193862915039062,-0.4516754150390625,0.7488542795181274,-0.1685072481632233,0.3072590231895447,47.73927307128906,98.31236267089844,-37.57588195800781
186281,0.233184814453125,1.193862915039062,-0.4516754150390625,0.7488542795181274,-0.1685072481632233,0.3072590231895447,47.73927307128906,98.31236267089844,-37.57588195800781
186282,0.214599609375,1.292510986328125,-0.234588623046875,0.5320364832878113,-0.1982885897159576,0.2303852736949921,48.07438659667969,97.92027282714844,-38.17507934570312
186283,0.20001220703125,1.351226806640625,-0.0755767822265625,0.4148992002010345,-0.2298265397548676,0.1619625389575958,48.24845886230469,97.91976928710938,-38.53021240234375
186284,0.1656646728515625,1.409317016601562,0.075469970703125,0.3669279217720032,-0.2303503900766373,0.0857223644852638,48.33038330078125,97.73365783691406,-38.827880859375
186285,0.0940704345703125,1.433242797851562,0.1407623291015625,0.4474600553512573,-0.312021017074585,0.0214842520654201,48.43359375,97.70587158203124,-39.10725402832031
186286,0.0282745361328125,1.43560791015625,0.1802978515625,0.595427393913269,-0.443185955286026,-0.0630567297339439,48.468017578125,97.67814636230467,-39.24746704101562
186287,-0.0262298583984375,1.398330688476562,0.1892242431640625,0.7422354817390442,-0.5765061974525452,-0.1548199355602264,48.46992492675781,97.6142578125,-39.44017028808594
186288,-0.0998077392578125,1.33245849609375,0.1549224853515625,0.8259466290473938,-0.7422911524772644,-0.2403257787227631,48.48579406738281,97.549072265625,-39.71040344238281
186289,-0.0998077392578125,1.33245849609375,0.1549224853515625,0.8259466290473938,-0.7422911524772644,-0.2403257787227631,48.48579406738281,97.549072265625,-39.71040344238281
186290,-0.2039794921875,1.167816162109375,0.0522308349609375,1.05290949344635,-1.305758237838745,-0.2878504395484924,48.10012817382812,97.12754821777344,-40.32017517089844
186291,-0.23309326171875,1.06219482421875,0.013336181640625,1.084142565727234,-1.548933386802673,-0.2389563918113708,47.78147888183594,97.10122680664062,-40.97276306152344
186292,-0.2626800537109375,0.9864959716796876,-0.002593994140625,1.00982141494751,-1.638872027397156,-0.1080234050750732,47.44606018066406,96.78173828125,-41.51502990722656
186293,-0.2626800537109375,0.9864959716796876,-0.002593994140625,1.00982141494751,-1.638872027397156,-0.1080234050750732,47.44606018066406,96.78173828125,-41.51502990722656
186294,-0.20660400390625,0.84503173828125,-0.023406982421875,0.9180704355239868,-1.689839601516724,0.0788532719016075,46.70625305175781,96.04833984375,-42.19345092773438
186295,-0.2024383544921875,0.76507568359375,0.03082275390625,0.9155321717262268,-1.689067006111145,0.1342763155698776,46.36474609375,95.7633819580078,-42.63160705566406
186296,-0.2017974853515625,0.7040557861328125,0.103240966796875,0.9064393639564514,-1.558903932571411,0.1572546064853668,46.07264709472656,95.4731903076172,-42.94586181640625
186297,-0.2017974853515625,0.7040557861328125,0.103240966796875,0.9064393639564514,-1.558903932571411,0.1572546064853668,46.07264709472656,95.4731903076172,-42.94586181640625
186298,-0.1871490478515625,0.5874786376953125,0.125640869140625,0.7595391273498535,-1.173904299736023,0.1030097380280495,45.56834411621094,94.67115783691406,-43.51181030273438
186299,-0.1996917724609375,0.52813720703125,0.1409454345703125,0.6622565388679504,-0.9018099904060364,0.0667422786355018,45.31245422363281,94.462158203125,-43.72225952148438
186300,-0.219482421875,0.4838104248046875,0.1512298583984375,0.4672819674015045,-0.2038998603820801,0.0370839834213256,45.0716552734375,94.26571655273438,-43.91180419921875
186301,-0.219482421875,0.4838104248046875,0.1512298583984375,0.4672819674015045,-0.2038998603820801,0.0370839834213256,45.0716552734375,94.26571655273438,-43.91180419921875
186302,-0.2022705078125,0.454620361328125,0.284088134765625,0.3702510297298431,0.2135735303163528,0.0502442605793476,44.857177734375,94.0443878173828,-44.2935791015625
186303,-0.1545257568359375,0.494232177734375,0.3958282470703125,0.2410235404968262,0.7035171389579773,0.0476892255246639,44.92007446289062,93.8896026611328,-44.44480895996094
186304,-0.099365234375,0.532562255859375,0.4614105224609375,0.0500602386891841,1.127395391464233,0.0738888680934906,45.11700439453125,93.75379943847656,-44.62992858886719
186305,-0.099365234375,0.532562255859375,0.4614105224609375,0.0500602386891841,1.127395391464233,0.0738888680934906,45.11700439453125,93.75379943847656,-44.62992858886719
186306,-0.2785797119140625,0.8677215576171875,0.5822906494140625,-0.628217339515686,1.380644202232361,0.1124642267823219,45.82794189453125,93.67652893066406,-44.75363159179688
186307,-0.2785797119140625,0.8677215576171875,0.5822906494140625,-0.628217339515686,1.380644202232361,0.1124642267823219,45.82794189453125,93.67652893066406,-44.75363159179688
186308,-0.489471435546875,0.943756103515625,0.46923828125,-0.895110011100769,0.31276935338974,0.0951132029294967,46.94111633300781,93.78932189941406,-44.76968383789062
186309,-0.4467926025390625,0.87969970703125,0.4033355712890625,-0.895110011100769,0.31276935338974,0.0951132029294967,47.39765930175781,94.0500030517578,-44.57585144042969
186310,-0.324462890625,0.8530426025390625,0.4299163818359375,-0.825771152973175,0.0001155811914941,0.1170131713151932,47.68621826171875,94.26774597167967,-44.20686340332031
186311,-0.2243804931640625,0.8565673828125,0.457061767578125,-0.7688437104225159,-0.0110718253999948,0.1061767712235451,47.78160095214844,94.5513916015625,-43.94686889648438
186312,-0.145599365234375,0.869049072265625,0.4231109619140625,-0.98717200756073,-0.0234640464186668,-0.1025934889912605,47.5552978515625,94.83001708984376,-43.72715759277344
186313,-0.145599365234375,0.869049072265625,0.4231109619140625,-0.98717200756073,-0.0234640464186668,-0.1025934889912605,47.5552978515625,94.83001708984376,-43.72715759277344
186314,-0.100067138671875,0.87518310546875,0.353912353515625,-1.207515358924866,-0.1492981463670731,-0.2301205545663834,47.44136047363281,95.56727600097656,-43.09489440917969
186315,-0.0887908935546875,0.8822021484375,0.295501708984375,-1.357617735862732,-0.4175240099430084,-0.3203966617584229,47.25065612792969,95.71530151367188,-42.64120483398438
186316,-0.0796661376953125,0.919189453125,0.2379302978515625,-1.369372367858887,-0.7903449535369873,-0.3646107316017151,47.01431274414062,96.0098114013672,-42.24479675292969
186317,-0.0796661376953125,0.919189453125,0.2379302978515625,-1.369372367858887,-0.7903449535369873,-0.3646107316017151,47.01431274414062,96.0098114013672,-42.24479675292969
186318,-0.0199432373046875,1.1822509765625,0.2096405029296875,-0.6219583749771118,-0.4672057926654816,-0.202090248465538,46.30912780761719,96.43850708007812,-40.78688049316406
186319,-0.04644775390625,1.295455932617188,0.1060333251953125,-0.6219583749771118,-0.4672057926654816,-0.202090248465538,45.79072570800781,96.7601318359375,-40.19139099121094
186320,-0.082275390625,1.28143310546875,-0.1616668701171875,-0.3198472559452057,0.1081549674272537,-0.211541548371315,45.29177856445312,97.14720153808594,-39.4520263671875
186321,-0.082275390625,1.28143310546875,-0.1616668701171875,-0.3198472559452057,0.1081549674272537,-0.211541548371315,45.29177856445312,97.14720153808594,-39.4520263671875
186322,-0.1166839599609375,1.087646484375,-0.4853668212890625,-0.1393581628799438,0.212741032242775,-0.1081911846995354,44.71592712402344,97.2638702392578,-38.62831115722656
186323,-0.0790863037109375,1.059127807617188,-0.51165771484375,-0.3042991757392883,0.2528248131275177,-0.0556416921317577,44.59309387207031,97.24319458007812,-38.44313049316406
186324,-0.0108489990234375,1.111495971679688,-0.6819915771484375,-0.4893180429935455,0.1849323064088821,-0.0827204436063766,44.5704345703125,97.32234191894533,-38.56045532226562
186325,0.08856201171875,1.190673828125,-0.7992095947265625,-0.6139651536941528,-0.1419744491577148,-0.1086455211043358,44.4312744140625,97.44247436523438,-38.62078857421875
186326,0.1757049560546875,1.24176025390625,-0.7393646240234375,-0.4567307829856873,-0.0876217260956764,-0.0480024144053459,44.33564758300781,97.58218383789062,-38.360107421875
186327,0.2238616943359375,1.265594482421875,-0.700347900390625,-0.4567307829856873,-0.0876217260956764,-0.0480024144053459,44.1533203125,97.65826416015624,-37.909423828125
186328,0.240234375,1.27874755859375,-0.7279815673828125,-0.1967908293008804,-0.0045891590416431,0.0670658499002456,44.07136535644531,97.7875518798828,-37.58807373046875
186329,0.240234375,1.27874755859375,-0.7279815673828125,-0.1967908293008804,-0.0045891590416431,0.0670658499002456,44.07136535644531,97.7875518798828,-37.58807373046875
186330,0.2175140380859375,1.252716064453125,-0.8438262939453125,0.3909088969230652,0.3112013041973114,0.3288561701774597,44.10990905761719,97.81932067871094,-37.29081726074219
186331,0.240447998046875,1.223236083984375,-0.8324737548828125,0.5951805710792542,0.4953628778457642,0.4393251836299896,44.14686584472656,97.90921020507812,-37.36103820800781
186332,0.2505645751953125,1.186416625976562,-0.7840423583984375,0.6881869435310364,0.5931016802787781,0.4563465118408203,44.42942810058594,97.7802734375,-37.52372741699219
186333,0.2505645751953125,1.186416625976562,-0.7840423583984375,0.6881869435310364,0.5931016802787781,0.4563465118408203,44.42942810058594,97.7802734375,-37.52372741699219
186334,0.192840576171875,1.082794189453125,-0.6837158203125,0.77422034740448,0.5958186388015747,0.3926066756248474,45.10336303710938,97.54769897460938,-38.17222595214844
186335,0.1544036865234375,1.051239013671875,-0.625701904296875,0.7880964875221252,0.6273355484008789,0.38165283203125,45.3587646484375,97.53196716308594,-38.54161071777344
186336,0.11083984375,1.03912353515625,-0.562408447265625,0.6144133806228638,0.7405561208724976,0.3483409285545349,45.65849304199219,97.31988525390624,-38.81159973144531
186337,0.11083984375,1.03912353515625,-0.562408447265625,0.6144133806228638,0.7405561208724976,0.3483409285545349,45.65849304199219,97.31988525390624,-38.81159973144531
186338,0.0008087158203125,1.03350830078125,-0.4375152587890625,0.412588894367218,0.7063896059989929,0.2966426014900208,46.27777099609375,97.158447265625,-39.59303283691406
186339,-0.0460968017578125,1.0716552734375,-0.31500244140625,0.183672621846199,0.6217042803764343,0.2555966079235077,46.52944946289062,97.19514465332033,-40.02267456054688
186340,-0.0555877685546875,1.136215209960938,-0.1550445556640625,-0.1716021150350571,0.4442320466041565,0.294313907623291,46.84498596191406,97.12965393066406,-40.37306213378906
186341,-0.052642822265625,1.197418212890625,-0.02166748046875,-0.1716021150350571,0.4442320466041565,0.294313907623291,47.22175598144531,97.06248474121094,-40.49124145507812
186342,-0.04205322265625,1.2451171875,0.1094818115234375,-0.2873524129390717,0.3355649411678314,0.3317097723484039,47.54571533203125,97.19187927246094,-40.62977600097656
186343,-0.0093994140625,1.292892456054688,0.209136962890625,-0.3401290774345398,0.2940028607845306,0.3952913880348206,47.83221435546875,97.17755126953124,-40.60153198242188
186344,0.0266571044921875,1.308303833007812,0.218536376953125,-0.118836373090744,-0.1123121604323387,0.5976554155349731,48.172607421875,97.05445861816406,-40.62568664550781
186345,0.0266571044921875,1.308303833007812,0.218536376953125,-0.118836373090744,-0.1123121604323387,0.5976554155349731,48.172607421875,97.05445861816406,-40.62568664550781
186346,0.1052703857421875,1.292098999023438,0.2635040283203125,0.3770069479942322,-0.6070957779884338,0.5364298820495605,48.91273498535156,97.0172119140625,-40.43534851074219
186347,0.1059417724609375,1.2435302734375,0.2872314453125,0.3770069479942322,-0.6070957779884338,0.5364298820495605,49.14570617675781,97.09820556640624,-40.33709716796875
186348,0.1263580322265625,1.151718139648438,0.267852783203125,0.5570027828216553,-0.8350727558135986,0.4270967245101929,49.47650146484375,97.03643798828124,-40.38600158691406
186349,0.1263580322265625,1.151718139648438,0.267852783203125,0.5570027828216553,-0.8350727558135986,0.4270967245101929,49.47650146484375,97.03643798828124,-40.38600158691406
186350,0.1645355224609375,0.8673248291015625,0.21563720703125,0.6325087547302246,-1.11320424079895,0.3398278653621674,49.71197509765625,96.62811279296876,-40.72442626953125
186351,0.1595458984375,0.750091552734375,0.1782379150390625,0.6069522500038147,-1.018334150314331,0.3300130665302277,49.70318603515625,96.43292236328124,-40.9915771484375
186352,0.1595458984375,0.750091552734375,0.1782379150390625,0.6069522500038147,-1.018334150314331,0.3300130665302277,49.70318603515625,96.43292236328124,-40.9915771484375
186353,0.1089019775390625,0.6632843017578125,0.1738128662109375,0.5180394053459167,-0.7532823085784912,0.3263943493366241,49.66444396972656,96.13241577148438,-41.13026428222656
186354,-0.0218353271484375,0.5637359619140625,0.1730499267578125,0.1798994541168213,-0.217021256685257,0.3641971349716187,49.4539794921875,95.90022277832033,-41.58078002929688
186355,-0.067596435546875,0.562042236328125,0.21923828125,0.0122268386185169,0.0120907509699463,0.3714627623558044,49.56031799316406,95.7142333984375,-41.71568298339844
186356,-0.110107421875,0.573822021484375,0.2761688232421875,-0.1329338103532791,0.26707723736763,0.3646514713764191,49.73989868164062,95.61717224121094,-41.77726745605469
186357,-0.1514892578125,0.6194305419921875,0.2929534912109375,-0.2529393136501312,0.4909249842166901,0.3526536524295807,50.05207824707031,95.52101135253906,-41.75894165039062
186358,-0.2110748291015625,0.7114715576171875,0.280548095703125,-0.3573797047138214,0.6209354400634766,0.1630214154720306,50.22073364257812,95.45118713378906,-41.75482177734375
186359,-0.2912750244140625,0.846649169921875,0.260406494140625,-0.3057743012905121,0.5466321706771851,-0.012827381491661,50.60560607910156,95.41276550292967,-41.71604919433594
186360,-0.3389892578125,0.942138671875,0.244232177734375,-0.3057743012905121,0.5466321706771851,-0.012827381491661,50.88682556152344,95.5062255859375,-41.53797912597656
186361,-0.3389892578125,0.942138671875,0.244232177734375,-0.3057743012905121,0.5466321706771851,-0.012827381491661,50.88682556152344,95.5062255859375,-41.53797912597656
186362,-0.2647247314453125,0.9399566650390624,0.292083740234375,-0.2000662535429001,0.4438525438308716,-0.2226386666297913,51.28738403320312,95.71826171875,-41.18728637695312
186363,-0.212554931640625,0.9317474365234376,0.3093109130859375,-0.2454270720481873,0.4699259698390961,-0.2724062204360962,51.32728576660156,95.87416076660156,-41.08502197265625
186364,-0.1725616455078125,0.901275634765625,0.2709503173828125,-0.3143366277217865,0.3988344669342041,-0.3385956287384033,51.36129760742188,95.94039916992188,-41.02713012695312
186365,-0.14154052734375,0.87139892578125,0.248443603515625,-0.3627528846263885,0.2483725249767303,-0.3902297914028168,51.37968444824219,96.0670166015625,-40.9566650390625
186366,-0.116943359375,0.850494384765625,0.232177734375,-0.37152960896492,0.1509101539850235,-0.4133079648017883,51.34394836425781,96.11598205566406,-40.87490844726562
186367,-0.093719482421875,0.8380584716796875,0.2003936767578125,-0.3280993103981018,0.1581752598285675,-0.428466409444809,51.18670654296875,96.18695068359376,-40.80885314941406
186368,-0.0991363525390625,0.8312530517578125,0.1881866455078125,-0.2650138139724731,0.2790819704532623,-0.4579838216304779,51.03620910644531,96.1924285888672,-40.64912414550781
186369,-0.0991363525390625,0.8312530517578125,0.1881866455078125,-0.2650138139724731,0.2790819704532623,-0.4579838216304779,51.03620910644531,96.1924285888672,-40.64912414550781
186370,-0.1515350341796875,0.74627685546875,0.18243408203125,-0.2957520186901093,0.7216705679893494,-0.541327953338623,50.54197692871094,96.6631317138672,-40.29885864257812
186371,-0.1707611083984375,0.7114410400390625,0.1231231689453125,-0.4062606990337372,0.796177864074707,-0.5630130171775818,50.33235168457031,96.81321716308594,-40.15701293945312
186372,-0.1819915771484375,0.70941162109375,0.049713134765625,-0.6936397552490234,0.3905925154685974,-0.5470585823059082,50.18763732910156,96.9849090576172,-40.10038757324219
186373,-0.179168701171875,0.7409820556640625,-0.0108795166015625,-0.6936397552490234,0.3905925154685974,-0.5470585823059082,50.047119140625,97.27424621582033,-40.04788208007812
186374,-0.152130126953125,0.80169677734375,-0.0794830322265625,-0.8537442088127136,0.1151140704751015,-0.4983418881893158,49.9525146484375,97.3132781982422,-39.74713134765625
186375,-0.152130126953125,0.80169677734375,-0.0794830322265625,-0.8537442088127136,0.1151140704751015,-0.4983418881893158,49.9525146484375,97.3132781982422,-39.74713134765625
186376,-0.063720703125,0.9488067626953124,-0.187255859375,-1.080928921699524,-0.2100751996040344,-0.3933733999729156,49.51994323730469,97.70925903320312,-39.22206115722656
186377,-0.0200653076171875,0.9674530029296876,-0.179168701171875,-1.08569347858429,-0.1208507865667343,-0.3407096564769745,49.14068603515625,97.99359130859376,-38.74092102050781
186378,0.034820556640625,1.012374877929688,-0.163421630859375,-1.056962847709656,0.0598028786480426,-0.2877497673034668,48.7850341796875,98.34890747070312,-38.24873352050781
186379,0.0854339599609375,1.109466552734375,-0.1900482177734375,-1.053053259849548,0.2293743342161179,-0.2839608788490295,48.50248718261719,98.62962341308594,-37.67117309570312
186380,0.1296539306640625,1.236892700195312,-0.2566070556640625,-1.047396540641785,0.2815880179405212,-0.3240135014057159,48.21795654296875,98.9904327392578,-37.09767150878906
186381,0.1296539306640625,1.236892700195312,-0.2566070556640625,-1.047396540641785,0.2815880179405212,-0.3240135014057159,48.21795654296875,98.9904327392578,-37.09767150878906
186382,0.203399658203125,1.438385009765625,-0.375030517578125,-0.8360006213188171,-0.0093261236324906,-0.3981931805610657,47.75250244140625,99.53372192382812,-36.03555297851562
186383,0.2067108154296875,1.456756591796875,-0.416229248046875,-0.6056145429611206,-0.2472191154956818,-0.3907485902309418,47.51606750488281,99.56358337402344,-35.46292114257812
186384,0.1931610107421875,1.416671752929688,-0.45721435546875,-0.3099072575569153,-0.4309394061565399,-0.3281248807907104,47.2183837890625,99.897216796875,-34.93449401855469
186385,0.1931610107421875,1.416671752929688,-0.45721435546875,-0.3099072575569153,-0.4309394061565399,-0.3281248807907104,47.2183837890625,99.897216796875,-34.93449401855469
186386,0.2282257080078125,1.2344970703125,-0.6031646728515625,0.4037533402442932,-0.4968840777873993,-0.0640769898891449,46.72203063964844,100.0740814208984,-34.23164367675781
186387,0.2282257080078125,1.2344970703125,-0.6031646728515625,0.4037533402442932,-0.4968840777873993,-0.0640769898891449,46.72203063964844,100.0740814208984,-34.23164367675781
186388,0.2821044921875,1.152175903320312,-0.6774139404296875,0.7480137944221497,-0.4068721532821655,0.0772127658128738,46.53843688964844,99.9280242919922,-34.19853210449219
186389,0.3050079345703125,1.079879760742188,-0.6826324462890625,1.009808897972107,-0.2164321690797806,0.2498609721660614,46.37335205078125,99.7034912109375,-34.5103759765625
186390,0.2985076904296875,1.092147827148438,-0.6092987060546875,0.9233887791633606,-0.1789689511060715,0.2823344767093658,46.45881652832031,99.60818481445312,-35.02757263183594
186391,0.302032470703125,1.140106201171875,-0.5601959228515625,0.8280832767486572,-0.1762887388467789,0.301038920879364,46.6048583984375,99.2515106201172,-35.3087158203125
186392,0.3092041015625,1.1929931640625,-0.51666259765625,0.772960901260376,-0.2736464440822601,0.3183630704879761,46.63334655761719,99.14218139648438,-35.78350830078125
186393,0.307464599609375,1.249618530273438,-0.4568634033203125,0.772960901260376,-0.2736464440822601,0.3183630704879761,46.79263305664062,99.07833862304688,-36.27439880371094
186394,0.2982177734375,1.3157958984375,-0.364013671875,0.7491522431373596,-0.3312349319458008,0.2737167775630951,46.90910339355469,98.91915893554688,-36.63162231445312
186395,0.2789764404296875,1.374267578125,-0.25311279296875,0.6927481293678284,-0.3833141028881073,0.2003280371427536,47.05897521972656,98.74008178710938,-37.04093933105469
186396,0.2369384765625,1.432174682617188,-0.105682373046875,0.5930899381637573,-0.3974304497241974,0.1227402985095978,47.17842102050781,98.64485168457033,-37.42146301269531
186397,0.1735382080078125,1.474578857421875,0.063751220703125,0.4958459734916687,-0.3756266236305237,0.064683124423027,47.24241638183594,98.41891479492188,-37.75946044921875
186398,0.094482421875,1.508270263671875,0.2127838134765625,0.4636760354042053,-0.2910070717334747,0.005877329967916,47.30262756347656,98.27955627441406,-38.07017517089844
186399,0.094482421875,1.508270263671875,0.2127838134765625,0.4636760354042053,-0.2910070717334747,0.005877329967916,47.30262756347656,98.27955627441406,-38.07017517089844
186400,-0.0837860107421875,1.47344970703125,0.3645477294921875,0.7607788443565369,-0.1351005584001541,-0.1337591260671616,47.44941711425781,98.09010314941406,-38.57942199707031
186401,-0.1653289794921875,1.442886352539062,0.3555755615234375,0.9374563694000244,-0.1768485456705093,-0.2119998782873154,47.54623413085938,98.04855346679688,-38.76657104492188
186402,-0.2109832763671875,1.393478393554688,0.2768707275390625,1.09720242023468,-0.3807353675365448,-0.280939519405365,47.55081176757812,97.83230590820312,-39.11784362792969
186403,-0.2109832763671875,1.393478393554688,0.2768707275390625,1.09720242023468,-0.3807353675365448,-0.280939519405365,47.55081176757812,97.83230590820312,-39.11784362792969
186404,-0.2561187744140625,1.2064208984375,0.095550537109375,1.091685891151428,-0.8802090883255005,-0.1923388242721558,47.35725402832031,97.52133178710938,-40.04173278808594
186405,-0.2207489013671875,1.144378662109375,0.0025177001953125,1.029030799865723,-1.029591083526611,-0.1363455951213837,47.23262023925781,97.26173400878906,-40.56997680664062
186406,-0.167388916015625,1.0604248046875,-0.1267852783203125,1.002161860466003,-1.259356617927551,-0.0822938084602356,47.02693176269531,96.87347412109376,-41.01959228515625
186407,-0.1288604736328125,0.9402008056640624,-0.1769866943359375,1.029971122741699,-1.544659018516541,-0.0538864023983478,46.77604675292969,96.63983154296876,-41.52485656738281
186408,-0.1360321044921875,0.8250732421875,-0.1127777099609375,1.079996466636658,-1.696633815765381,-0.0321062691509723,46.56497192382812,96.34266662597656,-41.93284606933594
186409,-0.1685943603515625,0.743896484375,-0.0117034912109375,1.091618299484253,-1.617698550224304,-0.0072736255824565,46.26918029785156,96.01481628417967,-42.35572814941406
186410,-0.1757354736328125,0.67413330078125,0.0523223876953125,1.027969002723694,-1.421632170677185,0.019782492890954,45.89125061035156,95.6769561767578,-42.73231506347656
186411,-0.1735076904296875,0.607025146484375,0.0791015625,0.7534782886505127,-0.9280125498771667,-0.0083804354071617,45.48063659667969,95.35360717773438,-43.14311218261719
186412,-0.18170166015625,0.547088623046875,0.094482421875,0.631134033203125,-0.6075842380523682,-0.0223774779587984,45.173095703125,95.0045928955078,-43.39097595214844
186413,-0.1881561279296875,0.5241546630859375,0.1389007568359375,0.631134033203125,-0.6075842380523682,-0.0223774779587984,44.90986633300781,94.72137451171876,-43.76216125488281
186414,-0.1829681396484375,0.54010009765625,0.2254486083984375,0.5139778256416321,-0.1588423848152161,-0.0259844623506069,44.73342895507812,94.50535583496094,-43.923583984375
186415,-0.1771697998046875,0.549835205078125,0.3015594482421875,0.3842901587486267,0.3496631979942322,-0.0355036668479442,44.54708862304688,94.26457214355467,-44.17732238769531
186416,-0.1886138916015625,0.54833984375,0.387939453125,0.2310204356908798,0.861413300037384,-0.0454199463129043,44.44737243652344,94.14167785644533,-44.41162109375
186417,-0.2183990478515625,0.55364990234375,0.484893798828125,0.0630719065666198,1.348653554916382,0.0023164174053817,44.59407043457031,94.00433349609376,-44.64761352539062
186418,-0.2861328125,0.596588134765625,0.5296630859375,-0.1130112409591675,1.67968761920929,0.0802716687321662,45.16499328613281,93.84861755371094,-44.88510131835938
186419,-0.37811279296875,0.70111083984375,0.46942138671875,-0.2973070442676544,1.640992760658264,0.1342179924249649,45.75546264648438,93.7529754638672,-44.9261474609375
186420,-0.4366912841796875,0.7703399658203125,0.3489532470703125,-0.4530612230300903,1.096758961677551,0.1449241638183594,46.47682189941406,93.68142700195312,-44.9727783203125
186421,-0.4366912841796875,0.7703399658203125,0.3489532470703125,-0.4530612230300903,1.096758961677551,0.1449241638183594,46.47682189941406,93.68142700195312,-44.9727783203125
186422,-0.235992431640625,0.75274658203125,0.441925048828125,-0.6414867639541626,0.0057939733378589,0.1845900863409042,47.31788635253906,93.73086547851562,-44.39453125
186423,-0.235992431640625,0.75274658203125,0.441925048828125,-0.6414867639541626,0.0057939733378589,0.1845900863409042,47.31788635253906,93.73086547851562,-44.39453125
186424,0.012603759765625,0.8401336669921875,0.45819091796875,-0.8734452128410339,0.1392995715141296,0.0866129249334335,47.26960754394531,94.32762145996094,-44.06495666503906
186425,0.05328369140625,0.8695068359375,0.4504852294921875,-1.058636069297791,0.4136126041412354,-0.0302593689411878,47.19209289550781,94.6833038330078,-43.87461853027344
186426,0.0456085205078125,0.90423583984375,0.3857879638671875,-1.2373126745224,0.5856227278709412,-0.1603105813264847,47.140625,95.18942260742188,-43.50462341308594
186427,0.01239013671875,0.951202392578125,0.3051300048828125,-1.355876326560974,0.5426946878433228,-0.2760805785655975,47.09025573730469,95.39292907714844,-42.97920227050781
186428,-0.01153564453125,1.01593017578125,0.2579498291015625,-1.416731119155884,0.3610655069351196,-0.40560182929039,47.04537963867188,95.75547790527344,-42.56498718261719
186429,-0.01153564453125,1.01593017578125,0.2579498291015625,-1.416731119155884,0.3610655069351196,-0.40560182929039,47.04537963867188,95.75547790527344,-42.56498718261719
186430,-0.0691986083984375,1.115768432617188,0.1389923095703125,-1.430136680603027,0.1694697290658951,-0.5982953906059265,46.67564392089844,96.4960479736328,-41.28453063964844
186431,-0.074462890625,1.140823364257812,-0.011871337890625,-1.346076965332031,0.1514582335948944,-0.62845379114151,46.40541076660156,96.82278442382812,-40.68040466308594
186432,-0.0831146240234375,1.132675170898438,-0.152374267578125,-1.150844573974609,0.017822140827775,-0.6115350127220154,46.08659362792969,97.25555419921876,-40.09754943847656
186433,-0.0831146240234375,1.132675170898438,-0.152374267578125,-1.150844573974609,0.017822140827775,-0.6115350127220154,46.08659362792969,97.25555419921876,-40.09754943847656
186434,-0.0426177978515625,0.9954376220703124,-0.09539794921875,-0.6676534414291382,-0.0479001477360725,-0.4057728052139282,45.40603637695312,97.86647033691406,-38.90673828125
186435,-0.03668212890625,0.94879150390625,-0.1192779541015625,-0.6349263787269592,0.0775083750486373,-0.3825114369392395,45.13142395019531,98.01531982421876,-38.55728149414062
186436,-0.03179931640625,0.9700164794921876,-0.2936248779296875,-0.7507110238075256,0.0915333777666091,-0.4366207420825958,44.89826965332031,98.18569946289062,-38.21481323242188
186437,-0.03179931640625,0.9700164794921876,-0.2936248779296875,-0.7507110238075256,0.0915333777666091,-0.4366207420825958,44.89826965332031,98.18569946289062,-38.21481323242188
186438,0.0289306640625,1.134521484375,-0.6145477294921875,-0.804254412651062,-0.059048406779766,-0.4910703897476196,44.24665832519531,98.5536651611328,-37.46353149414062
186439,0.04644775390625,1.217697143554688,-0.6295928955078125,-0.6046110391616821,0.0576230809092521,-0.4276916980743408,43.90486145019531,98.95127868652344,-36.92314147949219
186440,0.02642822265625,1.3006591796875,-0.6014404296875,-0.4035695791244507,0.1673290729522705,-0.3082768619060516,43.53097534179688,99.16673278808594,-36.56071472167969
186441,0.02642822265625,1.3006591796875,-0.6014404296875,-0.4035695791244507,0.1673290729522705,-0.3082768619060516,43.53097534179688,99.16673278808594,-36.56071472167969
186442,0.0101318359375,1.41796875,-0.705780029296875,-0.1470906436443329,0.2288837730884552,-0.0126311061903834,43.29096984863281,99.1331024169922,-36.11988830566406
186443,0.0529327392578125,1.379180908203125,-0.7460174560546875,0.061621818691492,0.3329462707042694,0.1705962419509888,43.26492309570312,99.06967163085938,-35.96043395996094
186444,0.1358795166015625,1.293243408203125,-0.739044189453125,0.3211244940757751,0.4872719347476959,0.3608300983905792,43.37016296386719,99.01887512207033,-35.9456787109375
186445,0.1358795166015625,1.293243408203125,-0.739044189453125,0.3211244940757751,0.4872719347476959,0.3608300983905792,43.37016296386719,99.01887512207033,-35.9456787109375
186446,0.217559814453125,1.192764282226562,-0.6521453857421875,0.7537339925765991,0.6072635650634766,0.4713283777236938,43.76187133789062,98.9286651611328,-36.08688354492188
186447,0.193267822265625,1.151962280273438,-0.5862579345703125,0.8658336400985718,0.6312309503555298,0.4844359159469604,44.095458984375,98.80661010742188,-36.47746276855469
186448,0.1585693359375,1.118789672851562,-0.5262298583984375,0.9150403141975404,0.6987226605415344,0.4950246512889862,44.55659484863281,98.57853698730467,-36.91148376464844
186449,0.1585693359375,1.118789672851562,-0.5262298583984375,0.9150403141975404,0.6987226605415344,0.4950246512889862,44.55659484863281,98.57853698730467,-36.91148376464844
186450,0.047943115234375,1.092819213867188,-0.4412384033203125,0.9019982814788818,0.7993445992469788,0.4784075915813446,45.38082885742188,98.34700012207033,-37.82229614257812
186451,-0.0247955322265625,1.062042236328125,-0.4008331298828125,0.8491819500923157,0.7891353964805603,0.4389563202857971,45.76387023925781,98.1951141357422,-38.34504699707031
186452,-0.106414794921875,1.0604248046875,-0.3400421142578125,0.7746509909629822,0.7040486931800842,0.3905765414237976,46.13133239746094,98.09320068359376,-38.85401916503906
186453,-0.159149169921875,1.069580078125,-0.24560546875,0.6697461009025574,0.5855430960655212,0.3491452038288116,46.54875183105469,98.01432800292967,-39.3006591796875
186454,-0.1913299560546875,1.067642211914062,-0.1371002197265625,0.5290758013725281,0.4713395535945892,0.3483710289001465,46.91712951660156,98.00062561035156,-39.54695129394531
186455,-0.1959228515625,1.108551025390625,-0.05419921875,0.403245210647583,0.319713830947876,0.3692334294319153,47.25151062011719,98.05279541015624,-39.89921569824219
186456,-0.1578521728515625,1.17279052734375,0.0241241455078125,0.3047833442687988,0.1677613109350204,0.3781390488147736,47.52548217773438,97.98892211914062,-40.21786499023438
186457,-0.1578521728515625,1.17279052734375,0.0241241455078125,0.3047833442687988,0.1677613109350204,0.3781390488147736,47.52548217773438,97.98892211914062,-40.21786499023438
186458,-0.0388031005859375,1.20892333984375,0.0787353515625,0.2153501212596893,-0.2874445617198944,0.4553222358226776,48.04751586914062,97.87214660644533,-40.55625915527344
186459,0.0215606689453125,1.1904296875,0.1359100341796875,0.2697710394859314,-0.5487997531890869,0.5160868167877197,48.23129272460938,97.66143798828124,-40.58113098144531
186460,0.06494140625,1.172683715820312,0.1856231689453125,0.3996323645114899,-0.7335416078567505,0.5813483595848083,48.36251831054688,97.5385284423828,-40.74827575683594
186461,0.06494140625,1.172683715820312,0.1856231689453125,0.3996323645114899,-0.7335416078567505,0.5813483595848083,48.36251831054688,97.5385284423828,-40.74827575683594
186462,0.10516357421875,1.085662841796875,0.161376953125,0.7178888916969299,-1.000305891036987,0.529440701007843,48.72201538085938,97.20858764648438,-41.12362670898438
186463,0.1177978515625,0.9969024658203124,0.1811370849609375,0.7519219517707825,-0.987169623374939,0.4415252208709717,48.85687255859375,96.87081909179688,-41.46241760253906
186464,0.095977783203125,0.896881103515625,0.2144775390625,0.6929555535316467,-0.776990532875061,0.3558718264102936,48.85887145996094,96.38632202148438,-41.65359497070312
186465,0.095977783203125,0.896881103515625,0.2144775390625,0.6929555535316467,-0.776990532875061,0.3558718264102936,48.85887145996094,96.38632202148438,-41.65359497070312
186466,0.031890869140625,0.680267333984375,0.167144775390625,0.3908345997333527,-0.1795484572649002,0.3488706350326538,48.89039611816406,95.94139099121094,-42.20620727539062
186467,0.011871337890625,0.6143798828125,0.16119384765625,0.2372666150331497,0.0463123694062233,0.3783867061138153,49.05783081054688,95.70155334472656,-42.49473571777344
186468,-0.0318756103515625,0.58685302734375,0.2059173583984375,-0.0056232647038996,0.4884738028049469,0.4070034623146057,49.20269775390625,95.6232452392578,-42.65980529785156
186469,-0.0318756103515625,0.58685302734375,0.2059173583984375,-0.0056232647038996,0.4884738028049469,0.4070034623146057,49.20269775390625,95.6232452392578,-42.65980529785156
186470,-0.123565673828125,0.636138916015625,0.226837158203125,-0.1228654682636261,0.6003881096839905,0.3591469824314117,49.7528076171875,95.24533081054688,-42.72943115234375
186471,-0.181243896484375,0.7262420654296875,0.253448486328125,-0.2164058089256287,0.6784051060676575,0.2419854700565338,50.14106750488281,95.25869750976562,-42.80488586425781
186472,-0.235504150390625,0.8388824462890625,0.2593231201171875,-0.2632862329483032,0.674691379070282,0.0743328183889389,50.39796447753906,95.18977355957033,-42.68486022949219
186473,-0.274932861328125,0.912994384765625,0.24835205078125,-0.2611690163612366,0.5873945355415344,-0.090300865471363,50.723876953125,95.40931701660156,-42.53758239746094
186474,-0.2904052734375,0.940704345703125,0.2252044677734375,-0.2474548071622849,0.4715568721294403,-0.2144062966108322,50.99246215820312,95.36715698242188,-42.47178649902344
186475,-0.275634765625,0.954132080078125,0.218994140625,-0.2706471979618073,0.3660717308521271,-0.3263759911060333,51.02650451660156,95.45539855957033,-42.30194091796875
186476,-0.2524261474609375,0.952239990234375,0.22100830078125,-0.3354720175266266,0.2847638130187988,-0.4135793149471283,51.03553771972656,95.57618713378906,-42.23939514160156
186477,-0.2524261474609375,0.952239990234375,0.22100830078125,-0.3354720175266266,0.2847638130187988,-0.4135793149471283,51.03553771972656,95.57618713378906,-42.23939514160156
186478,-0.1793212890625,0.9013519287109376,0.2273406982421875,-0.4521693289279938,0.2181363254785538,-0.5345371961593628,50.73777770996094,96.0933074951172,-42.01065063476562
186479,-0.1536712646484375,0.8647918701171875,0.2010498046875,-0.4618637561798096,0.2328010201454163,-0.555225670337677,50.55221557617188,96.20489501953124,-41.73849487304688
186480,-0.1463470458984375,0.832855224609375,0.1726226806640625,-0.4390338063240051,0.2650660276412964,-0.5608140230178833,50.37530517578125,96.38992309570312,-41.6387939453125
186481,-0.1463470458984375,0.832855224609375,0.1726226806640625,-0.4390338063240051,0.2650660276412964,-0.5608140230178833,50.37530517578125,96.38992309570312,-41.6387939453125
186482,-0.184600830078125,0.8296966552734375,0.1691131591796875,-0.4016406536102295,0.5027171969413757,-0.5627610683441162,50.00123596191406,96.58782958984376,-41.30677795410156
186483,-0.223419189453125,0.8184661865234375,0.15142822265625,-0.3887418806552887,0.5704805254936218,-0.5777525305747986,49.75869750976562,96.68698120117188,-41.04368591308594
186484,-0.2657012939453125,0.8232574462890625,0.1286773681640625,-0.4065187573432922,0.5406142473220825,-0.6045897603034973,49.67153930664062,96.97866821289062,-40.86042785644531
186485,-0.2657012939453125,0.8232574462890625,0.1286773681640625,-0.4065187573432922,0.5406142473220825,-0.6045897603034973,49.67153930664062,96.97866821289062,-40.86042785644531
186486,-0.295867919921875,0.8621673583984375,0.01483154296875,-0.5469970107078552,0.1779540181159973,-0.5595948696136475,49.23878479003906,97.18072509765624,-40.66494750976562
186487,-0.272491455078125,0.8829803466796875,-0.085784912109375,-0.6574891805648804,-0.1447816789150238,-0.4832090139389038,48.94961547851562,97.2521514892578,-40.4041748046875
186488,-0.2085723876953125,0.889495849609375,-0.164703369140625,-0.8456143736839294,-0.6766769886016846,-0.3161566257476807,48.72795104980469,97.53404235839844,-40.29728698730469
186489,-0.2085723876953125,0.889495849609375,-0.164703369140625,-0.8456143736839294,-0.6766769886016846,-0.3161566257476807,48.72795104980469,97.53404235839844,-40.29728698730469
186490,-0.013946533203125,0.831939697265625,-0.089080810546875,-0.86313396692276,-0.5455639958381653,-0.2245936989784241,48.02651977539062,97.84228515625,-39.56301879882812
186491,0.0632781982421875,0.88336181640625,-0.123291015625,-0.8432273864746094,-0.3120785355567932,-0.1815122663974762,47.66067504882812,98.12986755371094,-39.20619201660156
186492,0.1162261962890625,0.96807861328125,-0.206634521484375,-0.7921953201293945,-0.156405046582222,-0.2093883752822876,47.39762878417969,98.24099731445312,-38.71405029296875
186493,0.1162261962890625,0.96807861328125,-0.206634521484375,-0.7921953201293945,-0.156405046582222,-0.2093883752822876,47.39762878417969,98.24099731445312,-38.71405029296875
186494,0.182525634765625,1.148544311523438,-0.3354644775390625,-0.6914178729057312,-0.2382466495037079,-0.3268825113773346,46.9544677734375,98.6574249267578,-37.672607421875
186495,0.1898345947265625,1.222915649414062,-0.377532958984375,-0.651089072227478,-0.3813697397708893,-0.3550816476345062,46.73690795898438,98.78562927246094,-37.29405212402344
186496,0.1991119384765625,1.259674072265625,-0.4090728759765625,-0.5751844644546509,-0.5097982883453369,-0.3076758086681366,46.44972229003906,98.7982177734375,-36.81472778320312
186497,0.1991119384765625,1.259674072265625,-0.4090728759765625,-0.5751844644546509,-0.5097982883453369,-0.3076758086681366,46.44972229003906,98.7982177734375,-36.81472778320312
186498,0.1507568359375,1.322402954101562,-0.5123138427734375,-0.1330097168684006,-0.5239846706390381,-0.0694861337542533,45.88420104980469,99.09786987304688,-36.16191101074219
186499,0.1507568359375,1.322402954101562,-0.5123138427734375,-0.1330097168684006,-0.5239846706390381,-0.0694861337542533,45.88420104980469,99.09786987304688,-36.16191101074219
186500,0.1556549072265625,1.285263061523438,-0.635009765625,0.8670573234558105,-0.2629496157169342,0.2526911199092865,45.44956970214844,99.18560791015624,-35.64555358886719
186501,0.2089080810546875,1.201812744140625,-0.6556243896484375,0.8670573234558105,-0.2629496157169342,0.2526911199092865,45.43069458007812,99.08277893066406,-35.81440734863281
186502,0.247833251953125,1.125701904296875,-0.658477783203125,0.9896855354309082,-0.1848425567150116,0.2901873588562012,45.42814636230469,98.923095703125,-36.07508850097656
186503,0.26531982421875,1.090789794921875,-0.6619415283203125,0.9595704674720764,-0.2054207921028137,0.2862450778484344,45.50491333007812,98.75697326660156,-36.49765014648438
186504,0.2681121826171875,1.113800048828125,-0.63262939453125,0.848407506942749,-0.2505861520767212,0.2671009302139282,45.61842346191406,98.39633178710938,-36.95529174804688
186505,0.26092529296875,1.174484252929688,-0.57110595703125,0.7574237585067749,-0.2511733770370483,0.2637554705142975,45.77285766601562,98.30137634277344,-37.35581970214844
186506,0.2525787353515625,1.254867553710938,-0.489532470703125,0.7079244256019592,-0.2062860578298569,0.2752352952957153,45.80033874511719,98.16104125976562,-37.6380615234375
186507,0.23553466796875,1.350341796875,-0.38714599609375,0.6819857358932495,-0.1525511890649796,0.2689129412174225,45.87310791015625,98.06825256347656,-38.02543640136719
186508,0.1989898681640625,1.426376342773438,-0.2682342529296875,0.6459649205207825,-0.1548822522163391,0.2120504677295685,45.95310974121094,97.9093780517578,-38.45062255859375
186509,0.145965576171875,1.491561889648438,-0.1260833740234375,0.6024150252342224,-0.1725869476795197,0.1170387417078018,46.039306640625,97.70355224609376,-38.77137756347656
186510,0.08734130859375,1.544921875,-0.0120086669921875,0.5610790252685547,-0.1791622936725616,0.0097354520112276,46.16654968261719,97.5728759765625,-39.05618286132812
186511,0.02886962890625,1.571456909179688,0.07763671875,0.534524142742157,-0.1490328907966614,-0.112696185708046,46.29782104492188,97.4609832763672,-39.47773742675781
186512,-0.037872314453125,1.582229614257812,0.1034393310546875,0.582650363445282,-0.0893575772643089,-0.2511014640331268,46.36640930175781,97.4045867919922,-39.81533813476562
186513,-0.1300506591796875,1.540695190429688,0.0717010498046875,0.7353496551513672,-0.0815209597349166,-0.4110676944255829,46.33204650878906,97.38088989257812,-39.9923095703125
186514,-0.213592529296875,1.444381713867188,0.072601318359375,0.8985995650291443,-0.162938579916954,-0.5384773015975952,46.26902770996094,97.22024536132812,-40.28614807128906
186515,-0.285064697265625,1.315872192382812,0.0997772216796875,0.9861730933189392,-0.2273548543453217,-0.5988247990608215,46.1146240234375,96.95539855957033,-40.67263793945312
186516,-0.33453369140625,1.169052124023438,0.076080322265625,1.006678581237793,-0.2982652485370636,-0.5790817141532898,45.95021057128906,96.76463317871094,-41.09274291992188
186517,-0.362945556640625,1.0286865234375,-0.0049896240234375,0.9894644618034364,-0.4651032388210297,-0.4810947179794312,45.75677490234375,96.61793518066406,-41.53111267089844
186518,-0.37896728515625,0.915252685546875,-0.022979736328125,0.959892213344574,-0.6453097462654114,-0.3065881729125977,45.47723388671875,96.3745574951172,-41.92808532714844
186519,-0.37896728515625,0.915252685546875,-0.022979736328125,0.959892213344574,-0.6453097462654114,-0.3065881729125977,45.47723388671875,96.3745574951172,-41.92808532714844
186520,-0.247772216796875,0.824493408203125,-0.06072998046875,0.8438353538513184,-0.7779524922370911,0.0033720945939421,45.03240966796875,95.6660614013672,-42.74739074707031
186521,-0.247772216796875,0.824493408203125,-0.06072998046875,0.8438353538513184,-0.7779524922370911,0.0033720945939421,45.03240966796875,95.6660614013672,-42.74739074707031
186522,-0.1306610107421875,0.7557220458984375,-0.080718994140625,0.7498425841331482,-1.013849496841431,0.1203069686889648,44.65333557128906,95.07308959960938,-43.30769348144531
186523,-0.1021881103515625,0.680419921875,-0.0567779541015625,0.737683892250061,-1.03492271900177,0.1441582441329956,44.55409240722656,94.70872497558594,-43.42185974121094
186524,-0.103515625,0.624053955078125,-0.0322723388671875,0.6972099542617798,-0.7301343679428101,0.1529016643762589,44.4019775390625,94.48338317871094,-43.85043334960938
186525,-0.108551025390625,0.592132568359375,-0.0489044189453125,0.6972099542617798,-0.7301343679428101,0.1529016643762589,44.284423828125,94.37359619140624,-44.35041809082031
186526,-0.1198883056640625,0.5683441162109375,-0.0803070068359375,0.6333305835723877,-0.5637616515159607,0.1061112582683563,44.15538024902344,94.13877868652344,-44.52461242675781
186527,-0.1270904541015625,0.5467071533203125,-0.0513763427734375,0.5137735605239868,-0.4034917950630188,0.0351526625454425,44.06198120117188,93.9684600830078,-44.68482971191406
186528,-0.11529541015625,0.5524749755859375,0.034454345703125,0.1048449203372002,0.0987854301929473,-0.0526381768286228,44.05241394042969,93.77166748046876,-44.87484741210938
186529,-0.11529541015625,0.5524749755859375,0.034454345703125,0.1048449203372002,0.0987854301929473,-0.0526381768286228,44.05241394042969,93.77166748046876,-44.87484741210938
186530,-0.0711669921875,0.5729217529296875,0.2820892333984375,-0.0767142176628112,0.4325583577156067,0.0047705206088721,44.04754638671875,93.45744323730467,-45.31019592285156
186531,-0.03948974609375,0.577972412109375,0.3820343017578125,-0.2696360051631927,0.8206552267074585,0.0887208133935928,44.09550476074219,93.3741455078125,-45.35372924804688
186532,-0.019134521484375,0.583251953125,0.41229248046875,-0.4848705530166626,1.123012185096741,0.2007980793714523,44.33395385742188,93.28358459472656,-45.33952331542969
186533,-0.0848541259765625,0.72137451171875,0.47119140625,-0.6634629368782043,1.363554716110229,0.1905718147754669,44.70570373535156,93.22956848144533,-45.29826354980469
186534,-0.2183074951171875,0.88623046875,0.5405426025390625,-0.7845142483711243,1.5545414686203,0.1253704428672791,45.11813354492188,93.33235168457033,-45.10440063476562
186535,-0.351165771484375,0.9497222900390624,0.4934234619140625,-0.8454117178916931,1.560396432876587,0.0535929203033447,45.65486145019531,93.54437255859376,-45.03401184082031
186536,-0.43707275390625,0.942230224609375,0.383026123046875,-0.7354564070701599,0.7956904768943787,-0.039838757365942,46.20596313476562,93.72637939453124,-44.59709167480469
186537,-0.43707275390625,0.942230224609375,0.383026123046875,-0.7354564070701599,0.7956904768943787,-0.039838757365942,46.20596313476562,93.72637939453124,-44.59709167480469
186538,-0.4255523681640625,0.9207916259765624,0.360504150390625,-0.6858494877815247,0.3593903779983521,-0.0027734159957617,47.02743530273438,94.27740478515624,-44.13386535644531
186539,-0.4255523681640625,0.9207916259765624,0.360504150390625,-0.6858494877815247,0.3593903779983521,-0.0027734159957617,47.02743530273438,94.27740478515624,-44.13386535644531
186540,-0.205474853515625,0.93218994140625,0.4558258056640625,-1.061341643333435,-0.08262350410223,-0.1210598424077034,47.122802734375,94.89134216308594,-43.76283264160156
186541,-0.1162872314453125,0.8992462158203125,0.3645782470703125,-1.061341643333435,-0.08262350410223,-0.1210598424077034,47.13876342773438,95.25286865234376,-43.48979187011719
186542,-0.0811767578125,0.8646392822265625,0.3876190185546875,-1.249674439430237,-0.3475907146930695,-0.2181453853845596,47.10601806640625,95.4569854736328,-43.28916931152344
186543,-0.0811767578125,0.8646392822265625,0.3876190185546875,-1.249674439430237,-0.3475907146930695,-0.2181453853845596,47.10601806640625,95.4569854736328,-43.28916931152344
186544,-0.0677947998046875,0.9077301025390624,0.3590545654296875,-1.49136757850647,-0.8113426566123962,-0.3342642784118652,46.77883911132812,95.90843200683594,-42.16856384277344
186545,-0.057464599609375,0.9912261962890624,0.2984161376953125,-1.471749901771545,-0.820177435874939,-0.3493079245090485,46.45964050292969,96.19729614257812,-41.55741882324219
186546,-0.068359375,1.08282470703125,0.1510162353515625,-1.335084438323975,-0.535051167011261,-0.3184224367141724,46.04475402832031,96.51760864257812,-40.83499145507812
186547,-0.068359375,1.08282470703125,0.1510162353515625,-1.335084438323975,-0.535051167011261,-0.3184224367141724,46.04475402832031,96.51760864257812,-40.83499145507812
186548,-0.161346435546875,1.1024169921875,-0.4566802978515625,-0.5546126365661621,-0.0475952140986919,-0.3364501893520355,45.11137390136719,97.39949035644533,-39.32489013671875
186549,-0.094146728515625,1.077239990234375,-0.5330047607421875,-0.2626364231109619,0.1420418322086334,-0.3003619611263275,44.65193176269531,97.60635375976562,-38.82682800292969
186550,0.0210113525390625,1.124740600585938,-0.6146087646484375,-0.2171376347541809,0.3723346889019012,-0.2313394844532013,44.30836486816406,97.89773559570312,-38.29524230957031
186551,0.100433349609375,1.231475830078125,-0.655303955078125,-0.3461744487285614,0.3446016013622284,-0.2212466299533844,43.96316528320312,98.14804077148438,-38.17288208007812
186552,0.125701904296875,1.340072631835938,-0.5739288330078125,-0.4919441640377045,0.1683554500341415,-0.2758350372314453,43.70608520507812,98.39605712890624,-38.03079223632812
186553,0.1052093505859375,1.40435791015625,-0.490020751953125,-0.5356786251068115,-0.0198445450514555,-0.3036520183086395,43.57565307617188,98.35670471191406,-37.86050415039062
186554,0.0680084228515625,1.426712036132812,-0.4740142822265625,-0.4306523203849792,-0.1313883811235428,-0.2197696417570114,43.37454223632812,98.44960021972656,-37.66644287109375
186555,0.0311737060546875,1.417877197265625,-0.51519775390625,-0.2182010412216187,-0.1513674110174179,-0.0740297511219978,43.31024169921875,98.67074584960938,-37.32357788085938
186556,0.02532958984375,1.358627319335938,-0.5901336669921875,0.2049086689949036,0.1039261296391487,0.2634063363075256,43.17491149902344,98.7068328857422,-37.04673767089844
186557,0.0430145263671875,1.260787963867188,-0.6723480224609375,0.2049086689949036,0.1039261296391487,0.2634063363075256,43.11128234863281,98.85009765625,-37.0050048828125
186558,0.0628662109375,1.190444946289062,-0.6945648193359375,0.3497369587421417,0.310370922088623,0.4104341268539429,43.12744140625,98.79216003417967,-36.84576416015625
186559,0.0751495361328125,1.15185546875,-0.68212890625,0.4668683707714081,0.5114043951034546,0.4986705183982849,43.23530578613281,98.79566955566406,-36.77923583984375
186560,0.078033447265625,1.136154174804688,-0.6394195556640625,0.5884648561477661,0.7449260950088501,0.505387544631958,43.43173217773438,98.67422485351562,-36.89578247070312
186561,0.061981201171875,1.133285522460938,-0.58551025390625,0.5884648561477661,0.7449260950088501,0.505387544631958,43.77931213378906,98.5670166015625,-37.22824096679688
186562,0.0371246337890625,1.134353637695312,-0.5566253662109375,0.5745000243186951,0.8126729130744934,0.459849089384079,44.18588256835938,98.3275909423828,-37.41522216796875
186563,0.015716552734375,1.134063720703125,-0.521514892578125,0.5454686284065247,0.8747938275337219,0.4074300825595856,44.57931518554688,98.1221160888672,-37.83460998535156
186564,-0.00701904296875,1.13818359375,-0.4721832275390625,0.3661468327045441,0.9989336133003236,0.2896826863288879,45.00439453125,97.99806213378906,-38.05259704589844
186565,-0.039520263671875,1.126144409179688,-0.43023681640625,0.3661468327045441,0.9989336133003236,0.2896826863288879,45.40098571777344,97.98185729980467,-38.29254150390625
186566,-0.0640869140625,1.112319946289062,-0.3864593505859375,0.2901048064231873,1.027721524238586,0.2384834140539169,45.80862426757812,97.89849853515624,-38.625732421875
186567,-0.0640869140625,1.112319946289062,-0.3864593505859375,0.2901048064231873,1.027721524238586,0.2384834140539169,45.80862426757812,97.89849853515624,-38.625732421875
186568,-0.083709716796875,1.128692626953125,-0.2227783203125,0.1909449249505997,0.7356593608856201,0.2297301292419434,46.56959533691406,98.04002380371094,-39.29269409179688
186569,-0.094879150390625,1.11651611328125,-0.10882568359375,0.1909449249505997,0.7356593608856201,0.2297301292419434,46.86756896972656,98.08984375,-39.51445007324219
186570,-0.08349609375,1.123611450195312,-0.0118255615234375,0.147551104426384,0.5635387301445007,0.2965943813323975,47.28977966308594,97.94943237304688,-39.54521179199219
186571,-0.08349609375,1.123611450195312,-0.0118255615234375,0.147551104426384,0.5635387301445007,0.2965943813323975,47.28977966308594,97.94943237304688,-39.54521179199219
186572,-0.041046142578125,1.167144775390625,0.0564727783203125,0.2158721089363098,0.0846368595957756,0.5160660147666931,47.67826843261719,97.89323425292967,-39.74342346191406
186573,0.03582763671875,1.239730834960938,0.1086273193359375,0.3475656807422638,-0.1440636962652206,0.6459499597549438,48.249267578125,97.80360412597656,-39.92446899414062
186574,0.042816162109375,1.234527587890625,0.0926361083984375,0.4877510368824005,-0.3764833509922028,0.7170411944389343,48.55003356933594,97.65675354003906,-39.98294067382812
186575,0.018035888671875,1.198089599609375,0.105224609375,0.6307308077812195,-0.6058518290519714,0.7102138996124268,48.87913513183594,97.5911865234375,-40.11318969726562
186576,-0.0083770751953125,1.12188720703125,0.14678955078125,0.7328222990036011,-0.7454184889793396,0.6230689287185669,49.24150085449219,97.39723205566406,-40.30276489257812
186577,-0.0083770751953125,1.12188720703125,0.14678955078125,0.7328222990036011,-0.7454184889793396,0.6230689287185669,49.24150085449219,97.39723205566406,-40.30276489257812
186578,-0.03131103515625,0.829193115234375,0.1192779541015625,0.6074001789093018,-0.8899663686752319,0.4142546951770782,49.65174865722656,96.78947448730467,-40.87556457519531
186579,-0.02569580078125,0.6949310302734375,0.1902923583984375,0.4853453934192657,-0.8196019530296326,0.4098588824272156,49.94499206542969,96.3859405517578,-41.12799072265625
186580,0.022247314453125,0.6076507568359375,0.265167236328125,0.4267060458660126,-0.565301239490509,0.4610634744167328,50.00257873535156,96.1353759765625,-41.47235107421875
186581,0.022247314453125,0.6076507568359375,0.265167236328125,0.4267060458660126,-0.565301239490509,0.4610634744167328,50.00257873535156,96.1353759765625,-41.47235107421875
186582,0.0911407470703125,0.650604248046875,0.3159637451171875,0.3581863641738892,0.1130493208765984,0.4975328147411346,50.0379638671875,95.77236938476562,-41.95391845703125
186583,0.0911407470703125,0.650604248046875,0.3159637451171875,0.3581863641738892,0.1130493208765984,0.4975328147411346,50.0379638671875,95.77236938476562,-41.95391845703125
186584,0.1136627197265625,0.660430908203125,0.3087921142578125,0.2769501209259033,0.3707357347011566,0.4691509902477264,50.14694213867188,95.6727294921875,-42.16006469726562
186585,0.0947723388671875,0.5903778076171875,0.2596893310546875,-0.020291157066822,0.5655310153961182,0.34268918633461,50.7137451171875,95.36558532714844,-42.50674438476562
186586,0.0115203857421875,0.610260009765625,0.25994873046875,-0.020291157066822,0.5655310153961182,0.34268918633461,51.41838073730469,95.04466247558594,-42.5684814453125
186587,-0.108978271484375,0.727294921875,0.315338134765625,-0.1801982671022415,0.6416873335838318,0.2207451611757278,51.8504638671875,95.15725708007812,-42.61988830566406
186588,-0.238372802734375,0.80987548828125,0.3101806640625,-0.3637417256832123,0.7830801606178284,0.0957880467176437,52.1024169921875,95.22091674804688,-42.45205688476562
186589,-0.238372802734375,0.80987548828125,0.3101806640625,-0.3637417256832123,0.7830801606178284,0.0957880467176437,52.1024169921875,95.22091674804688,-42.45205688476562
186590,-0.34881591796875,0.867706298828125,0.208160400390625,-0.5366626381874084,0.6046025156974792,-0.2243713140487671,52.52381896972656,95.45008850097656,-42.08889770507812
186591,-0.3331756591796875,0.8594207763671875,0.2563018798828125,-0.5407260656356812,0.4673405587673187,-0.3316735327243805,52.67781066894531,95.54412841796876,-41.88130187988281
186592,-0.294097900390625,0.831085205078125,0.315460205078125,-0.5258936285972595,0.4320781826972961,-0.3796986043453217,52.66761779785156,95.66986083984376,-41.51800537109375
186593,-0.2393951416015625,0.82281494140625,0.312591552734375,-0.5199568867683411,0.4281590580940247,-0.405707836151123,52.68467712402344,95.90127563476562,-41.42584228515625
186594,-0.1887054443359375,0.84368896484375,0.2535552978515625,-0.5341227650642395,0.3441243469715118,-0.4436911642551422,52.54634094238281,96.13523864746094,-41.21116638183594
186595,-0.1887054443359375,0.84368896484375,0.2535552978515625,-0.5341227650642395,0.3441243469715118,-0.4436911642551422,52.54634094238281,96.13523864746094,-41.21116638183594
186596,-0.100433349609375,0.8558807373046875,0.2061614990234375,-0.585408627986908,0.1956363469362259,-0.4819533228874207,52.23141479492188,96.5854034423828,-40.7548828125
186597,-0.06683349609375,0.840057373046875,0.2008056640625,-0.6082963347434998,0.3169694244861603,-0.4960741996765137,52.06556701660156,96.87860107421876,-40.57984924316406
186598,-0.0557861328125,0.8175811767578125,0.1784515380859375,-0.6197562217712402,0.5380821228027344,-0.5018332600593567,51.80014038085938,97.04464721679688,-40.16130065917969
186599,-0.0913238525390625,0.786346435546875,0.1239776611328125,-0.5965818762779236,0.7363590002059937,-0.5234341621398926,51.54985046386719,97.235107421875,-39.85299682617188
186600,-0.1383056640625,0.7437591552734375,0.0504150390625,-0.5751969814300537,0.7526652216911316,-0.547674834728241,51.5162353515625,97.38023376464844,-39.72560119628906
186601,-0.166534423828125,0.7124481201171875,-0.0191802978515625,-0.6055517196655273,0.5774295330047607,-0.5602185726165771,51.33222961425781,97.51383972167967,-39.39161682128906
186602,-0.1799468994140625,0.7129058837890625,-0.0946807861328125,-0.7300552725791931,0.2659464478492737,-0.5610228180885315,51.19509887695312,97.793701171875,-39.13247680664062
186603,-0.1601715087890625,0.7682952880859375,-0.179107666015625,-0.9291372299194336,-0.0702986642718315,-0.5416321158409119,50.884033203125,98.03034973144533,-38.87808227539062
186604,-0.113800048828125,0.8381500244140625,-0.222625732421875,-1.100619196891785,-0.3351936936378479,-0.5185672640800476,50.57157897949219,98.38259887695312,-38.631103515625
186605,-0.113800048828125,0.8381500244140625,-0.222625732421875,-1.100619196891785,-0.3351936936378479,-0.5185672640800476,50.57157897949219,98.38259887695312,-38.631103515625
186606,0.0426025390625,0.938201904296875,-0.0800628662109375,-1.212351322174072,-0.2435934841632843,-0.4992319047451019,49.75990295410156,99.0304718017578,-37.39390563964844
186607,0.08074951171875,1.030624389648438,-0.065948486328125,-1.244437098503113,0.0420824736356735,-0.5077228546142578,49.35421752929688,99.1900634765625,-36.9954833984375
186608,0.0966644287109375,1.1519775390625,-0.1451568603515625,-1.28044867515564,0.1161124929785728,-0.5445876717567444,48.96232604980469,99.58560180664062,-36.38412475585938
186609,0.099365234375,1.280853271484375,-0.2194061279296875,-1.279515147209167,-0.0359233804047107,-0.598336935043335,48.55903625488281,99.806396484375,-35.59834289550781
186610,0.086822509765625,1.397109985351562,-0.2719573974609375,-1.193785905838013,-0.2668314278125763,-0.6136210560798645,48.20951843261719,100.1574249267578,-34.93894958496094
186611,0.0665435791015625,1.502166748046875,-0.31396484375,-0.970819652080536,-0.5152734518051147,-0.5778025984764099,47.7344970703125,100.418701171875,-34.37809753417969
186612,0.05389404296875,1.560440063476562,-0.3386383056640625,-0.6603702306747437,-0.6252260804176331,-0.4955934882164001,47.26870727539062,100.7044982910156,-33.81179809570312
186613,0.0491485595703125,1.549423217773438,-0.385528564453125,-0.3499106168746948,-0.6472703814506531,-0.3660088777542114,46.80097961425781,100.9078369140625,-33.40086364746094
186614,0.07183837890625,1.47357177734375,-0.4700775146484375,-0.0354253686964511,-0.5970564484596252,-0.2396067380905151,46.38105773925781,101.0462951660156,-33.038818359375
186615,0.13922119140625,1.362533569335938,-0.557037353515625,0.2690517008304596,-0.5107710957527161,-0.0935033187270164,46.1199951171875,101.0734100341797,-32.81602478027344
186616,0.17578125,1.314895629882812,-0.6121368408203125,0.5264565944671631,-0.3880638480186462,0.0313747003674507,45.93896484375,101.0198211669922,-32.86671447753906
186617,0.17578125,1.314895629882812,-0.6121368408203125,0.5264565944671631,-0.3880638480186462,0.0313747003674507,45.93896484375,101.0198211669922,-32.86671447753906
186618,0.203521728515625,1.291519165039062,-0.5701904296875,0.7299812436103821,-0.1250950694084167,0.1831940561532974,45.87353515625,100.8003387451172,-33.23561096191406
186619,0.203521728515625,1.291519165039062,-0.5701904296875,0.7299812436103821,-0.1250950694084167,0.1831940561532974,45.87353515625,100.8003387451172,-33.23561096191406
186620,0.21405029296875,1.3060302734375,-0.5367431640625,0.7154214978218079,-0.0163182523101568,0.2082450836896896,45.90303039550781,100.6057434082031,-33.50726318359375
186621,0.2228546142578125,1.304656982421875,-0.5155487060546875,0.7111814618110657,0.000102798017906,0.2418903857469559,46.01191711425781,100.5485992431641,-33.80059814453125
186622,0.2434539794921875,1.288299560546875,-0.419677734375,0.7191911935806274,-0.0903149843215942,0.3263834416866302,46.48471069335938,100.1744995117188,-34.33612060546875
186623,0.2434539794921875,1.288299560546875,-0.419677734375,0.7191911935806274,-0.0903149843215942,0.3263834416866302,46.48471069335938,100.1744995117188,-34.33612060546875
186624,0.2083282470703125,1.358840942382812,-0.2298736572265625,0.6031633615493774,-0.1768983453512192,0.3292056024074554,46.69264221191406,99.96554565429688,-35.34114074707031
186625,0.177642822265625,1.392044067382812,-0.0908660888671875,0.5406706929206848,-0.2368714064359665,0.2850687503814697,46.89154052734375,99.81251525878906,-35.76173400878906
186626,0.1230316162109375,1.427154541015625,0.0687255859375,0.502470850944519,-0.2449889779090881,0.2341533750295639,47.16987609863281,99.70053100585938,-35.91061401367188
186627,0.1230316162109375,1.427154541015625,0.0687255859375,0.502470850944519,-0.2449889779090881,0.2341533750295639,47.16987609863281,99.70053100585938,-35.91061401367188
186628,0.0530548095703125,1.452133178710938,0.183746337890625,0.5086554884910583,-0.2151115089654922,0.1911017745733261,47.33735656738281,99.6807861328125,-36.26158142089844
186629,-0.1063690185546875,1.449874877929688,0.2664337158203125,0.7377603054046631,-0.2733481824398041,0.0658900663256645,47.712158203125,99.263916015625,-36.7938232421875
186630,-0.1732025146484375,1.389862060546875,0.246978759765625,0.8811563849449158,-0.3640802204608917,0.0062235412187874,47.85597229003906,99.13784790039062,-37.07444763183594
186631,-0.2098541259765625,1.297943115234375,0.17718505859375,0.926490306854248,-0.4778283536434174,0.0170663353055715,47.8690185546875,99.06658935546876,-37.54096984863281
186632,-0.2031097412109375,1.212249755859375,0.102294921875,0.902216911315918,-0.656309962272644,0.0333678089082241,47.89030456542969,98.8239288330078,-37.97929382324219
186633,-0.2031097412109375,1.212249755859375,0.102294921875,0.902216911315918,-0.656309962272644,0.0333678089082241,47.89030456542969,98.8239288330078,-37.97929382324219
186634,-0.111785888671875,1.086669921875,0.0206451416015625,0.8177505135536194,-1.07750403881073,0.0083663202822208,47.92138671875,98.40533447265624,-38.68560791015625
186635,-0.0604095458984375,1.084030151367188,0.00323486328125,0.8058856129646301,-1.26743483543396,-0.0157089214771986,47.90812683105469,98.1317138671875,-38.94474792480469
186636,-0.030792236328125,1.047760009765625,0.001800537109375,0.7756648659706116,-1.390257954597473,-0.0070728231221437,47.78855895996094,97.8369598388672,-39.29173278808594
186637,-0.030792236328125,1.047760009765625,0.001800537109375,0.7756648659706116,-1.390257954597473,-0.0070728231221437,47.78855895996094,97.8369598388672,-39.29173278808594
186638,-0.08245849609375,0.8800048828125,-0.033721923828125,0.7489472031593323,-1.431086659431458,0.0091112069785594,47.49906921386719,97.41194152832033,-40.05633544921875
186639,-0.12091064453125,0.7746124267578125,-0.00152587890625,0.7891649603843689,-1.428166151046753,0.0152974631637334,47.28587341308594,97.05604553222656,-40.20208740234375
186640,-0.1550750732421875,0.69561767578125,0.0976715087890625,0.8442697525024414,-1.290025353431702,0.0196927450597286,47.12139892578125,96.84269714355467,-40.54176330566406
186641,-0.1550750732421875,0.69561767578125,0.0976715087890625,0.8442697525024414,-1.290025353431702,0.0196927450597286,47.12139892578125,96.84269714355467,-40.54176330566406
