time_idx,accelerometerAccelerationX(G),accelerometerAccelerationY(G),accelerometerAccelerationZ(G),gyroRotationX(rad/s),gyroRotationY(rad/s),gyroRotationZ(rad/s),magnetometerX(µT),magnetometerY(µT),magnetometerZ(µT)
266116,-1.246185302734375,1.919662475585938,-0.48297119140625,1.285326242446899,0.6719690561294556,0.0029023129027336,13.38650512695312,78.64944458007812,5.273147583007812
266117,-1.246185302734375,1.919662475585938,-0.48297119140625,1.285326242446899,0.6719690561294556,0.0029023129027336,13.38650512695312,78.64944458007812,5.273147583007812
266118,-1.511260986328125,2.224380493164062,-0.325714111328125,1.338151931762695,0.5737442374229431,-0.1519759446382523,12.47637939453125,79.60636901855469,3.721572875976562
266119,-1.695693969726562,2.2518310546875,-0.181854248046875,1.371068596839905,0.7380484938621521,-0.3295730948448181,12.191162109375,80.20318603515625,3.086761474609375
266120,-1.80670166015625,2.16461181640625,-0.13629150390625,1.290901064872742,0.833614706993103,-0.3717109858989716,11.90602111816406,80.66119384765625,2.331253051757812
266121,-1.80670166015625,2.16461181640625,-0.13629150390625,1.290901064872742,0.833614706993103,-0.3717109858989716,11.90602111816406,80.66119384765625,2.331253051757812
266122,-1.859878540039062,2.241287231445312,-0.131805419921875,0.896091639995575,-0.0360269770026207,0.2347949296236038,11.29019165039062,81.20631408691406,0.727264404296875
266123,-1.854324340820312,2.389328002929688,0.16790771484375,0.8086576461791992,-0.567706286907196,0.6773358583450317,11.12612915039062,81.499267578125,-0.001953125
266124,-1.779006958007812,2.502838134765625,0.509735107421875,0.954659342765808,-0.7146131992340088,0.9003282189369202,11.14048767089844,81.78695678710938,-0.415740966796875
266125,-1.60418701171875,2.373382568359375,0.5966796875,1.2596834897995,-0.4872641861438751,0.9277440905570984,11.51301574707031,81.99847412109375,-0.698333740234375
266126,-1.309295654296875,2.072067260742188,0.36651611328125,1.501404762268066,-0.5518325567245483,0.9835575819015504,11.99365234375,82.42814636230469,-0.8987274169921875
266127,-0.96783447265625,1.919342041015625,0.3874969482421875,1.548929929733276,-1.080400824546814,1.108032703399658,12.5174560546875,82.78684997558594,-1.218093872070312
266128,-0.796417236328125,1.906814575195312,0.583892822265625,1.328820466995239,-0.8370533585548401,1.074186563491821,13.16299438476562,83.16416931152344,-1.623123168945312
266129,-0.796417236328125,1.906814575195312,0.583892822265625,1.328820466995239,-0.8370533585548401,1.074186563491821,13.16299438476562,83.16416931152344,-1.623123168945312
266130,-0.73699951171875,1.477828979492188,0.152587890625,1.180370807647705,-0.6188416481018066,0.801194965839386,14.39886474609375,84.07476806640625,-1.823715209960938
266131,-0.7916259765625,1.070571899414062,-0.0147705078125,1.380668163299561,-0.7745699882507324,0.7761135697364807,15.02374267578125,84.36280822753906,-1.957427978515625
266132,-0.654937744140625,0.7844696044921875,0.0165252685546875,1.693778395652771,-0.8506969809532166,0.7354737520217896,15.71696472167969,84.7587890625,-2.26544189453125
266133,-0.654937744140625,0.7844696044921875,0.0165252685546875,1.693778395652771,-0.8506969809532166,0.7354737520217896,15.71696472167969,84.7587890625,-2.26544189453125
266134,-0.4117584228515625,0.4345703125,0.15618896484375,2.065323114395142,-0.3731456100940704,0.6386430859565735,16.95661926269531,85.51190185546875,-2.887939453125
266135,-0.3327178955078125,0.377716064453125,0.2144927978515625,1.992410659790039,-0.0209156684577465,0.6607739329338074,17.55653381347656,85.84719848632812,-3.083084106445312
266136,-0.2771148681640625,0.3694610595703125,0.287994384765625,1.383411288261414,0.5882797837257385,0.775191605091095,18.17236328125,86.13392639160156,-3.554031372070312
266137,-0.2771148681640625,0.3694610595703125,0.287994384765625,1.383411288261414,0.5882797837257385,0.775191605091095,18.17236328125,86.13392639160156,-3.554031372070312
266138,-0.203948974609375,0.4189453125,0.3720245361328125,0.9889084100723268,0.7393049597740173,0.7809829115867615,18.99092102050781,86.86709594726562,-5.125091552734375
266139,-0.226776123046875,0.41607666015625,0.312896728515625,0.5771123170852661,0.696887731552124,0.7505139708518982,19.46214294433594,87.14990234375,-5.683700561523438
266140,-0.3175048828125,0.3859100341796875,0.2581939697265625,-0.1184733808040619,0.3623941838741302,0.6259312629699707,19.93605041503906,87.42103576660156,-6.238021850585938
266141,-0.398468017578125,0.344970703125,0.1927642822265625,-0.1184733808040619,0.3623941838741302,0.6259312629699707,20.26153564453125,87.63032531738281,-6.70294189453125
266142,-0.403778076171875,0.2978668212890625,0.1202850341796875,-0.2783123254776001,0.1210678368806839,0.5883404612541199,20.64654541015625,87.79380798339844,-7.08343505859375
266143,-0.328948974609375,0.266387939453125,0.104461669921875,-0.3083727359771729,-0.0459110327064991,0.5561261177062988,20.89315795898438,87.98251342773438,-7.147705078125
266144,-0.2338104248046875,0.26312255859375,0.12115478515625,-0.3055045306682587,-0.0587027296423912,0.5153128504753113,21.03549194335938,88.24174499511719,-7.199462890625
266145,-0.16259765625,0.2899322509765625,0.1931915283203125,-0.3216408789157867,0.0856544524431228,0.4605470895767212,21.22218322753906,88.31866455078125,-7.065521240234375
266146,-0.11273193359375,0.33984375,0.318328857421875,-0.4009599387645721,0.418452650308609,0.3906210064888,21.41117858886719,88.48291015625,-6.87408447265625
266147,-0.11273193359375,0.33984375,0.318328857421875,-0.4009599387645721,0.418452650308609,0.3906210064888,21.41117858886719,88.48291015625,-6.87408447265625
266148,-0.02001953125,0.360992431640625,0.41455078125,-0.9688974022865297,0.8878166675567627,0.2849241495132446,21.72377014160156,88.63658142089844,-6.699905395507812
266149,0.0112762451171875,0.317413330078125,0.3742218017578125,-0.9688974022865297,0.8878166675567627,0.2849241495132446,21.89201354980469,88.59457397460938,-6.433441162109375
266150,0.0146942138671875,0.288055419921875,0.4169158935546875,-1.527536511421204,0.3520453870296478,0.1254540681838989,22.09823608398438,88.72024536132812,-6.37127685546875
266151,-0.01226806640625,0.3033905029296875,0.5215911865234375,-1.847965121269226,0.158568874001503,-0.1227368414402008,22.12709045410156,88.80154418945312,-6.043930053710938
266152,-0.1038970947265625,0.3502349853515625,0.6887054443359375,-1.847965121269226,0.158568874001503,-0.1227368414402008,22.04165649414062,88.81190490722656,-5.64093017578125
266153,-0.3038330078125,0.3702239990234375,0.871673583984375,-2.380557060241699,0.5074073076248169,-0.2810753583908081,22.0867919921875,88.86009216308594,-5.094696044921875
266154,-0.46343994140625,0.4097747802734375,0.9264373779296876,-2.380557060241699,0.5074073076248169,-0.2810753583908081,21.92727661132812,88.75991821289062,-4.488037109375
266155,-0.591094970703125,0.453399658203125,0.8385467529296875,-2.491923332214355,0.5269045829772949,-0.3620820343494415,21.75532531738281,88.67861938476562,-3.803817749023438
266156,-0.6812286376953125,0.468536376953125,0.633758544921875,-2.464535236358643,0.2588509917259216,-0.4769346117973328,21.44926452636719,88.56741333007812,-3.238449096679688
266157,-0.6812286376953125,0.468536376953125,0.633758544921875,-2.464535236358643,0.2588509917259216,-0.4769346117973328,21.44926452636719,88.56741333007812,-3.238449096679688
266158,-0.6951751708984375,0.4500579833984375,0.2093963623046875,-2.098633289337158,-1.511433362960815,-0.7081851363182068,20.67424011230469,88.1123046875,-1.965087890625
266159,-0.64947509765625,0.4774322509765625,0.0545501708984375,-2.098633289337158,-1.511433362960815,-0.7081851363182068,20.23789978027344,87.78515625,-1.109573364257812
266160,-0.5505218505859375,0.5318756103515625,-0.212493896484375,-1.39248251914978,-3.357905864715576,-0.9681037664413452,19.92399597167969,87.3277587890625,-0.120635986328125
266161,-0.5505218505859375,0.5318756103515625,-0.212493896484375,-1.39248251914978,-3.357905864715576,-0.9681037664413452,19.92399597167969,87.3277587890625,-0.120635986328125
266162,-0.3642120361328125,0.489501953125,-0.2530364990234375,-0.6894740462303162,-3.745370388031006,-1.063904404640198,19.34442138671875,86.26631164550781,2.160614013671875
266163,-0.303253173828125,0.3521881103515625,0.175262451171875,-0.2269894778728485,-2.782315969467163,-1.053776383399963,19.27711486816406,85.68765258789062,3.429428100585938
266164,-0.190093994140625,0.293701171875,0.200286865234375,-0.0259796697646379,-1.296598315238953,-0.8978517055511475,19.48489379882812,85.16789245605469,4.836929321289062
266165,-0.190093994140625,0.293701171875,0.200286865234375,-0.0259796697646379,-1.296598315238953,-0.8978517055511475,19.48489379882812,85.16789245605469,4.836929321289062
266166,-0.02618408203125,0.2462005615234375,-0.310394287109375,0.1575952172279358,0.3146399557590485,-0.375532865524292,20.13790893554688,84.14335632324219,6.575775146484375
266167,0.007781982421875,0.197357177734375,-0.5311431884765625,0.0557056069374084,-0.3575096726417542,-0.3222984075546265,20.32676696777344,83.7384033203125,6.859359741210938
266168,0.0417938232421875,0.16741943359375,-0.5496826171875,-0.1267973631620407,-0.8806272149085999,-0.2842929661273956,20.53352355957031,83.41635131835938,6.813858032226562
266169,0.05889892578125,0.1416778564453125,-0.44256591796875,-0.2525603473186493,-0.9999616146087646,-0.248360276222229,20.55314636230469,83.16848754882812,6.811752319335938
266170,0.070892333984375,0.144012451171875,-0.3506011962890625,-0.2605330646038055,-0.8500514626502991,-0.2739031910896301,20.44699096679688,83.162841796875,6.998443603515625
266171,0.0580291748046875,0.2009429931640625,-0.31292724609375,-0.2605330646038055,-0.8500514626502991,-0.2739031910896301,20.48515319824219,83.01124572753906,7.365097045898438
266172,0.030059814453125,0.3002777099609375,-0.3185882568359375,-0.1113821864128113,-0.5592893958091736,-0.5651654005050659,20.3658447265625,82.9132080078125,7.8917236328125
266173,0.030059814453125,0.3002777099609375,-0.3185882568359375,-0.1113821864128113,-0.5592893958091736,-0.5651654005050659,20.3658447265625,82.9132080078125,7.8917236328125
266174,-0.1077117919921875,0.5940093994140625,-0.472564697265625,0.0120508037507534,-0.6598644852638245,-0.7720786333084106,20.13690185546875,82.67440795898438,8.508941650390625
266175,-0.1077117919921875,0.5940093994140625,-0.472564697265625,0.0120508037507534,-0.6598644852638245,-0.7720786333084106,20.13690185546875,82.67440795898438,8.508941650390625
266176,-0.3934173583984375,0.689605712890625,-0.4529876708984375,0.6512936353683472,-0.1297502666711807,-1.038659691810608,19.78721618652344,82.50874328613281,9.223236083984377
266177,-0.51666259765625,0.6828460693359375,-0.4526214599609375,0.6512936353683472,-0.1297502666711807,-1.038659691810608,19.60476684570312,82.25216674804688,9.495330810546877
266178,-0.5915069580078125,0.7092437744140625,-0.496429443359375,0.8669065833091736,0.2584299445152283,-0.9654571413993835,19.28376770019531,82.19773864746094,9.722381591796877
266179,-0.6585693359375,0.800048828125,-0.6005859375,1.086579561233521,0.5633144974708557,-0.7915369868278503,18.93049621582031,82.01225280761719,9.863006591796877
266180,-0.752044677734375,0.986328125,-0.7711181640625,1.305572628974915,0.6645915508270264,-0.5469719767570496,18.59664916992188,82.05023193359375,9.867324829101562
266181,-0.9039154052734376,1.255722045898438,-0.80853271484375,1.359817981719971,0.6615683436393738,-0.2940641045570374,18.16404724121094,82.06781005859375,9.590682983398438
266182,-1.125778198242188,1.581329345703125,-0.4787139892578125,1.10251784324646,1.098132133483887,-0.2624057829380035,17.75421142578125,82.12928771972656,9.193222045898438
266183,-1.409957885742188,1.947296142578125,-0.28546142578125,0.7714629173278809,1.842502117156982,-0.7081928253173828,17.29801940917969,82.260986328125,8.859756469726562
266184,-1.783950805664062,2.152664184570312,-0.4723358154296875,0.6138644814491272,2.109125852584839,-1.302094340324402,16.66676330566406,82.65534973144531,8.194259643554688
266185,-2.343643188476562,2.072738647460938,-0.6265106201171875,0.4716037511825562,2.074111700057983,-1.285366415977478,15.90550231933594,83.10025024414062,7.505157470703125
266186,-2.74786376953125,1.983001708984375,-0.6695098876953125,0.3045689463615417,1.715945482254028,-0.6009992957115173,14.91749572753906,83.38746643066406,6.594085693359375
266187,-2.814178466796875,2.043212890625,-0.5992584228515625,0.0020176109392195,0.962879478931427,0.2489602863788605,13.78933715820312,83.50407409667969,5.62744140625
266188,-2.551803588867188,2.329544067382812,-0.3523712158203125,-0.4625580608844757,0.3317704796791077,1.126217007637024,12.37123107910156,83.72640991210938,3.993698120117188
266189,-2.180648803710938,2.631744384765625,0.0098876953125,-0.8309541940689087,-0.0130886379629373,1.689307570457458,12.33221435546875,83.93202209472656,3.486907958984375
266190,-2.027099609375,2.704742431640625,0.5381011962890625,-0.6677972078323364,-0.030239662155509,1.920204877853394,12.61036682128906,84.26214599609375,3.420074462890625
266191,-2.020401000976562,2.726104736328125,0.9884033203125,-0.2442744523286819,0.6478543877601624,1.984455823898315,13.14956665039062,84.58879089355469,3.290267944335938
266192,-1.952880859375,2.552093505859375,0.7777252197265625,0.3826866447925568,1.605828642845154,2.058048963546753,13.86128234863281,84.91741943359375,2.903915405273438
266193,-1.952880859375,2.552093505859375,0.7777252197265625,0.3826866447925568,1.605828642845154,2.058048963546753,13.86128234863281,84.91741943359375,2.903915405273438
266194,-1.468719482421875,2.011306762695312,-0.039642333984375,1.262423276901245,0.7353459000587463,2.398823261260986,15.66746520996094,85.85551452636719,1.43658447265625
266195,-1.26861572265625,1.703109741210938,0.17254638671875,1.302203774452209,0.4800899028778076,1.980903148651123,16.63894653320312,86.45362854003906,0.523040771484375
266196,-1.01910400390625,1.296768188476562,0.1718597412109375,1.515321373939514,0.0634668543934822,1.581026077270508,17.55992126464844,86.97218322753906,-0.2403411865234375
266197,-0.7263641357421875,1.013442993164062,0.3336334228515625,1.657886266708374,0.0019334548851475,1.444251418113708,18.33694458007812,87.46099853515625,-1.07135009765625
266198,-0.49554443359375,0.883880615234375,0.344696044921875,1.673402309417725,0.2627163231372833,1.336445569992065,19.16642761230469,87.80172729492188,-1.745803833007812
266199,-0.49554443359375,0.883880615234375,0.344696044921875,1.673402309417725,0.2627163231372833,1.336445569992065,19.16642761230469,87.80172729492188,-1.745803833007812
266200,-0.0945892333984375,0.8674163818359375,0.488525390625,1.700377464294434,0.6318114995956421,1.135559916496277,20.59080505371094,88.62582397460938,-2.961776733398438
266201,0.0048828125,0.8801727294921875,0.6141510009765625,1.829605221748352,0.6394782066345215,1.23785138130188,21.38929748535156,88.95771789550781,-3.73101806640625
266202,0.0385589599609375,0.9143218994140624,0.594268798828125,1.987855553627014,0.2787216305732727,1.405879020690918,22.17181396484375,89.28587341308594,-4.39947509765625
266203,0.027496337890625,1.043685913085938,0.6249542236328125,1.859963893890381,-0.3845873475074768,1.453102707862854,23.0501708984375,89.70547485351562,-4.947860717773438
266204,-0.031280517578125,1.153884887695312,0.8373565673828125,1.196150541305542,-0.9383528232574464,1.393463134765625,24.01972961425781,90.15576171875,-5.511276245117188
266205,-0.2130584716796875,1.03546142578125,1.139053344726562,0.2266003787517548,-0.4464914798736572,1.022138476371765,24.84231567382812,90.46823120117188,-5.745834350585938
266206,-0.3185882568359375,0.6773529052734375,0.931549072265625,-0.3778743147850037,0.5911362767219543,0.6650978326797485,25.50006103515625,90.70773315429688,-5.80999755859375
266207,-0.3185882568359375,0.6773529052734375,0.931549072265625,-0.3778743147850037,0.5911362767219543,0.6650978326797485,25.50006103515625,90.70773315429688,-5.80999755859375
266208,-0.2855682373046875,0.1699371337890625,-0.1645965576171875,-0.1988198906183243,-0.0436087287962436,0.3394457101821899,26.10591125488281,91.28916931152344,-5.779296875
266209,-0.2150115966796875,0.1192779541015625,-0.0371246337890625,0.1239957138895988,-0.7102120518684387,0.2494375258684158,26.09902954101562,91.60212707519533,-5.839706420898438
266210,-0.1631622314453125,0.1307525634765625,0.287506103515625,0.3255908787250519,-0.6217913627624512,0.0933062434196472,26.08709716796875,91.73519897460938,-5.59521484375
266211,-0.1042938232421875,0.0870361328125,0.41986083984375,0.3322197496891022,-0.0602241903543472,-0.0735328048467636,25.95448303222656,91.8723602294922,-5.521774291992188
266212,-0.03582763671875,-7.62939453125e-05,0.3922576904296875,0.2062708735466003,0.5427650213241577,-0.1620107442140579,25.91600036621094,91.9522705078125,-5.576919555664062
266213,-0.03582763671875,-7.62939453125e-05,0.3922576904296875,0.2062708735466003,0.5427650213241577,-0.1620107442140579,25.91600036621094,91.9522705078125,-5.576919555664062
266214,0.0751190185546875,-0.11859130859375,0.1815948486328125,-0.0886949822306633,0.9256311655044556,-0.1299217790365219,25.58731079101562,92.07112121582033,-5.874832153320312
266215,0.1097564697265625,-0.126251220703125,0.13055419921875,-0.2005365639925003,0.6981396675109863,-0.0649664849042892,25.5537109375,92.11053466796876,-5.964645385742188
266216,0.1309051513671875,-0.09466552734375,0.114501953125,-0.2926505208015442,0.3166003227233887,-0.0063694822601974,25.40626525878906,92.0151824951172,-6.009384155273438
266217,0.1309051513671875,-0.09466552734375,0.114501953125,-0.2926505208015442,0.3166003227233887,-0.0063694822601974,25.40626525878906,92.0151824951172,-6.009384155273438
266218,0.1363983154296875,0.0058441162109375,0.1693572998046875,-0.4609931707382202,-0.6882140636444092,0.0445490926504135,25.64187622070312,91.8811492919922,-5.6727294921875
266219,0.1215667724609375,0.060028076171875,0.2121429443359375,-0.5554275512695312,-1.230616927146912,-0.0332317240536212,25.75485229492188,91.86996459960938,-5.340240478515625
266220,0.099365234375,0.1119232177734375,0.2504425048828125,-0.7886187434196472,-2.351670742034912,-0.3505207300186157,26.02046203613281,91.7785186767578,-4.88671875
266221,0.099365234375,0.1119232177734375,0.2504425048828125,-0.7886187434196472,-2.351670742034912,-0.3505207300186157,26.02046203613281,91.7785186767578,-4.88671875
266222,0.009765625,0.2222137451171875,0.3310089111328125,-0.9014456868171692,-2.839247465133667,-0.5574584603309631,26.71015930175781,91.4047393798828,-3.164306640625
266223,-0.0671234130859375,0.3028717041015625,0.4069976806640625,-1.053838610649109,-3.111691951751709,-0.8120550513267517,27.02006530761719,91.054931640625,-2.19757080078125
266224,-0.138641357421875,0.3210601806640625,0.4937286376953125,-1.296698927879333,-3.017947912216187,-1.058049917221069,27.37306213378906,90.572265625,-1.009048461914062
266225,-0.138641357421875,0.3210601806640625,0.4937286376953125,-1.296698927879333,-3.017947912216187,-1.058049917221069,27.37306213378906,90.572265625,-1.009048461914062
266226,-0.1212310791015625,0.270538330078125,0.466705322265625,-1.952177762985229,-1.925948858261108,-1.171303272247314,27.86805725097656,89.55491638183594,1.398605346679688
266227,-0.1396026611328125,0.27044677734375,0.31573486328125,-2.189157009124756,-1.17397940158844,-1.160351276397705,27.81791687011719,89.02052307128906,2.537765502929688
266228,-0.148590087890625,0.2676849365234375,-0.055511474609375,-2.219530344009399,-0.9019364714622498,-1.172619938850403,27.48106384277344,88.47293090820312,3.6834716796875
266229,-0.148590087890625,0.2676849365234375,-0.055511474609375,-2.219530344009399,-0.9019364714622498,-1.172619938850403,27.48106384277344,88.47293090820312,3.6834716796875
266230,0.0752410888671875,0.2127227783203125,-1.53497314453125,1.620258450508118,-4.942615985870361,-0.8303653597831726,26.46617126464844,87.620849609375,5.569534301757812
266231,-0.1040191650390625,0.137939453125,0.3073577880859375,1.384298920631409,-2.306819915771484,-0.6615382432937622,26.05491638183594,87.52143859863281,6.166915893554688
266232,-0.0482635498046875,0.248199462890625,-0.546630859375,-0.4315295517444611,1.400407314300537,-0.2863390743732452,25.80667114257812,87.62150573730469,6.410675048828125
266233,-0.0482635498046875,0.248199462890625,-0.546630859375,-0.4315295517444611,1.400407314300537,-0.2863390743732452,25.80667114257812,87.62150573730469,6.410675048828125
266234,-0.042877197265625,0.4947967529296875,-0.244903564453125,-0.4705395400524139,0.3953617215156555,-0.1106498166918755,25.57159423828125,87.58572387695312,6.319931030273438
266235,-0.0631561279296875,0.56103515625,-0.1066436767578125,-0.7900075316429138,-0.1919766217470169,-0.08835169672966,25.53176879882812,87.35800170898438,6.32586669921875
266236,-0.04461669921875,0.5781402587890625,-0.0828399658203125,-1.212429881095886,-1.262909650802612,0.1196728721261024,25.6741943359375,87.25886535644531,6.404754638671875
266237,-0.02197265625,0.5995330810546875,-0.149078369140625,-1.212429881095886,-1.262909650802612,0.1196728721261024,25.70484924316406,87.09736633300781,6.86138916015625
266238,-0.05157470703125,0.73736572265625,-0.1981353759765625,-0.8337785005569458,-1.557757258415222,0.1590716689825058,26.01602172851562,86.89057922363281,7.558059692382812
266239,-0.1134185791015625,0.9269256591796876,-0.102203369140625,-0.1647585928440094,-1.367232799530029,0.057768490165472,26.32191467285156,86.69328308105469,8.458511352539062
266240,-0.157257080078125,1.08197021484375,-0.0709686279296875,0.5028184056282043,-0.8281291127204895,-0.0892824754118919,26.52867126464844,86.47714233398438,9.079498291015623
266241,-0.157257080078125,1.08197021484375,-0.0709686279296875,0.5028184056282043,-0.8281291127204895,-0.0892824754118919,26.52867126464844,86.47714233398438,9.079498291015623
266242,-0.2167205810546875,1.25726318359375,-0.2862396240234375,1.418630003929138,0.0279962141066789,-0.1598466485738754,26.70053100585938,86.76608276367188,9.5
266243,-0.26318359375,1.34051513671875,-0.4570465087890625,1.597397327423096,0.224155068397522,-0.0872299745678901,26.58650207519531,86.98356628417969,9.268844604492188
266244,-0.2727813720703125,1.454620361328125,-0.5615386962890625,1.575889825820923,0.4214566946029663,0.0372211374342441,26.40089416503906,87.13543701171875,8.66680908203125
266245,-0.2316131591796875,1.5716552734375,-0.5549774169921875,1.351297497749329,0.6971449851989746,0.242516502737999,26.32505798339844,87.37693786621094,8.0870361328125
266246,-0.1783447265625,1.659881591796875,-0.5441436767578125,1.045903563499451,0.7920187711715698,0.4957434237003326,26.252197265625,87.74223327636719,7.529434204101562
266247,-0.1902313232421875,1.705963134765625,-0.481964111328125,0.7664234042167664,0.7019823789596558,0.7315477132797241,26.30126953125,88.06004333496094,6.926254272460938
266248,-0.2938385009765625,1.769073486328125,-0.327728271484375,0.4891001880168915,0.7422909140586853,0.8415735363960266,26.33726501464844,88.45899963378906,6.384811401367188
266249,-0.4273681640625,1.920516967773438,-0.2218780517578125,0.1943694800138474,1.027509331703186,0.8080251812934875,26.50997924804688,88.81979370117188,5.999847412109375
266250,-0.622314453125,2.18951416015625,-0.22808837890625,-0.3402720987796783,1.55114483833313,0.0213271267712116,26.57138061523438,89.09873962402344,5.91619873046875
266251,-0.9212799072265624,2.588821411132812,-0.269012451171875,-0.3402720987796783,1.55114483833313,0.0213271267712116,26.60801696777344,89.28335571289062,5.68310546875
266252,-1.323135375976562,3.064010620117188,-0.2102813720703125,-0.2381539791822433,1.610394358634949,-1.101794719696045,26.33848571777344,89.516845703125,5.402130126953125
266253,-1.769149780273438,3.483352661132812,-0.0155487060546875,0.093356043100357,2.026006460189819,-2.697756290435791,25.76872253417969,89.54368591308594,5.076370239257812
266254,-2.941741943359375,3.2744140625,-0.0865325927734375,0.1723640412092209,2.936588764190674,-3.83576226234436,24.72071838378906,89.44558715820312,4.677398681640625
266255,-4.815933227539062,2.168869018554688,-0.74835205078125,-0.5542442798614502,4.703066825866699,-1.372835874557495,22.97868347167969,89.04496765136719,3.483642578125
266256,-4.181976318359375,2.215423583984375,-0.5664215087890625,0.194019541144371,4.084470748901367,0.6896311640739441,21.034912109375,88.73663330078125,1.580856323242188
266257,-2.249282836914062,2.189666748046875,0.33447265625,1.06020200252533,3.988982200622559,0.6277738809585571,19.7186279296875,88.45805358886719,-0.1827545166015625
266258,-1.273178100585938,1.626220703125,0.276763916015625,1.334019184112549,3.96046257019043,0.7292965650558472,19.00602722167969,88.55615234375,-1.505691528320312
266259,-0.8959808349609375,1.2171630859375,0.21832275390625,1.34700345993042,3.799984216690063,1.006317734718323,18.59042358398438,88.73077392578125,-3.001296997070312
266260,-0.682281494140625,0.98944091796875,0.2917633056640625,1.319494843482971,3.549957036972046,1.194934844970703,18.28607177734375,89.07759094238281,-4.755111694335938
266261,-0.5848236083984375,0.812835693359375,0.403228759765625,1.323693633079529,3.353266716003418,1.134029150009155,18.27325439453125,89.43917846679688,-6.493072509765625
266262,-0.49932861328125,0.67498779296875,0.4412689208984375,1.328674793243408,3.126572370529175,0.901768445968628,18.49809265136719,89.77560424804688,-7.935165405273438
266263,-0.42608642578125,0.6559295654296875,0.422943115234375,1.233747720718384,2.727199554443359,0.6337907910346985,19.01481628417969,89.94483947753906,-9.323287963867188
266264,-0.3913726806640625,0.745208740234375,0.4029693603515625,0.9767204523086548,2.177881479263306,0.358939528465271,19.4671630859375,89.97547912597656,-10.51179504394531
266265,-0.395263671875,0.8222808837890625,0.3918304443359375,0.6045663356781006,1.573313593864441,0.0537263453006744,19.76959228515625,90.17581176757812,-11.75001525878906
266266,-0.39776611328125,0.7836761474609375,0.3918304443359375,0.2562163472175598,1.055525302886963,-0.2265484482049942,19.90704345703125,90.33210754394533,-12.60527038574219
266267,-0.38543701171875,0.704315185546875,0.38848876953125,0.0817374736070632,0.6679447889328003,-0.4043365716934204,19.95803833007812,90.45394897460938,-13.2470703125
266268,-0.3635406494140625,0.59918212890625,0.3548126220703125,0.083497554063797,0.3681418001651764,-0.4284381568431854,19.84429931640625,90.40853881835938,-13.71894836425781
266269,-0.3567352294921875,0.4879913330078125,0.318115234375,0.180984690785408,0.1944893151521683,-0.3832746744155884,19.68452453613281,90.30030822753906,-13.97573852539062
266270,-0.35638427734375,0.368011474609375,0.2857208251953125,0.3219439387321472,0.1241962537169456,-0.3351777195930481,19.351318359375,90.22311401367188,-14.16770935058594
266271,-0.3487396240234375,0.25079345703125,0.2683868408203125,0.4202766418457031,0.1665181368589401,-0.2976692318916321,19.22903442382812,90.17520141601562,-14.24012756347656
266272,-0.3306732177734375,0.1522674560546875,0.2307891845703125,0.4310509860515594,0.2375955134630203,-0.27211993932724,19.01521301269531,90.0926513671875,-14.48011779785156
266273,-0.3306732177734375,0.1522674560546875,0.2307891845703125,0.4310509860515594,0.2375955134630203,-0.27211993932724,19.01521301269531,90.0926513671875,-14.48011779785156
266274,-0.27423095703125,0.023101806640625,0.13238525390625,0.1832869946956635,0.1543637365102768,-0.260947972536087,18.89961242675781,90.01490783691406,-14.88613891601562
266275,-0.2444610595703125,-0.012481689453125,0.0947723388671875,-0.0409341156482696,-0.056130114942789,-0.2977730929851532,18.81700134277344,90.02116394042969,-14.95845031738281
266276,-0.2247161865234375,-0.03851318359375,0.0739593505859375,-0.5262477993965149,-0.6202648878097534,-0.4817541241645813,18.8248291015625,89.89263916015625,-15.07546997070312
266277,-0.2119140625,-0.06402587890625,0.0595855712890625,-0.5262477993965149,-0.6202648878097534,-0.4817541241645813,18.76908874511719,89.74864196777344,-14.99749755859375
266278,-0.1974945068359375,-0.0760345458984375,0.068023681640625,-0.6911196112632751,-0.920362114906311,-0.589444100856781,18.58152770996094,89.77960205078125,-14.72169494628906
266279,-0.1758575439453125,-0.0487060546875,0.0802764892578125,-0.7893465757369995,-1.377906203269958,-0.7754645943641663,18.43940734863281,89.62594604492188,-14.34970092773438
266280,-0.1561737060546875,0.0646820068359375,0.075347900390625,-0.7424922585487366,-1.541235208511353,-0.8628985285758972,18.24909973144531,89.44007873535156,-13.82911682128906
266281,-0.1745758056640625,0.1825103759765625,0.082763671875,-0.7424922585487366,-1.541235208511353,-0.8628985285758972,18.03253173828125,89.26316833496094,-13.11331176757812
266282,-0.21197509765625,0.2603759765625,0.0846099853515625,-0.6756929755210876,-1.676145315170288,-0.9163276553153992,17.69923400878906,89.13874816894531,-12.45721435546875
266283,-0.2442626953125,0.31146240234375,0.0465087890625,-0.6044390201568604,-1.884517192840576,-0.9527083039283752,17.40335083007812,88.81332397460938,-11.69148254394531
266284,-0.26666259765625,0.335113525390625,-0.003997802734375,-0.5013110637664795,-2.251223564147949,-0.9782677292823792,17.19622802734375,88.59432983398438,-10.99618530273438
266285,-0.26666259765625,0.335113525390625,-0.003997802734375,-0.5013110637664795,-2.251223564147949,-0.9782677292823792,17.19622802734375,88.59432983398438,-10.99618530273438
266286,-0.22271728515625,0.2837677001953125,-0.0328369140625,-0.288036048412323,-3.07271933555603,-0.9728093147277832,16.909912109375,87.97097778320312,-9.338821411132812
266287,-0.22271728515625,0.2837677001953125,-0.0328369140625,-0.288036048412323,-3.07271933555603,-0.9728093147277832,16.909912109375,87.97097778320312,-9.338821411132812
266288,-0.1298828125,0.200927734375,-0.1109619140625,-0.2470017969608307,-3.648839473724365,-0.7368495464324951,17.03317260742188,87.17752075195312,-7.325897216796875
266289,-0.0684051513671875,0.21337890625,-0.1115264892578125,-0.2941554486751556,-3.35651969909668,-0.4422293603420258,17.33602905273438,86.81410217285156,-6.046218872070312
266290,0.0045623779296875,0.2326812744140625,-0.1167449951171875,-0.2833954989910126,-2.614947319030762,0.0279003400355577,17.73277282714844,86.38546752929688,-4.718826293945312
266291,0.0045623779296875,0.2326812744140625,-0.1167449951171875,-0.2833954989910126,-2.614947319030762,0.0279003400355577,17.73277282714844,86.38546752929688,-4.718826293945312
266292,-0.13848876953125,0.1583251953125,-0.14215087890625,-0.1327833533287048,-0.082196332514286,0.136541873216629,18.43641662597656,86.18598937988281,-2.55816650390625
266293,-0.1043243408203125,0.052825927734375,-0.3179168701171875,-0.1327833533287048,-0.082196332514286,0.136541873216629,18.53633117675781,86.42555236816406,-1.87713623046875
266294,-0.0830230712890625,0.0027618408203125,-0.4534759521484375,-0.2348663061857224,-0.2429322153329849,0.04647908359766,18.70439147949219,86.45046997070312,-1.503631591796875
266295,-0.0657501220703125,0.007965087890625,-0.478057861328125,-0.3684158325195312,-0.6178895831108093,-0.0339515767991542,18.73896789550781,86.45600891113281,-1.345352172851562
266296,-0.0552520751953125,0.0851593017578125,-0.4587860107421875,-0.4805461168289185,-0.9383980631828308,-0.1066020801663399,18.74978637695312,86.45252990722656,-1.182357788085938
266297,-0.0649566650390625,0.188507080078125,-0.4201812744140625,-0.5082142353057861,-1.082440495491028,-0.1663263887166977,18.78330993652344,86.39984130859375,-0.9005126953125
266298,-0.082794189453125,0.293212890625,-0.3589935302734375,-0.4665969908237457,-1.025776624679565,-0.1812579333782196,18.75656127929688,86.37771606445312,-0.3748779296875
266299,-0.082794189453125,0.293212890625,-0.3589935302734375,-0.4665969908237457,-1.025776624679565,-0.1812579333782196,18.75656127929688,86.37771606445312,-0.3748779296875
266300,-0.1043243408203125,0.52703857421875,-0.2725982666015625,-0.1871472597122192,-0.5181414484977722,0.0833425596356391,18.68568420410156,86.05787658691406,0.6198272705078125
266301,-0.108367919921875,0.638275146484375,-0.309051513671875,-0.1871472597122192,-0.5181414484977722,0.0833425596356391,18.70932006835938,85.90884399414062,1.100204467773438
266302,-0.1268157958984375,0.764007568359375,-0.3989715576171875,-0.0499896630644798,-0.4435926079750061,0.2387513220310211,18.77218627929688,85.84638977050781,1.498153686523438
266303,-0.1762847900390625,0.9245147705078124,-0.5402069091796875,0.1402244865894318,-0.5036072134971619,0.3631875216960907,18.78811645507812,85.69769287109375,2.024642944335938
266304,-0.2543487548828125,1.126266479492188,-0.69403076171875,0.3914830684661865,-0.5641395449638367,0.4470645785331726,18.88066101074219,85.77879333496094,2.319381713867188
266305,-0.339599609375,1.37579345703125,-0.820281982421875,0.5800085067749023,-0.4634243845939636,0.5432582497596741,19.021240234375,85.78945922851562,2.660858154296875
266306,-0.4351654052734375,1.651153564453125,-0.81097412109375,0.4943839013576508,-0.088265411555767,0.6421813368797302,19.19273376464844,85.95298767089844,2.791305541992188
266307,-0.5524444580078125,1.855209350585938,-0.7047576904296875,0.0668725073337554,0.4964148104190826,0.6531975269317627,19.34893798828125,86.05647277832031,2.85528564453125
266308,-0.6531219482421875,2.048675537109375,-0.6613006591796875,-0.7832886576652527,0.643771767616272,0.0631526038050651,19.4783935546875,86.32135009765625,3.000839233398438
266309,-0.7521209716796875,2.397674560546875,-0.319671630859375,-0.7832886576652527,0.643771767616272,0.0631526038050651,19.4527587890625,86.55169677734375,2.983154296875
266310,-1.01129150390625,3.0262451171875,0.049163818359375,-0.7701454162597656,1.003156065940857,-0.3738052845001221,19.41397094726562,86.68168640136719,2.886611938476562
266311,-1.47247314453125,3.805694580078125,0.264617919921875,-0.4415222704410553,1.718178868293762,-0.6437278389930725,19.17535400390625,86.50291442871094,2.963592529296875
266312,-2.027236938476562,4.351852416992188,0.3160858154296875,0.0069774822331964,2.643358707427979,-0.4732096195220947,18.57711791992188,86.391357421875,2.823013305664062
266313,-2.536239624023438,4.49713134765625,0.05322265625,0.425367534160614,2.81255578994751,-0.1004674881696701,17.77531433105469,86.33210754394531,2.198532104492188
266314,-2.89410400390625,3.895523071289062,0.0330963134765625,0.5350394248962402,2.32547402381897,0.1230827793478966,16.83865356445312,86.17388916015625,1.086822509765625
266315,-2.911605834960938,2.892654418945312,0.2385101318359375,0.1957513988018036,2.044878959655762,0.0931081026792526,16.17758178710938,86.33149719238281,-0.338714599609375
266316,-2.702346801757812,2.164810180664062,0.402435302734375,-0.1012531146407127,1.750583171844482,-0.217389315366745,15.66636657714844,86.70474243164062,-1.683273315429688
266317,-2.350555419921875,1.667526245117188,0.501007080078125,-0.229272872209549,1.483805537223816,-0.2300323992967606,15.41072082519531,86.88377380371094,-2.767669677734375
266318,-1.938217163085938,1.298721313476562,0.399444580078125,-0.3383559584617615,1.10081148147583,-0.1070137992501259,15.2418212890625,87.14047241210938,-3.62652587890625
266319,-1.65460205078125,0.92041015625,0.2406158447265625,-0.4074231684207916,0.7156859040260315,-0.0481632687151432,15.15977478027344,87.11488342285156,-4.044876098632812
266320,-1.38226318359375,0.589202880859375,0.1717071533203125,-0.2912243902683258,0.4486384987831116,0.338692843914032,15.09042358398438,87.26483154296875,-4.507766723632812
266321,-1.128280639648438,0.42926025390625,0.11834716796875,-0.2912243902683258,0.4486384987831116,0.338692843914032,15.00123596191406,87.25686645507812,-4.615859985351562
266322,-0.8956451416015625,0.3487091064453125,0.0644378662109375,-0.0377047695219516,0.3900609612464905,0.4439361691474915,15.09425354003906,87.33920288085938,-4.570999145507812
266323,-0.683135986328125,0.2897491455078125,0.031280517578125,0.2693611681461334,0.4150336682796478,0.5470811724662781,15.26025390625,87.32290649414062,-4.580169677734375
266324,-0.51361083984375,0.2602386474609375,-0.0139923095703125,0.6998896598815918,0.8350892663002014,0.6006325483322144,15.59619140625,87.41954040527344,-4.576309204101562
266325,-0.377105712890625,0.26171875,-0.0556182861328125,0.6998896598815918,0.8350892663002014,0.6006325483322144,16.12455749511719,87.2696533203125,-4.745620727539062
266326,-0.259002685546875,0.25079345703125,-0.1229400634765625,0.7487269639968872,1.030934691429138,0.5465053915977478,16.68968200683594,87.18948364257812,-4.867095947265625
266327,-0.259002685546875,0.25079345703125,-0.1229400634765625,0.7487269639968872,1.030934691429138,0.5465053915977478,16.68968200683594,87.18948364257812,-4.867095947265625
266328,-0.04962158203125,0.2155303955078125,-0.0683441162109375,0.4640723168849945,0.9088487029075624,0.1984611600637436,18.02250671386719,87.51046752929688,-6.313522338867188
266329,-0.04962158203125,0.2155303955078125,-0.0683441162109375,0.4640723168849945,0.9088487029075624,0.1984611600637436,18.02250671386719,87.51046752929688,-6.313522338867188
266330,0.000274658203125,0.2023773193359375,-0.109283447265625,0.340228945016861,0.7785349488258362,0.0948436856269836,18.36027526855469,87.42410278320312,-6.620895385742188
266331,0.026123046875,0.19287109375,-0.192779541015625,0.32438924908638,0.4856529831886292,0.0285280477255582,18.48423767089844,87.41299438476562,-6.865341186523438
266332,0.002716064453125,0.2230682373046875,-0.186553955078125,0.4222199618816376,0.1338075995445251,-0.2368343770503998,18.24513244628906,87.47640991210938,-7.06451416015625
266333,-0.0355224609375,0.2705841064453125,-0.1591033935546875,0.4222199618816376,0.1338075995445251,-0.2368343770503998,18.09478759765625,87.55877685546875,-7.43212890625
266334,-0.0790557861328125,0.2943115234375,-0.123077392578125,0.4318467378616333,0.1513378620147705,-0.4566218554973602,17.91476440429688,87.52581787109375,-7.540863037109375
266335,-0.0790557861328125,0.2943115234375,-0.123077392578125,0.4318467378616333,0.1513378620147705,-0.4566218554973602,17.91476440429688,87.52581787109375,-7.540863037109375
266336,-0.11737060546875,0.169952392578125,-0.1235809326171875,0.4132150113582611,0.0735756829380989,-0.7697403430938721,17.46908569335938,87.47828674316406,-8.083053588867188
266337,-0.14459228515625,0.1169281005859375,-0.0704803466796875,0.4519725143909454,-0.056004412472248,-0.8103290796279907,17.24766540527344,87.43394470214844,-8.316558837890625
266338,-0.180633544921875,0.088043212890625,-0.007598876953125,0.4716732501983643,-0.0898942053318023,-0.8269189596176147,17.07733154296875,87.24440002441406,-8.500259399414062
266339,-0.215911865234375,0.08270263671875,0.037109375,0.4303873479366302,-0.0408952347934246,-0.8130516409873962,16.87847900390625,86.93576049804688,-8.597640991210938
266340,-0.2392730712890625,0.11810302734375,0.044952392578125,0.2194010615348816,-0.0355622544884681,-0.6125776171684265,16.67791748046875,86.76976013183594,-8.730316162109375
266341,-0.224578857421875,0.1526031494140625,0.093109130859375,0.2194010615348816,-0.0355622544884681,-0.6125776171684265,16.41777038574219,86.55963134765625,-8.843826293945312
266342,-0.2501983642578125,0.2763824462890625,0.2276763916015625,0.0994815826416015,0.0984434857964515,-0.4731712937355042,16.15499877929688,86.39097595214844,-8.92779541015625
266343,-0.310760498046875,0.37408447265625,0.26312255859375,-0.0142596298828721,0.2481269836425781,-0.3936240077018738,15.78373718261719,86.12689208984375,-9.106369018554688
266344,-0.416900634765625,0.4285125732421875,0.2876129150390625,-0.0766425803303718,0.3068494200706482,-0.3261134028434753,15.50912475585938,86.05288696289062,-9.272171020507812
266345,-0.5623931884765625,0.5195159912109375,0.31396484375,-0.1152056828141212,0.2555779814720154,-0.3546630144119263,15.15547180175781,86.0714111328125,-9.421554565429688
266346,-0.7229461669921875,0.6068572998046875,0.3301544189453125,-0.1273837834596634,0.0434465445578098,-0.5075191259384155,14.94963073730469,86.24583435058594,-9.64697265625
266347,-0.8743438720703125,0.602691650390625,0.34063720703125,-0.1342305094003677,-0.3024632036685944,-0.7273276448249817,14.70057678222656,86.14654541015625,-9.8511962890625
266348,-0.9525146484375,0.474365234375,0.3169403076171875,-0.2490367144346237,-1.233701348304749,-0.89002925157547,14.46250915527344,86.07554626464844,-9.91021728515625
266349,-0.9525146484375,0.474365234375,0.3169403076171875,-0.2490367144346237,-1.233701348304749,-0.89002925157547,14.46250915527344,86.07554626464844,-9.91021728515625
266350,-0.6470947265625,0.189300537109375,0.165496826171875,-0.4850631058216095,-2.340982437133789,-0.8636506199836731,13.96853637695312,85.86007690429688,-10.00715637207031
266351,-0.443572998046875,0.17529296875,0.143829345703125,-0.657141387462616,-2.633629322052002,-0.8389815092086792,13.86648559570312,85.63688659667969,-9.617477416992188
266352,-0.305145263671875,0.175567626953125,0.14385986328125,-0.657141387462616,-2.633629322052002,-0.8389815092086792,13.79496765136719,85.28866577148438,-8.95068359375
266353,-0.21044921875,0.18121337890625,0.1502227783203125,-0.8552097082138062,-2.772622585296631,-0.8031723499298096,13.82554626464844,84.41950988769531,-6.9483642578125
266354,-0.13616943359375,0.181182861328125,0.1477203369140625,-1.0565425157547,-2.808711528778076,-0.7781175971031189,13.91317749023438,83.88899230957031,-5.684722900390625
266355,-0.069091796875,0.1564483642578125,0.1247711181640625,-1.230310320854187,-2.792838096618652,-0.7180984616279602,14.10932922363281,83.51817321777344,-4.632125854492188
266356,-0.0139617919921875,0.118255615234375,0.1093597412109375,-1.674973368644714,-2.413602113723755,-0.4012169241905212,14.28141784667969,83.20683288574219,-3.396270751953125
266357,-0.0139617919921875,0.118255615234375,0.1093597412109375,-1.674973368644714,-2.413602113723755,-0.4012169241905212,14.28141784667969,83.20683288574219,-3.396270751953125
266358,0.1393280029296875,-0.008758544921875,-0.429840087890625,-1.705553293228149,-2.330864906311035,-0.0778955966234207,14.66606140136719,82.20889282226562,-0.3421173095703125
266359,0.1393280029296875,-0.008758544921875,-0.429840087890625,-1.705553293228149,-2.330864906311035,-0.0778955966234207,14.66606140136719,82.20889282226562,-0.3421173095703125
266360,0.1002960205078125,0.06549072265625,-0.1799774169921875,0.4559400975704193,-2.858379125595093,0.7665978670120239,15.06636047363281,81.64765930175781,2.761749267578125
266361,-0.01910400390625,0.1541595458984375,0.2417144775390625,0.2118920087814331,-0.5528570413589478,0.6576375365257263,15.48933410644531,81.77864074707031,3.98193359375
266362,-0.0014495849609375,0.2568817138671875,-0.159454345703125,-0.1538582742214203,0.8898420333862305,0.4706873595714569,16.01156616210938,82.12889099121094,4.607620239257812
266363,-0.01397705078125,0.3541107177734375,-0.461090087890625,-0.3075836598873138,0.7856977581977844,0.388938695192337,16.356689453125,82.31266784667969,4.7916259765625
266364,-0.093017578125,0.444366455078125,-0.4929351806640625,-0.4274778366088867,0.1068995520472527,0.4120517373085022,16.42042541503906,82.40803527832031,4.712051391601562
266365,-0.2207794189453125,0.530487060546875,-0.4486846923828125,-0.553054690361023,-0.454393595457077,0.4271257519721985,16.45150756835938,82.29159545898438,4.709793090820312
266366,-0.35614013671875,0.6260986328125,-0.4571075439453125,-0.556125283241272,-0.6046544909477234,0.4154131710529327,16.51518249511719,82.24195861816406,4.9471435546875
266367,-0.4490509033203125,0.7657928466796875,-0.4923248291015625,-0.3496458828449249,-0.49093297123909,0.4095606207847595,16.65524291992188,82.19490051269531,5.32208251953125
266368,-0.4908294677734375,0.9577178955078124,-0.466217041015625,-0.0358727797865867,-0.2016867846250534,0.4571409225463867,16.71009826660156,82.23007202148438,5.617507934570312
266369,-0.50689697265625,1.185226440429688,-0.4013671875,0.223907396197319,0.1980648785829544,0.5732704401016235,16.8370361328125,82.31428527832031,5.861297607421875
266370,-0.50567626953125,1.45233154296875,-0.264984130859375,0.2726895809173584,0.6661093235015869,0.6644150018692017,16.92256164550781,82.28765869140625,6.023818969726562
266371,-0.4793853759765625,1.707107543945312,-0.093780517578125,0.0844645500183105,1.14006781578064,0.6786203384399414,16.96060180664062,82.39781188964844,5.982955932617188
266372,-0.483551025390625,1.879196166992188,0.049652099609375,-0.1727382242679596,1.450040578842163,0.6316304206848145,16.88514709472656,82.49176025390625,5.585189819335938
266373,-0.615997314453125,2.110458374023438,0.2092437744140625,-0.2975502014160156,1.523750782012939,0.6437379717826843,16.76902770996094,82.65615844726562,5.100875854492188
266374,-0.908966064453125,2.626907348632812,0.40936279296875,-0.3269645273685455,1.407996773719788,0.6424615383148193,16.56561279296875,82.74267578125,4.540069580078125
266375,-1.383132934570312,3.515777587890625,0.5943756103515625,-0.135405495762825,1.53791081905365,0.5151306986808777,16.27098083496094,82.95156860351562,3.95294189453125
266376,-2.0274658203125,4.514114379882812,0.433746337890625,0.2011482864618301,1.900173664093018,0.2164212465286255,15.86341857910156,82.95108032226562,3.243148803710938
266377,-2.733642578125,4.9281005859375,0.09521484375,0.4985504150390625,2.372217893600464,0.1770773082971573,15.22462463378906,83.1060791015625,2.231292724609375
266378,-3.026199340820312,4.2137451171875,-0.1726531982421875,0.6211333274841309,2.455029964447021,0.3071199953556061,14.67398071289062,83.13267517089844,0.926544189453125
266379,-2.538497924804688,3.05657958984375,0.0675811767578125,0.6005481481552124,2.074449062347412,0.0650559663772583,14.22358703613281,83.42282104492188,-0.3000030517578125
266380,-2.1507568359375,2.115615844726562,0.3318328857421875,0.479205995798111,1.66087806224823,-0.1101251691579819,14.03207397460938,83.67295837402344,-1.520660400390625
266381,-2.065673828125,1.550308227539062,0.3292236328125,0.3287701606750488,1.425915598869324,-0.0460846722126007,13.98164367675781,83.96614074707031,-2.267715454101562
266382,-1.929794311523438,1.230361938476562,0.107421875,0.2628643810749054,1.147713780403137,-0.0077143786475062,13.82730102539062,84.24362182617188,-2.893035888671875
266383,-1.702529907226562,0.880828857421875,-0.10076904296875,0.1630392521619797,0.618812620639801,0.0223367307335138,13.71952819824219,84.38218688964844,-3.417465209960938
266384,-1.445327758789062,0.564483642578125,-0.1468505859375,-0.006760966964066,0.2732576429843903,0.2140204161405563,13.71357727050781,84.57432556152344,-3.817550659179688
266385,-1.168930053710938,0.370208740234375,-0.1880035400390625,-0.0439778454601764,-0.1133004575967789,0.5030474066734314,13.85356140136719,84.69752502441406,-3.888015747070312
266386,-0.9266204833984376,0.2877960205078125,-0.10784912109375,0.1300461441278458,-0.4477607309818268,0.7465956211090088,14.30003356933594,84.70149230957031,-3.708114624023438
266387,-0.9266204833984376,0.2877960205078125,-0.10784912109375,0.1300461441278458,-0.4477607309818268,0.7465956211090088,14.30003356933594,84.70149230957031,-3.708114624023438
266388,-0.7319183349609375,0.269683837890625,0.0706787109375,0.3921299576759338,-0.3315257430076599,0.8437275290489197,14.86566162109375,84.84190368652344,-3.412918090820312
266389,-0.45068359375,0.382568359375,0.30389404296875,0.707724392414093,1.259691715240479,0.6337593793869019,16.24383544921875,85.15023803710938,-3.144119262695312
266390,-0.40167236328125,0.427764892578125,0.18402099609375,0.7649573087692261,1.592073321342468,0.4041890203952789,16.73101806640625,85.22958374023438,-3.468536376953125
266391,-0.3610382080078125,0.388916015625,0.0879364013671875,0.7157471776008606,1.481345534324646,0.2298358529806137,17.09745788574219,85.33195495605469,-4.0712890625
266392,-0.3153076171875,0.3292083740234375,0.0868377685546875,0.4285675883293152,1.112602591514587,0.1627953052520752,17.29747009277344,85.47488403320312,-4.710052490234375
266393,-0.2816314697265625,0.2751922607421875,0.134979248046875,0.4285675883293152,1.112602591514587,0.1627953052520752,17.32255554199219,85.4462890625,-5.232757568359375
266394,-0.2884368896484375,0.2212066650390625,0.14874267578125,0.3604199588298798,1.074551939964294,0.1638480573892593,17.16017150878906,85.62310791015625,-5.80914306640625
266395,-0.2993011474609375,0.1940765380859375,0.08477783203125,0.3856901824474335,1.02270770072937,0.1203937903046608,16.93836975097656,85.73908996582031,-6.237075805664062
266396,-0.2922821044921875,0.1752777099609375,-0.0284423828125,0.5122259855270386,0.8364003300666809,0.0378536395728588,16.76622009277344,85.83488464355469,-6.701370239257812
