time_idx,accelerometerAccelerationX(G),accelerometerAccelerationY(G),accelerometerAccelerationZ(G),gyroRotationX(rad/s),gyroRotationY(rad/s),gyroRotationZ(rad/s),magnetometerX(µT),magnetometerY(µT),magnetometerZ(µT)
175250,0.160430908203125,-0.097869873046875,-0.1504058837890625,1.266795992851257,1.203532338142395,0.924031376838684,38.61669921875,97.9165496826172,-5.675582885742188
175251,0.0937042236328125,-0.23333740234375,-0.4162750244140625,1.175670862197876,1.045464038848877,0.9400628209114076,39.51753234863281,98.29002380371094,-6.865371704101562
175252,0.0560760498046875,-0.2310028076171875,-0.3184051513671875,0.9625212550163268,0.7409619688987732,0.9268841743469238,39.97222900390625,98.44046020507812,-7.520660400390625
175253,0.02703857421875,-0.194610595703125,-0.19146728515625,0.6442141532897949,0.5391678810119629,0.8791803121566772,40.51495361328125,98.62052917480467,-8.154571533203125
175254,0.0036163330078125,-0.159271240234375,-0.13104248046875,0.3091682195663452,0.4053152799606323,0.799552321434021,40.94535827636719,98.85269165039062,-8.514389038085938
175255,0.0036163330078125,-0.159271240234375,-0.13104248046875,0.3091682195663452,0.4053152799606323,0.799552321434021,40.94535827636719,98.85269165039062,-8.514389038085938
175256,-0.0245208740234375,-0.1942291259765625,-0.1196746826171875,-0.2411859929561615,0.3350895643234253,0.5994064211845398,41.77915954589844,99.0111083984375,-8.633636474609375
175257,-0.03656005859375,-0.224609375,-0.1087646484375,-0.4266234934329987,0.4656276106834412,0.4825072586536407,42.22114562988281,99.19532775878906,-8.46893310546875
175258,-0.042388916015625,-0.2428131103515625,-0.085784912109375,-0.4904274940490723,0.6329748034477234,0.3750641644001007,42.59030151367188,99.30320739746094,-8.244369506835938
175259,-0.042388916015625,-0.2428131103515625,-0.085784912109375,-0.4904274940490723,0.6329748034477234,0.3750641644001007,42.59030151367188,99.30320739746094,-8.244369506835938
175260,-0.0519256591796875,-0.263702392578125,-0.068145751953125,-0.2379462569952011,0.7974809408187866,0.1397981196641922,43.39312744140625,99.42153930664062,-7.292800903320312
175261,-0.0583343505859375,-0.292449951171875,-0.008880615234375,-0.2379462569952011,0.7974809408187866,0.1397981196641922,43.93972778320312,99.25650024414062,-6.821868896484375
175262,-0.0631103515625,-0.2870635986328125,0.0206756591796875,-0.6029236912727356,1.145987749099731,-0.0619999878108501,44.80604553222656,98.50433349609376,-5.748306274414062
175263,-0.0631103515625,-0.2870635986328125,0.0206756591796875,-0.6029236912727356,1.145987749099731,-0.0619999878108501,44.80604553222656,98.50433349609376,-5.748306274414062
175264,-0.0562286376953125,-0.250701904296875,0.049652099609375,-0.7763378024101257,1.305703163146973,-0.1376723796129227,45.07099914550781,97.92877197265624,-5.104095458984375
175265,-0.042999267578125,-0.229583740234375,0.04827880859375,-0.8947017192840576,1.364928603172302,-0.2079095244407654,45.07685852050781,97.4214324951172,-4.56646728515625
175266,-0.0315093994140625,-0.2065582275390625,0.0430755615234375,-1.006670832633972,1.236843109130859,-0.2688277363777161,44.85885620117188,96.94987487792967,-4.1661376953125
175267,-0.0315093994140625,-0.2065582275390625,0.0430755615234375,-1.006670832633972,1.236843109130859,-0.2688277363777161,44.85885620117188,96.94987487792967,-4.1661376953125
175268,-0.0241546630859375,-0.1804962158203125,0.098907470703125,-1.268609881401062,0.539154589176178,-0.3651548027992249,44.04859924316406,96.1682586669922,-3.325698852539062
175269,-0.0283355712890625,-0.08154296875,0.191436767578125,-1.412073016166687,0.1638411283493042,-0.3366933465003967,43.73696899414062,95.84152221679688,-2.820220947265625
175270,-0.0202484130859375,0.123260498046875,0.3143463134765625,-1.509056210517883,-0.0289765242487192,-0.3030658662319183,43.47566223144531,95.69369506835938,-2.318740844726562
175271,-0.0202484130859375,0.123260498046875,0.3143463134765625,-1.509056210517883,-0.0289765242487192,-0.3030658662319183,43.47566223144531,95.69369506835938,-2.318740844726562
175272,-0.036529541015625,0.335205078125,0.770751953125,-1.840560674667358,0.2129410356283188,-0.4960616827011108,43.08811950683594,95.67832946777344,-0.893280029296875
175273,-0.036529541015625,0.335205078125,0.770751953125,-1.840560674667358,0.2129410356283188,-0.4960616827011108,43.08811950683594,95.67832946777344,-0.893280029296875
175274,-0.0776824951171875,0.664825439453125,1.190292358398438,-2.368408679962158,0.8235937356948853,-0.9426772594451904,42.40341186523438,96.22502136230467,0.4427337646484375
175275,-0.0776824951171875,0.664825439453125,1.190292358398438,-2.368408679962158,0.8235937356948853,-0.9426772594451904,42.40341186523438,96.22502136230467,0.4427337646484375
175276,-0.33404541015625,2.545669555664062,1.977798461914062,-2.656362295150757,0.452820211648941,-1.5684734582901,40.80213928222656,96.48695373535156,1.213760375976562
175277,-0.33404541015625,2.545669555664062,1.977798461914062,-2.656362295150757,0.452820211648941,-1.5684734582901,40.80213928222656,96.48695373535156,1.213760375976562
175278,-0.5587615966796875,6.576416015625,2.38433837890625,-2.178468942642212,0.6337441802024841,-0.1813090741634369,40.17733764648438,96.41390991210938,0.8509063720703125
175279,-1.121002197265625,8.172195434570312,2.77734375,-1.912083625793457,0.5947091579437256,2.782416343688965,39.755615234375,96.38487243652344,-0.145721435546875
175280,-0.251556396484375,4.929840087890625,0.116912841796875,-1.604751825332642,0.2491783946752548,-0.7402317523956299,40.531982421875,96.4185791015625,-0.9513702392578124
175281,0.318450927734375,2.1678466796875,-0.63543701171875,-1.790067195892334,-1.254328608512878,-0.3466255962848663,40.62974548339844,96.2799072265625,0.238311767578125
175282,0.6990966796875,1.03753662109375,-2.14837646484375,0.3846283555030823,-1.343102693557739,1.413399457931519,40.1778564453125,96.11602783203124,1.562576293945312
175283,0.6990966796875,1.03753662109375,-2.14837646484375,0.3846283555030823,-1.343102693557739,1.413399457931519,40.1778564453125,96.11602783203124,1.562576293945312
175284,0.77880859375,1.584442138671875,-0.403533935546875,1.885683655738831,0.3711748719215393,1.385678172111511,39.70304870605469,95.7654266357422,3.852127075195312
175285,0.4477996826171875,2.062881469726562,0.25518798828125,1.885683655738831,0.3711748719215393,1.385678172111511,40.27529907226562,95.81217956542967,4.201065063476562
175286,0.3933563232421875,1.9716796875,0.261474609375,1.481565237045288,0.5215182900428772,0.6946821212768555,41.10520935058594,95.86984252929688,3.929580688476562
175287,0.2349700927734375,1.566452026367188,0.0684967041015625,0.8007350564002991,0.2205494195222855,0.2701089680194855,41.84330749511719,96.33927917480467,3.19482421875
175288,0.0743255615234375,1.231369018554688,0.0043182373046875,0.3403993844985962,-0.0052656019106507,0.049329999834299,42.31932067871094,96.42942810058594,2.648605346679688
175289,0.0743255615234375,1.231369018554688,0.0043182373046875,0.3403993844985962,-0.0052656019106507,0.049329999834299,42.31932067871094,96.42942810058594,2.648605346679688
175290,-0.0308074951171875,0.7786712646484375,-0.094512939453125,0.2936068475246429,-0.8464450240135193,-0.103812150657177,42.78497314453125,96.41529846191406,2.044219970703125
175291,-0.0888671875,0.600738525390625,-0.1958465576171875,0.2936068475246429,-0.8464450240135193,-0.103812150657177,42.91612243652344,96.35903930664062,1.798141479492188
175292,-0.1342010498046875,0.4339447021484375,-0.2233734130859375,0.5577756762504578,-1.173468351364136,-0.1510507613420486,42.96043395996094,96.32901000976562,1.7803955078125
175293,-0.21551513671875,0.3026275634765625,-0.146575927734375,0.8142558932304382,-1.224716186523438,-0.2032449990510941,43.14082336425781,96.44517517089844,1.719284057617188
175294,-0.3142242431640625,0.1334686279296875,-0.0800323486328125,1.015892863273621,-0.8493630290031433,-0.1908514499664307,43.16879272460938,96.47299194335938,1.391616821289062
175295,-0.3142242431640625,0.1334686279296875,-0.0800323486328125,1.015892863273621,-0.8493630290031433,-0.1908514499664307,43.16879272460938,96.47299194335938,1.391616821289062
175296,-0.275909423828125,-0.1200714111328125,-0.260650634765625,1.222610354423523,0.1725707054138184,0.1590626239776611,43.26759338378906,96.82833862304688,0.718902587890625
175297,-0.1596527099609375,-0.1473388671875,-0.3524322509765625,1.273779034614563,0.1705016940832138,0.2525390386581421,43.35177612304688,96.88133239746094,0.3631744384765625
175298,-0.0632781982421875,-0.171112060546875,-0.34088134765625,1.242029905319214,-0.075853481888771,0.2648305892944336,43.3675537109375,97.0509033203125,-0.2219390869140625
175299,-0.0035858154296875,-0.192657470703125,-0.2606353759765625,1.120837092399597,-0.2962875962257385,0.234205573797226,43.44448852539062,97.14822387695312,-0.8279571533203125
175300,0.0407867431640625,-0.20709228515625,-0.174774169921875,0.985071301460266,-0.3653305768966675,0.2013384401798248,43.54570007324219,97.32009887695312,-1.373321533203125
175301,0.0407867431640625,-0.20709228515625,-0.174774169921875,0.985071301460266,-0.3653305768966675,0.2013384401798248,43.54570007324219,97.32009887695312,-1.373321533203125
175302,0.098358154296875,-0.180267333984375,0.02490234375,0.8903288245201111,0.012825783342123,0.1563137024641037,43.70310974121094,97.73960876464844,-2.054229736328125
175303,0.098358154296875,-0.180267333984375,0.02490234375,0.8903288245201111,0.012825783342123,0.1563137024641037,43.70310974121094,97.73960876464844,-2.054229736328125
175304,0.1029052734375,-0.1445770263671875,0.01239013671875,1.099475383758545,0.2812649607658386,0.0786841586232185,43.71638488769531,98.21363830566406,-2.652938842773438
175305,0.1049346923828125,-0.136444091796875,-0.0011444091796875,1.247287273406982,0.2519068121910095,0.0326175987720489,43.68124389648438,98.40559387207033,-2.926834106445312
175306,0.0936279296875,-0.1220703125,0.0465240478515625,1.369194984436035,0.2820801436901093,-0.0318751074373722,43.70500183105469,98.5685577392578,-3.365676879882812
175307,0.081268310546875,-0.1113739013671875,0.0900726318359375,1.407769799232483,0.4171096086502075,-0.1116112172603607,43.69235229492188,98.76043701171876,-3.65032958984375
175308,0.070831298828125,-0.1104583740234375,0.087249755859375,1.368247985839844,0.5125322937965393,-0.1842934042215347,43.65565490722656,98.80685424804688,-3.936767578125
175309,0.061187744140625,-0.1209564208984375,0.0803680419921875,0.9304152727127076,0.4607580304145813,-0.2997803092002869,43.71272277832031,98.68601989746094,-4.23388671875
175310,0.0601348876953125,-0.14288330078125,0.074615478515625,0.4918544292449951,0.3633611500263214,-0.3733733296394348,43.69398498535156,98.593994140625,-4.6116943359375
175311,0.0601348876953125,-0.14288330078125,0.074615478515625,0.4918544292449951,0.3633611500263214,-0.3733733296394348,43.69398498535156,98.593994140625,-4.6116943359375
175312,0.0686492919921875,-0.1898651123046875,0.0945892333984375,-0.0553479455411434,0.2971611022949219,-0.4869174659252167,43.5860595703125,98.265625,-5.050094604492188
175313,0.079254150390625,-0.180694580078125,0.1061859130859375,-0.6075365543365479,0.293306440114975,-0.6084771752357483,43.44393920898438,98.18522644042967,-5.1141357421875
175314,0.0984344482421875,-0.11077880859375,0.133148193359375,-1.002394914627075,0.3266902267932892,-0.7033653259277344,43.1517333984375,98.06529235839844,-4.955230712890625
175315,0.0984344482421875,-0.11077880859375,0.133148193359375,-1.002394914627075,0.3266902267932892,-0.7033653259277344,43.1517333984375,98.06529235839844,-4.955230712890625
175316,0.0260162353515625,0.1276397705078125,0.2954559326171875,-1.263223886489868,0.6952187418937683,-0.871810257434845,42.56484985351562,97.71940612792967,-4.449920654296875
175317,0.0260162353515625,0.1276397705078125,0.2954559326171875,-1.263223886489868,0.6952187418937683,-0.871810257434845,42.56484985351562,97.71940612792967,-4.449920654296875
175318,0.0001678466796875,0.248321533203125,0.4439697265625,-2.005341053009033,1.046815872192383,-1.311452388763428,41.81443786621094,97.576171875,-3.320556640625
175319,-0.0281829833984375,0.52947998046875,0.6898345947265625,-2.005341053009033,1.046815872192383,-1.311452388763428,41.25384521484375,97.51869201660156,-2.791152954101562
175320,-0.04815673828125,1.013961791992188,1.030044555664062,-2.331613779067993,1.151764750480652,-1.718402028083801,40.64578247070312,97.55876159667967,-2.36151123046875
175321,-0.2431182861328125,3.194442749023438,1.303268432617188,-2.021106719970703,0.9624027609825134,-2.488012313842773,39.9083251953125,97.5036163330078,-1.854156494140625
175322,-0.3072662353515625,6.437393188476562,1.595108032226562,-1.186093926429749,0.5276968479156494,-2.267224550247192,38.95794677734375,97.38693237304688,-1.483154296875
175323,-0.3072662353515625,6.437393188476562,1.595108032226562,-1.186093926429749,0.5276968479156494,-2.267224550247192,38.95794677734375,97.38693237304688,-1.483154296875
175324,-1.51019287109375,7.738906860351562,1.990676879882812,0.7880259156227112,-0.6898095607757568,0.1628954410552979,37.28607177734375,97.62985229492188,-2.4322509765625
175325,-0.84869384765625,4.770339965820312,0.6078948974609375,0.8303970694541931,-0.2293666154146194,-1.412561416625977,37.03013610839844,97.71148681640624,-2.848251342773438
175326,-0.1080169677734375,2.020919799804688,-0.218841552734375,0.0565644763410091,-2.044827222824097,-1.848873257637024,37.18663024902344,97.70486450195312,-2.923919677734375
175327,-0.1080169677734375,2.020919799804688,-0.218841552734375,0.0565644763410091,-2.044827222824097,-1.848873257637024,37.18663024902344,97.70486450195312,-2.923919677734375
175328,0.215179443359375,0.8122711181640625,-1.052902221679688,-0.9016459584236144,-4.178662300109863,-1.289657354354858,36.193115234375,96.89883422851562,-2.032989501953125
175329,0.5167999267578125,1.0709228515625,-1.994094848632812,-0.419685423374176,-6.554355621337891,-0.4520915746688843,35.57353210449219,96.3450164794922,-0.92242431640625
175330,0.2205810546875,1.85748291015625,-0.3500823974609375,0.5486811995506287,-1.845089912414551,0.4113630354404449,35.15260314941406,96.11378479003906,0.2228851318359375
175331,0.2205810546875,1.85748291015625,-0.3500823974609375,0.5486811995506287,-1.845089912414551,0.4113630354404449,35.15260314941406,96.11378479003906,0.2228851318359375
175332,0.1532440185546875,1.781204223632812,-0.1224212646484375,2.388463973999023,1.214539647102356,0.9815495610237122,35.5325927734375,96.40725708007812,1.067291259765625
175333,0.1341552734375,1.566436767578125,-0.0386810302734375,2.212681293487549,1.176831483840942,1.048397302627563,35.99383544921875,96.48011779785156,0.58837890625
175334,0.037994384765625,1.3057861328125,-0.0855255126953125,1.681324124336243,0.7894951701164246,1.00506603717804,36.56619262695312,96.59292602539062,-0.2507781982421875
175335,0.037994384765625,1.3057861328125,-0.0855255126953125,1.681324124336243,0.7894951701164246,1.00506603717804,36.56619262695312,96.59292602539062,-0.2507781982421875
175336,-0.0613555908203125,0.86077880859375,0.1535186767578125,0.9088713526725768,0.341496080160141,0.7547574043273926,37.74417114257812,96.9050750732422,-2.230224609375
175337,-0.039276123046875,0.587310791015625,0.0915069580078125,0.80769282579422,0.1742700636386871,0.6904093027114868,38.30574035644531,96.96835327148438,-2.835556030273438
175338,-0.021820068359375,0.3367919921875,-0.0316009521484375,1.023216605186462,-0.7462866902351379,0.6447134613990784,38.82292175292969,97.08055114746094,-3.26727294921875
175339,-0.021820068359375,0.3367919921875,-0.0316009521484375,1.023216605186462,-0.7462866902351379,0.6447134613990784,38.82292175292969,97.08055114746094,-3.26727294921875
175340,0.0070648193359375,-0.057861328125,-0.321441650390625,1.134678363800049,-1.473632454872131,0.6318011283874512,39.50056457519531,97.2706298828125,-3.941986083984375
175341,0.02252197265625,-0.1629180908203125,-0.29083251953125,1.169243812561035,-2.078431129455566,0.6228947043418884,39.72726440429688,97.44808959960938,-4.260787963867188
175342,0.029876708984375,-0.2390899658203125,-0.1419830322265625,1.098286509513855,-2.041221618652344,0.614630401134491,40.37544250488281,98.03010559082033,-4.798690795898438
175343,0.029876708984375,-0.2390899658203125,-0.1419830322265625,1.098286509513855,-2.041221618652344,0.614630401134491,40.37544250488281,98.03010559082033,-4.798690795898438
175344,0.025787353515625,-0.4033050537109375,-0.0135498046875,0.6601992249488831,-0.2092251181602478,0.4671789109706879,40.636962890625,98.3852081298828,-5.084640502929688
175345,0.0660400390625,-0.4117431640625,-0.3064422607421875,0.3977247178554535,0.9928842186927797,0.3866063058376312,40.87571716308594,98.77262878417967,-5.266998291015625
175346,0.08160400390625,-0.340362548828125,-0.3289031982421875,0.5499595403671265,0.9198142886161804,0.4219523072242737,41.14015197753906,98.9894561767578,-5.492202758789062
175347,0.08160400390625,-0.340362548828125,-0.3289031982421875,0.5499595403671265,0.9198142886161804,0.4219523072242737,41.14015197753906,98.9894561767578,-5.492202758789062
175348,0.067138671875,-0.2787017822265625,-0.1388397216796875,0.9543142318725586,0.5660431385040283,0.4999403059482574,41.7822265625,99.13133239746094,-5.450759887695312
175349,0.0601348876953125,-0.29388427734375,-0.0706024169921875,0.9951732158660888,0.5870139598846436,0.5065255165100098,42.1337890625,99.20391845703124,-5.476242065429688
175350,0.05926513671875,-0.3586883544921875,-0.0470733642578125,0.8208208680152893,0.9542654752731324,0.4489807188510895,42.59461975097656,99.15753173828124,-5.601089477539062
175351,0.05926513671875,-0.3586883544921875,-0.0470733642578125,0.8208208680152893,0.9542654752731324,0.4489807188510895,42.59461975097656,99.15753173828124,-5.601089477539062
175352,0.0642242431640625,-0.374267578125,-0.33050537109375,-0.0592036694288253,1.159880995750427,0.2994431555271149,43.44602966308594,98.63418579101562,-5.867385864257812
175353,0.0650634765625,-0.3610687255859375,-0.3218841552734375,-0.3291504681110382,0.8004325032234192,0.3015457391738892,43.85113525390625,98.30050659179688,-5.890060424804688
175354,0.062713623046875,-0.32879638671875,-0.176483154296875,-0.6703370809555054,0.8229002356529236,0.2483240514993668,44.02215576171875,97.84100341796876,-5.756103515625
175355,0.062713623046875,-0.32879638671875,-0.176483154296875,-0.6703370809555054,0.8229002356529236,0.2483240514993668,44.02215576171875,97.84100341796876,-5.756103515625
175356,0.0543670654296875,-0.3434600830078125,-0.005767822265625,-0.7864077687263489,1.16715931892395,0.2246754467487335,44.04039001464844,97.04649353027344,-5.254302978515625
175357,0.05560302734375,-0.3479766845703125,-0.066375732421875,-0.8228957056999207,1.390841245651245,0.230872631072998,43.89140319824219,96.69270324707033,-4.897476196289062
175358,0.04754638671875,-0.3404388427734375,-0.1373291015625,-0.8160380721092224,1.371616363525391,0.2473056614398956,43.69329833984375,96.49519348144533,-4.405517578125
175359,0.04754638671875,-0.3404388427734375,-0.1373291015625,-0.8160380721092224,1.371616363525391,0.2473056614398956,43.69329833984375,96.49519348144533,-4.405517578125
175360,-0.0446929931640625,-0.2139129638671875,-0.13525390625,-0.8231460452079773,0.724381148815155,0.2107548415660858,43.27252197265625,96.27645874023438,-3.6453857421875
175361,-0.0971832275390625,0.030731201171875,-0.0353851318359375,-0.8105993866920471,0.4461660385131836,0.1719547212123871,43.08761596679688,96.08924865722656,-3.557037353515625
175362,-0.0737457275390625,0.1602020263671875,0.068145751953125,-1.068187832832336,0.3926399648189545,0.1253736317157745,43.08103942871094,95.98626708984376,-3.330917358398438
175363,-0.0737457275390625,0.1602020263671875,0.068145751953125,-1.068187832832336,0.3926399648189545,0.1253736317157745,43.08103942871094,95.98626708984376,-3.330917358398438
175364,-0.0609893798828125,0.2368621826171875,0.4406280517578125,-1.378431081771851,0.5818319916725159,0.1042790040373802,43.18183898925781,95.7697296142578,-2.5361328125
175365,-0.053436279296875,0.3194427490234375,0.6316375732421875,-1.643881440162659,0.7895649671554565,0.0267482567578554,43.28396606445312,95.79379272460938,-2.046279907226562
175366,-0.0529937744140625,0.4626007080078125,0.8839263916015625,-1.8184415102005,1.036449551582336,-0.1673266738653183,43.80696105957031,95.8410186767578,-0.6524505615234375
175367,-0.0529937744140625,0.4626007080078125,0.8839263916015625,-1.8184415102005,1.036449551582336,-0.1673266738653183,43.80696105957031,95.8410186767578,-0.6524505615234375
175368,-0.1116943359375,1.307449340820312,1.537460327148438,-1.906210541725159,1.5322425365448,-0.8058637380599976,43.3846435546875,97.09564208984376,0.263885498046875
175369,0.0153045654296875,4.251358032226562,1.735305786132812,-2.005547046661377,1.595109105110168,-1.07370662689209,42.71916198730469,97.7220458984375,-0.403289794921875
175370,0.2229156494140625,8.082046508789062,2.123062133789062,-1.865947008132935,0.6873459219932556,2.512139320373535,42.17181396484375,98.16488647460938,-1.912673950195312
175371,0.2229156494140625,8.082046508789062,2.123062133789062,-1.865947008132935,0.6873459219932556,2.512139320373535,42.17181396484375,98.16488647460938,-1.912673950195312
175372,-0.592041015625,7.604156494140625,1.604110717773438,-1.375972270965576,1.068683624267578,0.2774412035942078,43.69001770019531,98.73358154296876,-3.160263061523438
175373,0.60919189453125,4.308639526367188,0.042694091796875,-1.180787801742554,-0.6505953073501587,-0.5004433989524841,44.37315368652344,98.5705108642578,-1.816131591796875
175374,0.7227325439453125,1.792221069335938,-0.276123046875,-1.428797364234924,-2.264967679977417,0.2808085083961487,44.14002990722656,98.1865692138672,-0.5296630859375
175375,0.7227325439453125,1.792221069335938,-0.276123046875,-1.428797364234924,-2.264967679977417,0.2808085083961487,44.14002990722656,98.1865692138672,-0.5296630859375
175376,1.56707763671875,0.252410888671875,-2.564804077148438,-0.5537921190261841,-4.105575084686279,1.446681499481201,43.89494323730469,97.64500427246094,2.0377197265625
175377,1.056884765625,0.731903076171875,-0.32110595703125,1.199604868888855,-0.2253708094358444,1.338827252388,44.620361328125,97.58229064941406,2.959823608398438
175378,0.5856170654296875,1.25042724609375,0.0854949951171875,2.517774105072021,1.607272028923035,0.8465030789375305,45.46847534179688,97.54910278320312,3.402206420898438
175379,0.5856170654296875,1.25042724609375,0.0854949951171875,2.517774105072021,1.607272028923035,0.8465030789375305,45.46847534179688,97.54910278320312,3.402206420898438
175380,0.1819610595703125,1.35272216796875,-0.05712890625,1.735499262809753,0.7599974870681763,0.5070093870162964,46.54728698730469,97.7598114013672,1.62744140625
175381,0.0110931396484375,1.240036010742188,0.108642578125,0.7666438817977905,0.0766891837120056,0.1283760815858841,46.88835144042969,97.93907165527344,0.51409912109375
175382,0.0022735595703125,0.9318084716796876,0.16290283203125,0.0790343657135963,-0.2303802073001862,-0.1657503545284271,47.17947387695312,97.92074584960938,-0.1157073974609375
175383,0.022064208984375,0.66693115234375,0.1024169921875,-0.1854239255189896,-0.3629949688911438,-0.2421039789915085,47.39677429199219,97.89450073242188,-0.215118408203125
175384,-0.0037841796875,0.495330810546875,-0.0794219970703125,-0.0659473240375518,-0.5482015609741211,-0.2521302402019501,47.49693298339844,97.88414001464844,-0.327301025390625
175385,-0.0427093505859375,0.3461456298828125,-0.3461151123046875,0.297521710395813,-1.12171196937561,-0.2647786736488342,47.48739624023438,97.92489624023438,-0.2573394775390625
175386,-0.08447265625,0.244384765625,-0.3829345703125,0.7596350312232971,-1.82768988609314,-0.3198626935482025,47.52409362792969,97.9183349609375,-0.3329315185546875
175387,-0.08447265625,0.244384765625,-0.3829345703125,0.7596350312232971,-1.82768988609314,-0.3198626935482025,47.52409362792969,97.9183349609375,-0.3329315185546875
175388,-0.171966552734375,0.1226654052734375,-0.1054840087890625,1.40621030330658,-1.931792855262756,-0.6917057633399963,47.45384216308594,98.16827392578124,-1.031524658203125
175389,-0.180572509765625,-0.0135955810546875,-0.1097564697265625,1.462646722793579,-1.464171648025513,-0.8872851133346558,47.46617126464844,98.3791961669922,-1.572891235351562
175390,-0.1722412109375,-0.1864776611328125,-0.1778106689453125,1.304061770439148,-0.8926026225090027,-0.9609183073043824,47.28221130371094,98.5644989013672,-2.188919067382812
175391,-0.1722412109375,-0.1864776611328125,-0.1778106689453125,1.304061770439148,-0.8926026225090027,-0.9609183073043824,47.28221130371094,98.5644989013672,-2.188919067382812
175392,-0.06488037109375,-0.3505706787109375,-0.3314361572265625,0.6576838493347168,0.1347940266132355,-0.8401346206665039,46.65432739257812,98.67904663085938,-3.28094482421875
175393,0.0103759765625,-0.3276519775390625,-0.3180694580078125,0.5407540798187256,0.1325380653142929,-0.7091377377510071,46.38163757324219,98.81900024414062,-3.822982788085938
175394,0.0581817626953125,-0.27691650390625,-0.193389892578125,0.5978876352310181,0.0682118088006973,-0.5691971778869629,45.97987365722656,98.84483337402344,-4.1241455078125
175395,0.0581817626953125,-0.27691650390625,-0.193389892578125,0.5978876352310181,0.0682118088006973,-0.5691971778869629,45.97987365722656,98.84483337402344,-4.1241455078125
175396,0.0736541748046875,-0.1818084716796875,-0.0079803466796875,0.892727792263031,0.2209851145744324,-0.3899083435535431,45.31356811523438,98.93415832519533,-4.518829345703125
175397,0.0612640380859375,-0.1434173583984375,0.0224609375,0.9665487408638,0.3397162854671478,-0.3576489388942719,45.14111328125,99.01942443847656,-4.804824829101562
175398,0.0452880859375,-0.120391845703125,0.023651123046875,0.954146146774292,0.4225544333457947,-0.3527316749095917,45.05393981933594,99.08049011230467,-5.1314697265625
175399,0.0452880859375,-0.120391845703125,0.023651123046875,0.954146146774292,0.4225544333457947,-0.3527316749095917,45.05393981933594,99.08049011230467,-5.1314697265625
175400,0.0037078857421875,-0.1053466796875,-0.00054931640625,0.72408527135849,0.4568844437599182,-0.3646911382675171,44.76629638671875,99.23756408691406,-5.81866455078125
175401,-0.0165863037109375,-0.0993804931640625,0.010955810546875,0.5343685746192932,0.4548546075820923,-0.3875448107719421,44.54031372070312,99.25701904296876,-5.908370971679688
175402,-0.035369873046875,-0.0874786376953125,0.0358428955078125,0.3245141804218292,0.4988153874874115,-0.4226825535297394,44.50938415527344,99.35496520996094,-6.167861938476562
175403,-0.054351806640625,-0.0802764892578125,0.045440673828125,0.0913672000169754,0.5953634977340698,-0.4647501111030579,44.37681579589844,99.36929321289062,-6.393096923828125
175404,-0.0775604248046875,-0.07098388671875,0.0399932861328125,-0.1534806340932846,0.6916170716285706,-0.5244163870811462,44.24958801269531,99.40969848632812,-6.24224853515625
175405,-0.1036376953125,-0.056488037109375,0.0347137451171875,-0.4026989936828613,0.7819523215293884,-0.5989646315574646,44.20329284667969,99.39454650878906,-6.196090698242188
175406,-0.1363983154296875,-0.02447509765625,0.0219268798828125,-0.625904381275177,0.8717471361160278,-0.6955708265304565,43.90487670898438,99.27668762207033,-5.978805541992188
175407,-0.1363983154296875,-0.02447509765625,0.0219268798828125,-0.625904381275177,0.8717471361160278,-0.6955708265304565,43.90487670898438,99.27668762207033,-5.978805541992188
175408,-0.1717071533203125,0.1247711181640625,-0.10076904296875,-0.9387232661247252,0.8646442294120789,-0.902580201625824,43.47880554199219,99.23516845703124,-5.470932006835938
175409,-0.2270050048828125,0.2144775390625,-0.0407257080078125,-1.101920962333679,0.7573707699775696,-1.021393060684204,43.01651000976562,99.24986267089844,-4.970916748046875
175410,-0.3699951171875,0.3471221923828125,0.247344970703125,-1.306820869445801,1.252789855003357,-1.17013680934906,42.57316589355469,99.45059204101562,-4.573806762695312
175411,-0.3699951171875,0.3471221923828125,0.247344970703125,-1.306820869445801,1.252789855003357,-1.17013680934906,42.57316589355469,99.45059204101562,-4.573806762695312
175412,-0.5313873291015625,1.638961791992188,0.7305450439453125,-1.759169697761536,3.014290809631348,-1.76559054851532,40.89488220214844,99.389404296875,-3.866775512695312
175413,-0.4692840576171875,4.122528076171875,0.8019866943359375,-1.018735289573669,3.070460319519043,-1.602877497673035,39.84339904785156,99.092529296875,-3.893142700195312
175414,-0.3639068603515625,5.369979858398438,0.5672760009765625,-0.4352521300315857,0.5228903889656067,-0.0131110083311796,38.75462341308594,99.00009155273438,-4.466873168945312
175415,-0.3639068603515625,5.369979858398438,0.5672760009765625,-0.4352521300315857,0.5228903889656067,-0.0131110083311796,38.75462341308594,99.00009155273438,-4.466873168945312
175416,-0.358123779296875,6.050949096679688,1.478363037109375,0.8551865816116333,-2.813632488250732,0.2217326611280441,37.9837646484375,99.050048828125,-5.208389282226562
175417,-0.072845458984375,3.70654296875,1.222427368164062,0.1927689164876938,-2.481292009353638,-0.493732213973999,38.26531982421875,99.2407684326172,-5.102462768554688
175418,-0.03704833984375,2.118011474609375,0.755340576171875,-0.8483790159225464,-2.230937004089355,-1.072609186172485,38.46063232421875,99.3128662109375,-4.878814697265625
175419,-0.03704833984375,2.118011474609375,0.755340576171875,-0.8483790159225464,-2.230937004089355,-1.072609186172485,38.46063232421875,99.3128662109375,-4.878814697265625
175420,0.0370025634765625,1.035476684570312,0.405029296875,-2.262692451477051,-1.95994246006012,-1.426470279693604,38.43794250488281,98.14907836914062,-3.40838623046875
175421,0.1026153564453125,1.3338623046875,0.314910888671875,-2.320039749145508,-0.6517007946968079,-1.036121487617493,38.10993957519531,97.53669738769533,-2.182205200195312
175422,0.3319244384765625,1.84710693359375,-0.8328704833984375,-1.520509958267212,0.3917714953422546,-0.1627609580755234,37.64463806152344,96.9227294921875,-0.904052734375
175423,0.3319244384765625,1.84710693359375,-0.8328704833984375,-1.520509958267212,0.3917714953422546,-0.1627609580755234,37.64463806152344,96.9227294921875,-0.904052734375
175424,0.47314453125,2.246063232421875,-0.650909423828125,2.34003472328186,-3.086865663528442,0.8820381760597229,37.20895385742188,96.1525421142578,1.045272827148438
175425,0.47314453125,2.246063232421875,-0.650909423828125,2.34003472328186,-3.086865663528442,0.8820381760597229,37.20895385742188,96.1525421142578,1.045272827148438
175426,0.33734130859375,1.713729858398438,0.071502685546875,2.239111423492432,0.0995516255497932,0.8375612497329712,38.32911682128906,96.70906066894533,0.854034423828125
175427,0.33734130859375,1.713729858398438,0.071502685546875,2.239111423492432,0.0995516255497932,0.8375612497329712,38.32911682128906,96.70906066894533,0.854034423828125
175428,0.1817779541015625,1.302886962890625,0.0009765625,0.8902460336685181,-0.0364861041307449,0.7345640063285828,39.58432006835938,97.12742614746094,-0.9091949462890624
175429,0.144195556640625,1.06201171875,-0.043670654296875,0.5969550013542175,-0.2799634635448456,0.623149573802948,40.11740112304688,97.31036376953124,-1.584732055664062
175430,0.1261444091796875,0.8128662109375,-0.1749267578125,0.8231812119483948,-1.192333698272705,0.6319968700408936,40.64666748046875,97.3467254638672,-2.153457641601562
175431,0.1268463134765625,0.5702362060546875,-0.30841064453125,0.8231812119483948,-1.192333698272705,0.6319968700408936,41.07406616210938,97.56521606445312,-2.5054931640625
175432,0.1228790283203125,0.3814239501953125,-0.308258056640625,1.224066019058228,-1.722703576087952,0.6702420115470886,41.47163391113281,97.620361328125,-2.714736938476562
175433,0.110321044921875,0.2504119873046875,-0.166290283203125,1.589579105377197,-1.915482878684998,0.6697402596473694,41.92308044433594,97.69686889648438,-2.986358642578125
175434,0.08526611328125,0.1334228515625,-0.0441436767578125,1.759805679321289,-1.354613423347473,0.5167704224586487,42.45051574707031,98.06103515625,-3.308334350585938
175435,0.08526611328125,0.1334228515625,-0.0441436767578125,1.759805679321289,-1.354613423347473,0.5167704224586487,42.45051574707031,98.06103515625,-3.308334350585938
175436,0.03338623046875,-0.0958709716796875,-0.0989837646484375,1.648725509643555,-1.052587270736694,0.4437015354633331,43.39891052246094,98.34884643554688,-4.401611328125
175437,-0.011566162109375,-0.165374755859375,-0.1042633056640625,1.513691425323486,-0.8150529861450195,0.3561370670795441,43.72796630859375,98.62806701660156,-5.1776123046875
175438,-0.04248046875,-0.188751220703125,-0.0191497802734375,1.388262987136841,-0.4411550164222717,0.2746062576770782,44.01362609863281,98.82826232910156,-5.780807495117188
175439,-0.04248046875,-0.188751220703125,-0.0191497802734375,1.388262987136841,-0.4411550164222717,0.2746062576770782,44.01362609863281,98.82826232910156,-5.780807495117188
175440,-0.0970001220703125,-0.2061767578125,0.014739990234375,0.972606122493744,0.6053000092506409,0.1129065752029419,44.47737121582031,99.34873962402344,-6.7708740234375
175441,-0.130859375,-0.2290496826171875,-0.069549560546875,0.7169903516769409,0.8455097079277039,0.0425727590918541,44.59732055664062,99.55361938476562,-7.247573852539062
175442,-0.2061614990234375,-0.2559356689453125,-0.121337890625,0.5108699202537537,0.8899080753326416,-0.0692685544490814,44.82183837890625,99.7516632080078,-7.675094604492188
175443,-0.2061614990234375,-0.2559356689453125,-0.121337890625,0.5108699202537537,0.8899080753326416,-0.0692685544490814,44.82183837890625,99.7516632080078,-7.675094604492188
175444,-0.2778778076171875,-0.2812042236328125,-0.0414276123046875,0.3780831098556519,1.210230350494385,-0.5257410407066345,45.43838500976562,99.7163543701172,-7.4608154296875
175445,-0.1786651611328125,-0.3079986572265625,0.00347900390625,0.340522438287735,1.323310613632202,-0.7020867466926575,45.74626159667969,99.5244598388672,-7.31689453125
175446,-0.0914154052734375,-0.33673095703125,0.0475616455078125,0.2054040133953094,1.325980424880981,-0.7549752593040466,45.93020629882812,99.1760711669922,-7.114532470703125
175447,-0.0914154052734375,-0.33673095703125,0.0475616455078125,0.2054040133953094,1.325980424880981,-0.7549752593040466,45.93020629882812,99.1760711669922,-7.114532470703125
175448,-0.0141448974609375,-0.261871337890625,0.1430816650390625,-0.1219096630811691,1.570904731750488,-0.7497237920761108,45.5552978515625,97.80892944335938,-6.799957275390625
175449,0.0135345458984375,-0.2302093505859375,0.093780517578125,-0.2258072942495346,1.678923606872559,-0.733799159526825,44.97950744628906,97.1419677734375,-6.874130249023438
175450,0.032684326171875,-0.236328125,0.0554046630859375,-0.5202946066856384,1.623782515525818,-0.6694241762161255,43.97270202636719,96.74395751953124,-7.192214965820312
175451,0.032684326171875,-0.236328125,0.0554046630859375,-0.5202946066856384,1.623782515525818,-0.6694241762161255,43.97270202636719,96.74395751953124,-7.192214965820312
175452,0.037322998046875,-0.2758941650390625,0.014617919921875,-0.7437441945075989,1.492527842521667,-0.6145345568656921,41.81051635742188,96.20309448242188,-8.011016845703125
175453,0.037322998046875,-0.2758941650390625,0.014617919921875,-0.7437441945075989,1.492527842521667,-0.6145345568656921,41.81051635742188,96.20309448242188,-8.011016845703125
175454,0.071929931640625,-0.3029632568359375,0.025909423828125,-1.626184225082397,0.5934273600578308,-0.4669533371925354,39.96611022949219,96.32363891601562,-7.982070922851562
175455,0.1346435546875,-0.219268798828125,0.055938720703125,-1.626184225082397,0.5934273600578308,-0.4669533371925354,39.38453674316406,96.394287109375,-7.712066650390625
175456,0.111083984375,0.1150054931640625,0.164306640625,-2.109945058822632,0.2060016393661499,-0.4970494508743286,38.95826721191406,96.51844787597656,-7.166641235351562
175457,0.03082275390625,0.271453857421875,0.343048095703125,-2.595373153686523,0.0402182601392269,-0.5163456797599792,38.88821411132812,96.44325256347656,-6.401397705078125
175458,0.01947021484375,0.432861328125,0.789642333984375,-3.051217079162598,0.2944441437721252,-0.6107669472694397,38.96322631835938,96.15870666503906,-5.23956298828125
175459,0.01947021484375,0.432861328125,0.789642333984375,-3.051217079162598,0.2944441437721252,-0.6107669472694397,38.96322631835938,96.15870666503906,-5.23956298828125
175460,-0.02667236328125,0.8647613525390625,1.456649780273438,-2.980921030044556,0.31523197889328,-0.9465644359588624,39.33601379394531,95.97004699707033,-2.217742919921875
175461,-0.1091156005859375,1.81475830078125,1.77117919921875,-2.348972320556641,0.5399460792541504,-1.373841762542725,38.97000122070312,96.273681640625,-0.9724273681640624
175462,-0.1248321533203125,4.959091186523438,1.731842041015625,-1.916985392570496,-0.0287829115986824,2.164294004440308,38.06744384765625,96.34513854980467,-0.391021728515625
175463,-0.1248321533203125,4.959091186523438,1.731842041015625,-1.916985392570496,-0.0287829115986824,2.164294004440308,38.06744384765625,96.34513854980467,-0.391021728515625
175464,-0.37701416015625,8.1512451171875,2.486770629882812,-1.916985392570496,-0.0287829115986824,2.164294004440308,37.373046875,96.39735412597656,-1.025192260742188
175465,-1.0738525390625,7.090484619140625,-0.290252685546875,-1.342104315757751,2.193464756011963,-0.2376687526702881,37.84025573730469,96.73965454101562,-4.261474609375
175466,0.5562591552734375,2.7421875,-4.632415771484375,-0.8394765853881836,-4.282447338104248,-0.2947120666503906,38.28826904296875,96.98576354980467,-4.14752197265625
175467,0.5562591552734375,2.7421875,-4.632415771484375,-0.8394765853881836,-4.282447338104248,-0.2947120666503906,38.28826904296875,96.98576354980467,-4.14752197265625
175468,0.2757415771484375,0.5260009765625,1.068634033203125,-1.208760619163513,-0.7291865348815918,0.3707218766212463,37.53648376464844,97.32032775878906,-1.02099609375
175469,0.2757415771484375,0.5260009765625,1.068634033203125,-1.208760619163513,-0.7291865348815918,0.3707218766212463,37.53648376464844,97.32032775878906,-1.02099609375
175470,0.4385223388671875,0.7981109619140625,-0.0867919921875,1.358226537704468,2.958008527755737,1.049243092536926,38.31944274902344,97.3320770263672,2.498916625976562
175471,0.4176025390625,0.9322357177734376,-0.07745361328125,1.993823766708374,2.226069450378418,1.333304405212402,38.67446899414062,97.08355712890624,2.55133056640625
175472,0.330047607421875,1.0751953125,-0.0589141845703125,1.973342418670654,1.121161460876465,1.477289795875549,39.05447387695312,96.77116394042967,1.939910888671875
175473,0.17474365234375,1.192398071289062,0.0804901123046875,1.501009225845337,0.2331424355506897,1.219620704650879,39.68821716308594,96.75059509277344,1.126510620117188
175474,0.062591552734375,1.134109497070312,0.182586669921875,0.8227649927139282,-0.2415654808282852,0.7303754091262817,40.26614379882812,96.81088256835938,0.1805419921875
175475,-0.017852783203125,0.953643798828125,0.1716461181640625,0.2560871839523315,-0.4619236886501312,0.3606767058372498,40.93707275390625,96.95465087890624,-0.5349884033203125
175476,-0.068084716796875,0.8041229248046875,0.0723724365234375,0.0026466494891792,-0.6584636569023132,0.1205743476748466,41.46473693847656,97.14956665039062,-0.840362548828125
175477,-0.068084716796875,0.8041229248046875,0.0723724365234375,0.0026466494891792,-0.6584636569023132,0.1205743476748466,41.46473693847656,97.14956665039062,-0.840362548828125
175478,-0.1334228515625,0.50634765625,-0.1573486328125,0.2396983504295349,-1.482983589172363,-0.277236670255661,42.15321350097656,97.38565063476562,-1.148666381835938
175479,-0.1334228515625,0.50634765625,-0.1573486328125,0.2396983504295349,-1.482983589172363,-0.277236670255661,42.15321350097656,97.38565063476562,-1.148666381835938
175480,-0.160400390625,0.259185791015625,-0.08538818359375,0.8024056553840637,-1.980593204498291,-0.6108646988868713,42.3948974609375,97.4162139892578,-0.9127349853515624
175481,-0.1669921875,0.1267547607421875,-0.0966339111328125,1.027177453041077,-1.979615807533264,-0.7873872518539429,42.452392578125,97.48760986328124,-1.03204345703125
175482,-0.157745361328125,-0.02044677734375,-0.164703369140625,1.262533068656921,-2.028655052185059,-0.9785351157188416,42.55036926269531,97.64205932617188,-1.345504760742188
175483,-0.11920166015625,-0.1556396484375,-0.27294921875,1.262533068656921,-2.028655052185059,-0.9785351157188416,42.54391479492188,97.61407470703124,-1.676498413085938
175484,-0.0978546142578125,-0.2741851806640625,-0.324432373046875,1.26144003868103,-2.134052753448486,-0.8802988529205322,42.36418151855469,97.60118103027344,-1.9227294921875
175485,-0.1336822509765625,-0.391143798828125,-0.2324371337890625,1.118079423904419,-1.769330739974976,-0.6529127955436707,42.28973388671875,97.49465942382812,-2.215316772460938
175486,-0.158721923828125,-0.44903564453125,-0.05975341796875,0.8653299808502197,-0.3532326221466064,-0.4230996072292328,42.1424560546875,97.57188415527344,-2.547164916992188
175487,-0.0989990234375,-0.380157470703125,-0.053924560546875,0.783923327922821,0.8817702531814575,-0.2233934104442596,41.95048522949219,97.79695129394533,-3.015960693359375
175488,-0.0469207763671875,-0.2969512939453125,-0.1056976318359375,0.842282235622406,1.349867343902588,-0.0522637367248535,41.80531311035156,97.9330596923828,-3.180267333984375
175489,-0.0469207763671875,-0.2969512939453125,-0.1056976318359375,0.842282235622406,1.349867343902588,-0.0522637367248535,41.80531311035156,97.9330596923828,-3.180267333984375
175490,-0.0608978271484375,-0.1993255615234375,-0.033905029296875,0.8122883439064026,1.365161895751953,0.2300483733415604,41.57649230957031,98.22018432617188,-3.799652099609375
175491,-0.083343505859375,-0.1728057861328125,-0.020721435546875,0.8122883439064026,1.365161895751953,0.2300483733415604,41.45355224609375,98.2536163330078,-4.138076782226562
175492,-0.0957794189453125,-0.152099609375,-0.0359039306640625,0.6467446684837341,1.35661768913269,0.2470646500587463,41.51304626464844,98.33065795898438,-4.34613037109375
175493,-0.089874267578125,-0.130096435546875,-0.0573272705078125,0.4522276520729065,1.290275454521179,0.2195246368646622,41.57025146484375,98.52354431152344,-4.56097412109375
175494,-0.07110595703125,-0.1118316650390625,-0.0841217041015625,0.2806103527545929,1.152973532676697,0.1529410779476166,41.61605834960938,98.61917114257812,-4.820281982421875
175495,-0.0439910888671875,-0.097442626953125,-0.1125335693359375,0.1434519737958908,0.9443539977073668,0.069091185927391,41.736328125,98.74232482910156,-5.1107177734375
175496,-0.0179443359375,-0.084259033203125,-0.111297607421875,0.0538392625749111,0.7087622284889221,-0.0171406380832195,41.80545043945312,98.65048217773438,-5.138595581054688
175497,0.0030059814453125,-0.06805419921875,-0.085205078125,-0.0067748152650892,0.5084757208824158,-0.103826530277729,41.9825439453125,98.5272979736328,-5.03753662109375
175498,0.0215301513671875,-0.054718017578125,-0.0559234619140625,-0.0557444877922534,0.3561330735683441,-0.1822811216115952,41.93246459960938,98.576416015625,-4.961013793945312
175499,0.0215301513671875,-0.054718017578125,-0.0559234619140625,-0.0557444877922534,0.3561330735683441,-0.1822811216115952,41.93246459960938,98.576416015625,-4.961013793945312
175500,0.055694580078125,-0.00677490234375,-0.0182037353515625,-0.1680731624364853,0.1433513015508652,-0.2950358986854553,41.71360778808594,98.61021423339844,-4.759033203125
175501,0.055694580078125,-0.00677490234375,-0.0182037353515625,-0.1680731624364853,0.1433513015508652,-0.2950358986854553,41.71360778808594,98.61021423339844,-4.759033203125
175502,0.053985595703125,0.0435638427734375,0.0156707763671875,-0.3674392700195312,0.0326607413589954,-0.4100458323955536,41.56376647949219,98.658935546875,-4.644989013671875
175503,0.0370941162109375,0.0926513671875,0.071075439453125,-0.3674392700195312,0.0326607413589954,-0.4100458323955536,41.26870727539062,98.74188232421876,-4.638763427734375
175504,-0.0011749267578125,0.5077972412109375,0.4752655029296875,-1.099596619606018,0.0769413858652114,-0.7388503551483154,40.59619140625,98.7939910888672,-4.32244873046875
175505,-0.0011749267578125,0.5077972412109375,0.4752655029296875,-1.099596619606018,0.0769413858652114,-0.7388503551483154,40.59619140625,98.7939910888672,-4.32244873046875
175506,-0.08746337890625,3.799942016601562,0.9412841796875,-2.120873212814331,1.00316596031189,-2.139280557632446,39.45602416992188,99.09300231933594,-4.232040405273438
175507,-0.04302978515625,6.123062133789062,0.618133544921875,-2.120873212814331,1.00316596031189,-2.139280557632446,38.60237121582031,99.09901428222656,-4.02215576171875
175508,-0.632568359375,7.837631225585938,0.7036285400390625,-1.585361123085022,-1.226346731185913,-1.269595980644226,37.44801330566406,99.17091369628906,-4.016799926757812
175509,-0.632568359375,7.837631225585938,0.7036285400390625,-1.585361123085022,-1.226346731185913,-1.269595980644226,37.44801330566406,99.17091369628906,-4.016799926757812
175510,-0.47393798828125,3.782196044921875,0.9012908935546876,-0.0781693682074546,-3.113284587860107,-1.158880949020386,35.79316711425781,98.7066650390625,-3.41534423828125
175511,-0.2138519287109375,2.190353393554688,0.6063690185546875,-0.3065522015094757,-2.985185623168945,-0.9006858468055725,35.75314331054688,97.99082946777344,-2.7242431640625
175512,-0.109527587890625,1.480133056640625,0.3786773681640625,-0.3262835741043091,-1.774712204933167,-0.7815863490104675,35.79855346679688,97.38468933105467,-1.966110229492188
175513,0.142913818359375,1.177230834960938,-0.32861328125,0.1615958213806152,-0.4753545522689819,-0.341869980096817,35.64512634277344,96.95265197753906,-1.267257690429688
175514,0.479644775390625,1.270645141601562,-1.491561889648438,1.472353577613831,-0.7049480676651001,0.69285649061203,35.30720520019531,96.869384765625,-0.7166290283203125
175515,0.6600189208984375,1.830581665039062,-1.644393920898438,2.233497858047485,-1.230530619621277,1.279962062835693,35.00144958496094,96.95687866210938,-0.4863739013671875
175516,0.6888427734375,2.04962158203125,-0.74993896484375,1.359240412712097,-0.4138341844081879,1.311023354530334,34.91728210449219,97.1799774169922,-0.76165771484375
175517,0.5448150634765625,2.012115478515625,-0.0911712646484375,0.5601863265037537,0.186810627579689,1.533715486526489,35.41986083984375,97.50582885742188,-1.211578369140625
175518,0.38751220703125,1.99969482421875,0.202362060546875,0.0083306338638067,0.821524977684021,1.612733364105225,36.1136474609375,97.7698211669922,-1.888534545898438
175519,0.38751220703125,1.99969482421875,0.202362060546875,0.0083306338638067,0.821524977684021,1.612733364105225,36.1136474609375,97.7698211669922,-1.888534545898438
175520,0.150787353515625,1.708587646484375,0.0743408203125,-0.3299267888069153,1.144200563430786,0.8768846392631531,37.90071105957031,97.70304870605467,-2.094985961914062
175521,-0.04449462890625,1.455825805664062,-0.020233154296875,0.0307227578014135,0.6177170276641846,0.3848035931587219,38.64613342285156,97.64056396484376,-1.952362060546875
175522,-0.1862030029296875,1.244735717773438,-0.2094268798828125,1.023067474365234,-1.134493350982666,-0.3061785697937012,39.26762390136719,97.54104614257812,-1.675094604492188
175523,-0.1862030029296875,1.244735717773438,-0.2094268798828125,1.023067474365234,-1.134493350982666,-0.3061785697937012,39.26762390136719,97.54104614257812,-1.675094604492188
175524,-0.2723236083984375,0.8508758544921875,-0.0386505126953125,1.32903265953064,-1.138702750205994,-0.4987541437149048,39.93940734863281,97.42538452148438,-1.768020629882812
175525,-0.2788238525390625,0.6305694580078125,-0.017791748046875,1.32903265953064,-1.138702750205994,-0.4987541437149048,40.08543395996094,97.51133728027344,-2.041091918945312
175526,-0.3531494140625,0.3521728515625,-0.167388916015625,1.221071362495422,-0.8646735548973083,-0.408966988325119,40.10006713867188,97.65109252929688,-2.61309814453125
175527,-0.3531494140625,0.3521728515625,-0.167388916015625,1.221071362495422,-0.8646735548973083,-0.408966988325119,40.10006713867188,97.65109252929688,-2.61309814453125
175528,-0.32830810546875,-0.2071533203125,-0.45611572265625,0.7592940926551819,-0.158699095249176,0.5901735424995422,39.94027709960938,97.91690063476562,-3.627593994140625
175529,-0.01995849609375,-0.1734771728515625,-0.5088348388671875,0.7145671248435974,-0.1531967371702194,0.9532920718193054,40.02383422851562,97.93185424804688,-4.023849487304688
175530,0.1214447021484375,-0.1093292236328125,-0.3715972900390625,0.9172672629356384,-0.2307455986738205,1.056466460227966,40.48391723632812,98.1702117919922,-5.115066528320312
175531,0.1214447021484375,-0.1093292236328125,-0.3715972900390625,0.9172672629356384,-0.2307455986738205,1.056466460227966,40.48391723632812,98.1702117919922,-5.115066528320312
175532,0.157562255859375,-0.1428680419921875,-0.17889404296875,1.373890399932861,0.1556013077497482,0.9491742849349976,41.20195007324219,98.50387573242188,-5.861434936523438
175533,0.157562255859375,-0.1428680419921875,-0.17889404296875,1.373890399932861,0.1556013077497482,0.9491742849349976,41.20195007324219,98.50387573242188,-5.861434936523438
175534,0.084991455078125,-0.1074066162109375,-0.008880615234375,1.184981465339661,0.6501505970954895,0.6849943399429321,41.84864807128906,99.16082763671876,-7.039505004882812
175535,0.04376220703125,-0.0495147705078125,0.198638916015625,0.9351604580879213,1.116591811180115,0.4979256391525269,42.1236572265625,99.35809326171876,-7.764114379882812
175536,0.025604248046875,-0.0374755859375,0.281219482421875,0.6409256458282471,1.692046523094177,0.3495353758335114,42.35430908203125,99.4495849609375,-8.25640869140625
175537,0.0187225341796875,-0.0653076171875,0.19439697265625,0.3438335359096527,2.043269157409668,0.2796896994113922,42.562255859375,99.60954284667967,-8.628433227539062
175538,0.026947021484375,-0.0972137451171875,0.09783935546875,0.0686429738998413,2.061348915100098,0.2659520506858826,42.69700622558594,99.63299560546876,-9.045211791992188
175539,0.026947021484375,-0.0972137451171875,0.09783935546875,0.0686429738998413,2.061348915100098,0.2659520506858826,42.69700622558594,99.63299560546876,-9.045211791992188
175540,0.0224761962890625,-0.107666015625,0.07513427734375,-0.199368491768837,1.587366223335266,0.2261633574962616,43.09056091308594,99.49575805664062,-9.440948486328123
175541,0.0087432861328125,-0.0938873291015625,0.0951080322265625,-0.2431751042604446,1.343248963356018,0.1671024411916733,43.28460693359375,99.38836669921876,-9.436721801757812
175542,0.002899169921875,-0.089752197265625,0.0660247802734375,-0.2956470847129822,0.7375725507736206,0.0304945260286331,43.35235595703125,99.2887725830078,-9.42108154296875
175543,0.002899169921875,-0.089752197265625,0.0660247802734375,-0.2956470847129822,0.7375725507736206,0.0304945260286331,43.35235595703125,99.2887725830078,-9.42108154296875
175544,-0.0037384033203125,-0.0972747802734375,0.03857421875,-0.5831238627433777,0.0735162943601608,-0.0921680107712745,43.69337463378906,98.95657348632812,-8.816513061523438
175545,-0.004913330078125,-0.1054229736328125,0.0370025634765625,-0.5831238627433777,0.0735162943601608,-0.0921680107712745,43.68832397460938,98.8123016357422,-8.519393920898438
175546,-0.0084228515625,-0.1044769287109375,0.0430755615234375,-0.8028876781463623,-0.184082493185997,-0.1530513316392899,43.7545166015625,98.80406188964844,-8.064422607421875
175547,-0.015167236328125,-0.101593017578125,0.0565338134765625,-1.048842072486877,-0.3389908373355865,-0.2156289666891098,43.75485229492188,98.60383605957033,-7.432937622070312
175548,-0.020416259765625,-0.097625732421875,0.0634613037109375,-1.298809289932251,-0.3796360194683075,-0.2924169600009918,43.81524658203125,98.48199462890624,-6.596420288085938
175549,-0.0233306884765625,-0.08575439453125,0.05841064453125,-1.527967572212219,-0.2893455326557159,-0.3802469372749329,43.76507568359375,98.39466857910156,-5.754425048828125
175550,-0.0198974609375,-0.08343505859375,-0.096099853515625,-1.576488852500916,-0.8417458534240723,-0.5466633439064026,43.68254089355469,98.0998077392578,-4.739852905273438
175551,-0.0107421875,-0.0626678466796875,-0.676177978515625,-1.576488852500916,-0.8417458534240723,-0.5466633439064026,43.60060119628906,97.86753845214844,-3.936767578125
175552,0.0261383056640625,0.1036834716796875,-0.7279815673828125,-1.376394391059875,-2.085396528244019,-0.6474125981330872,43.44642639160156,97.68939208984376,-2.877059936523438
175553,0.0152435302734375,0.1291656494140625,-0.20025634765625,-1.236536026000977,-2.29831600189209,-0.6871850490570068,43.31333923339844,97.61880493164062,-1.99176025390625
175554,-0.0232391357421875,0.147125244140625,0.1764678955078125,-1.164682626724243,-1.161377668380737,-0.6399211287498474,43.23420715332031,97.5301513671875,-1.187545776367188
175555,-0.0232391357421875,0.147125244140625,0.1764678955078125,-1.164682626724243,-1.161377668380737,-0.6399211287498474,43.23420715332031,97.5301513671875,-1.187545776367188
175556,0.0149688720703125,0.1286468505859375,0.25408935546875,-1.219667792320251,1.263531446456909,-0.5884931087493896,42.46881103515625,97.7478485107422,-0.1290435791015625
175557,0.0375518798828125,0.1956024169921875,0.4050750732421875,-1.384265065193176,1.81717836856842,-0.6705930233001709,41.78244018554688,97.9187469482422,0.067169189453125
175558,0.069091796875,0.673736572265625,0.6437530517578125,-1.808668851852417,2.351672649383545,-0.8064432740211487,40.97984313964844,97.8249053955078,-0.0916595458984375
175559,0.1566925048828125,3.074020385742188,0.859375,-2.054312705993652,2.766193151473999,-0.4105691611766815,40.05897521972656,97.7747802734375,-0.49786376953125
175560,0.054412841796875,5.346160888671875,1.017822265625,-2.211838960647583,1.745836615562439,1.098219752311707,39.25788879394531,97.67909240722656,-0.9173431396484376
175561,0.054412841796875,5.346160888671875,1.017822265625,-2.211838960647583,1.745836615562439,1.098219752311707,39.25788879394531,97.67909240722656,-0.9173431396484376
175562,-0.6551666259765625,7.546905517578125,1.613754272460938,-0.4791551530361176,-1.743409633636475,0.5968191623687744,39.39994812011719,97.41398620605467,-0.703521728515625
175563,-0.6551666259765625,7.546905517578125,1.613754272460938,-0.4791551530361176,-1.743409633636475,0.5968191623687744,39.39994812011719,97.41398620605467,-0.703521728515625
175564,-0.01507568359375,3.13531494140625,0.9994659423828124,-0.6561120748519897,-1.033670544624329,-0.6119943857192993,40.35060119628906,97.23757934570312,0.4482879638671875
175565,-0.0302886962890625,1.987777709960938,0.7139129638671875,-1.070137500762939,0.0014777880860492,-0.5293991565704346,40.20597839355469,97.16828918457033,0.750213623046875
175566,0.09906005859375,1.489120483398438,0.304595947265625,-1.147281527519226,0.926714301109314,-0.361409604549408,39.85250854492188,97.1002960205078,1.27880859375
175567,0.278778076171875,1.50244140625,-0.350067138671875,-0.914318859577179,1.207705736160278,0.0882574245333671,39.44680786132812,96.89268493652344,1.989654541015625
175568,0.4313201904296875,1.993896484375,-1.712875366210938,-0.4710460901260376,-0.8807225227355957,0.4695144891738892,39.10160827636719,96.7274169921875,2.365814208984375
175569,0.369659423828125,2.186111450195312,-0.7327880859375,0.2566759884357452,-2.083261013031006,0.5444334745407104,39.06922912597656,96.4847412109375,2.742568969726562
175570,0.32940673828125,1.915267944335938,0.3162078857421875,0.8378493785858154,-0.5343384742736816,0.652591347694397,39.38677978515625,96.50848388671876,2.930557250976562
175571,0.32940673828125,1.915267944335938,0.3162078857421875,0.8378493785858154,-0.5343384742736816,0.652591347694397,39.38677978515625,96.50848388671876,2.930557250976562
175572,0.23138427734375,1.563705444335938,0.0464019775390625,0.8650599718093872,1.043478488922119,0.94368577003479,40.38516235351562,96.43392944335938,2.73944091796875
175573,0.23138427734375,1.563705444335938,0.0464019775390625,0.8650599718093872,1.043478488922119,0.94368577003479,40.38516235351562,96.43392944335938,2.73944091796875
175574,0.0728912353515625,1.042282104492188,0.1521148681640625,0.8649643659591675,-0.0386885404586792,0.6929540038108826,41.87315368652344,96.2963409423828,1.5323486328125
175575,0.0728912353515625,1.042282104492188,0.1521148681640625,0.8649643659591675,-0.0386885404586792,0.6929540038108826,41.87315368652344,96.2963409423828,1.5323486328125
175576,0.0723419189453125,0.8446197509765625,0.188995361328125,0.9663546085357666,-0.0475206486880779,0.6805825233459473,42.36189270019531,96.49465942382812,1.268966674804688
175577,0.0723419189453125,0.8446197509765625,0.188995361328125,0.9663546085357666,-0.0475206486880779,0.6805825233459473,42.36189270019531,96.49465942382812,1.268966674804688
175578,0.0610198974609375,0.6468048095703125,0.1565704345703125,1.010890126228333,0.0217263344675302,0.6914951205253601,42.72206115722656,96.64817810058594,0.8954925537109375
175579,-0.0025634765625,0.2708587646484375,-0.05352783203125,0.9946177005767822,-0.1749667525291443,0.6907992362976074,43.31272888183594,97.02651977539062,0.0996246337890625
175580,-0.0490570068359375,0.1295318603515625,-0.1551361083984375,0.983869731426239,-0.5547002553939819,0.6136759519577026,43.74003601074219,97.21379089355467,-0.28662109375
175581,-0.090576171875,0.0193939208984375,-0.217529296875,0.9737174510955812,-1.037816047668457,0.4798930883407593,44.04399108886719,97.31013488769533,-0.5746917724609375
175582,-0.10430908203125,-0.0856170654296875,-0.3184661865234375,0.9628099799156188,-1.587713241577148,0.3419314920902252,44.37612915039062,97.64959716796876,-1.0382080078125
175583,-0.10430908203125,-0.0856170654296875,-0.3184661865234375,0.9628099799156188,-1.587713241577148,0.3419314920902252,44.37612915039062,97.64959716796876,-1.0382080078125
175584,-0.04473876953125,-0.2561492919921875,-0.3787078857421875,0.944417119026184,-2.489483118057251,0.2428115755319595,44.95982360839844,97.87109375,-1.5745849609375
175585,0.0507049560546875,-0.278778076171875,-0.2157745361328125,0.8226667046546936,-2.003056049346924,0.143907904624939,45.33671569824219,98.13540649414062,-1.986526489257812
175586,0.1735382080078125,-0.24652099609375,0.0394287109375,0.537360668182373,-0.1756099015474319,-0.0894590392708778,45.60498046875,98.38034057617188,-2.242599487304688
175587,0.2279052734375,-0.1370391845703125,0.1187896728515625,0.4343258738517761,1.168568730354309,-0.2568301856517792,45.68719482421875,98.51861572265624,-2.548248291015625
175588,0.214569091796875,-0.0596466064453125,0.1073150634765625,0.4271380007266998,1.717414259910583,-0.350608617067337,45.58683776855469,98.59249877929688,-2.707901000976562
175589,0.20037841796875,-0.0070037841796875,0.010711669921875,0.3866632878780365,1.605117321014404,-0.4064138233661652,45.39105224609375,98.63333129882812,-2.8304443359375
175590,0.164276123046875,0.0460357666015625,-0.026885986328125,0.3097186982631683,1.129373669624329,-0.4245994985103607,45.19300842285156,98.5389404296875,-3.011810302734375
175591,0.164276123046875,0.0460357666015625,-0.026885986328125,0.3097186982631683,1.129373669624329,-0.4245994985103607,45.19300842285156,98.5389404296875,-3.011810302734375
175592,-0.0686492919921875,0.0862884521484375,0.1312103271484375,0.1322610974311829,0.611485481262207,-0.4390889406204224,44.79598999023438,98.37994384765624,-3.1357421875
175593,-0.0686492919921875,0.0862884521484375,0.1312103271484375,0.1322610974311829,0.611485481262207,-0.4390889406204224,44.79598999023438,98.37994384765624,-3.1357421875
175594,-0.1048583984375,0.0545196533203125,0.0888214111328125,-0.0813366696238517,0.7081731557846069,-0.5818423628807068,44.35734558105469,98.39601135253906,-3.48486328125
175595,-0.1235198974609375,0.047027587890625,0.092315673828125,-0.1802030652761459,0.7956084609031677,-0.6535980701446533,44.07919311523438,98.45867919921876,-3.555252075195312
175596,-0.1419830322265625,0.038360595703125,0.108123779296875,-0.249840721487999,0.9313854575157166,-0.72177654504776,43.76004028320312,98.47698974609376,-3.743179321289062
175597,-0.1570281982421875,0.0194854736328125,0.1117401123046875,-0.2934489250183105,1.10489284992218,-0.7695020437240601,43.42420959472656,98.42057800292967,-3.921218872070312
175598,-0.1689605712890625,-0.0109100341796875,0.0828704833984375,-0.3117254078388214,1.226382255554199,-0.786845326423645,43.02900695800781,98.42547607421876,-3.955886840820312
175599,-0.16131591796875,-0.0552825927734375,0.033782958984375,-0.3095743656158447,1.212459683418274,-0.7920576333999634,42.57810974121094,98.34300231933594,-3.950973510742188
175600,-0.13519287109375,-0.089263916015625,-0.0151824951171875,-0.2819797694683075,1.070605874061584,-0.775569498538971,42.14022827148438,98.34207153320312,-3.85601806640625
175601,-0.095550537109375,-0.09674072265625,-0.0562286376953125,-0.2466334849596024,0.8476458191871643,-0.7609362006187439,41.75804138183594,98.20838928222656,-3.813323974609375
175602,-0.04608154296875,-0.0895538330078125,-0.127044677734375,-0.2334588319063187,0.079617328941822,-0.6888068914413452,41.28781127929688,98.1181182861328,-3.69976806640625
175603,-0.04608154296875,-0.0895538330078125,-0.127044677734375,-0.2334588319063187,0.079617328941822,-0.6888068914413452,41.28781127929688,98.1181182861328,-3.69976806640625
175604,0.11590576171875,0.0068359375,-0.6151885986328125,-0.2559193968772888,-0.9578543305397034,-0.6148330569267273,40.36305236816406,98.1478271484375,-3.501815795898438
175605,0.10400390625,0.1171875,-0.5736541748046875,-0.341687023639679,-2.209002017974854,-0.5950253009796143,39.91265869140625,98.29295349121094,-3.459564208984375
175606,0.05389404296875,0.1923828125,-0.1095733642578125,-0.8248670101165771,-1.895194888114929,-0.5881916284561157,39.4974365234375,98.2876434326172,-3.257614135742188
175607,0.0168914794921875,0.723724365234375,0.4007415771484375,-0.8248670101165771,-1.895194888114929,-0.5881916284561157,39.05874633789062,98.39230346679688,-2.929153442382812
175608,-0.0074615478515625,1.900405883789062,0.80413818359375,-1.079890727996826,-0.0752438902854919,-0.7536253333091736,38.66188049316406,98.60079956054688,-2.553298950195312
175609,-0.0074615478515625,1.900405883789062,0.80413818359375,-1.079890727996826,-0.0752438902854919,-0.7536253333091736,38.66188049316406,98.60079956054688,-2.553298950195312
175610,0.00274658203125,4.043350219726562,0.642578125,-1.495532155036926,2.863066434860229,-1.831890225410461,37.58125305175781,98.4175262451172,-1.701065063476562
175611,0.00274658203125,4.043350219726562,0.642578125,-1.495532155036926,2.863066434860229,-1.831890225410461,37.58125305175781,98.4175262451172,-1.701065063476562
175612,-0.3155517578125,6.159210205078125,0.79150390625,-0.5039238929748535,-0.920738160610199,-2.270271778106689,35.6966552734375,97.62353515625,-0.9999542236328124
175613,-0.647674560546875,5.49932861328125,1.514877319335938,0.0118382833898067,-1.242715120315552,-1.572470664978027,34.70280456542969,97.26449584960938,-0.85986328125
175614,-0.7151641845703125,3.739334106445312,1.247055053710938,0.1878239661455154,-0.5433812737464905,-0.7893982529640198,33.974365234375,96.79208374023438,-0.851531982421875
175615,-0.7151641845703125,3.739334106445312,1.247055053710938,0.1878239661455154,-0.5433812737464905,-0.7893982529640198,33.974365234375,96.79208374023438,-0.851531982421875
175616,-0.597076416015625,1.839950561523438,0.142974853515625,0.5244587063789368,0.3938298523426056,-0.5678759813308716,33.39149475097656,96.16403198242188,-0.745635986328125
175617,-0.597076416015625,1.839950561523438,0.142974853515625,0.5244587063789368,0.3938298523426056,-0.5678759813308716,33.39149475097656,96.16403198242188,-0.745635986328125
175618,-0.318206787109375,2.022430419921875,-1.028518676757812,0.8598239421844482,-0.2907362282276154,0.3130015730857849,32.89019775390625,96.01332092285156,-0.9725341796875
175619,-0.318206787109375,2.022430419921875,-1.028518676757812,0.8598239421844482,-0.2907362282276154,0.3130015730857849,32.89019775390625,96.01332092285156,-0.9725341796875
175620,0.176300048828125,2.1641845703125,-0.2469482421875,1.005112648010254,-1.690122723579407,1.03847599029541,32.93940734863281,96.04005432128906,-1.686004638671875
175621,0.287994384765625,1.903915405273438,0.0619964599609375,0.9256604313850404,-1.708907842636108,1.389417767524719,33.48995971679688,96.07536315917967,-1.811126708984375
175622,0.3143310546875,1.68243408203125,0.2529144287109375,0.8123541474342346,-1.259891748428345,1.630101203918457,34.17530822753906,96.04801940917967,-1.797531127929688
175623,0.3143310546875,1.68243408203125,0.2529144287109375,0.8123541474342346,-1.259891748428345,1.630101203918457,34.17530822753906,96.04801940917967,-1.797531127929688
175624,0.33197021484375,1.319915771484375,0.2548828125,0.657959520816803,-0.3309555649757385,1.690887570381165,35.93359375,96.2493896484375,-1.726516723632812
175625,0.2128753662109375,0.8385467529296875,0.00628662109375,0.962126076221466,-0.8005765676498413,1.120734930038452,37.84698486328125,96.74017333984376,-1.755142211914062
175626,0.2128753662109375,0.8385467529296875,0.00628662109375,0.962126076221466,-0.8005765676498413,1.120734930038452,37.84698486328125,96.74017333984376,-1.755142211914062
175627,0.2128753662109375,0.8385467529296875,0.00628662109375,0.962126076221466,-0.8005765676498413,1.120734930038452,37.84698486328125,96.74017333984376,-1.755142211914062
175628,0.1000823974609375,0.406585693359375,-0.0912322998046875,1.186661720275879,-1.156908273696899,0.9023972153663636,39.482421875,97.0464324951172,-1.708633422851562
175629,0.0559539794921875,0.2396087646484375,-0.0221099853515625,1.335983514785767,-1.316801071166992,0.7281676530838013,40.12704467773438,97.20484924316406,-1.77825927734375
175630,0.0205078125,0.103546142578125,0.0008697509765625,1.382040500640869,-1.27376115322113,0.5774127244949341,40.69076538085938,97.40261840820312,-2.302597045898438
175631,0.0205078125,0.103546142578125,0.0008697509765625,1.382040500640869,-1.27376115322113,0.5774127244949341,40.69076538085938,97.40261840820312,-2.302597045898438
175632,-0.0080718994140625,-0.1502227783203125,-0.297943115234375,1.299006819725037,-1.475291132926941,0.4362193942070007,41.757080078125,98.07160949707033,-3.540054321289062
175633,-0.021728515625,-0.1862640380859375,-0.2867889404296875,0.8750385642051697,-0.9201312065124512,0.3927249014377594,42.09185791015625,98.36122131347656,-4.105987548828125
175634,-0.021728515625,-0.1862640380859375,-0.2867889404296875,0.8750385642051697,-0.9201312065124512,0.3927249014377594,42.09185791015625,98.36122131347656,-4.105987548828125
175635,-0.1097564697265625,-0.311126708984375,-0.08099365234375,0.5200636982917786,0.2167166024446487,0.3159672915935516,42.77064514160156,98.74594116210938,-4.843673706054688
175636,-0.1097564697265625,-0.311126708984375,-0.08099365234375,0.5200636982917786,0.2167166024446487,0.3159672915935516,42.77064514160156,98.74594116210938,-4.843673706054688
175637,-0.13470458984375,-0.1973114013671875,0.2806396484375,0.3845948278903961,0.552905261516571,0.251870334148407,43.4329833984375,99.18235778808594,-5.180221557617188
175638,-0.1869964599609375,-0.16534423828125,0.44287109375,0.331072211265564,1.186301350593567,0.09586101770401,43.72090148925781,99.37603759765624,-5.321456909179688
175639,-0.225494384765625,-0.16363525390625,0.39892578125,0.2856951355934143,1.838764071464539,-0.1217061951756477,44.10176086425781,99.35406494140624,-5.273452758789062
175640,-0.2295989990234375,-0.188323974609375,0.2076873779296875,0.2654420435428619,2.180472373962402,-0.3420819640159607,44.41566467285156,99.36822509765624,-5.105865478515625
175641,-0.2195587158203125,-0.2519378662109375,-0.0025177001953125,0.2883045077323914,2.05173921585083,-0.5034194588661194,44.68011474609375,99.24710083007812,-4.761367797851562
175642,-0.19024658203125,-0.3178558349609375,-0.048828125,0.2722152769565582,1.435558319091797,-0.4474222362041473,44.76597595214844,99.11610412597656,-4.597610473632812
175643,-0.1315460205078125,-0.31866455078125,0.010650634765625,0.2722152769565582,1.435558319091797,-0.4474222362041473,44.51126098632812,98.65130615234376,-4.5426025390625
175644,-0.0712127685546875,-0.283477783203125,0.020263671875,0.1848694533109665,1.13745105266571,-0.3996731042861938,44.23350524902344,98.40681457519533,-4.545089721679688
175645,-0.0712127685546875,-0.283477783203125,0.020263671875,0.1848694533109665,1.13745105266571,-0.3996731042861938,44.23350524902344,98.40681457519533,-4.545089721679688
175646,0.0083770751953125,-0.20880126953125,-0.0322723388671875,-0.1686334908008575,0.2705441415309906,-0.3892497420310974,43.54850769042969,97.8638153076172,-4.958602905273438
175647,0.0313720703125,-0.19134521484375,-0.0343780517578125,-0.4284783899784088,-0.2714608013629913,-0.4144813418388367,43.1920166015625,97.50823974609376,-4.941055297851562
175648,0.04473876953125,-0.185211181640625,0.005279541015625,-0.6576692461967468,-0.7051674723625183,-0.4537464678287506,42.96292114257812,97.22406005859376,-4.923324584960938
175649,0.0521087646484375,-0.180450439453125,0.0438385009765625,-0.8555282354354858,-0.9623047709465028,-0.4990622699260712,42.70646667480469,96.79197692871094,-4.705612182617188
175650,0.05438232421875,-0.174163818359375,0.080169677734375,-1.182313799858093,-0.7749452590942383,-0.5831952691078186,42.44670104980469,96.4609375,-4.45782470703125
175651,0.05438232421875,-0.174163818359375,0.080169677734375,-1.182313799858093,-0.7749452590942383,-0.5831952691078186,42.44670104980469,96.4609375,-4.45782470703125
175652,0.070037841796875,-0.204071044921875,-0.2397613525390625,-1.261156439781189,-0.6673146486282349,-0.5819856524467468,41.893310546875,96.0081024169922,-3.385238647460938
175653,0.0947265625,-0.2004547119140625,-0.6785736083984375,-1.153454780578613,-1.708910465240479,-0.505843997001648,41.73554992675781,95.77395629882812,-2.64569091796875
175654,0.07232666015625,0.0470123291015625,-0.509735107421875,-1.153454780578613,-1.708910465240479,-0.505843997001648,41.5623779296875,95.6627197265625,-1.976181030273438
175655,7.62939453125e-05,0.2182464599609375,-0.266326904296875,-1.363313674926758,-0.5840754508972168,-0.4802912473678589,41.45716857910156,95.40164184570312,-0.9923858642578124
175656,-0.02935791015625,0.26068115234375,-0.380340576171875,-1.295351982116699,0.6535988450050354,-0.3900383114814758,41.56411743164062,95.25717163085938,-0.174285888671875
175657,-0.02935791015625,0.26068115234375,-0.380340576171875,-1.295351982116699,0.6535988450050354,-0.3900383114814758,41.56411743164062,95.25717163085938,-0.174285888671875
175658,0.0479736328125,0.236480712890625,-0.2256927490234375,-0.8186836838722229,0.5334828495979309,-0.5284180045127869,41.42344665527344,95.07826232910156,1.238128662109375
175659,0.044219970703125,0.26324462890625,-0.064483642578125,-0.8186836838722229,0.5334828495979309,-0.5284180045127869,41.11721801757812,95.12721252441406,1.849716186523438
175660,0.04571533203125,0.287017822265625,0.2537384033203125,-0.9912362694740297,0.6040526032447815,-0.6630170941352844,40.71061706542969,95.39569091796876,2.356277465820312
175661,0.04833984375,0.3215484619140625,0.6009521484375,-1.621658205986023,1.339186310768127,-1.0085289478302,40.15280151367188,95.92526245117188,2.566848754882812
175662,0.0330657958984375,0.5959930419921875,0.8342742919921875,-1.621658205986023,1.339186310768127,-1.0085289478302,39.2587890625,96.46533203125,2.385543823242188
175663,0.0330657958984375,0.5959930419921875,0.8342742919921875,-1.621658205986023,1.339186310768127,-1.0085289478302,39.2587890625,96.46533203125,2.385543823242188
175664,0.2934722900390625,7.522262573242188,1.251419067382812,-2.779680252075195,1.054991602897644,0.895193338394165,36.73092651367188,96.94172668457033,1.065597534179688
175665,0.2934722900390625,7.522262573242188,1.251419067382812,-2.779680252075195,1.054991602897644,0.895193338394165,36.73092651367188,96.94172668457033,1.065597534179688
175666,-0.703277587890625,8.122283935546875,1.5157470703125,-2.916375637054443,0.0838576182723045,3.676134586334229,35.65963745117188,97.11026000976562,-0.064422607421875
175667,-0.8446044921875,5.4775390625,0.5705413818359375,0.2955320477485657,0.7674865126609802,-1.809492468833923,36.33364868164062,97.5865478515625,-1.401275634765625
175668,0.017852783203125,2.0931396484375,-0.0084075927734375,0.7882347106933594,-0.4667171239852905,-1.24319052696228,37.23699951171875,97.17373657226562,-0.64129638671875
175669,0.017852783203125,2.0931396484375,-0.0084075927734375,0.7882347106933594,-0.4667171239852905,-1.24319052696228,37.23699951171875,97.17373657226562,-0.64129638671875
175670,0.0126800537109375,0.5974578857421875,0.388427734375,0.3324290812015533,-0.3638945817947388,0.4870468974113464,36.59898376464844,96.50515747070312,0.5986175537109375
175671,0.0506134033203125,0.5245513916015625,0.457794189453125,0.3324290812015533,-0.3638945817947388,0.4870468974113464,36.38468933105469,96.53146362304688,0.8544769287109375
175672,0.17401123046875,0.75592041015625,0.2222900390625,-0.0418185517191886,0.5916020274162292,0.747388482093811,36.34648132324219,96.54573059082033,1.233993530273438
175673,0.17401123046875,0.75592041015625,0.2222900390625,-0.0418185517191886,0.5916020274162292,0.747388482093811,36.34648132324219,96.54573059082033,1.233993530273438
175674,0.1488494873046875,1.345779418945312,-0.057342529296875,-0.4812997877597809,0.7314161658287048,0.9643761515617372,36.52871704101562,96.72116088867188,1.330245971679688
175675,0.0338897705078125,1.660736083984375,0.0935211181640625,-0.4020001590251923,0.1116703376173973,0.5532853007316589,37.22805786132812,96.66294860839844,1.480697631835938
175676,-0.0196380615234375,1.238937377929688,0.15899658203125,0.0007962851668708,-0.1317553669214249,0.4943546056747437,37.66322326660156,96.60026550292967,1.570648193359375
175677,-0.0310211181640625,0.9615325927734376,0.1484222412109375,0.2631381452083588,-0.0818719640374183,0.553499162197113,38.13688659667969,96.35826110839844,1.915542602539062
175678,0.0030670166015625,0.8054962158203125,0.09722900390625,0.3812988996505737,-0.0086544742807745,0.5841391086578369,38.60269165039062,96.20553588867188,1.953216552734375
175679,0.013641357421875,0.68218994140625,0.117950439453125,0.4356657266616821,0.0974229574203491,0.5812143683433533,38.91792297363281,96.14454650878906,1.825958251953125
175680,0.005584716796875,0.5711669921875,0.1435394287109375,0.4979669153690338,0.2791852951049805,0.5670583844184875,39.22898864746094,96.12606811523438,1.695114135742188
175681,-0.015655517578125,0.4658660888671875,0.1316070556640625,0.5735031962394714,0.4795234501361847,0.5565985441207886,39.555908203125,96.14093017578124,1.60382080078125
175682,-0.03765869140625,0.3514404296875,0.0836029052734375,0.6308432221412659,0.6202049255371094,0.5185995101928711,39.84786987304688,96.17247009277344,1.400665283203125
175683,-0.03765869140625,0.3514404296875,0.0836029052734375,0.6308432221412659,0.6202049255371094,0.5185995101928711,39.84786987304688,96.17247009277344,1.400665283203125
175684,-0.0745391845703125,0.1244659423828125,-0.056365966796875,0.6838781833648682,0.5163576602935791,0.3644400238990784,40.21720886230469,96.50401306152344,0.7755584716796875
175685,-0.07403564453125,0.008087158203125,-0.14300537109375,0.6999034881591797,0.220081239938736,0.2881574928760529,40.44798278808594,96.75436401367188,0.460113525390625
175686,-0.0499114990234375,-0.0981292724609375,-0.22119140625,0.7240298986434937,-0.2503145039081573,0.2267109006643295,40.58644104003906,96.9680633544922,0.20941162109375
175687,-0.0499114990234375,-0.0981292724609375,-0.22119140625,0.7240298986434937,-0.2503145039081573,0.2267109006643295,40.58644104003906,96.9680633544922,0.20941162109375
175688,0.027862548828125,-0.1566162109375,-0.0058441162109375,0.7282821536064148,-0.7175988554954529,0.1831224113702774,40.88221740722656,97.04597473144533,-0.5086822509765625
175689,0.0560302734375,-0.132476806640625,0.1112060546875,0.7131681442260742,-0.4401595294475555,0.1502856463193893,41.00788879394531,97.0236358642578,-0.6659393310546875
175690,0.0765228271484375,-0.106842041015625,0.168243408203125,0.6740404963493347,-0.0248518195003271,0.0993207246065139,41.15179443359375,97.21551513671876,-0.865875244140625
175691,0.0765228271484375,-0.106842041015625,0.168243408203125,0.6740404963493347,-0.0248518195003271,0.0993207246065139,41.15179443359375,97.21551513671876,-0.865875244140625
175692,0.1140594482421875,-0.0779571533203125,0.2131195068359375,0.5472108721733093,0.6979676485061646,-0.031256191432476,41.23971557617188,97.47077941894533,-1.234756469726562
175693,0.130706787109375,-0.0678558349609375,0.218963623046875,0.4740666449069977,0.8922918438911438,-0.0958429053425788,41.13313293457031,97.49134826660156,-1.364517211914062
175694,0.1306610107421875,-0.0626220703125,0.2051239013671875,0.4138096868991852,1.00140106678009,-0.1621188670396805,40.96629333496094,97.35221862792967,-1.457046508789062
175695,0.1306610107421875,-0.0626220703125,0.2051239013671875,0.4138096868991852,1.00140106678009,-0.1621188670396805,40.96629333496094,97.35221862792967,-1.457046508789062
175696,0.048614501953125,-0.068359375,0.174163818359375,0.194398507475853,1.071318626403809,-0.2873761057853699,40.61465454101562,97.41998291015624,-1.775299072265625
175697,0.048614501953125,-0.068359375,0.174163818359375,0.194398507475853,1.071318626403809,-0.2873761057853699,40.61465454101562,97.41998291015624,-1.775299072265625
175698,-0.0553131103515625,-0.024932861328125,0.1443634033203125,-0.1278024315834045,1.241418719291687,-0.4415006935596466,40.17716979980469,97.34245300292967,-2.123886108398438
175699,-0.0652923583984375,-0.028076171875,0.1170196533203125,-0.25332972407341,1.230875253677368,-0.506208598613739,39.87675476074219,97.26919555664062,-2.193832397460938
175700,-0.076171875,-0.0392303466796875,0.0988616943359375,-0.339669942855835,1.159684181213379,-0.5614497661590576,39.57847595214844,97.17572021484376,-2.218368530273438
175701,-0.088287353515625,-0.052734375,0.0795440673828125,-0.3820653557777405,1.045082449913025,-0.5951563119888306,39.28706359863281,97.03073120117188,-2.174285888671875
175702,-0.0957183837890625,-0.0640716552734375,0.0595855712890625,-0.3879506587982178,0.9202385544776917,-0.6200693845748901,39.06826782226562,96.958740234375,-2.2479248046875
175703,-0.0957183837890625,-0.0640716552734375,0.0595855712890625,-0.3879506587982178,0.9202385544776917,-0.6200693845748901,39.06826782226562,96.958740234375,-2.2479248046875
175704,-0.093353271484375,-0.0716400146484375,-0.0303497314453125,-0.3739698529243469,0.7132781744003296,-0.6525210738182068,38.26495361328125,96.67701721191406,-2.006454467773438
175705,-0.0775299072265625,-0.0564422607421875,-0.1871795654296875,-0.3379066586494446,0.5622931718826294,-0.6774786114692688,37.81439208984375,96.5546875,-1.953659057617188
175706,-0.0007781982421875,0.031768798828125,-0.6846160888671875,-0.1661687344312668,-0.2434235811233521,-0.7097888588905334,37.48492431640625,96.52334594726562,-1.961700439453125
175707,-0.0007781982421875,0.031768798828125,-0.6846160888671875,-0.1661687344312668,-0.2434235811233521,-0.7097888588905334,37.48492431640625,96.52334594726562,-1.961700439453125
175708,0.13531494140625,0.164093017578125,-0.5334930419921875,0.5709260702133179,-2.986448287963867,-0.7069438099861145,36.7659912109375,96.41644287109376,-1.719772338867188
175709,0.0900726318359375,0.194793701171875,-0.00982666015625,0.8395002484321594,-2.85183048248291,-0.7134467363357544,36.32817077636719,96.6390380859375,-1.702590942382812
175710,0.064208984375,0.421539306640625,0.37408447265625,0.7634691596031189,-1.793199777603149,-0.7870756983757019,35.82437133789062,96.93255615234376,-1.704971313476562
175711,0.064208984375,0.421539306640625,0.37408447265625,0.7634691596031189,-1.793199777603149,-0.7870756983757019,35.82437133789062,96.93255615234376,-1.704971313476562
175712,-0.025634765625,2.514694213867188,0.3486785888671875,-0.3034000992774963,2.571368217468262,-1.381702780723572,34.60697937011719,97.60856628417967,-2.215774536132812
175713,0.04534912109375,3.815780639648438,-0.147552490234375,-0.6766993999481201,2.627979040145874,-1.920454502105713,33.61854553222656,97.7421417236328,-2.906173706054688
175714,-0.0868988037109375,4.827728271484375,-0.2022247314453125,-0.8676823973655701,1.314549922943115,-2.36242938041687,32.55867004394531,97.7116241455078,-3.456512451171875
175715,-0.0868988037109375,4.827728271484375,-0.2022247314453125,-0.8676823973655701,1.314549922943115,-2.36242938041687,32.55867004394531,97.7116241455078,-3.456512451171875
175716,-0.5902862548828125,5.626617431640625,0.98046875,-1.435413718223572,-1.284104108810425,-2.456470012664795,30.45869445800781,96.7824249267578,-3.76177978515625
175717,-0.5902862548828125,5.626617431640625,0.98046875,-1.435413718223572,-1.284104108810425,-2.456470012664795,30.45869445800781,96.7824249267578,-3.76177978515625
175718,-0.7748870849609375,2.662551879882812,1.101150512695312,-0.623073160648346,-0.7396442294120789,-0.354977011680603,29.54154968261719,95.22315979003906,-2.797760009765625
175719,-0.6218414306640625,1.84051513671875,0.4919891357421875,0.1934011578559875,-0.452452152967453,-0.1903007030487061,29.658447265625,94.72686767578124,-2.095733642578125
175720,-0.422119140625,1.519851684570312,-0.052886962890625,0.9446634650230408,-0.6009790301322937,-0.0407711304724216,29.68838500976562,94.43695068359376,-1.63006591796875
175721,-0.422119140625,1.519851684570312,-0.052886962890625,0.9446634650230408,-0.6009790301322937,-0.0407711304724216,29.68838500976562,94.43695068359376,-1.63006591796875
175722,-0.216888427734375,1.805404663085938,-0.5344696044921875,1.994330048561096,0.0988970175385475,0.8360030055046082,29.45919799804688,94.9362335205078,-1.996810913085938
175723,-0.0473785400390625,1.954574584960938,-0.8112335205078125,2.016387462615967,0.7135769724845886,1.225358724594116,29.54747009277344,95.2805633544922,-2.553741455078125
175724,0.154327392578125,2.044052124023438,-0.9506072998046876,0.835195004940033,-0.2001591920852661,1.120980739593506,29.85090637207031,95.69235229492188,-3.449569702148438
175725,0.154327392578125,2.044052124023438,-0.9506072998046876,0.835195004940033,-0.2001591920852661,1.120980739593506,29.85090637207031,95.69235229492188,-3.449569702148438
175726,0.1554107666015625,1.995849609375,-0.2823944091796875,0.835195004940033,-0.2001591920852661,1.120980739593506,30.31388854980469,95.9313507080078,-4.232131958007812
175727,0.1018524169921875,1.871490478515625,0.0889129638671875,0.227082148194313,0.4651303887367249,0.9668185710906982,30.93626403808594,96.1100616455078,-4.5509033203125
175728,-0.0775299072265625,1.601181030273438,-0.0351715087890625,-0.2921136021614075,0.8443038463592529,0.6538699865341187,32.06341552734375,96.294189453125,-4.632415771484375
175729,-0.197601318359375,1.400070190429688,-0.0193328857421875,-0.227607861161232,0.4567318558692932,0.3881043195724487,32.61973571777344,96.1584930419922,-4.533462524414062
175730,-0.2910919189453125,1.17901611328125,0.0393218994140625,0.1626365780830383,0.0563844479620456,0.1773023456335068,32.93721008300781,96.13850402832033,-4.605056762695312
175731,-0.313629150390625,0.957855224609375,0.056427001953125,0.7221469879150391,-0.2308712899684906,0.0762945041060447,33.35003662109375,96.05929565429688,-4.641891479492188
175732,-0.28814697265625,0.7465362548828125,-0.005035400390625,1.218025684356689,-0.4834814369678497,0.0750135257840156,33.59733581542969,96.06130981445312,-4.7939453125
175733,-0.28814697265625,0.7465362548828125,-0.005035400390625,1.218025684356689,-0.4834814369678497,0.0750135257840156,33.59733581542969,96.06130981445312,-4.7939453125
175734,-0.2469024658203125,0.3751220703125,-0.040374755859375,1.5288907289505,-0.6377487778663635,0.1826784610748291,33.92909240722656,96.04808044433594,-5.730194091796875
175735,-0.22210693359375,0.1996612548828125,-0.0617218017578125,1.366972327232361,-0.1766631901264191,0.3363156914710999,34.02207946777344,96.1996612548828,-6.342575073242188
175736,-0.138916015625,0.013824462890625,-0.3377685546875,1.149558544158936,0.2422456592321396,0.6012498736381531,34.12985229492188,96.4025421142578,-6.987319946289062
175737,-0.02911376953125,-0.0948944091796875,-0.6410369873046875,1.048982381820679,-0.2064415812492371,0.9020440578460692,34.27255249023438,96.6015167236328,-7.537521362304688
175738,0.0051727294921875,-0.0578460693359375,-0.389678955078125,1.054849028587341,-0.6300873756408691,1.04075026512146,34.47219848632812,96.75311279296876,-7.896133422851562
175739,0.0026397705078125,-0.0222930908203125,-0.08111572265625,1.02885639667511,-0.5176798701286316,1.022066354751587,34.83511352539062,97.0126953125,-8.25164794921875
175740,0.010894775390625,-0.0391693115234375,0.04541015625,0.954965353012085,-0.1061277687549591,0.9388622641563416,35.14505004882812,97.19837951660156,-8.571197509765625
175741,0.012237548828125,-0.056060791015625,0.0777587890625,0.8587402701377869,0.3198416531085968,0.8392741680145264,35.56524658203125,97.447509765625,-8.68731689453125
175742,0.0015411376953125,-0.067901611328125,0.07684326171875,0.7155846953392029,0.6482278108596802,0.7410794496536255,35.95231628417969,97.8231201171875,-8.931610107421875
175743,0.0015411376953125,-0.067901611328125,0.07684326171875,0.7155846953392029,0.6482278108596802,0.7410794496536255,35.95231628417969,97.8231201171875,-8.931610107421875
175744,-0.0366973876953125,-0.0583343505859375,0.1159515380859375,0.4699073135852814,0.930526614189148,0.5551801323890686,36.66517639160156,98.20571899414062,-9.343902587890623
175745,-0.05596923828125,-0.0544891357421875,0.169830322265625,0.4061949253082275,1.085311651229858,0.4535286128520966,37.07392883300781,98.20440673828124,-9.645416259765623
175746,-0.0713043212890625,-0.0573577880859375,0.17608642578125,0.3758721649646759,1.218033790588379,0.3556526303291321,37.34014892578125,98.1969757080078,-9.878738403320312
175747,-0.0713043212890625,-0.0573577880859375,0.17608642578125,0.3758721649646759,1.218033790588379,0.3556526303291321,37.34014892578125,98.1969757080078,-9.878738403320312
175748,-0.1012725830078125,-0.080291748046875,0.1068572998046875,0.3224579393863678,1.080313444137573,0.135256364941597,37.90202331542969,98.37930297851562,-10.15028381347656
175749,-0.1131134033203125,-0.090667724609375,0.0729827880859375,0.2738057076931,0.8126180768013,0.0114364130422473,38.14111328125,98.3688507080078,-10.322021484375
175750,-0.1200714111328125,-0.0958099365234375,0.0571746826171875,0.1545653343200684,0.4760094285011292,-0.135589525103569,38.36598205566406,98.35964965820312,-10.55548095703125
175751,-0.1200714111328125,-0.0958099365234375,0.0571746826171875,0.1545653343200684,0.4760094285011292,-0.135589525103569,38.36598205566406,98.35964965820312,-10.55548095703125
175752,-0.1066131591796875,-0.1320037841796875,0.0722503662109375,-0.3006740808486938,-0.1300171166658401,-0.38460972905159,38.40060424804688,98.27156066894533,-10.49954223632812
175753,-0.0868988037109375,-0.14801025390625,0.089599609375,-0.5844762325286865,-0.2820268869400024,-0.4463580548763275,38.3870849609375,98.2213897705078,-10.19537353515625
175754,-0.0686798095703125,-0.158111572265625,0.10888671875,-0.8673396110534668,-0.3322392106056213,-0.4743912816047668,38.26374816894531,98.11111450195312,-9.874542236328123
175755,-0.0686798095703125,-0.158111572265625,0.10888671875,-0.8673396110534668,-0.3322392106056213,-0.4743912816047668,38.26374816894531,98.11111450195312,-9.874542236328123
175756,-0.050323486328125,-0.1743316650390625,0.1280517578125,-1.370394468307495,-0.1718444675207138,-0.4867630004882812,38.08206176757812,97.73110961914062,-8.595932006835938
175757,-0.050323486328125,-0.1743316650390625,0.1280517578125,-1.370394468307495,-0.1718444675207138,-0.4867630004882812,38.08206176757812,97.73110961914062,-8.595932006835938
175758,-0.0371246337890625,-0.1713104248046875,0.0971832275390625,-1.840865135192871,0.2306467890739441,-0.491939902305603,38.0704345703125,97.33517456054688,-7.588760375976562
175759,-0.021148681640625,-0.1694793701171875,0.03076171875,-1.840865135192871,0.2306467890739441,-0.491939902305603,38.02349853515625,97.06625366210938,-6.747955322265625
175760,0.150482177734375,-0.1406097412109375,-1.1688232421875,-1.97399890422821,-0.3771086633205414,-0.5182876586914062,37.73709106445312,96.56472778320312,-4.60205078125
175761,0.3328094482421875,0.07232666015625,-1.9251708984375,-1.459159851074219,-3.402898550033569,-0.4171753823757172,37.59857177734375,96.34841918945312,-3.64630126953125
175762,0.3328094482421875,0.07232666015625,-1.9251708984375,-1.459159851074219,-3.402898550033569,-0.4171753823757172,37.59857177734375,96.34841918945312,-3.64630126953125
175763,0.135986328125,0.3036956787109375,-0.5255126953125,-1.135067462921143,-2.542331218719482,-0.2015275210142136,37.48965454101562,96.30526733398438,-2.527374267578125
175764,0.0220184326171875,0.2127532958984375,0.4260406494140625,-0.8875921964645386,1.394891858100891,-0.0386432670056819,37.39373779296875,96.60711669921876,-0.7660369873046875
175765,0.0220184326171875,0.2127532958984375,0.4260406494140625,-0.8875921964645386,1.394891858100891,-0.0386432670056819,37.39373779296875,96.60711669921876,-0.7660369873046875
175766,0.0022125244140625,0.426116943359375,0.5763397216796875,-1.448508262634277,2.593495607376099,-0.3363151550292969,36.35687255859375,96.86334228515624,-0.8211212158203125
175767,-0.086700439453125,1.579803466796875,0.701934814453125,-2.117711782455444,2.41161584854126,-0.5959075689315796,35.49122619628906,96.98649597167967,-1.40838623046875
175768,-0.2911834716796875,5.240707397460938,0.894134521484375,-2.421541690826416,1.001785278320312,1.573087215423584,34.74612426757812,96.97698974609376,-2.176910400390625
175769,-0.2911834716796875,5.240707397460938,0.894134521484375,-2.421541690826416,1.001785278320312,1.573087215423584,34.74612426757812,96.97698974609376,-2.176910400390625
175770,-0.725860595703125,7.663543701171875,1.064987182617188,-2.421541690826416,1.001785278320312,1.573087215423584,34.22721862792969,96.96369934082033,-3.12017822265625
175771,-1.27056884765625,8.061843872070312,1.0528564453125,-1.272963881492615,-0.1933449655771255,1.64123797416687,34.02067565917969,97.00164794921876,-3.789016723632812
175772,0.0042724609375,3.108535766601562,0.029632568359375,0.0485052168369293,-0.1631825268268585,-0.0865958780050277,34.73561096191406,97.28366088867188,-3.12548828125
175773,0.0042724609375,3.108535766601562,0.029632568359375,0.0485052168369293,-0.1631825268268585,-0.0865958780050277,34.73561096191406,97.28366088867188,-3.12548828125
175774,0.2567901611328125,1.173370361328125,-0.242706298828125,-0.143941730260849,-1.77469801902771,0.9750772714614868,34.710693359375,97.16160583496094,-2.1807861328125
175775,0.2567901611328125,1.173370361328125,-0.242706298828125,-0.143941730260849,-1.77469801902771,0.9750772714614868,34.710693359375,97.16160583496094,-2.1807861328125
175776,0.5847320556640625,1.584121704101562,0.4545745849609375,0.3749395310878754,0.0386299490928649,1.585617899894714,35.35202026367188,97.16392517089844,-0.9684906005859376
175777,0.5847320556640625,1.584121704101562,0.4545745849609375,0.3749395310878754,0.0386299490928649,1.585617899894714,35.35202026367188,97.16392517089844,-0.9684906005859376
175778,0.44256591796875,2.366241455078125,0.1494903564453125,0.133743941783905,0.2201715111732483,0.4943764507770538,36.54742431640625,97.37039184570312,-0.807708740234375
175779,0.34356689453125,2.086212158203125,0.1926116943359375,0.133743941783905,0.2201715111732483,0.4943764507770538,37.21237182617188,97.4430694580078,-0.916259765625
175780,0.128692626953125,1.679946899414062,0.3471221923828125,0.1048670262098312,0.1832657009363174,0.1854705214500427,37.81576538085938,97.41261291503906,-1.060714721679688
175781,0.128692626953125,1.679946899414062,0.3471221923828125,0.1048670262098312,0.1832657009363174,0.1854705214500427,37.81576538085938,97.41261291503906,-1.060714721679688
175782,-0.075714111328125,1.172943115234375,0.152099609375,0.2493059635162354,0.2712837159633636,0.0337688811123371,38.4835205078125,97.28050231933594,-1.095794677734375
175783,-0.075714111328125,1.172943115234375,0.152099609375,0.2493059635162354,0.2712837159633636,0.0337688811123371,38.4835205078125,97.28050231933594,-1.095794677734375
175784,-0.1533966064453125,0.7441558837890625,0.078399658203125,0.5354709029197693,-0.46668940782547,0.0027284084353595,38.8936767578125,97.23152160644533,-1.291427612304688
175785,-0.1533966064453125,0.7441558837890625,0.078399658203125,0.5354709029197693,-0.46668940782547,0.0027284084353595,38.8936767578125,97.23152160644533,-1.291427612304688
175786,-0.133819580078125,0.4308319091796875,0.184722900390625,0.892791748046875,-0.3944112360477448,0.0788532719016075,39.09860229492188,97.28330993652344,-1.555389404296875
175787,-0.1399383544921875,0.3167266845703125,0.156982421875,0.9725834727287292,-0.185820996761322,0.0717748552560806,39.33111572265625,97.3707275390625,-1.898513793945312
175788,-0.1479949951171875,0.204986572265625,0.1007080078125,0.9573973417282104,-0.0222882609814405,-0.0129522839561104,39.54756164550781,97.44227600097656,-2.257888793945312
175789,-0.1496429443359375,0.0864715576171875,0.0098419189453125,0.8793379664421082,0.0026740799658,-0.1300522685050964,39.73324584960938,97.54519653320312,-2.772445678710938
175790,-0.1463775634765625,-0.0182952880859375,-0.08380126953125,0.7768036127090454,-0.1738466322422028,-0.2575220763683319,39.71343994140625,97.568359375,-3.135345458984375
175791,-0.1463775634765625,-0.0182952880859375,-0.08380126953125,0.7768036127090454,-0.1738466322422028,-0.2575220763683319,39.71343994140625,97.568359375,-3.135345458984375
175792,-0.1427459716796875,-0.1771087646484375,-0.17974853515625,0.616709291934967,-0.7925306558609009,-0.3383170664310455,39.69725036621094,97.68792724609376,-3.860397338867188
175793,-0.1427459716796875,-0.1771087646484375,-0.17974853515625,0.616709291934967,-0.7925306558609009,-0.3383170664310455,39.69725036621094,97.68792724609376,-3.860397338867188
175794,-0.128692626953125,-0.2108612060546875,-0.006134033203125,0.7392972707748413,-0.2263359278440475,-0.1954925358295441,39.72160339355469,97.70822143554688,-4.049850463867188
175795,-0.0670623779296875,-0.1891937255859375,0.0489959716796875,0.7392972707748413,-0.2263359278440475,-0.1954925358295441,39.72163391113281,97.81997680664062,-4.22869873046875
175796,-0.010040283203125,-0.1718292236328125,0.064208984375,0.7604113221168518,0.1470432430505753,-0.1686215102672577,39.72781372070312,97.97442626953124,-4.38055419921875
175797,-0.010040283203125,-0.1718292236328125,0.064208984375,0.7604113221168518,0.1470432430505753,-0.1686215102672577,39.72781372070312,97.97442626953124,-4.38055419921875
175798,0.047637939453125,-0.1491546630859375,0.065887451171875,0.7863297462463379,0.5759863257408142,-0.146633118391037,39.59207153320312,97.8923797607422,-4.60498046875
175799,0.059783935546875,-0.15655517578125,0.07843017578125,0.7876170873641968,0.6712334752082825,-0.1676715612411499,39.48612976074219,97.8566436767578,-4.529449462890625
175800,0.0684051513671875,-0.19561767578125,0.0620269775390625,0.7314073443412781,0.7154347896575928,-0.1897398382425308,39.43983459472656,97.67813110351562,-4.569381713867188
175801,0.0684051513671875,-0.19561767578125,0.0620269775390625,0.7314073443412781,0.7154347896575928,-0.1897398382425308,39.43983459472656,97.67813110351562,-4.569381713867188
175802,0.069610595703125,-0.2285003662109375,0.04559326171875,0.5565468668937683,0.7220932245254517,-0.2289104163646698,39.41404724121094,97.39753723144533,-4.536651611328125
175803,0.062286376953125,-0.2405853271484375,0.03173828125,0.1148317754268646,0.7673235535621643,-0.307201474905014,39.369384765625,97.18251037597656,-4.453460693359375
175804,0.05914306640625,-0.2935943603515625,-0.104705810546875,-0.0555122606456279,0.6504416465759277,-0.2971424758434296,39.11595153808594,96.536376953125,-4.442108154296875
175805,0.05914306640625,-0.2935943603515625,-0.104705810546875,-0.0555122606456279,0.6504416465759277,-0.2971424758434296,39.11595153808594,96.536376953125,-4.442108154296875
175806,0.0592498779296875,-0.297088623046875,-0.1467437744140625,-0.1461233794689178,0.4816241562366486,-0.2819603085517883,38.95854187011719,96.22161865234376,-4.351730346679688
175807,0.06268310546875,-0.2906951904296875,-0.1908111572265625,-0.1793726831674576,0.2686301171779633,-0.2668498158454895,38.73460388183594,95.844482421875,-4.310455322265625
175808,0.0773162841796875,-0.309478759765625,-0.2139739990234375,-0.1634917259216309,0.0445091463625431,-0.2208474278450012,38.41871643066406,95.4716339111328,-4.208770751953125
175809,0.11090087890625,-0.3240966796875,-0.213287353515625,0.0625382140278816,-0.2395588010549545,-0.0809920579195022,38.10263061523438,95.2062530517578,-4.1717529296875
175810,0.1584014892578125,-0.307403564453125,-0.190887451171875,0.0625382140278816,-0.2395588010549545,-0.0809920579195022,37.86616516113281,94.85772705078124,-4.00238037109375
175811,0.2676239013671875,-0.0426483154296875,-0.0579071044921875,-0.2358106672763824,0.1802094578742981,-0.34617018699646,37.38423156738281,94.7781982421875,-4.011825561523438
175812,0.2265167236328125,0.1390533447265625,0.0583038330078125,-0.2358106672763824,0.1802094578742981,-0.34617018699646,37.24867248535156,94.78643798828124,-3.932952880859375
175813,0.2265167236328125,0.1390533447265625,0.0583038330078125,-0.2358106672763824,0.1802094578742981,-0.34617018699646,37.24867248535156,94.78643798828124,-3.932952880859375
175814,0.1522064208984375,0.2921142578125,0.2608795166015625,-0.6910181045532227,0.8432883620262146,-0.8372440338134766,36.89448547363281,95.07830810546876,-3.7603759765625
175815,0.143310546875,0.4095001220703125,0.5612640380859375,-0.9142522811889648,1.386612057685852,-1.126381874084473,36.63662719726562,95.31753540039062,-3.785430908203125
175816,0.1433868408203125,0.583770751953125,0.761138916015625,-1.253320097923279,1.992822885513306,-1.46943187713623,36.16447448730469,95.4384765625,-3.551177978515625
175817,0.1433868408203125,0.583770751953125,0.761138916015625,-1.253320097923279,1.992822885513306,-1.46943187713623,36.16447448730469,95.4384765625,-3.551177978515625
175818,0.16448974609375,3.007308959960938,0.5895843505859375,-2.305843591690063,0.837431788444519,-2.525368213653564,34.480712890625,95.86741638183594,-3.741348266601562
175819,0.2717437744140625,7.592025756835938,0.072906494140625,-2.10388708114624,-3.55754280090332,-4.076436519622803,33.06147766113281,96.02442932128906,-3.913711547851562
175820,-0.0980682373046875,8.113082885742188,1.1588134765625,-2.105937480926514,-7.808479785919189,-4.53734302520752,31.59175109863281,95.94805908203124,-4.258865356445312
175821,-0.0980682373046875,8.113082885742188,1.1588134765625,-2.105937480926514,-7.808479785919189,-4.53734302520752,31.59175109863281,95.94805908203124,-4.258865356445312
175822,-1.482192993164062,7.495269775390625,2.621597290039062,-1.81778085231781,-6.340446472167969,-4.420042514801025,30.11653137207031,95.73802185058594,-4.680435180664062
175823,-1.937423706054688,3.605361938476562,1.837738037109375,-0.1563358157873154,-1.909476399421692,-3.572859525680542,29.0733642578125,95.11965942382812,-4.217620849609375
175824,-0.658782958984375,0.0112152099609375,-1.03277587890625,2.035278558731079,3.521145582199097,0.8407061696052551,27.33474731445312,93.76626586914062,-2.172409057617188
175825,-0.658782958984375,0.0112152099609375,-1.03277587890625,2.035278558731079,3.521145582199097,0.8407061696052551,27.33474731445312,93.76626586914062,-2.172409057617188
175826,-0.2693634033203125,0.2824554443359375,-1.857192993164062,2.475433826446533,1.508297204971313,2.027981758117676,26.567138671875,93.39524841308594,-2.122314453125
175827,-0.1818084716796875,1.201156616210938,-0.27191162109375,1.411086797714233,-1.153165221214294,1.160932660102844,26.67720031738281,93.75340270996094,-3.399703979492188
175828,-0.058990478515625,1.401260375976562,-0.0089111328125,0.7465711236000061,-1.227155327796936,1.03593373298645,27.54774475097656,94.08067321777344,-3.99932861328125
175829,-0.058990478515625,1.401260375976562,-0.0089111328125,0.7465711236000061,-1.227155327796936,1.03593373298645,27.54774475097656,94.08067321777344,-3.99932861328125
175830,-0.0123291015625,1.569381713867188,0.1188201904296875,0.1468738615512848,-1.312941908836365,1.191679120063782,28.51496887207031,94.06315612792967,-4.370376586914062
175831,0.0412139892578125,1.389862060546875,0.29736328125,-0.6086585521697998,-0.735297679901123,1.174401044845581,29.94683837890625,94.32162475585938,-4.772628784179688
175832,0.06695556640625,1.18170166015625,0.289337158203125,-0.4341908693313599,-0.5878371596336365,1.03793478012085,30.76881408691406,94.440185546875,-4.370025634765625
175833,0.06695556640625,1.18170166015625,0.289337158203125,-0.4341908693313599,-0.5878371596336365,1.03793478012085,30.76881408691406,94.440185546875,-4.370025634765625
175834,-0.0745391845703125,0.7058868408203125,0.2313690185546875,1.014439582824707,-0.0043454798869788,0.6608370542526245,32.04664611816406,94.66793823242188,-3.21575927734375
175835,-0.113037109375,0.4981842041015625,0.1119384765625,1.014439582824707,-0.0043454798869788,0.6608370542526245,32.6217041015625,94.74397277832033,-2.965805053710938
175836,-0.1221923828125,0.344940185546875,0.004547119140625,1.292553186416626,-0.0077484669163823,0.6370882987976074,33.13108825683594,94.94540405273438,-3.102142333984375
175837,-0.1221923828125,0.344940185546875,0.004547119140625,1.292553186416626,-0.0077484669163823,0.6370882987976074,33.13108825683594,94.94540405273438,-3.102142333984375
175838,-0.1195068359375,0.157501220703125,-0.03753662109375,1.397323369979858,-0.1292535960674286,0.4602682590484619,33.87258911132812,95.28228759765624,-3.835723876953125
175839,-0.1058349609375,0.0757598876953125,-0.054534912109375,1.320885300636292,-0.2256685495376587,0.3402183055877686,34.14674377441406,95.49966430664062,-4.2752685546875
175840,-0.10009765625,-0.02691650390625,-0.0378875732421875,1.172693967819214,-0.1740144044160843,0.262450248003006,34.45472717285156,95.73854064941406,-4.959182739257812
175841,-0.10009765625,-0.02691650390625,-0.0378875732421875,1.172693967819214,-0.1740144044160843,0.262450248003006,34.45472717285156,95.73854064941406,-4.959182739257812
175842,-0.0552215576171875,-0.204803466796875,-0.2039642333984375,0.755159318447113,-0.0775182247161865,0.4213312566280365,34.82478332519531,96.09344482421876,-6.117233276367188
175843,-0.0865478515625,-0.315399169921875,-0.32818603515625,0.4666167199611664,-0.1759340167045593,0.6944738626480103,34.93705749511719,96.37190246582033,-6.562789916992188
175844,-0.10711669921875,-0.3381805419921875,-0.2228851318359375,0.0482402332127094,-0.0020386497490108,1.040525555610657,35.07273864746094,96.51806640625,-6.702072143554688
175845,-0.10711669921875,-0.3381805419921875,-0.2228851318359375,0.0482402332127094,-0.0020386497490108,1.040525555610657,35.07273864746094,96.51806640625,-6.702072143554688
175846,-0.0370635986328125,-0.2014923095703125,-0.063995361328125,-0.0910180583596229,0.3289624452590942,1.216864824295044,35.22956848144531,96.77629089355467,-6.795318603515625
175847,-0.001678466796875,-0.1125640869140625,0.1343994140625,0.0959813892841339,0.7101449370384216,1.150587797164917,35.58699035644531,97.16229248046876,-6.781524658203125
175848,-0.0032501220703125,-0.08734130859375,0.2555084228515625,0.3150157332420349,1.080616474151611,1.046051859855652,36.66220092773438,97.51443481445312,-6.179046630859375
175849,-0.0087890625,-0.0927581787109375,0.1983795166015625,0.6320501565933228,1.24146556854248,0.7906688451766968,37.27070617675781,97.61798095703124,-5.91693115234375
175850,-0.0087890625,-0.0927581787109375,0.1983795166015625,0.6320501565933228,1.24146556854248,0.7906688451766968,37.27070617675781,97.61798095703124,-5.91693115234375
175851,-0.02142333984375,-0.0939178466796875,0.0904693603515625,0.4929639101028442,0.8051739931106567,0.5306859612464905,38.48812866210938,97.61431884765624,-5.803207397460938
175852,-0.0260009765625,-0.0910797119140625,0.0591583251953125,0.4929639101028442,0.8051739931106567,0.5306859612464905,38.98501586914062,97.51246643066406,-5.913665771484375
175853,-0.0260009765625,-0.0910797119140625,0.0591583251953125,0.4929639101028442,0.8051739931106567,0.5306859612464905,38.98501586914062,97.51246643066406,-5.913665771484375
175854,-0.0263824462890625,-0.091278076171875,0.04296875,0.2687515616416931,0.4720333218574524,0.3922748267650604,39.41717529296875,97.68301391601562,-6.192916870117188
175855,-0.0193023681640625,-0.106109619140625,0.027435302734375,-0.5927720069885254,-0.4648302495479584,-0.0543942674994468,39.9486083984375,97.43984985351562,-6.42510986328125
175856,-0.012451171875,-0.1234893798828125,0.014068603515625,-0.5927720069885254,-0.4648302495479584,-0.0543942674994468,40.14454650878906,97.3921356201172,-6.234710693359375
175857,-0.012451171875,-0.1234893798828125,0.014068603515625,-0.5927720069885254,-0.4648302495479584,-0.0543942674994468,40.14454650878906,97.3921356201172,-6.234710693359375
175858,-0.0019073486328125,-0.1393280029296875,0.0138397216796875,-0.8545727133750916,-0.6454037427902222,-0.1851051449775696,40.32608032226562,97.06578063964844,-5.888107299804688
175859,0.0050811767578125,-0.147674560546875,0.023468017578125,-1.072664022445679,-0.699573814868927,-0.2856123149394989,40.493896484375,96.42422485351562,-4.97332763671875
175860,0.011474609375,-0.1553497314453125,0.0143280029296875,-1.369275450706482,-0.3890081942081451,-0.4123148620128632,40.35690307617188,95.63729858398438,-3.552719116210938
175861,0.011474609375,-0.1553497314453125,0.0143280029296875,-1.369275450706482,-0.3890081942081451,-0.4123148620128632,40.35690307617188,95.63729858398438,-3.552719116210938
175862,0.013397216796875,-0.14654541015625,-0.03192138671875,-1.459907293319702,-0.1164107620716095,-0.4671000838279724,40.23677062988281,95.37237548828124,-2.923171997070312
175863,0.0337371826171875,-0.107452392578125,-0.4920501708984375,-1.471864700317383,-0.136226013302803,-0.5385487079620361,40.10067749023438,95.18789672851562,-2.160751342773438
175864,0.128204345703125,0.2710418701171875,-0.7337188720703125,-0.4657866060733795,-3.02641224861145,-0.6638128757476807,39.79348754882812,94.77488708496094,-0.34197998046875
175865,0.128204345703125,0.2710418701171875,-0.7337188720703125,-0.4657866060733795,-3.02641224861145,-0.6638128757476807,39.79348754882812,94.77488708496094,-0.34197998046875
175866,0.01007080078125,0.3295135498046875,0.12420654296875,-0.5385095477104187,-0.4291673302650452,-0.4290512204170227,39.83238220214844,94.921875,0.3544464111328125
175867,0.048309326171875,0.2238311767578125,0.577606201171875,-1.529434204101562,1.972839593887329,-0.4079675078392029,39.44570922851562,95.59866333007812,1.121963500976562
175868,0.0491180419921875,0.426177978515625,0.783050537109375,-2.091304779052734,2.385412454605103,-0.5739777684211731,38.50593566894531,96.09703063964844,1.1629638671875
175869,0.0455780029296875,1.782760620117188,1.305038452148438,-2.669421434402466,2.582856178283691,-1.04413914680481,37.23020935058594,96.56266784667967,0.759033203125
175870,0.0455780029296875,1.782760620117188,1.305038452148438,-2.669421434402466,2.582856178283691,-1.04413914680481,37.23020935058594,96.56266784667967,0.759033203125
175871,0.1478729248046875,5.988037109375,1.40301513671875,-2.771995306015015,1.63867974281311,-0.4667365550994873,35.98117065429688,96.77224731445312,0.1519622802734375
175872,-1.5189208984375,7.984725952148438,1.844833374023438,-1.64198899269104,-0.2632337510585785,1.945257544517517,35.4058837890625,96.91403198242188,-1.908905029296875
175873,-1.5189208984375,7.984725952148438,1.844833374023438,-1.64198899269104,-0.2632337510585785,1.945257544517517,35.4058837890625,96.91403198242188,-1.908905029296875
175874,-0.23675537109375,2.939285278320312,-0.09246826171875,0.4726522266864777,0.5280582308769226,-2.315183401107788,36.87509155273438,96.38973999023438,-0.6863555908203125
175875,0.2040557861328125,0.7375946044921875,-1.683822631835938,0.2854101657867432,-1.439287543296814,-1.642389059066772,36.28805541992188,95.87615966796876,-0.077789306640625
175876,0.2744140625,-0.1568603515625,-2.067703247070312,-0.0197468064725399,-5.702744007110596,-0.5467472076416016,35.308349609375,95.6243896484375,0.4230499267578125
175877,0.2744140625,-0.1568603515625,-2.067703247070312,-0.0197468064725399,-5.702744007110596,-0.5467472076416016,35.308349609375,95.6243896484375,0.4230499267578125
175878,0.2703857421875,0.51629638671875,0.344390869140625,0.1313375234603882,1.461969137191772,0.4525386989116669,34.75675964355469,95.87713623046876,1.603317260742188
175879,0.278717041015625,1.163970947265625,0.0356292724609375,0.6370853781700134,2.496247529983521,1.211942791938782,34.93342590332031,95.72996520996094,1.897842407226562
175880,0.2608489990234375,1.607406616210938,0.003387451171875,0.905266523361206,2.55548357963562,1.698756694793701,35.21330261230469,95.66836547851562,1.580642700195312
175881,0.2647705078125,1.81903076171875,0.0182952880859375,0.8603451251983643,1.12486732006073,1.728857278823853,35.70101928710938,95.60757446289062,0.885101318359375
175882,0.2647705078125,1.81903076171875,0.0182952880859375,0.8603451251983643,1.12486732006073,1.728857278823853,35.70101928710938,95.60757446289062,0.885101318359375
175883,0.306243896484375,1.604583740234375,0.283660888671875,0.8547481894493103,0.3212331533432007,1.400527596473694,37.11459350585938,95.8188018798828,-0.328460693359375
175884,0.2831268310546875,1.3092041015625,0.3728790283203125,0.8986845016479492,-0.1739667356014252,1.055007576942444,37.80130004882812,95.96681213378906,-0.6356964111328125
175885,0.2831268310546875,1.3092041015625,0.3728790283203125,0.8986845016479492,-0.1739667356014252,1.055007576942444,37.80130004882812,95.96681213378906,-0.6356964111328125
175886,0.1847076416015625,0.721282958984375,0.4349212646484375,0.9568220973014832,-0.0012114719720557,0.7347762584686279,38.90797424316406,96.53662109375,-1.208770751953125
175887,0.1391754150390625,0.5327606201171875,0.389892578125,0.917667269706726,0.3447941243648529,0.7467338442802429,39.26445007324219,96.76820373535156,-1.564437866210938
175888,0.1029205322265625,0.3774871826171875,0.3142242431640625,0.8256630301475525,0.65206378698349,0.7673962712287903,39.59814453125,97.05941772460938,-1.9271240234375
175889,0.1029205322265625,0.3774871826171875,0.3142242431640625,0.8256630301475525,0.65206378698349,0.7673962712287903,39.59814453125,97.05941772460938,-1.9271240234375
175890,0.0673675537109375,0.2524871826171875,0.2141265869140625,0.6905733942985535,0.8185156583786011,0.7653632164001465,40.00537109375,97.18222045898438,-2.28131103515625
175891,0.02685546875,0.1490325927734375,0.0854034423828125,0.409750759601593,0.2256030291318893,0.6313713192939758,40.39601135253906,97.23249816894533,-2.620803833007812
175892,-0.0123443603515625,-0.0845489501953125,-0.53131103515625,0.335742324590683,-1.030400156974792,0.5575879216194153,41.14784240722656,97.33015441894533,-3.055435180664062
175893,-0.0123443603515625,-0.0845489501953125,-0.53131103515625,0.335742324590683,-1.030400156974792,0.5575879216194153,41.14784240722656,97.33015441894533,-3.055435180664062
175894,0.001495361328125,-0.1421051025390625,-0.4196624755859375,0.3887373507022858,-2.17938756942749,0.5205313563346863,41.57894897460938,97.34660339355467,-3.111175537109375
175895,0.0123291015625,-0.1454620361328125,-0.184906005859375,0.7700386643409729,-2.604332447052002,0.4303596317768097,41.92912292480469,97.36013793945312,-3.08758544921875
175896,0.035400390625,-0.147308349609375,0.08355712890625,0.9959369897842408,-2.073408842086792,0.3447131812572479,42.65325927734375,97.68353271484376,-3.063400268554688
175897,0.035400390625,-0.147308349609375,0.08355712890625,0.9959369897842408,-2.073408842086792,0.3447131812572479,42.65325927734375,97.68353271484376,-3.063400268554688
175898,0.031646728515625,-0.1442413330078125,0.1402435302734375,1.148011207580566,-1.325189232826233,0.2477584034204483,43.0604248046875,97.82876586914062,-3.327178955078125
175899,0.01837158203125,-0.1457061767578125,0.1393890380859375,1.182560920715332,-0.538122832775116,0.1421715170145035,43.23097229003906,98.01055908203124,-3.53314208984375
175900,-0.0281829833984375,-0.145172119140625,0.0623626708984375,0.8571732640266418,0.5756760835647583,-0.0358077995479106,43.46600341796875,98.39773559570312,-4.225616455078125
175901,-0.0281829833984375,-0.145172119140625,0.0623626708984375,0.8571732640266418,0.5756760835647583,-0.0358077995479106,43.46600341796875,98.39773559570312,-4.225616455078125
175902,-0.0926513671875,-0.114776611328125,0.05657958984375,0.3050243556499481,0.9020563364028932,-0.2001003324985504,43.62124633789062,98.47122192382812,-4.837005615234375
175903,-0.0926513671875,-0.114776611328125,0.05657958984375,0.3050243556499481,0.9020563364028932,-0.2001003324985504,43.62124633789062,98.47122192382812,-4.837005615234375
175904,-0.1552886962890625,-0.061798095703125,0.054443359375,-0.1758820861577988,0.8687585592269897,-0.4649098813533783,43.61552429199219,98.4820556640625,-5.01446533203125
175905,-0.1552886962890625,-0.061798095703125,0.054443359375,-0.1758820861577988,0.8687585592269897,-0.4649098813533783,43.61552429199219,98.4820556640625,-5.01446533203125
175906,-0.1827239990234375,-0.0483551025390625,0.0384521484375,-0.3560260236263275,0.820105791091919,-0.6520715355873108,43.48078918457031,98.40174865722656,-4.772659301757812
175907,-0.213714599609375,-0.046844482421875,0.053466796875,-0.490183025598526,0.7989717721939087,-0.871360719203949,43.37800598144531,98.45455932617188,-4.717086791992188
175908,-0.2243499755859375,-0.089599609375,0.0829010009765625,-0.6091123223304749,0.989337682723999,-1.31268298625946,42.86299133300781,98.19050598144533,-4.150238037109375
175909,-0.2243499755859375,-0.089599609375,0.0829010009765625,-0.6091123223304749,0.989337682723999,-1.31268298625946,42.86299133300781,98.19050598144533,-4.150238037109375
175910,-0.1514129638671875,-0.17486572265625,-0.022064208984375,-0.6524693965911865,1.033358931541443,-1.406757831573486,41.69383239746094,97.76454162597656,-3.418685913085938
175911,-0.1248931884765625,-0.1814727783203125,-0.1797332763671875,-0.6734277009963989,0.7213688492774963,-1.221610069274902,41.07028198242188,97.63418579101562,-3.145217895507812
175912,-0.0779266357421875,-0.0007476806640625,-0.348297119140625,-0.6728575229644775,0.052008606493473,-0.9487748146057128,40.30473327636719,97.47525024414062,-2.996002197265625
175913,-0.0779266357421875,-0.0007476806640625,-0.348297119140625,-0.6728575229644775,0.052008606493473,-0.9487748146057128,40.30473327636719,97.47525024414062,-2.996002197265625
175914,-0.047576904296875,0.15130615234375,-0.366546630859375,-0.6632485389709473,-0.7341269850730896,-0.8822352290153503,39.656494140625,97.41822814941406,-2.87200927734375
175915,-0.0699615478515625,0.217193603515625,0.0767669677734375,-0.6411421895027161,-1.074705362319946,-0.961302638053894,38.55787658691406,97.48951721191406,-2.449127197265625
175916,-0.0826263427734375,0.30523681640625,0.3248748779296875,-0.6745626926422119,-0.3490719795227051,-1.011500000953674,37.93223571777344,97.62344360351562,-2.277374267578125
175917,-0.1248931884765625,0.8202056884765625,0.6455535888671875,-1.052989959716797,0.6198784112930298,-1.204609513282776,37.1639404296875,97.7149658203125,-2.16754150390625
175918,-0.1248931884765625,0.8202056884765625,0.6455535888671875,-1.052989959716797,0.6198784112930298,-1.204609513282776,37.1639404296875,97.7149658203125,-2.16754150390625
175919,0.0081329345703125,4.894622802734375,0.5650482177734375,-1.037054896354675,1.919848084449768,-0.5921253561973572,35.31956481933594,97.8286590576172,-2.802398681640625
175920,-0.2845306396484375,6.46160888671875,0.428436279296875,-1.023390531539917,-0.421671062707901,0.4668990075588226,34.40567016601562,97.82609558105467,-3.299041748046875
175921,-0.2845306396484375,6.46160888671875,0.428436279296875,-1.023390531539917,-0.421671062707901,0.4668990075588226,34.40567016601562,97.82609558105467,-3.299041748046875
175922,-0.594390869140625,7.345901489257812,0.88348388671875,-0.1659884452819824,-2.787038326263428,0.2570571005344391,34.10223388671875,97.79991149902344,-3.453781127929688
175923,-0.1802825927734375,5.408401489257812,1.256271362304688,0.1428530216217041,-4.013306617736816,-0.6184986233711243,34.25175476074219,97.72763061523438,-3.243423461914062
175924,0.098297119140625,1.659774780273438,1.006149291992188,-0.8654674291610718,0.1712950468063354,-0.4863688349723816,35.06755065917969,97.017578125,-1.858978271484375
175925,0.098297119140625,1.659774780273438,1.006149291992188,-0.8654674291610718,0.1712950468063354,-0.4863688349723816,35.06755065917969,97.017578125,-1.858978271484375
175926,0.117950439453125,1.310043334960938,0.4961090087890625,0.0086909597739577,1.231361269950867,-0.1395336538553238,35.01777648925781,96.52804565429688,-0.7380218505859375
175927,0.2283172607421875,1.507369995117188,-0.67803955078125,0.0086909597739577,1.231361269950867,-0.1395336538553238,34.8502197265625,96.43728637695312,0.12286376953125
175928,0.3717498779296875,2.14105224609375,-1.35760498046875,2.586301803588867,-2.114664077758789,0.616573691368103,34.49317932128906,96.19754028320312,0.7122955322265625
175929,0.3717498779296875,2.14105224609375,-1.35760498046875,2.586301803588867,-2.114664077758789,0.616573691368103,34.49317932128906,96.19754028320312,0.7122955322265625
175930,0.3560943603515625,2.069595336914062,-0.0460205078125,2.314688920974731,-1.114931583404541,0.8693700432777405,34.70878601074219,96.59181213378906,0.1118011474609375
175931,0.315521240234375,2.076583862304688,0.183685302734375,1.507642865180969,0.1964012086391449,1.118509292602539,35.10493469238281,97.02456665039062,-0.8963775634765625
175932,0.131195068359375,1.84307861328125,0.0425262451171875,-0.0306212920695543,1.015451550483704,0.9754626154899596,36.41706848144531,97.35731506347656,-2.520828247070312
175933,0.131195068359375,1.84307861328125,0.0425262451171875,-0.0306212920695543,1.015451550483704,0.9754626154899596,36.41706848144531,97.35731506347656,-2.520828247070312
175934,0.0390472412109375,1.595687866210938,0.0493621826171875,-0.0132090123370289,0.0984847620129585,0.352739691734314,37.11299133300781,97.4246063232422,-2.881729125976562
175935,-0.187774658203125,1.082321166992188,0.1087799072265625,0.5336514115333557,-0.3188653290271759,0.1702777296304703,38.13374328613281,97.01210021972656,-2.578094482421875
175936,-0.2346954345703125,0.8385467529296875,-0.0228729248046875,1.080304861068726,-0.7996199727058411,0.0500439926981926,38.49838256835938,97.0755615234375,-2.528640747070312
175937,-0.2346954345703125,0.8385467529296875,-0.0228729248046875,1.080304861068726,-0.7996199727058411,0.0500439926981926,38.49838256835938,97.0755615234375,-2.528640747070312
175938,-0.259124755859375,0.408782958984375,-0.21466064453125,1.528467535972595,-2.155634641647339,-0.1068015471100807,39.03428649902344,97.49552917480467,-3.304611206054688
175939,-0.3133087158203125,0.2227783203125,-0.0401153564453125,1.434209227561951,-1.997949481010437,-0.1956959962844849,39.22343444824219,97.50732421875,-3.769668579101562
175940,-0.383209228515625,-0.0416259765625,-0.0470428466796875,1.109194040298462,-1.072765469551086,-0.1107499524950981,39.37898254394531,97.67546081542967,-4.379104614257812
175941,-0.383209228515625,-0.0416259765625,-0.0470428466796875,1.109194040298462,-1.072765469551086,-0.1107499524950981,39.37898254394531,97.67546081542967,-4.379104614257812
