time_idx,accelerometerAccelerationX(G),accelerometerAccelerationY(G),accelerometerAccelerationZ(G),gyroRotationX(rad/s),gyroRotationY(rad/s),gyroRotationZ(rad/s),magnetometerX(µT),magnetometerY(µT),magnetometerZ(µT)
242379,0.1145172119140625,0.2993621826171875,0.663421630859375,-1.066592574119568,0.8510842323303223,-0.6758844256401062,43.71322631835938,99.0505828857422,-3.805267333984375
242380,0.1119842529296875,0.8476104736328125,1.076385498046875,-1.572939395904541,1.890337586402893,-1.035268425941467,43.15814208984375,98.88616943359376,-3.405838012695312
242381,0.0470733642578125,1.9703369140625,1.230087280273438,-2.27742075920105,3.014960050582886,-1.643387675285339,42.40603637695312,98.8907470703125,-3.092193603515625
242382,0.0470733642578125,1.9703369140625,1.230087280273438,-2.27742075920105,3.014960050582886,-1.643387675285339,42.40603637695312,98.8907470703125,-3.092193603515625
242383,-0.2069549560546875,5.16619873046875,1.056442260742188,-2.36105489730835,3.200879335403442,-3.108473062515259,41.38052368164062,98.8494110107422,-2.988311767578125
242384,-0.6348724365234375,7.667953491210938,0.6092681884765625,-1.712944984436035,1.477912187576294,-3.909488916397095,40.0948486328125,98.67062377929688,-3.106964111328125
242385,-1.479904174804688,6.678436279296875,1.136947631835938,1.066438913345337,-3.775238037109375,-2.982653617858887,36.96038818359375,98.4888153076172,-3.64141845703125
242386,-1.479904174804688,6.678436279296875,1.136947631835938,1.066438913345337,-3.775238037109375,-2.982653617858887,36.96038818359375,98.4888153076172,-3.64141845703125
242387,-1.158935546875,0.555572509765625,0.1138458251953125,-0.2225979268550873,0.2798984944820404,0.2144702225923538,35.22770690917969,97.96365356445312,-4.261260986328125
242388,-0.422271728515625,0.0526275634765625,-2.373001098632812,-0.2225979268550873,0.2798984944820404,0.2144702225923538,34.59671020507812,97.37019348144533,-4.406631469726562
242389,-0.0797576904296875,0.8712005615234375,-2.389556884765625,1.019986748695374,-2.771322250366211,1.432492256164551,34.39797973632812,96.5505828857422,-4.047515869140625
242390,-0.0797576904296875,0.8712005615234375,-2.389556884765625,1.019986748695374,-2.771322250366211,1.432492256164551,34.39797973632812,96.5505828857422,-4.047515869140625
242391,-0.099212646484375,1.530136108398438,-0.22991943359375,1.449566006660461,-0.202592521905899,0.902354061603546,35.52352905273438,96.15435791015624,-3.665863037109375
242392,-0.0365447998046875,1.0235595703125,-0.454437255859375,1.476041555404663,0.276305615901947,0.8771304488182068,36.10673522949219,96.39382934570312,-3.874908447265625
242393,-0.0672760009765625,0.7076416015625,-0.5205535888671875,1.460602998733521,0.365927129983902,0.9528886079788208,36.61624145507812,96.62193298339844,-4.337066650390625
242394,-0.0672760009765625,0.7076416015625,-0.5205535888671875,1.460602998733521,0.365927129983902,0.9528886079788208,36.61624145507812,96.62193298339844,-4.337066650390625
242395,-0.02105712890625,0.4882965087890625,-0.5630645751953125,1.512743711471558,-0.007472563534975,1.10384213924408,36.98899841308594,96.79899597167967,-4.8704833984375
242396,0.042236328125,0.3990020751953125,0.1477508544921875,1.432686686515808,-0.5193901658058167,1.200339674949646,37.89704895019531,97.22293090820312,-5.884017944335938
242397,0.1143951416015625,0.163909912109375,0.086029052734375,1.049021601676941,-0.0901450738310813,1.124485731124878,38.26753234863281,97.65574645996094,-6.295669555664062
242398,0.1143951416015625,0.163909912109375,0.086029052734375,1.049021601676941,-0.0901450738310813,1.124485731124878,38.26753234863281,97.65574645996094,-6.295669555664062
242399,0.16192626953125,-0.0654144287109375,-0.09527587890625,0.8384770750999451,0.0796397030353546,1.208265542984009,38.54791259765625,98.02272033691406,-6.792709350585938
242400,0.1407470703125,-0.27215576171875,-0.074462890625,0.5482234358787537,1.146967768669128,1.364676475524902,39.16229248046875,98.44879150390624,-7.150177001953125
242401,0.1280670166015625,-0.2911376953125,-0.3125152587890625,0.576964259147644,1.542281031608582,1.43673574924469,39.62385559082031,98.7691650390625,-7.17718505859375
242402,0.1280670166015625,-0.2911376953125,-0.3125152587890625,0.576964259147644,1.542281031608582,1.43673574924469,39.62385559082031,98.7691650390625,-7.17718505859375
242403,0.1029815673828125,-0.237518310546875,-0.32891845703125,0.7422986030578613,1.277525305747986,1.531640648841858,40.16947937011719,98.98013305664062,-7.309722900390625
242404,0.057220458984375,-0.1649627685546875,-0.0863494873046875,0.395892471075058,1.077000737190247,1.466340184211731,41.47308349609375,99.14421081542967,-7.556228637695312
242405,0.05694580078125,-0.187744140625,-0.2117919921875,0.312762975692749,0.6979444622993469,1.440899610519409,42.25465393066406,99.19882202148438,-7.4818115234375
242406,0.05694580078125,-0.187744140625,-0.2117919921875,0.312762975692749,0.6979444622993469,1.440899610519409,42.25465393066406,99.19882202148438,-7.4818115234375
242407,0.0746612548828125,-0.256195068359375,-0.1409759521484375,0.4138272702693939,-0.3586534857749939,1.435803055763245,43.95462036132812,99.20320129394533,-7.193161010742188
242408,0.0834503173828125,-0.31475830078125,0.0260772705078125,0.1515397280454636,0.2252520322799683,1.302216768264771,44.90106201171875,99.13088989257812,-7.240371704101562
242409,0.1029205322265625,-0.3332366943359375,-0.132965087890625,-0.0111197624355554,0.3099474608898163,0.9910722374916076,45.8323974609375,98.8389129638672,-7.009872436523438
242410,0.1031951904296875,-0.2911834716796875,-0.1297607421875,-0.0439927577972412,0.2962689399719238,0.8342005610466003,46.57916259765625,98.5917510986328,-6.836929321289062
242411,0.1031951904296875,-0.2911834716796875,-0.1297607421875,-0.0439927577972412,0.2962689399719238,0.8342005610466003,46.57916259765625,98.5917510986328,-6.836929321289062
242412,0.0941009521484375,-0.2592926025390625,0.092742919921875,-0.1348539590835571,0.5137064456939697,0.637346625328064,47.39956665039062,98.04986572265624,-6.420745849609375
242413,0.0843963623046875,-0.26226806640625,0.032928466796875,-0.3190608024597168,0.671555757522583,0.4208244681358337,47.58148193359375,97.91323852539062,-6.34967041015625
242414,0.0843963623046875,-0.26226806640625,0.032928466796875,-0.3190608024597168,0.671555757522583,0.4208244681358337,47.58148193359375,97.91323852539062,-6.34967041015625
242415,0.0574493408203125,-0.2675628662109375,-0.1116180419921875,-0.8479153513908386,0.0060232714749872,0.0392430089414119,47.65090942382812,97.82958984375,-6.254501342773438
242416,0.0051116943359375,-0.2591552734375,-0.3258056640625,-1.103266716003418,-0.747545599937439,-0.1901188045740128,47.650390625,97.7504425048828,-6.121734619140625
242417,-0.1321258544921875,0.192535400390625,-0.10137939453125,-1.319632053375244,-0.9149335026741028,-0.3652893006801605,47.67097473144531,97.4578857421875,-5.247604370117188
242418,-0.1321258544921875,0.192535400390625,-0.10137939453125,-1.319632053375244,-0.9149335026741028,-0.3652893006801605,47.67097473144531,97.4578857421875,-5.247604370117188
242419,-0.0403900146484375,0.27783203125,0.43011474609375,-1.575677394866943,-0.3878284096717834,-0.4640150666236877,47.63131713867188,97.33200073242188,-4.696334838867188
242420,0.025848388671875,0.4696807861328125,1.072128295898438,-2.657465219497681,2.091435194015503,-0.7594147324562073,47.56794738769531,97.08523559570312,-3.405502319335938
242421,0.0467376708984375,0.7086181640625,1.375350952148438,-3.162164449691772,2.971655607223511,-1.035398364067078,47.39764404296875,96.9575653076172,-2.508636474609375
242422,-0.0333709716796875,1.148025512695312,1.807708740234375,-3.249239683151245,3.427461624145508,-1.456047892570496,47.14175415039062,96.9574737548828,-1.404525756835938
242423,-0.0333709716796875,1.148025512695312,1.807708740234375,-3.249239683151245,3.427461624145508,-1.456047892570496,47.14175415039062,96.9574737548828,-1.404525756835938
242424,-0.166351318359375,2.129684448242188,1.779708862304688,-2.856597185134888,2.524639368057251,-1.875554919242859,46.374755859375,97.14714050292967,-0.3599700927734375
242425,-0.7333984375,8.100860595703125,3.0179443359375,-1.866872429847717,-1.774029850959778,0.2434496730566025,44.59033203125,97.39372253417967,-0.1619720458984375
242426,-0.7333984375,8.100860595703125,3.0179443359375,-1.866872429847717,-1.774029850959778,0.2434496730566025,44.59033203125,97.39372253417967,-0.1619720458984375
242427,-1.693252563476562,7.056289672851562,1.7025146484375,-1.75981605052948,2.362781763076782,-1.048059582710266,45.42054748535156,97.46536254882812,-2.227981567382812
242428,-0.3583831787109375,3.411941528320312,-0.507110595703125,-1.542200088500977,1.542762756347656,-2.153810977935791,45.98335266113281,97.14178466796876,-1.726791381835938
242429,0.663787841796875,0.834320068359375,-3.976058959960938,-2.030785322189331,-3.493853569030762,-1.734085083007812,45.28778076171875,96.77751159667967,-0.4679107666015625
242430,0.663787841796875,0.834320068359375,-3.976058959960938,-2.030785322189331,-3.493853569030762,-1.734085083007812,45.28778076171875,96.77751159667967,-0.4679107666015625
242431,1.563339233398438,-0.6532745361328125,-4.128997802734375,-0.500682532787323,-11.75806713104248,0.3906883895397186,43.85281372070312,96.23210144042967,1.009658813476562
242432,0.6243896484375,-0.1766204833984375,0.3231353759765625,2.406007289886475,2.017678260803223,1.264176249504089,42.99485778808594,96.01263427734376,2.455078125
242433,0.18133544921875,0.8866729736328125,-0.1372528076171875,2.211295366287231,2.038569211959839,1.290575265884399,43.82987976074219,96.20518493652344,3.77783203125
242434,0.18133544921875,0.8866729736328125,-0.1372528076171875,2.211295366287231,2.038569211959839,1.290575265884399,43.82987976074219,96.20518493652344,3.77783203125
242435,0.012298583984375,1.033050537109375,-0.229766845703125,1.500712513923645,1.37603771686554,0.781844973564148,44.31932067871094,96.17721557617188,3.1689453125
242436,-0.066436767578125,0.899505615234375,-0.635284423828125,0.7536306381225586,0.1395469754934311,0.1551725417375565,44.66615295410156,96.35792541503906,2.37237548828125
242437,-0.1084136962890625,0.3258514404296875,-0.9846343994140624,0.5234581828117371,0.3191244602203369,0.5529686212539673,44.98951721191406,96.93016052246094,1.224380493164062
242438,-0.1084136962890625,0.3258514404296875,-0.9846343994140624,0.5234581828117371,0.3191244602203369,0.5529686212539673,44.98951721191406,96.93016052246094,1.224380493164062
242439,-0.1101226806640625,0.2378997802734375,-0.98956298828125,0.8360623717308044,0.8031046986579895,0.6569781303405762,45.00392150878906,97.08746337890624,0.9439239501953124
242440,0.0491790771484375,0.6069793701171875,-0.3640289306640625,0.8333041667938232,0.8399136066436768,0.5262555480003357,45.071044921875,97.46925354003906,0.41583251953125
242441,0.003631591796875,0.5809783935546875,-0.173614501953125,0.7231286764144897,0.6838957667350769,0.3002122938632965,45.20265197753906,97.62086486816406,0.0170135498046875
242442,0.003631591796875,0.5809783935546875,-0.173614501953125,0.7231286764144897,0.6838957667350769,0.3002122938632965,45.20265197753906,97.62086486816406,0.0170135498046875
242443,0.005950927734375,0.46514892578125,-0.0572662353515625,0.6536518335342407,0.5164194107055664,0.0883074924349784,45.42831420898438,97.8120574951172,-0.3770904541015625
242444,0.0845947265625,0.216949462890625,0.030792236328125,0.67559415102005,0.5027254223823547,-0.1014888063073158,45.49920654296875,98.14093017578124,-1.244491577148438
242445,0.12188720703125,0.097900390625,0.063018798828125,0.7266722321510315,0.5703324675559998,-0.0821457356214523,45.513671875,98.18675231933594,-1.482986450195312
242446,0.12188720703125,0.097900390625,0.063018798828125,0.7266722321510315,0.5703324675559998,-0.0821457356214523,45.513671875,98.18675231933594,-1.482986450195312
242447,0.129608154296875,0.013824462890625,0.1470184326171875,0.5472425818443298,1.037229537963867,0.0239684488624334,45.4365234375,98.26431274414062,-1.797225952148438
242448,0.113494873046875,-0.0563812255859375,0.1969146728515625,0.4240767061710358,1.245909810066223,0.0553577989339828,45.39102172851562,98.3651885986328,-2.061309814453125
242449,0.0627899169921875,-0.1030426025390625,0.0390472412109375,0.4199972748756409,1.315814137458801,0.0597791783511638,45.29931640625,98.39273071289062,-2.197463989257812
242450,0.061370849609375,-0.1171722412109375,-0.019500732421875,0.479380190372467,1.253950238227844,0.0716307759284973,45.28546142578125,98.23158264160156,-2.051223754882812
242451,0.061370849609375,-0.1171722412109375,-0.019500732421875,0.479380190372467,1.253950238227844,0.0716307759284973,45.28546142578125,98.23158264160156,-2.051223754882812
242452,0.060028076171875,-0.1349029541015625,-0.07171630859375,0.6022946238517761,1.047261953353882,0.0887714177370071,45.17280578613281,98.3271026611328,-2.081893920898438
242453,0.0533294677734375,-0.1495361328125,-0.161529541015625,0.8166905641555786,-0.424880176782608,0.0810695514082908,44.99858093261719,98.39778137207033,-2.213302612304688
242454,0.0533294677734375,-0.1495361328125,-0.161529541015625,0.8166905641555786,-0.424880176782608,0.0810695514082908,44.99858093261719,98.39778137207033,-2.213302612304688
242455,0.0520782470703125,-0.133453369140625,-0.0266571044921875,0.742608904838562,-0.8235764503479004,0.0327813811600208,44.92527770996094,98.4816436767578,-2.290969848632812
242456,0.0502471923828125,-0.1180419921875,0.110321044921875,0.6017228960990906,-0.8949651122093201,-0.0480229184031486,44.99868774414062,98.43797302246094,-2.380523681640625
242457,0.0584564208984375,-0.1120758056640625,0.2026824951171875,0.387706458568573,-0.6744269132614136,-0.1350145488977432,45.14418029785156,98.50186157226562,-2.49407958984375
242458,0.0852813720703125,-0.0967254638671875,0.2400665283203125,0.0995271205902099,-0.2925317287445068,-0.213187113404274,45.26426696777344,98.49853515625,-2.6783447265625
242459,0.0852813720703125,-0.0967254638671875,0.2400665283203125,0.0995271205902099,-0.2925317287445068,-0.213187113404274,45.26426696777344,98.49853515625,-2.6783447265625
242460,0.122161865234375,-0.0309906005859375,0.2257080078125,-0.2554301619529724,0.0697689577937126,-0.2804305851459503,45.26986694335938,98.4744110107422,-2.618988037109375
242461,0.071990966796875,0.161865234375,0.23016357421875,-0.9158115386962892,0.3706848621368408,-0.4568924605846405,45.09744262695312,98.44314575195312,-2.48516845703125
242462,0.053863525390625,0.203399658203125,0.418121337890625,-1.213417649269104,0.5730217099189758,-0.5859878659248352,44.90992736816406,98.33042907714844,-2.214614868164062
242463,0.053863525390625,0.203399658203125,0.418121337890625,-1.213417649269104,0.5730217099189758,-0.5859878659248352,44.90992736816406,98.33042907714844,-2.214614868164062
242464,0.0432586669921875,0.421722412109375,0.725921630859375,-1.599254369735718,1.0615314245224,-0.7869963049888611,44.64010620117188,98.27645874023438,-1.988784790039062
242465,-0.0386962890625,1.987457275390625,1.22698974609375,-2.863392353057861,2.493199825286865,-1.776150584220886,43.767578125,98.26181030273438,-1.500991821289062
242466,-0.0386962890625,1.987457275390625,1.22698974609375,-2.863392353057861,2.493199825286865,-1.776150584220886,43.767578125,98.26181030273438,-1.500991821289062
242467,-0.0903167724609375,5.08697509765625,1.406265258789062,-2.582648992538452,2.57584285736084,-2.493325233459473,43.03233337402344,98.10284423828124,-1.0892333984375
242468,-0.573944091796875,6.84783935546875,1.2877197265625,-1.810637950897217,1.074808359146118,-1.879585266113281,42.07420349121094,97.952392578125,-0.960784912109375
242469,-1.26763916015625,5.608871459960938,0.8875274658203125,0.5712293982505798,-1.648972392082214,-1.861225724220276,40.22885131835938,97.77334594726562,-1.323532104492188
242470,-1.26763916015625,5.608871459960938,0.8875274658203125,0.5712293982505798,-1.648972392082214,-1.861225724220276,40.22885131835938,97.77334594726562,-1.323532104492188
242471,-0.15655517578125,1.8182373046875,-0.2879486083984375,-0.0558664612472057,-3.528287172317505,-1.796619892120361,39.13059997558594,97.46980285644533,-0.7920684814453125
242472,-0.0283203125,1.261138916015625,-0.575225830078125,-0.5057212114334106,-3.922521829605103,-1.514744997024536,38.51423645019531,97.35458374023438,-0.4996490478515625
242473,0.0721588134765625,0.9887847900390624,-1.06036376953125,-0.7390074729919434,-4.160182476043701,-0.7960183024406433,37.86427307128906,96.99386596679688,0.093505859375
242474,0.0721588134765625,0.9887847900390624,-1.06036376953125,-0.7390074729919434,-4.160182476043701,-0.7960183024406433,37.86427307128906,96.99386596679688,0.093505859375
242475,0.11810302734375,1.184707641601562,-0.729095458984375,-0.1957420706748962,-2.179540157318115,0.1718607097864151,37.42085266113281,96.78419494628906,0.53778076171875
242476,0.0381011962890625,1.471694946289062,-0.5540924072265625,2.172210454940796,0.218096911907196,0.6329124569892883,37.16831970214844,96.70504760742188,0.924774169921875
242477,-0.1003265380859375,1.389739990234375,-0.06640625,2.290652751922607,0.7342830300331116,0.6470751762390137,37.65863037109375,96.80506896972656,1.204925537109375
242478,-0.1003265380859375,1.389739990234375,-0.06640625,2.290652751922607,0.7342830300331116,0.6470751762390137,37.65863037109375,96.80506896972656,1.204925537109375
242479,-0.15301513671875,1.168685913085938,-0.1988983154296875,1.965827226638794,0.832647442817688,0.6473302841186523,38.04083251953125,97.00619506835938,0.6103973388671875
242480,-0.14862060546875,0.738372802734375,-0.3468017578125,1.086307406425476,-0.2771746218204498,0.4969253540039062,38.90834045410156,97.17808532714844,-1.108535766601562
242481,-0.091796875,0.5373077392578125,-0.329986572265625,1.047202348709106,-0.5416635274887085,0.4813186824321747,39.33189392089844,97.30671691894533,-1.863067626953125
242482,-0.091796875,0.5373077392578125,-0.329986572265625,1.047202348709106,-0.5416635274887085,0.4813186824321747,39.33189392089844,97.30671691894533,-1.863067626953125
242483,0.022735595703125,0.1827850341796875,-0.1977996826171875,1.163945436477661,-0.4613617658615112,0.5190405249595642,40.06640625,97.49961853027344,-2.023727416992188
242484,0.0654449462890625,0.016876220703125,-0.133544921875,1.163945436477661,-0.4613617658615112,0.5190405249595642,40.14143371582031,97.8029327392578,-2.693679809570312
242485,0.0866546630859375,-0.1178131103515625,-0.0951080322265625,1.2196364402771,-0.1992055177688599,0.6012017130851746,40.28054809570312,97.99397277832033,-3.345748901367188
242486,0.0866546630859375,-0.1178131103515625,-0.0951080322265625,1.2196364402771,-0.1992055177688599,0.6012017130851746,40.28054809570312,97.99397277832033,-3.345748901367188
242487,0.0711517333984375,-0.185882568359375,-0.0740509033203125,1.207536578178406,0.4913867712020874,0.7586938142776489,40.57125854492188,98.44813537597656,-4.118789672851562
242488,0.052703857421875,-0.1554718017578125,-0.0217742919921875,1.076091766357422,1.214357733726501,0.7967575788497925,40.65727233886719,98.57040405273438,-4.445724487304688
242489,0.03167724609375,-0.1261749267578125,0.0596771240234375,1.076091766357422,1.214357733726501,0.7967575788497925,40.87197875976562,98.92105102539062,-4.62396240234375
242490,0.03167724609375,-0.1261749267578125,0.0596771240234375,1.076091766357422,1.214357733726501,0.7967575788497925,40.87197875976562,98.92105102539062,-4.62396240234375
242491,0.0265350341796875,-0.1256561279296875,0.0627899169921875,0.9339783191680908,1.556419491767883,0.7913241982460022,41.12506103515625,99.14407348632812,-4.72088623046875
242492,0.0393829345703125,-0.21917724609375,-0.3255462646484375,0.679170548915863,1.103569149971008,0.846480131149292,41.96809387207031,99.3308563232422,-5.359954833984375
242493,0.0399169921875,-0.26617431640625,-0.373321533203125,0.6638176441192627,0.2446811199188232,0.9279292225837708,42.40818786621094,99.23841857910156,-5.510879516601562
242494,0.0399169921875,-0.26617431640625,-0.373321533203125,0.6638176441192627,0.2446811199188232,0.9279292225837708,42.40818786621094,99.23841857910156,-5.510879516601562
242495,0.0372467041015625,-0.2825927734375,-0.216888427734375,0.6872886419296265,-0.3862521052360535,1.00208842754364,43.09304809570312,99.14103698730467,-5.551467895507812
242496,0.044036865234375,-0.396514892578125,0.0917510986328125,0.1416143923997879,1.301936388015747,0.7249420285224915,44.62969970703125,98.67774963378906,-5.317230224609375
242497,0.05517578125,-0.3544158935546875,-0.2081451416015625,-0.0241418220102787,1.262030005455017,0.6342927813529968,45.34376525878906,98.17599487304688,-5.300064086914062
242498,0.05517578125,-0.3544158935546875,-0.2081451416015625,-0.0241418220102787,1.262030005455017,0.6342927813529968,45.34376525878906,98.17599487304688,-5.300064086914062
242499,0.0707855224609375,-0.3124847412109375,-0.0253448486328125,-0.2731862664222717,1.31873881816864,0.5126161575317383,45.92597961425781,97.10267639160156,-5.334686279296875
242500,0.0754547119140625,-0.2693023681640625,-0.050048828125,-0.8660522699356079,0.8852765560150146,0.2028484493494034,45.77545166015625,97.0073699951172,-5.298507690429688
242501,0.0709686279296875,-0.2223358154296875,-0.16387939453125,-0.8660522699356079,0.8852765560150146,0.2028484493494034,45.54838562011719,96.97959899902344,-5.15972900390625
242502,0.0709686279296875,-0.2223358154296875,-0.16387939453125,-0.8660522699356079,0.8852765560150146,0.2028484493494034,45.54838562011719,96.97959899902344,-5.15972900390625
242503,0.0767669677734375,-0.1235809326171875,-0.32666015625,-1.086716175079346,0.23761947453022,-0.0077444724738597,45.43452453613281,96.96061706542967,-5.027206420898438
242504,0.0397796630859375,0.21087646484375,-0.0440826416015625,-1.288761734962463,-0.7477631568908691,-0.4369706809520721,45.2686767578125,96.70567321777344,-4.063491821289062
242505,0.027587890625,0.177490234375,0.3129730224609375,-1.524675369262695,-0.3601206243038177,-0.4699981212615967,45.182373046875,96.7125244140625,-3.557891845703125
242506,0.027587890625,0.177490234375,0.3129730224609375,-1.524675369262695,-0.3601206243038177,-0.4699981212615967,45.182373046875,96.7125244140625,-3.557891845703125
242507,0.028076171875,0.1859283447265625,0.505645751953125,-1.778111934661865,0.277130663394928,-0.5017626881599426,45.2498779296875,96.46795654296876,-2.86907958984375
242508,0.00762939453125,0.4467926025390625,0.9553680419921876,-2.390960931777954,1.525510549545288,-0.6942600011825562,45.19136047363281,96.55348205566406,-1.258148193359375
242509,0.01239013671875,0.7552032470703125,1.377227783203125,-2.770101308822632,2.110394477844238,-0.8852667212486267,44.98530578613281,96.8737335205078,-0.39825439453125
242510,0.0084228515625,1.621551513671875,1.511016845703125,-2.825556993484497,2.315029144287109,-1.259636044502258,44.40530395507812,97.1725616455078,0.2030487060546875
242511,0.0084228515625,1.621551513671875,1.511016845703125,-2.825556993484497,2.315029144287109,-1.259636044502258,44.40530395507812,97.1725616455078,0.2030487060546875
242512,-0.407745361328125,8.071685791015625,2.640716552734375,-2.283092737197876,1.201813697814941,1.331824779510498,43.044921875,97.80534362792967,-1.379257202148438
242513,-1.550933837890625,8.030502319335938,3.142929077148438,-2.267460823059082,3.035514831542969,1.928076148033142,43.3582763671875,97.45635986328124,-2.419403076171875
242514,-1.4656982421875,6.88641357421875,1.55999755859375,-1.230554580688477,4.080946445465088,-0.842593252658844,44.3236083984375,97.04136657714844,-2.34246826171875
242515,-1.4656982421875,6.88641357421875,1.55999755859375,-1.230554580688477,4.080946445465088,-0.842593252658844,44.3236083984375,97.04136657714844,-2.34246826171875
242516,-0.6176605224609375,3.599777221679688,-0.0723724365234375,-0.5066469311714172,2.212318181991577,-2.12940239906311,44.58053588867188,96.50364685058594,-1.4244384765625
242517,0.071533203125,0.929962158203125,-1.327545166015625,-0.8692784309387207,-2.867812395095825,-1.744346261024475,42.37551879882812,95.78387451171876,0.0638885498046875
242518,0.071533203125,0.929962158203125,-1.327545166015625,-0.8692784309387207,-2.867812395095825,-1.744346261024475,42.37551879882812,95.78387451171876,0.0638885498046875
242519,0.7344207763671875,0.4389495849609375,-2.993392944335938,-1.777116179466248,-8.423589706420898,-1.2666095495224,41.19041442871094,95.83343505859376,0.5586395263671875
242520,0.7575225830078125,0.6899566650390625,-0.1354827880859375,-0.4849179685115814,0.8711553812026978,0.6530449390411377,39.97705078125,96.50303649902344,2.65728759765625
242521,0.457427978515625,0.9991302490234376,-0.6117401123046875,0.8524197936058044,1.573650479316711,1.683067440986633,40.18246459960938,96.5167236328125,3.81719970703125
242522,0.17572021484375,1.290817260742188,-0.0799713134765625,1.785282492637634,1.791897058486938,1.771827697753906,40.59344482421875,96.42591857910156,4.183502197265625
242523,0.17572021484375,1.290817260742188,-0.0799713134765625,1.785282492637634,1.791897058486938,1.771827697753906,40.59344482421875,96.42591857910156,4.183502197265625
242524,0.210296630859375,1.037673950195312,-0.276824951171875,2.208052635192871,1.138204097747803,1.446111917495728,41.67997741699219,96.50202941894533,3.0789794921875
242525,0.1605072021484375,0.8128509521484375,-0.3481903076171875,1.949359655380249,0.221392035484314,1.311768531799316,42.1903076171875,96.93157958984376,1.98193359375
242526,0.1605072021484375,0.8128509521484375,-0.3481903076171875,1.949359655380249,0.221392035484314,1.311768531799316,42.1903076171875,96.93157958984376,1.98193359375
242527,0.077117919921875,0.6034393310546875,-0.2972869873046875,1.399705290794373,-1.014601826667786,0.8463073372840881,42.68223571777344,97.22296142578124,1.085433959960938
242528,0.025299072265625,0.42950439453125,-0.218780517578125,1.399705290794373,-1.014601826667786,0.8463073372840881,43.2501220703125,97.61140441894533,0.2157745361328125
242529,-0.0077362060546875,0.152008056640625,-0.0929412841796875,0.8356011509895325,-0.8358035683631897,0.4469873607158661,44.03387451171875,98.35101318359376,-0.8270416259765625
242530,-0.0077362060546875,0.152008056640625,-0.0929412841796875,0.8356011509895325,-0.8358035683631897,0.4469873607158661,44.03387451171875,98.35101318359376,-0.8270416259765625
242531,-0.0066375732421875,0.072509765625,-0.0151214599609375,0.3474836647510529,0.4466259479522705,0.3276548385620117,44.22560119628906,98.69122314453124,-1.198944091796875
242532,0.021759033203125,0.0388641357421875,-0.13720703125,0.3081881999969482,0.7377837896347046,0.3172655701637268,44.50787353515625,99.12440490722656,-1.575241088867188
242533,0.057220458984375,0.0617828369140625,-0.1949615478515625,0.4290051460266113,0.6292751431465149,0.3050656318664551,44.64129638671875,99.2033233642578,-1.666046142578125
242534,0.057220458984375,0.0617828369140625,-0.1949615478515625,0.4290051460266113,0.6292751431465149,0.3050656318664551,44.64129638671875,99.2033233642578,-1.666046142578125
242535,0.0936279296875,0.0550384521484375,-0.154510498046875,0.6049748659133911,0.376426637172699,0.2947970032691956,44.68734741210938,99.28523254394533,-1.919830322265625
242536,0.120941162109375,-0.003997802734375,0.03656005859375,0.7345703840255737,0.188422366976738,0.3398955166339874,45.09625244140625,99.29490661621094,-2.393325805664062
242537,0.1190032958984375,-0.025482177734375,0.088287353515625,0.6715200543403625,0.2131921648979187,0.3817454874515533,45.25650024414062,99.3615264892578,-2.5875244140625
242538,0.1190032958984375,-0.025482177734375,0.088287353515625,0.6715200543403625,0.2131921648979187,0.3817454874515533,45.25650024414062,99.3615264892578,-2.5875244140625
242539,0.106201171875,-0.0376739501953125,0.1203765869140625,0.4633431434631348,0.3616005480289459,0.3588052988052368,45.51448059082031,99.31982421875,-2.831100463867188
242540,0.0621795654296875,-0.049102783203125,0.1240692138671875,0.3635686337947845,0.4502134919166565,0.2733039855957031,45.94813537597656,99.39739990234376,-3.027908325195312
242541,0.0399322509765625,-0.05413818359375,0.0920562744140625,0.260090172290802,0.5042197704315186,0.1628312617540359,46.10826110839844,99.35003662109376,-3.09283447265625
242542,0.0399322509765625,-0.05413818359375,0.0920562744140625,0.260090172290802,0.5042197704315186,0.1628312617540359,46.10826110839844,99.35003662109376,-3.09283447265625
242543,0.0180511474609375,-0.0582122802734375,0.0533447265625,0.0156015967950224,0.4454256594181061,-0.0497276075184345,46.27438354492188,99.26809692382812,-3.046707153320312
242544,-0.0263824462890625,-0.0472869873046875,-9.1552734375e-05,-0.1388367116451263,0.3544076085090637,-0.1542263180017471,46.40713500976562,99.16307067871094,-2.920333862304688
242545,-0.0409393310546875,-0.03948974609375,-0.030120849609375,-0.4754655957221985,0.0132966302335262,-0.3520405888557434,46.39192199707031,99.22824096679688,-2.73382568359375
242546,-0.0409393310546875,-0.03948974609375,-0.030120849609375,-0.4754655957221985,0.0132966302335262,-0.3520405888557434,46.39192199707031,99.22824096679688,-2.73382568359375
242547,-0.0541534423828125,-0.030517578125,-0.0642852783203125,-0.4754655957221985,0.0132966302335262,-0.3520405888557434,46.28256225585938,99.22422790527344,-2.72332763671875
242548,-0.07574462890625,0.035919189453125,-0.2169342041015625,-0.615378201007843,-0.6433270573616028,-0.570102334022522,46.12982177734375,99.0619659423828,-2.36688232421875
242549,-0.0421295166015625,0.1305389404296875,-0.2300262451171875,-0.6320791840553284,-1.097178936004639,-0.6870540380477905,45.99372863769531,98.9092254638672,-2.028396606445312
242550,-0.0421295166015625,0.1305389404296875,-0.2300262451171875,-0.6320791840553284,-1.097178936004639,-0.6870540380477905,45.99372863769531,98.9092254638672,-2.028396606445312
242551,0.0037384033203125,0.1679229736328125,-0.06976318359375,-0.7782561182975769,-1.006637096405029,-0.8520054221153259,45.70674133300781,98.9000244140625,-1.654769897460938
242552,0.014190673828125,0.18658447265625,0.1876220703125,-0.7782561182975769,-1.006637096405029,-0.8520054221153259,45.4078369140625,98.90394592285156,-1.471115112304688
242553,0.07452392578125,2.011917114257812,0.73516845703125,-1.198414444923401,1.255362749099731,-1.534150719642639,44.48356628417969,99.10409545898438,-1.182144165039062
242554,0.07452392578125,2.011917114257812,0.73516845703125,-1.198414444923401,1.255362749099731,-1.534150719642639,44.48356628417969,99.10409545898438,-1.182144165039062
242555,-0.20343017578125,4.562545776367188,0.830810546875,-1.182306051254272,3.338271856307983,-1.932128667831421,42.83160400390625,99.42214965820312,-1.26983642578125
242556,-0.5832366943359375,5.379440307617188,0.71435546875,-0.5656276941299438,2.314846038818359,-2.009902954101562,41.95950317382812,99.17318725585938,-1.239349365234375
242557,-0.8503265380859375,5.288665771484375,0.807861328125,0.3605171740055084,0.3296644389629364,-1.557734251022339,41.05372619628906,98.7161102294922,-1.362136840820312
242558,-0.8503265380859375,5.288665771484375,0.807861328125,0.3605171740055084,0.3296644389629364,-1.557734251022339,41.05372619628906,98.7161102294922,-1.362136840820312
242559,-0.669586181640625,4.0875244140625,0.9043731689453124,0.9800618886947632,-1.093279242515564,-0.7431316375732422,40.20915222167969,98.415283203125,-1.671356201171875
242560,-0.2995147705078125,2.853530883789062,0.6848907470703125,0.6622658371925354,-2.10044264793396,-0.2738597691059113,39.67626953125,98.410888671875,-1.824905395507812
242561,0.090850830078125,1.922454833984375,0.345458984375,-0.4841158092021942,-2.823333978652954,-0.1488685756921768,39.46574401855469,98.14866638183594,-1.891128540039062
242562,0.2956085205078125,2.02301025390625,0.024139404296875,-0.6612149477005005,-2.708901643753052,0.113333486020565,39.57185363769531,97.81472778320312,-1.499069213867188
242563,0.2956085205078125,2.02301025390625,0.024139404296875,-0.6612149477005005,-2.708901643753052,0.113333486020565,39.57185363769531,97.81472778320312,-1.499069213867188
242564,0.707855224609375,2.3721923828125,-1.890289306640625,1.285736560821533,-4.166130542755127,0.8123117685317993,39.73899841308594,97.62217712402344,-0.34246826171875
242565,0.3875579833984375,1.873138427734375,-0.88885498046875,2.060075998306274,-0.6880042552947998,0.3440452516078949,40.04769897460938,97.90249633789062,0.3401336669921875
242566,0.3875579833984375,1.873138427734375,-0.88885498046875,2.060075998306274,-0.6880042552947998,0.3440452516078949,40.04769897460938,97.90249633789062,0.3401336669921875
242567,0.1194000244140625,1.286087036132812,-0.314727783203125,1.581072092056274,0.2682428956031799,0.3277730643749237,40.8514404296875,98.4856414794922,-0.5756072998046875
242568,0.1033935546875,1.032028198242188,-0.12554931640625,1.255826950073242,0.1280170828104019,0.3640924692153931,41.21809387207031,98.60757446289062,-1.583297729492188
242569,0.0759429931640625,0.7588043212890625,-0.1523895263671875,1.130631685256958,-0.1511138826608658,0.4235976040363312,41.63288879394531,98.6345672607422,-2.644180297851562
242570,0.0759429931640625,0.7588043212890625,-0.1523895263671875,1.130631685256958,-0.1511138826608658,0.4235976040363312,41.63288879394531,98.6345672607422,-2.644180297851562
242571,0.1306304931640625,0.2522125244140625,-0.354736328125,1.223899364471436,-0.6230058073997498,0.5001499056816101,42.3057861328125,98.59381103515624,-3.897781372070312
242572,0.1532135009765625,0.0388641357421875,-0.33447265625,1.442132115364075,-1.063953876495361,0.5851494669914246,42.6015625,98.75115966796876,-4.184844970703125
242573,0.1541900634765625,-0.0945892333984375,-0.2093963623046875,1.58747386932373,-1.185642004013062,0.6339952945709229,42.86654663085938,98.79881286621094,-4.48968505859375
242574,0.1541900634765625,-0.0945892333984375,-0.2093963623046875,1.58747386932373,-1.185642004013062,0.6339952945709229,42.86654663085938,98.79881286621094,-4.48968505859375
242575,0.04736328125,-0.279815673828125,0.089324951171875,0.8224546909332275,1.441937446594238,0.4730969965457916,43.30288696289062,99.48585510253906,-5.722793579101562
242576,0.0233612060546875,-0.256683349609375,-0.0526123046875,0.8224546909332275,1.441937446594238,0.4730969965457916,43.5009765625,99.71627807617188,-6.236190795898438
242577,-0.00189208984375,-0.192840576171875,-0.0395965576171875,0.6908373236656189,1.493335604667664,0.482636421918869,43.79902648925781,99.951904296875,-6.60589599609375
242578,-0.0381622314453125,-0.155029296875,0.0497589111328125,0.5911751389503479,1.489524841308594,0.4738213717937469,44.05690002441406,99.9997100830078,-6.981704711914062
242579,-0.0381622314453125,-0.155029296875,0.0497589111328125,0.5911751389503479,1.489524841308594,0.4738213717937469,44.05690002441406,99.9997100830078,-6.981704711914062
242580,-0.1174774169921875,-0.124359130859375,0.00347900390625,0.3721008598804474,1.427157402038574,0.3462189137935638,44.51834106445312,100.0605010986328,-7.461883544921875
242581,-0.1553192138671875,-0.1144256591796875,-0.1098480224609375,0.2452872544527054,1.137693881988525,0.2317131161689758,44.77903747558594,100.1172027587891,-7.477523803710938
242582,-0.1553192138671875,-0.1144256591796875,-0.1098480224609375,0.2452872544527054,1.137693881988525,0.2317131161689758,44.77903747558594,100.1172027587891,-7.477523803710938
242583,-0.194091796875,-0.117431640625,-0.19842529296875,0.1056390777230263,0.7165807485580444,0.0778146386146545,45.06649780273438,100.2779388427734,-7.742355346679688
242584,-0.3423309326171875,-0.1603851318359375,-0.1361236572265625,-0.1590658128261566,0.3688041269779205,-0.3824243247509003,45.61738586425781,100.4704895019531,-7.61004638671875
242585,-0.2850799560546875,-0.180084228515625,-0.0986175537109375,-0.3175193667411804,0.5279700756072998,-0.6219152212142944,45.67794799804688,100.4177093505859,-7.392440795898438
242586,-0.2850799560546875,-0.180084228515625,-0.0986175537109375,-0.3175193667411804,0.5279700756072998,-0.6219152212142944,45.67794799804688,100.4177093505859,-7.392440795898438
242587,-0.047760009765625,-0.173431396484375,-0.054931640625,-0.6777486801147461,0.266034334897995,-0.7672756314277649,45.64891052246094,100.4449615478516,-6.766815185546875
242588,-0.0020751953125,-0.151580810546875,0.0386505126953125,-0.8110244274139404,0.1425845772027969,-0.755327045917511,45.48211669921875,100.1601715087891,-6.142440795898438
242589,0.0166168212890625,-0.1341552734375,0.115631103515625,-0.891742467880249,0.1600157618522644,-0.7364399433135986,45.22233581542969,99.98606872558594,-5.557754516601562
242590,0.0166168212890625,-0.1341552734375,0.115631103515625,-0.891742467880249,0.1600157618522644,-0.7364399433135986,45.22233581542969,99.98606872558594,-5.557754516601562
242591,0.0358123779296875,-0.1281585693359375,0.11724853515625,-1.084319829940796,0.0921618863940239,-0.705260157585144,44.77664184570312,99.3543701171875,-4.25384521484375
242592,0.039093017578125,-0.092529296875,0.12469482421875,-1.295346856117249,-0.1898460984230042,-0.6417701244354248,44.56661987304688,99.11882019042967,-3.832473754882812
242593,0.00115966796875,0.0509796142578125,0.184417724609375,-1.53322172164917,-0.5046551823616028,-0.5749602317810059,44.2330322265625,98.8866729736328,-3.184799194335938
242594,0.00115966796875,0.0509796142578125,0.184417724609375,-1.53322172164917,-0.5046551823616028,-0.5749602317810059,44.2330322265625,98.8866729736328,-3.184799194335938
242595,-0.0430755615234375,0.1601715087890625,0.3661651611328125,-2.180436849594116,-0.5969632863998413,-0.7230826020240784,43.64091491699219,98.39559936523438,-2.039886474609375
242596,-0.0490570068359375,0.1979522705078125,0.505218505859375,-2.271012783050537,-0.2465304136276245,-0.8198882341384888,43.22450256347656,98.21922302246094,-1.412918090820312
242597,-0.0714569091796875,0.2669830322265625,0.6764678955078125,-2.271012783050537,-0.2465304136276245,-0.8198882341384888,42.8016357421875,98.01632690429688,-0.6299285888671875
242598,-0.0714569091796875,0.2669830322265625,0.6764678955078125,-2.271012783050537,-0.2465304136276245,-0.8198882341384888,42.8016357421875,98.01632690429688,-0.6299285888671875
242599,-0.2382659912109375,1.238250732421875,1.269866943359375,-2.185665607452393,0.9526707530021667,-1.039727926254272,41.67744445800781,97.52813720703124,0.1993865966796875
242600,-0.5196533203125,4.160202026367188,1.713165283203125,-1.682777762413025,2.152041912078857,-0.3804370760917664,41.097900390625,97.39463806152344,-0.058135986328125
242601,-0.84942626953125,6.129287719726562,1.85595703125,-1.080476880073547,2.344714164733887,1.473926544189453,40.51437377929688,97.07333374023438,-0.6592864990234375
242602,-0.84942626953125,6.129287719726562,1.85595703125,-1.080476880073547,2.344714164733887,1.473926544189453,40.51437377929688,97.07333374023438,-0.6592864990234375
242603,-1.371170043945312,7.0374755859375,1.755538940429688,-0.496683806180954,1.838377475738525,1.562766909599304,40.31301879882812,97.0263214111328,-1.320587158203125
242604,-0.5760650634765625,3.2685546875,0.506134033203125,-1.430758237838745,-1.102558493614197,-1.082707643508911,40.96510314941406,96.90565490722656,-1.74822998046875
242605,-0.398101806640625,1.765792846679688,0.43701171875,-2.128810405731201,-1.379112958908081,-1.130510330200195,41.01655578613281,96.79148864746094,-1.297103881835938
242606,-0.398101806640625,1.765792846679688,0.43701171875,-2.128810405731201,-1.379112958908081,-1.130510330200195,41.01655578613281,96.79148864746094,-1.297103881835938
242607,-0.16729736328125,1.210693359375,0.3877105712890625,-3.329638242721558,1.443966150283813,-0.3194088935852051,40.58158874511719,96.49208068847656,-0.4738311767578125
242608,0.50506591796875,1.95147705078125,-1.402969360351562,-2.244964361190796,-0.5003131628036499,0.4666207134723663,39.39183044433594,95.20741271972656,2.194381713867188
242609,0.38311767578125,2.262435913085938,-0.6038360595703125,1.464915633201599,-0.1693168580532074,1.082703113555908,38.84951782226562,94.47573852539062,3.669952392578125
242610,0.38311767578125,2.262435913085938,-0.6038360595703125,1.464915633201599,-0.1693168580532074,1.082703113555908,38.84951782226562,94.47573852539062,3.669952392578125
242611,0.247039794921875,2.237319946289062,0.2985992431640625,1.464915633201599,-0.1693168580532074,1.082703113555908,38.77020263671875,94.04444885253906,4.7603759765625
242612,0.1335906982421875,1.743331909179688,-0.041168212890625,1.253047347068787,1.024169445037842,0.6513700485229492,39.33921813964844,94.44158935546876,5.153060913085938
242613,0.0968475341796875,1.405471801757812,-0.164947509765625,0.7547819018363953,0.4679664075374603,0.5518946051597595,39.62185668945312,94.80378723144533,4.578964233398438
242614,0.0968475341796875,1.405471801757812,-0.164947509765625,0.7547819018363953,0.4679664075374603,0.5518946051597595,39.62185668945312,94.80378723144533,4.578964233398438
242615,0.0888214111328125,1.146484375,-0.1721649169921875,0.5382392406463623,-0.6880348324775696,0.6817063689231873,39.77523803710938,95.0579071044922,4.192642211914062
242616,0.1399688720703125,0.935516357421875,-0.2641754150390625,0.8728422522544861,-1.321643233299255,0.8530434966087341,40.09519958496094,94.96580505371094,3.85784912109375
242617,0.1871795654296875,0.5677337646484375,-0.436798095703125,1.436093330383301,-1.834941625595093,1.060442209243774,40.90228271484375,95.04640197753906,3.721023559570312
242618,-0.0054931640625,0.306304931640625,-0.0860443115234375,2.010766267776489,-1.104614734649658,0.963115692138672,42.14111328125,95.41740417480467,3.632308959960938
242619,-0.0054931640625,0.306304931640625,-0.0860443115234375,2.010766267776489,-1.104614734649658,0.963115692138672,42.14111328125,95.41740417480467,3.632308959960938
242620,-0.0791473388671875,0.1500244140625,-0.0479278564453125,1.790982723236084,-0.1403882652521133,0.6642051339149475,42.808349609375,95.82113647460938,3.020233154296875
242621,-0.1092529296875,0.0329437255859375,-0.1014556884765625,1.371672868728638,0.7159362435340881,0.380797415971756,43.29962158203125,96.33877563476562,2.076629638671875
242622,-0.1053314208984375,-0.0492706298828125,-0.1974945068359375,0.960941195487976,1.026789784431458,0.1971117407083511,43.65081787109375,96.7039794921875,1.175338745117188
242623,-0.1053314208984375,-0.0492706298828125,-0.1974945068359375,0.960941195487976,1.026789784431458,0.1971117407083511,43.65081787109375,96.7039794921875,1.175338745117188
242624,-0.0936737060546875,-0.0937042236328125,-0.218658447265625,0.5479669570922852,0.4067094326019287,0.0998997017741203,43.86590576171875,97.0054168701172,0.4176788330078125
242625,-0.0889129638671875,-0.118865966796875,-0.14007568359375,0.530489981174469,0.0214807912707328,0.0807656869292259,44.04177856445312,97.32957458496094,-0.5822906494140625
242626,-0.0889129638671875,-0.118865966796875,-0.14007568359375,0.530489981174469,0.0214807912707328,0.0807656869292259,44.04177856445312,97.32957458496094,-0.5822906494140625
242627,0.0011749267578125,-0.1246795654296875,-0.008544921875,0.6828140020370483,-0.2667137086391449,0.0653039067983627,44.12863159179688,97.4134521484375,-1.034713745117188
242628,0.0428009033203125,-0.12457275390625,0.0489654541015625,0.7751843929290771,-0.2025855928659439,0.0890206843614578,44.22821044921875,97.52035522460938,-1.219406127929688
242629,0.060211181640625,-0.1107330322265625,0.083038330078125,0.852304220199585,-0.0665324181318283,0.1136155128479004,44.28248596191406,97.64389038085938,-1.251953125
242630,0.0562896728515625,-0.086517333984375,0.1039886474609375,0.9349732398986816,0.1962736397981644,0.0790399610996246,44.3280029296875,98.05516052246094,-1.759994506835938
242631,0.0562896728515625,-0.086517333984375,0.1039886474609375,0.9349732398986816,0.1962736397981644,0.0790399610996246,44.3280029296875,98.05516052246094,-1.759994506835938
242632,0.0441436767578125,-0.08270263671875,0.099151611328125,0.904894471168518,0.2597801685333252,0.0274207051843404,44.37043762207031,98.1297607421875,-1.956069946289062
242633,0.021636962890625,-0.0793304443359375,0.09075927734375,0.8187696933746338,0.2538692951202393,-0.0427195020020008,44.41374206542969,98.30299377441406,-2.054763793945312
242634,-0.012420654296875,-0.0725250244140625,0.0924835205078125,0.6801311373710632,0.2044173181056976,-0.1205655634403229,44.33163452148438,98.40293884277344,-2.390518188476562
242635,-0.012420654296875,-0.0725250244140625,0.0924835205078125,0.6801311373710632,0.2044173181056976,-0.1205655634403229,44.33163452148438,98.40293884277344,-2.390518188476562
242636,-0.0793609619140625,-0.0430908203125,0.0969696044921875,0.2928028404712677,0.1239208802580833,-0.3040815889835358,44.24092102050781,98.58157348632812,-3.011322021484375
242637,-0.0793609619140625,-0.0430908203125,0.0969696044921875,0.2928028404712677,0.1239208802580833,-0.3040815889835358,44.24092102050781,98.58157348632812,-3.011322021484375
242638,-0.1141204833984375,-0.024505615234375,0.0973968505859375,0.061672419309616,0.0883911177515983,-0.4213842451572418,44.17802429199219,98.71005249023438,-3.218994140625
242639,-0.151885986328125,-0.0076446533203125,0.106536865234375,-0.1848683804273605,0.075006864964962,-0.5560019612312317,44.06687927246094,98.83712768554688,-3.30670166015625
242640,-0.24737548828125,0.0250396728515625,0.1447601318359375,-0.629647970199585,0.2932848632335663,-0.7923159599304199,43.59579467773438,98.9435577392578,-3.443389892578125
242641,-0.2002716064453125,0.057464599609375,0.1350555419921875,-0.7953189611434937,0.4846537709236145,-0.7523243427276611,43.30790710449219,98.90673828125,-3.289260864257812
242642,-0.0890045166015625,0.1024322509765625,0.0868988037109375,-0.9411728382110596,0.5314458012580872,-0.7098333835601807,42.93241882324219,98.80964660644533,-2.952880859375
242643,-0.0890045166015625,0.1024322509765625,0.0868988037109375,-0.9411728382110596,0.5314458012580872,-0.7098333835601807,42.93241882324219,98.80964660644533,-2.952880859375
242644,-0.014129638671875,0.1267242431640625,0.0154876708984375,-1.048493385314941,0.2759737968444824,-0.7245510816574097,42.49952697753906,98.82957458496094,-2.763565063476562
242645,0.02276611328125,0.3212127685546875,0.2372283935546875,-1.166271209716797,-0.6374920606613159,-0.910288155078888,41.604736328125,98.44593811035156,-2.259429931640625
242646,0.02276611328125,0.3212127685546875,0.2372283935546875,-1.166271209716797,-0.6374920606613159,-0.910288155078888,41.604736328125,98.44593811035156,-2.259429931640625
242647,0.0333251953125,3.44390869140625,0.7693634033203125,-1.868751525878906,-0.3055255711078644,-1.442286849021912,40.74496459960938,98.07391357421876,-1.477951049804688
242648,-0.0543365478515625,5.5135498046875,0.7249298095703125,-1.868751525878906,-0.3055255711078644,-1.442286849021912,40.07940673828125,98.10397338867188,-1.16400146484375
242649,-0.4736175537109375,6.47015380859375,1.017974853515625,-1.926990389823914,-1.603733777999878,-1.399490833282471,39.20806884765625,98.18948364257812,-0.9884033203125
242650,-0.4736175537109375,6.47015380859375,1.017974853515625,-1.926990389823914,-1.603733777999878,-1.399490833282471,39.20806884765625,98.18948364257812,-0.9884033203125
242651,-0.406219482421875,6.429458618164062,1.53765869140625,-1.090587854385376,-1.628028154373169,-1.611052870750427,38.17393493652344,98.29963684082033,-0.524627685546875
242652,0.0523834228515625,4.62103271484375,1.232208251953125,0.1736479550600052,-0.7595617771148682,-0.5355345010757446,37.41192626953125,98.21243286132812,0.1258697509765625
242653,0.0748748779296875,2.28515625,-0.5194244384765625,1.619457602500916,0.2198282331228256,0.6791926026344299,36.73495483398438,97.4108428955078,1.727615356445312
242654,0.2578887939453125,1.845657348632812,-1.182464599609375,2.041704893112183,-0.2789685130119324,0.8038778305053711,36.8941650390625,97.10865783691406,1.832534790039062
242655,0.4198760986328125,1.793106079101562,-1.53692626953125,2.041704893112183,-0.2789685130119324,0.8038778305053711,37.22703552246094,97.0618133544922,1.352767944335938
242656,0.4325408935546875,1.822601318359375,-1.133148193359375,1.093589544296265,-1.128796577453613,0.3184086084365845,37.65010070800781,97.2670440673828,0.54681396484375
242657,0.423126220703125,1.640350341796875,-0.4620513916015625,0.3992235660552979,-1.371284008026123,-0.0226624347269535,38.052490234375,97.40838623046876,-0.395843505859375
242658,0.423126220703125,1.640350341796875,-0.4620513916015625,0.3992235660552979,-1.371284008026123,-0.0226624347269535,38.052490234375,97.40838623046876,-0.395843505859375
242659,0.3713226318359375,1.2110595703125,-0.37823486328125,0.5009179711341858,-0.9562375545501708,0.1266732513904572,38.86851501464844,97.40194702148438,-1.305343627929688
242660,0.291473388671875,1.069351196289062,-0.53875732421875,0.979907214641571,-0.9487838745117188,0.3452487289905548,39.15725708007812,97.35432434082033,-1.336532592773438
242661,0.2131500244140625,0.9796905517578124,-0.522003173828125,1.440876126289368,-0.986051082611084,0.467435896396637,39.94612121582031,97.24252319335938,-1.559234619140625
242662,0.2131500244140625,0.9796905517578124,-0.522003173828125,1.440876126289368,-0.986051082611084,0.467435896396637,39.94612121582031,97.24252319335938,-1.559234619140625
242663,0.158721923828125,0.8983154296875,-0.3175506591796875,1.594966411590576,-0.7278541922569275,0.499443382024765,40.31431579589844,97.41203308105467,-2.006820678710938
242664,0.0242919921875,0.6508636474609375,-0.0883941650390625,1.081271886825562,0.2205808460712433,0.3828970491886139,41.11093139648438,97.98812866210938,-3.267120361328125
242665,-0.0394287109375,0.485382080078125,-0.04498291015625,0.8328298330307007,0.5409663319587708,0.2717500329017639,41.4703369140625,98.04171752929688,-3.79998779296875
242666,-0.0394287109375,0.485382080078125,-0.04498291015625,0.8328298330307007,0.5409663319587708,0.2717500329017639,41.4703369140625,98.04171752929688,-3.79998779296875
242667,-0.1413421630859375,0.213226318359375,0.0660858154296875,0.6963977217674255,1.010366559028625,0.0667148455977439,41.9093017578125,98.0498046875,-4.421035766601562
242668,-0.2011566162109375,0.08074951171875,0.0870361328125,0.6388851404190063,1.232088804244995,-0.0141115579754114,42.007080078125,98.14918518066406,-4.929046630859375
242669,-0.302825927734375,-0.060882568359375,0.102874755859375,0.5352607369422913,1.416609406471252,-0.0195076540112495,42.08708190917969,98.09735107421876,-5.37994384765625
242670,-0.354827880859375,-0.16448974609375,0.115081787109375,0.3883946239948273,1.610352754592896,0.0772151574492454,41.96540832519531,98.20501708984376,-5.786285400390625
242671,-0.333831787109375,-0.182586669921875,0.1230621337890625,0.2378634214401245,1.765117287635803,0.1951915919780731,41.97393798828125,98.33389282226562,-5.964508056640625
242672,-0.3007659912109375,-0.1654205322265625,0.129974365234375,0.1003705486655235,1.902319073677063,0.2576954662799835,41.8870849609375,98.42889404296876,-6.210968017578125
242673,-0.271881103515625,-0.1595458984375,0.0906219482421875,0.0302452538162469,1.918164968490601,0.2682951092720032,41.86277770996094,98.46038818359376,-6.425140380859375
242674,-0.271881103515625,-0.1595458984375,0.0906219482421875,0.0302452538162469,1.918164968490601,0.2682951092720032,41.86277770996094,98.46038818359376,-6.425140380859375
242675,-0.251922607421875,-0.163360595703125,0.03021240234375,0.0360589362680912,1.741793870925903,0.2597849667072296,41.8218994140625,98.63029479980467,-6.921737670898438
242676,-0.2388763427734375,-0.173187255859375,-0.0081024169921875,0.0833982229232788,1.435436844825745,0.2400890290737152,41.74720764160156,98.7510986328125,-7.145339965820312
242677,-0.1938629150390625,-0.1827545166015625,-0.0330810546875,0.1680904775857925,0.785794198513031,0.1528209745883942,41.73908996582031,99.03230285644533,-7.359420776367188
242678,-0.1938629150390625,-0.1827545166015625,-0.0330810546875,0.1680904775857925,0.785794198513031,0.1528209745883942,41.73908996582031,99.03230285644533,-7.359420776367188
242679,-0.1124267578125,-0.15545654296875,-0.0051422119140625,0.1720660328865051,0.3007614314556122,0.0371079519391059,41.77232360839844,99.32286071777344,-7.518890380859375
242680,-0.07269287109375,-0.1400146484375,0.0160369873046875,0.1184094697237015,0.181634247303009,-0.0192250926047563,41.75865173339844,99.39321899414062,-7.4068603515625
242681,-0.04461669921875,-0.1272735595703125,0.034637451171875,0.0145302070304751,0.1127241477370262,-0.0730007067322731,41.81645202636719,99.43318176269533,-7.468597412109375
242682,-0.0191802978515625,-0.117645263671875,0.050445556640625,-0.1402993202209473,0.0554848313331604,-0.1205037757754326,41.72903442382812,99.4874267578125,-7.393753051757812
242683,-0.0191802978515625,-0.117645263671875,0.050445556640625,-0.1402993202209473,0.0554848313331604,-0.1205037757754326,41.72903442382812,99.4874267578125,-7.393753051757812
242684,0.0028076171875,-0.1043548583984375,0.0551910400390625,-0.5278217196464539,-0.2116163820028305,-0.1922554671764374,41.61541748046875,99.32919311523438,-6.841903686523438
242685,0.00201416015625,-0.1043548583984375,0.060791015625,-0.7821019887924194,-0.5032338500022888,-0.2411207407712936,41.55972290039062,99.12689208984376,-6.361282348632812
242686,0.00201416015625,-0.1043548583984375,0.060791015625,-0.7821019887924194,-0.5032338500022888,-0.2411207407712936,41.55972290039062,99.12689208984376,-6.361282348632812
242687,-0.0124664306640625,-0.1020050048828125,0.0889892578125,-1.133270621299744,-0.9212308526039124,-0.3216837644577026,41.44197082519531,99.0022430419922,-5.825698852539062
242688,-0.1138153076171875,0.0966796875,0.41436767578125,-2.162216186523438,-1.298185586929321,-0.4991118013858795,41.28094482421875,98.2297821044922,-4.376632690429688
242689,-0.10491943359375,0.1249237060546875,0.5556182861328125,-2.593173980712891,-0.7890349626541138,-0.4139942526817322,41.10023498535156,97.94332885742188,-3.536575317382812
242690,-0.10491943359375,0.1249237060546875,0.5556182861328125,-2.593173980712891,-0.7890349626541138,-0.4139942526817322,41.10023498535156,97.94332885742188,-3.536575317382812
242691,-0.0612030029296875,0.1562957763671875,0.57171630859375,-2.446346044540405,0.6516467332839966,-0.3274060785770416,40.8970947265625,97.7694091796875,-2.611572265625
242692,-0.0256195068359375,0.536712646484375,0.9265594482421876,-2.084751844406128,1.184577822685242,-0.4314464628696442,40.15458679199219,97.2165985107422,-0.586883544921875
242693,-0.1189727783203125,1.35003662109375,1.389602661132812,-1.829893708229065,2.134528875350952,-0.4272961914539337,39.66937255859375,96.95899963378906,-0.18963623046875
242694,-0.1189727783203125,1.35003662109375,1.389602661132812,-1.829893708229065,2.134528875350952,-0.4272961914539337,39.66937255859375,96.95899963378906,-0.18963623046875
242695,-0.2934722900390625,4.441024780273438,1.887313842773438,-1.345434308052063,3.718521356582642,0.3488157689571381,39.0732421875,96.91842651367188,-0.4615631103515625
242696,-1.281265258789062,7.658309936523438,1.699630737304688,-0.7545257210731506,3.800352096557617,1.585761189460754,38.67288208007812,97.12101745605467,-2.247894287109375
242697,-0.62225341796875,6.328887939453125,0.8197479248046875,-0.5147994160652161,3.144965887069702,0.6148099303245544,39.12870788574219,97.14126586914062,-2.595367431640625
242698,-0.62225341796875,6.328887939453125,0.8197479248046875,-0.5147994160652161,3.144965887069702,0.6148099303245544,39.12870788574219,97.14126586914062,-2.595367431640625
242699,-0.2092132568359375,1.3992919921875,-0.787841796875,-1.14741837978363,-0.5571391582489014,-1.105570077896118,38.9019775390625,97.12478637695312,-2.055084228515625
242700,0.2166595458984375,0.71466064453125,-1.453231811523438,-1.797025203704834,-3.748700618743896,-1.249540567398071,38.24058532714844,97.0223388671875,-1.388153076171875
242701,0.391845703125,1.004302978515625,-0.857421875,-1.846784472465515,-5.584073543548584,-0.8041334748268127,37.59771728515625,96.75813293457033,-0.29876708984375
242702,0.391845703125,1.004302978515625,-0.857421875,-1.846784472465515,-5.584073543548584,-0.8041334748268127,37.59771728515625,96.75813293457033,-0.29876708984375
242703,0.4503936767578125,1.747512817382812,0.153472900390625,0.4555898904800415,1.317128658294678,1.193257808685303,37.09873962402344,96.50091552734376,1.021469116210938
242704,0.425750732421875,2.442108154296875,-0.931671142578125,1.840705037117004,1.220563769340515,0.8635944128036499,37.4139404296875,95.8544464111328,3.145233154296875
242705,0.2418975830078125,1.810348510742188,-0.1646575927734375,2.219445943832397,1.072044014930725,0.6513210535049438,37.70359802246094,95.89305114746094,2.98358154296875
242706,0.2418975830078125,1.810348510742188,-0.1646575927734375,2.219445943832397,1.072044014930725,0.6513210535049438,37.70359802246094,95.89305114746094,2.98358154296875
242707,0.0631103515625,1.464874267578125,-0.124267578125,1.94644296169281,1.144889712333679,0.7884069681167603,37.98988342285156,96.13420104980467,2.199630737304688
242708,0.065704345703125,1.089935302734375,-0.3777618408203125,1.221128821372986,0.1223080679774284,0.8914992809295654,38.55850219726562,96.81788635253906,0.286468505859375
242709,0.11358642578125,0.8760223388671875,-0.34381103515625,1.269767761230469,-0.3445392847061157,0.9190393090248108,38.97444152832031,97.03411865234376,-0.4373626708984375
242710,0.11358642578125,0.8760223388671875,-0.34381103515625,1.269767761230469,-0.3445392847061157,0.9190393090248108,38.97444152832031,97.03411865234376,-0.4373626708984375
242711,0.15155029296875,0.688323974609375,-0.3170166015625,1.821901798248291,-0.6926607489585876,1.044079303741455,39.41255187988281,97.33219909667967,-1.100189208984375
242712,0.113067626953125,0.432403564453125,-0.151702880859375,1.809957981109619,-0.4563944339752197,0.9807591438293456,40.33903503417969,97.70675659179688,-2.302658081054688
242713,0.086669921875,0.28228759765625,-0.1220855712890625,1.527801752090454,0.0456798709928989,0.8544065356254578,40.89445495605469,98.10606384277344,-2.963546752929688
242714,0.086669921875,0.28228759765625,-0.1220855712890625,1.527801752090454,0.0456798709928989,0.8544065356254578,40.89445495605469,98.10606384277344,-2.963546752929688
242715,0.063995361328125,0.1800079345703125,-0.1520233154296875,1.169215559959412,0.4920757412910461,0.7251132726669312,41.23876953125,98.47427368164062,-3.740188598632812
242716,0.0362091064453125,0.1549072265625,-0.1566314697265625,0.9843615889549256,0.6288503408432007,0.5897471904754639,41.642578125,98.76942443847656,-4.300247192382812
242717,0.0134735107421875,0.1496429443359375,0.0409698486328125,0.9729859232902528,0.6866399049758911,0.3145560622215271,42.11761474609375,99.119140625,-5.4097900390625
242718,0.0134735107421875,0.1496429443359375,0.0409698486328125,0.9729859232902528,0.6866399049758911,0.3145560622215271,42.11761474609375,99.119140625,-5.4097900390625
242719,0.0145721435546875,0.1226806640625,0.1390838623046875,0.7607250213623047,1.230860352516174,0.135221466422081,42.36614990234375,99.21116638183594,-5.805801391601562
242720,0.005157470703125,0.025665283203125,0.2068328857421875,0.5913501381874084,1.55907416343689,0.0813893973827362,42.56755065917969,99.32949829101562,-6.9276123046875
242721,0.004486083984375,-0.0258636474609375,0.134918212890625,0.4672835767269135,1.727954268455505,0.0416462458670139,42.78602600097656,99.44151306152344,-7.394622802734375
242722,0.0019073486328125,-0.069366455078125,0.0713043212890625,0.3950890004634857,1.556930541992188,-0.0434164479374885,42.79118347167969,99.48065185546876,-7.686553955078125
242723,-0.0048065185546875,-0.0947723388671875,0.0231475830078125,0.4279947578907013,1.327544569969177,-0.0914777219295501,42.83004760742188,99.39932250976562,-7.9036865234375
242724,-0.009765625,-0.0982513427734375,-0.007904052734375,0.4279947578907013,1.327544569969177,-0.0914777219295501,42.83717346191406,99.49639892578124,-8.0972900390625
242725,-0.0099029541015625,-0.0990142822265625,-0.015716552734375,0.4392170310020447,1.062222003936768,-0.1338118612766266,42.86097717285156,99.5792999267578,-8.32757568359375
242726,-0.0099029541015625,-0.0990142822265625,-0.015716552734375,0.4392170310020447,1.062222003936768,-0.1338118612766266,42.86097717285156,99.5792999267578,-8.32757568359375
242727,-0.0100555419921875,-0.095672607421875,-0.0057525634765625,0.4096927046775818,0.8223915696144104,-0.1772432178258896,42.79983520507812,99.61058044433594,-8.527236938476562
242728,-0.01129150390625,-0.0797882080078125,-0.0026702880859375,0.2247838377952576,0.4162909686565399,-0.2614161670207977,42.75666809082031,99.42115783691406,-8.856643676757812
242729,-0.011566162109375,-0.08245849609375,0.0006103515625,0.0660005882382392,0.217073455452919,-0.3090542554855347,42.57354736328125,99.50650024414062,-8.8746337890625
242730,-0.011566162109375,-0.08245849609375,0.0006103515625,0.0660005882382392,0.217073455452919,-0.3090542554855347,42.57354736328125,99.50650024414062,-8.8746337890625
242731,-0.0105438232421875,-0.086395263671875,0.0180206298828125,-0.6220992207527161,-0.0869452878832817,-0.4288525581359863,42.33967590332031,99.32403564453124,-8.621871948242188
242732,-0.0059356689453125,-0.0876312255859375,0.0215911865234375,-0.6220992207527161,-0.0869452878832817,-0.4288525581359863,42.19570922851562,99.36570739746094,-8.264434814453125
242733,0.00311279296875,-0.080841064453125,0.0164947509765625,-0.8614013195037842,-0.0888057723641395,-0.4555230438709259,42.00450134277344,99.29719543457033,-7.850921630859375
242734,0.00311279296875,-0.080841064453125,0.0164947509765625,-0.8614013195037842,-0.0888057723641395,-0.4555230438709259,42.00450134277344,99.29719543457033,-7.850921630859375
242735,0.01116943359375,-0.067535400390625,-0.001251220703125,-1.063921689987183,-0.104992464184761,-0.4887949824333191,42.00958251953125,99.12220764160156,-7.221771240234375
242736,0.0004425048828125,0.02886962890625,-0.0195465087890625,-1.35586142539978,-0.2967925369739532,-0.5792897343635559,41.80305480957031,98.86923217773438,-6.02734375
242737,-0.012786865234375,0.04510498046875,-0.02459716796875,-1.436590552330017,-0.4368124902248383,-0.5908516049385071,41.58889770507812,98.59182739257812,-5.367965698242188
242738,-0.012786865234375,0.04510498046875,-0.02459716796875,-1.436590552330017,-0.4368124902248383,-0.5908516049385071,41.58889770507812,98.59182739257812,-5.367965698242188
242739,-0.0421295166015625,0.170562744140625,0.1790771484375,-1.398087620735168,-1.293588161468506,-0.5985510349273682,41.06593322753906,98.28288269042967,-4.1815185546875
242740,-0.140472412109375,1.104888916015625,0.77032470703125,-1.189846515655518,-1.233852386474609,-0.7420570850372314,40.77462768554688,98.23300170898438,-3.77056884765625
242741,-0.2071685791015625,4.274398803710938,1.490890502929688,-0.4405955076217651,0.5237045288085938,-0.8657673001289368,40.36209106445312,98.28150939941406,-3.749130249023438
242742,-0.2071685791015625,4.274398803710938,1.490890502929688,-0.4405955076217651,0.5237045288085938,-0.8657673001289368,40.36209106445312,98.28150939941406,-3.749130249023438
242743,-0.2265625,6.087326049804688,1.635223388671875,0.0487148091197013,1.54652214050293,0.4532798528671265,39.91839599609375,98.63084411621094,-4.395889282226562
242744,-0.8432769775390625,6.78826904296875,0.965362548828125,0.418789267539978,1.162555813789368,-0.7445183396339417,39.46757507324219,99.4088897705078,-6.028854370117188
242745,-0.4543609619140625,3.99383544921875,0.3391265869140625,-0.25580033659935,-0.3600346148014069,-1.627462029457092,39.62171936035156,99.4080047607422,-6.2369384765625
242746,-0.4543609619140625,3.99383544921875,0.3391265869140625,-0.25580033659935,-0.3600346148014069,-1.627462029457092,39.62171936035156,99.4080047607422,-6.2369384765625
242747,-0.1599578857421875,1.398651123046875,-0.11834716796875,-1.227151870727539,-1.673355937004089,-1.810262203216553,38.85455322265625,98.9689483642578,-5.982650756835938
242748,0.145477294921875,1.2152099609375,-0.585601806640625,-1.351950764656067,-1.35923159122467,-1.291589498519897,38.23960876464844,98.4381866455078,-5.258758544921875
242749,0.6284332275390625,1.590362548828125,-1.455581665039062,-0.8589906096458435,-2.569525957107544,-0.1759238988161087,37.48399353027344,97.87483215332033,-4.367935180664062
242750,0.6284332275390625,1.590362548828125,-1.455581665039062,-0.8589906096458435,-2.569525957107544,-0.1759238988161087,37.48399353027344,97.87483215332033,-4.367935180664062
242751,0.66619873046875,1.97320556640625,-0.7479400634765625,0.8197411894798279,-2.841778755187988,0.8003619313240051,36.87918090820312,97.56153869628906,-3.532470703125
242752,0.3834381103515625,1.72991943359375,-0.0058135986328125,2.651106119155884,0.5508993864059448,0.8820315003395081,37.05914306640625,97.73284912109376,-2.573135375976562
242753,0.3262481689453125,1.42767333984375,-0.195709228515625,1.656061887741089,0.949498176574707,0.5902092456817627,37.52581787109375,98.00714111328124,-2.93206787109375
242754,0.248260498046875,1.193862915039062,-0.1947021484375,1.656061887741089,0.949498176574707,0.5902092456817627,37.86358642578125,98.21932983398438,-3.963531494140625
242755,0.248260498046875,1.193862915039062,-0.1947021484375,1.656061887741089,0.949498176574707,0.5902092456817627,37.86358642578125,98.21932983398438,-3.963531494140625
242756,0.163330078125,0.800079345703125,-0.1385498046875,0.9592010974884032,0.4072561860084534,0.3978533744812012,38.65007019042969,98.61720275878906,-5.83624267578125
242757,0.1798248291015625,0.5668182373046875,-0.193145751953125,1.052967548370361,0.0303387306630611,0.432467520236969,38.901611328125,98.69461059570312,-6.346115112304688
242758,0.1798248291015625,0.5668182373046875,-0.193145751953125,1.052967548370361,0.0303387306630611,0.432467520236969,38.901611328125,98.69461059570312,-6.346115112304688
242759,0.1479644775390625,0.24700927734375,-0.0746612548828125,1.558918595314026,-0.4884077608585358,0.4702796339988708,39.45767211914062,98.84169006347656,-7.15545654296875
242760,0.1211395263671875,0.1314849853515625,0.054779052734375,1.635581493377686,-0.3749717473983765,0.4250186681747437,39.76445007324219,98.8660125732422,-7.556137084960938
242761,0.0815582275390625,0.0357513427734375,0.13226318359375,1.520813584327698,-0.0521758534014225,0.3588750660419464,40.01004028320312,99.0738525390625,-8.192855834960938
242762,0.0815582275390625,0.0357513427734375,0.13226318359375,1.520813584327698,-0.0521758534014225,0.3588750660419464,40.01004028320312,99.0738525390625,-8.192855834960938
242763,0.0265960693359375,-0.0341949462890625,0.142608642578125,1.28305721282959,0.3427528142929077,0.2844687402248383,40.18714904785156,99.34732055664062,-8.876220703125
242764,-0.078460693359375,-0.089324951171875,0.099395751953125,0.714525043964386,1.019666790962219,0.0848376601934433,40.30961608886719,99.6973114013672,-10.17646789550781
242765,-0.1305084228515625,-0.0865020751953125,0.042999267578125,0.4405595362186432,1.350952625274658,-0.0471547283232212,40.40000915527344,99.8155517578125,-10.53640747070312
242766,-0.1305084228515625,-0.0865020751953125,0.042999267578125,0.4405595362186432,1.350952625274658,-0.0471547283232212,40.40000915527344,99.8155517578125,-10.53640747070312
242767,-0.1863555908203125,-0.0905303955078125,-0.0801849365234375,0.2023413926362991,1.635635018348694,-0.2195613831281662,40.4842529296875,99.90834045410156,-10.98028564453125
242768,-0.4741973876953125,-0.25286865234375,-0.51361083984375,-0.0261698178946971,0.8203667998313904,-0.7469703555107117,40.59538269042969,99.97087097167967,-11.34428405761719
242769,-0.4947662353515625,-0.34393310546875,-0.50115966796875,-0.0375748053193092,0.5348168015480042,-0.7084383964538574,40.51582336425781,99.89837646484376,-11.42794799804688
242770,-0.2953643798828125,-0.311859130859375,-0.276031494140625,-0.0375748053193092,0.5348168015480042,-0.7084383964538574,40.35215759277344,99.90943908691406,-11.37103271484375
242771,-0.2953643798828125,-0.311859130859375,-0.276031494140625,-0.0375748053193092,0.5348168015480042,-0.7084383964538574,40.35215759277344,99.90943908691406,-11.37103271484375
242772,-0.0835418701171875,-0.2017059326171875,0.091583251953125,-0.2991118729114532,0.4085440933704376,-0.5208618640899658,39.84889221191406,99.74044799804688,-11.01850891113281
242773,-0.0635833740234375,-0.185455322265625,0.1558685302734375,-0.4790073335170746,0.543262779712677,-0.4224601686000824,39.66438293457031,99.5613250732422,-10.74562072753906
242774,-0.0635833740234375,-0.185455322265625,0.1558685302734375,-0.4790073335170746,0.543262779712677,-0.4224601686000824,39.66438293457031,99.5613250732422,-10.74562072753906
242775,-0.02545166015625,-0.1521759033203125,0.1316070556640625,-0.7413510680198669,0.7937615513801575,-0.2935165762901306,39.3592529296875,99.58229064941406,-10.51344299316406
242776,-0.0150604248046875,-0.1387176513671875,0.10382080078125,-0.8582643866539001,0.8305158615112305,-0.2569462954998016,39.15739440917969,99.591064453125,-10.11296081542969
242777,-0.014373779296875,-0.12554931640625,0.07293701171875,-0.9901867508888244,0.7630217671394348,-0.2498692274093628,39.14218139648438,99.43057250976562,-9.586746215820312
242778,-0.014373779296875,-0.12554931640625,0.07293701171875,-0.9901867508888244,0.7630217671394348,-0.2498692274093628,39.14218139648438,99.43057250976562,-9.586746215820312
242779,-0.03826904296875,-0.1204071044921875,0.0545654296875,-1.426166176795959,0.2515230476856232,-0.3335462808609009,39.05059814453125,99.289306640625,-9.038894653320312
242780,-0.1886749267578125,-0.046722412109375,0.098968505859375,-1.706751227378845,0.0071164988912642,-0.3759917318820953,38.97479248046875,98.81210327148438,-7.922683715820312
242781,-0.246124267578125,0.0806884765625,0.0831451416015625,-1.955974340438843,-0.1317540407180786,-0.3749376535415649,38.81332397460938,98.56919860839844,-7.11602783203125
242782,-0.246124267578125,0.0806884765625,0.0831451416015625,-1.955974340438843,-0.1317540407180786,-0.3749376535415649,38.81332397460938,98.56919860839844,-7.11602783203125
242783,-0.3847808837890625,0.3814544677734375,-0.24560546875,-1.913277983665466,0.0719069465994834,-0.3551101684570312,38.35540771484375,98.45806884765624,-5.874237060546875
242784,-0.1707763671875,0.346435546875,0.083282470703125,-1.701328754425049,0.0379974506795406,-0.369439572095871,37.97653198242188,98.32501220703124,-5.038772583007812
242785,-0.0765380859375,0.29425048828125,0.64453125,-1.544837117195129,0.2536671459674835,-0.4088639318943024,37.57443237304688,98.22369384765624,-4.385910034179688
242786,-0.0765380859375,0.29425048828125,0.64453125,-1.544837117195129,0.2536671459674835,-0.4088639318943024,37.57443237304688,98.22369384765624,-4.385910034179688
242787,-0.0491485595703125,0.5645599365234375,1.006271362304688,-1.302883148193359,0.6479079127311707,-0.4680830538272858,37.09092712402344,98.07359313964844,-3.91070556640625
242788,-0.0583953857421875,1.72540283203125,1.33245849609375,-0.6963926553726196,1.611257433891296,0.8885418772697449,36.59861755371094,97.88729858398438,-4.005935668945312
242789,-0.7627105712890625,7.35589599609375,2.26873779296875,-0.7298107743263245,1.757205128669739,2.547363996505737,35.89202880859375,98.05430603027344,-5.359695434570312
242790,-1.463897705078125,8.006622314453125,2.318450927734375,-0.0935009196400642,4.422554016113281,1.778330326080322,36.01699829101562,98.3856201171875,-6.3375244140625
242791,-1.463897705078125,8.006622314453125,2.318450927734375,-0.0935009196400642,4.422554016113281,1.778330326080322,36.01699829101562,98.3856201171875,-6.3375244140625
242792,-0.192657470703125,1.99407958984375,-0.3181610107421875,-0.7174009680747986,0.478374570608139,-1.178701758384705,37.78358459472656,98.48817443847656,-7.183212280273438
242793,-0.2835235595703125,1.154556274414062,-0.1404876708984375,-1.457375168800354,-1.315111517906189,-1.271650314331055,37.83912658691406,98.28651428222656,-7.085601806640625
242794,-0.2835235595703125,1.154556274414062,-0.1404876708984375,-1.457375168800354,-1.315111517906189,-1.271650314331055,37.83912658691406,98.28651428222656,-7.085601806640625
242795,-0.246795654296875,0.8514404296875,-0.0020751953125,-2.086982011795044,-1.641362309455872,-1.513193249702454,37.18403625488281,97.96107482910156,-6.5560302734375
242796,0.32415771484375,1.921157836914062,-1.5916748046875,-2.42507791519165,-0.5935214161872864,0.48159059882164,35.330810546875,97.5927734375,-4.697280883789062
242797,0.25518798828125,2.327545166015625,-0.9126434326171876,0.1365658342838287,-1.524614691734314,1.055678367614746,34.73545837402344,96.96304321289062,-3.280044555664062
242798,0.25518798828125,2.327545166015625,-0.9126434326171876,0.1365658342838287,-1.524614691734314,1.055678367614746,34.73545837402344,96.96304321289062,-3.280044555664062
242799,0.2095184326171875,2.242843627929688,0.22320556640625,2.017027854919434,0.0389540567994117,1.254538774490356,34.75405883789062,96.40110778808594,-1.968719482421875
242800,0.1850128173828125,1.610794067382812,-0.1889190673828125,2.253930330276489,2.029240131378174,1.160130739212036,35.59568786621094,96.45646667480467,-1.502517700195312
242801,0.1789398193359375,1.33709716796875,-0.456878662109375,1.899329781532288,1.378926515579224,1.073846220970154,36.03251647949219,96.73081970214844,-2.531051635742188
242802,0.1789398193359375,1.33709716796875,-0.456878662109375,1.899329781532288,1.378926515579224,1.073846220970154,36.03251647949219,96.73081970214844,-2.531051635742188
242803,0.1571502685546875,1.087860107421875,-0.40020751953125,1.757727026939392,0.5270731449127197,1.038793683052063,36.39772033691406,97.1732177734375,-3.708236694335938
242804,0.123504638671875,0.7053680419921875,-0.2053680419921875,1.974313735961914,-0.4364558756351471,1.08942973613739,37.30667114257812,97.78352355957033,-6.099761962890625
242805,0.0793609619140625,0.544342041015625,-0.1533660888671875,2.032639265060425,-0.6285558342933655,1.069671988487244,37.78903198242188,98.10934448242188,-6.908111572265625
242806,0.0793609619140625,0.544342041015625,-0.1533660888671875,2.032639265060425,-0.6285558342933655,1.069671988487244,37.78903198242188,98.10934448242188,-6.908111572265625
242807,-0.018463134765625,0.2504425048828125,-0.0842742919921875,1.478419780731201,-0.0486306510865688,0.6204451322555542,38.70846557617188,98.7597198486328,-8.571365356445312
242808,-0.047119140625,0.085540771484375,-0.0711669921875,1.478419780731201,-0.0486306510865688,0.6204451322555542,39.09950256347656,98.9843292236328,-9.404983520507812
242809,-0.0595855712890625,-0.0890350341796875,-0.0841217041015625,1.135927200317383,0.5553092956542969,0.4962641000747681,39.45903015136719,99.17376708984376,-10.11381530761719
242810,-0.0595855712890625,-0.0890350341796875,-0.0841217041015625,1.135927200317383,0.5553092956542969,0.4962641000747681,39.45903015136719,99.17376708984376,-10.11381530761719
242811,-0.019866943359375,-0.1556549072265625,-0.0467071533203125,1.016133308410645,0.8601831793785095,0.4611359238624573,40.01385498046875,99.50030517578124,-11.3167724609375
242812,-0.018768310546875,-0.12603759765625,0.058868408203125,1.016133308410645,0.8601831793785095,0.4611359238624573,40.28253173828125,99.58241271972656,-12.04985046386719
242813,-0.0318450927734375,-0.1137237548828125,0.1125640869140625,1.049847960472107,0.9042481184005736,0.415321558713913,40.59947204589844,99.66984558105467,-12.58834838867188
242814,-0.0490570068359375,-0.10821533203125,0.123077392578125,1.006409049034119,0.9815218448638916,0.3530528545379639,40.81593322753906,99.72877502441406,-12.84005737304688
242815,-0.0490570068359375,-0.10821533203125,0.123077392578125,1.006409049034119,0.9815218448638916,0.3530528545379639,40.81593322753906,99.72877502441406,-12.84005737304688
242816,-0.0836639404296875,-0.095001220703125,0.1016387939453125,0.7891122102737427,1.141810894012451,0.1941636204719543,41.27983093261719,99.97337341308594,-13.93243408203125
242817,-0.09771728515625,-0.096588134765625,0.0864715576171875,0.6706913113594055,1.205182433128357,0.0926620289683342,41.40205383300781,100.0461883544922,-14.48680114746094
242818,-0.1100311279296875,-0.1072845458984375,0.08746337890625,0.5704605579376221,1.269676446914673,-0.0138412471860647,41.48330688476562,100.1573944091797,-14.92520141601562
242819,-0.1100311279296875,-0.1072845458984375,0.08746337890625,0.5704605579376221,1.269676446914673,-0.0138412471860647,41.48330688476562,100.1573944091797,-14.92520141601562
242820,-0.1194305419921875,-0.12841796875,0.1194000244140625,0.3877256214618683,1.394810080528259,-0.225215271115303,41.86355590820312,100.3219299316406,-15.63566589355469
242821,-0.128265380859375,-0.1382293701171875,0.1361846923828125,0.2653602957725525,1.434743165969849,-0.3315105438232422,41.9295654296875,100.3242645263672,-15.63430786132812
242822,-0.147064208984375,-0.158050537109375,0.1492462158203125,0.1119228079915047,1.399511694908142,-0.4449535012245178,41.99455261230469,100.4066619873047,-15.69613647460938
242823,-0.147064208984375,-0.158050537109375,0.1492462158203125,0.1119228079915047,1.399511694908142,-0.4449535012245178,41.99455261230469,100.4066619873047,-15.69613647460938
242824,-0.1717071533203125,-0.1875762939453125,0.17236328125,-0.0504290871322155,1.323976159095764,-0.5507590174674988,42.00979614257812,100.2775115966797,-15.67910766601562
242825,-0.1902008056640625,-0.23468017578125,0.1905059814453125,-0.3542765974998474,1.200730323791504,-0.6795982122421265,41.70689392089844,99.94561767578124,-15.16096496582031
242826,-0.1902008056640625,-0.23468017578125,0.1905059814453125,-0.3542765974998474,1.200730323791504,-0.6795982122421265,41.70689392089844,99.94561767578124,-15.16096496582031
242827,-0.1170196533203125,-0.220489501953125,0.1473388671875,-0.6419975757598877,1.163132667541504,-0.7598235607147217,41.26913452148438,99.60626220703124,-14.67179870605469
242828,-0.0610198974609375,-0.1832427978515625,0.0847625732421875,-0.8262449502944946,1.094579696655273,-0.8146032094955444,40.88424682617188,99.42247009277344,-14.25633239746094
242829,-0.0065765380859375,-0.126953125,0.003631591796875,-1.062946915626526,0.8938282132148743,-0.8977169990539551,40.46188354492188,99.3321533203125,-13.83607482910156
242830,0.037750244140625,-0.044158935546875,-0.0729217529296875,-1.363082766532898,0.5633070468902588,-0.9772642850875854,40.10456848144531,99.19480895996094,-13.53738403320312
242831,0.0234527587890625,0.0458831787109375,-0.1319122314453125,-1.716123461723328,0.0868131890892982,-0.9907297492027284,39.527099609375,99.135009765625,-13.10833740234375
242832,0.003173828125,0.09393310546875,-0.2214813232421875,-2.079286098480225,-0.5140819549560547,-0.9916070103645324,38.88232421875,99.07119750976562,-12.52339172363281
242833,0.0510406494140625,0.212646484375,-0.692474365234375,-2.332427263259888,-1.751945376396179,-1.047280073165894,38.24270629882812,99.16943359375,-11.86691284179688
242834,0.0510406494140625,0.212646484375,-0.692474365234375,-2.332427263259888,-1.751945376396179,-1.047280073165894,38.24270629882812,99.16943359375,-11.86691284179688
242835,0.1030120849609375,0.2785491943359375,-0.6456298828125,-2.151218414306641,-3.295344114303589,-1.132147312164307,37.42262268066406,99.19361877441406,-11.19363403320312
242836,0.2966156005859375,3.253448486328125,1.27593994140625,-1.863963484764099,-0.6569110155105591,-1.59907054901123,35.35154724121094,99.22430419921876,-9.60369873046875
242837,0.7910614013671875,7.259017944335938,1.294830322265625,-1.669238448143005,1.752337098121643,-0.0847697481513023,34.18711853027344,99.5003662109375,-9.387771606445312
242838,-0.3498992919921875,7.798446655273438,1.285064697265625,0.0108843389898538,-0.0454524345695972,-0.0024455809034407,33.09291076660156,100.0354766845703,-10.2828369140625
242839,-0.3498992919921875,7.798446655273438,1.285064697265625,0.0108843389898538,-0.0454524345695972,-0.0024455809034407,33.09291076660156,100.0354766845703,-10.2828369140625
242840,-0.16986083984375,4.943893432617188,1.243423461914062,0.3062416911125183,0.923884391784668,-1.21904444694519,33.66398620605469,100.0170135498047,-10.00559997558594
242841,0.01123046875,2.127548217773438,0.4817352294921875,0.0610409826040267,1.536879062652588,-1.149590492248535,33.79933166503906,99.77229309082033,-9.581939697265623
242842,0.01123046875,2.127548217773438,0.4817352294921875,0.0610409826040267,1.536879062652588,-1.149590492248535,33.79933166503906,99.77229309082033,-9.581939697265623
242843,-0.225128173828125,0.959228515625,-1.233673095703125,0.117891751229763,1.021306276321411,-0.8217058181762695,33.00605773925781,99.28639221191406,-9.39971923828125
242844,-0.2718963623046875,1.359954833984375,-1.737640380859375,0.1717635095119476,-0.8671452403068542,-0.3922242224216461,32.56781005859375,99.14828491210938,-9.547805786132812
242845,0.075408935546875,1.70379638671875,-0.6863861083984375,0.7630606293678284,-0.4752362966537476,-0.0284082051366567,32.16363525390625,98.97575378417967,-9.60546875
242846,0.33697509765625,1.536697387695312,-0.4301605224609375,1.929179787635803,-0.6450607776641846,0.3334501385688782,32.16183471679688,98.73841857910156,-9.730850219726562
242847,0.33697509765625,1.536697387695312,-0.4301605224609375,1.929179787635803,-0.6450607776641846,0.3334501385688782,32.16183471679688,98.73841857910156,-9.730850219726562
242848,0.220733642578125,1.11358642578125,-0.0817718505859375,2.049401998519897,-0.6611531972885132,0.5493318438529968,32.5758056640625,98.36320495605467,-10.96525573730469
242849,0.1764373779296875,0.9664306640625,0.00030517578125,1.952018976211548,-0.4880634248256683,0.7172470688819885,32.97988891601562,98.33918762207033,-11.72128295898438
242850,0.1798248291015625,0.787933349609375,-0.03021240234375,1.734755992889404,-0.3125304877758026,0.8872190713882446,33.44906616210938,98.4574737548828,-12.66766357421875
242851,0.1798248291015625,0.787933349609375,-0.03021240234375,1.734755992889404,-0.3125304877758026,0.8872190713882446,33.44906616210938,98.4574737548828,-12.66766357421875
242852,0.10223388671875,0.4850006103515625,-0.2286224365234375,1.312231659889221,-0.4322808384895325,0.9690819978713988,34.30937194824219,98.69375610351562,-14.02140808105469
242853,0.0370635986328125,0.36309814453125,-0.1900177001953125,1.249020099639893,-0.6007537245750427,0.8685684204101562,34.79058837890625,98.85519409179688,-14.56671142578125
242854,-0.1237030029296875,0.2136383056640625,0.1992340087890625,1.320552110671997,-0.1693565398454666,0.5161224603652954,35.64396667480469,99.1483154296875,-15.36412048339844
242855,-0.1237030029296875,0.2136383056640625,0.1992340087890625,1.320552110671997,-0.1693565398454666,0.5161224603652954,35.64396667480469,99.1483154296875,-15.36412048339844
242856,-0.1833343505859375,0.195648193359375,0.4305572509765625,1.385131359100342,0.6158583760261536,0.3002080321311951,35.93806457519531,99.26295471191406,-15.92396545410156
242857,-0.2120819091796875,0.1538543701171875,0.555694580078125,1.365997910499573,1.581622838973999,0.0438260436058044,36.20341491699219,99.19938659667967,-16.52590942382812
242858,-0.2120819091796875,0.1538543701171875,0.555694580078125,1.365997910499573,1.581622838973999,0.0438260436058044,36.20341491699219,99.19938659667967,-16.52590942382812
242859,-0.2393798828125,0.1063079833984375,0.5505828857421875,1.254675149917603,2.398229122161865,-0.2111663073301315,36.49116516113281,99.1466064453125,-17.3846435546875
242860,-0.3664703369140625,0.0659942626953125,0.345062255859375,0.95398610830307,2.83553147315979,-0.6527056097984314,36.86822509765625,98.9575653076172,-19.11781311035156
242861,-0.44677734375,0.0005645751953125,0.2172698974609375,0.9521299004554749,2.485138654708862,-0.7480124235153198,36.93795776367188,98.7690887451172,-19.86402893066406
242862,-0.486114501953125,-0.100830078125,0.1147308349609375,1.009930014610291,1.958271384239197,-0.7191472053527832,36.95549011230469,98.69441223144533,-20.82127380371094
242863,-0.486114501953125,-0.100830078125,0.1147308349609375,1.009930014610291,1.958271384239197,-0.7191472053527832,36.95549011230469,98.69441223144533,-20.82127380371094
242864,-0.4149932861328125,-0.2742156982421875,0.0107269287109375,1.026531457901001,1.182143330574036,-0.4009450376033783,36.67727661132812,98.78895568847656,-22.49996948242188
242865,-0.3436279296875,-0.2769317626953125,-0.0375518798828125,0.9875634908676147,0.9515708684921264,-0.2603783309459686,36.50740051269531,98.81037902832033,-23.16952514648438
242866,-0.274627685546875,-0.2569122314453125,-0.0576629638671875,0.7314507961273193,0.8144124746322632,-0.0868097320199012,36.30355834960938,98.81315612792967,-23.85110473632812
242867,-0.274627685546875,-0.2569122314453125,-0.0576629638671875,0.7314507961273193,0.8144124746322632,-0.0868097320199012,36.30355834960938,98.81315612792967,-23.85110473632812
242868,-0.1276397705078125,-0.2206573486328125,-0.0065765380859375,-0.3829369843006134,1.381189942359924,-0.0492210760712623,36.07577514648438,98.73744201660156,-24.6966552734375
242869,-0.0419921875,-0.2374267578125,-0.317169189453125,-0.3829369843006134,1.381189942359924,-0.0492210760712623,36.2509765625,98.72259521484376,-24.81314086914062
242870,0.0215911865234375,-0.2318267822265625,-0.50335693359375,-0.7508202195167542,0.5488237142562866,-0.0439892970025539,36.39256286621094,98.81173706054688,-24.66987609863281
242871,0.0215911865234375,-0.2318267822265625,-0.50335693359375,-0.7508202195167542,0.5488237142562866,-0.0439892970025539,36.39256286621094,98.81173706054688,-24.66987609863281
242872,0.0189666748046875,-0.104949951171875,-0.086944580078125,-1.104420304298401,-0.8205790519714355,-0.1095914766192436,36.67164611816406,98.68098449707033,-23.30781555175781
242873,0.0166778564453125,-0.0832672119140625,0.0356903076171875,-1.227526783943176,-0.9391155242919922,-0.1754040420055389,36.80076599121094,98.6466827392578,-22.33380126953125
242874,0.027252197265625,-0.0898895263671875,0.077850341796875,-1.347046613693237,-0.9535024762153624,-0.2383949905633926,36.72547912597656,98.58876037597656,-21.46806335449219
242875,0.03607177734375,-0.1030426025390625,0.129486083984375,-1.473508358001709,-0.935103476047516,-0.2953299283981323,36.60285949707031,98.48097229003906,-20.55174255371094
242876,0.03607177734375,-0.1030426025390625,0.129486083984375,-1.473508358001709,-0.935103476047516,-0.2953299283981323,36.60285949707031,98.48097229003906,-20.55174255371094
242877,0.067901611328125,-0.1010894775390625,0.23431396484375,-1.823357224464417,-0.7272453904151917,-0.4509136378765106,36.50328063964844,97.88330078125,-18.24955749511719
242878,0.03692626953125,0.1069183349609375,0.254547119140625,-1.85297954082489,0.7360617518424988,-0.6336922645568848,36.10285949707031,97.83905029296876,-16.35823059082031
242879,0.03692626953125,0.1069183349609375,0.254547119140625,-1.85297954082489,0.7360617518424988,-0.6336922645568848,36.10285949707031,97.83905029296876,-16.35823059082031
242880,0.03631591796875,0.1685638427734375,0.030059814453125,-1.85297954082489,0.7360617518424988,-0.6336922645568848,35.62884521484375,97.90072631835938,-15.35455322265625
242881,0.0358734130859375,0.2218475341796875,0.068756103515625,-1.739321708679199,0.6413927674293518,-0.7672646641731262,35.04904174804688,97.91131591796876,-14.48359680175781
242882,0.0337982177734375,0.7650146484375,0.89300537109375,-1.820384860038757,1.737512111663818,-1.050008535385132,33.51840209960938,98.35150146484376,-14.29191589355469
242883,0.0337982177734375,0.7650146484375,0.89300537109375,-1.820384860038757,1.737512111663818,-1.050008535385132,33.51840209960938,98.35150146484376,-14.29191589355469
242884,0.0207366943359375,3.694549560546875,1.021240234375,-1.703338384628296,2.117244720458984,-0.5718850493431091,32.81092834472656,98.43798828125,-14.65382385253906
242885,-0.278228759765625,7.32672119140625,1.30804443359375,-1.516535997390747,2.112706422805786,1.611382365226746,32.18644714355469,98.8401336669922,-15.5908203125
242886,-1.783950805664062,6.912689208984375,0.4772186279296875,0.9967468976974488,4.689217090606689,-0.3904223442077637,33.30009460449219,99.84127807617188,-17.731201171875
242887,-1.783950805664062,6.912689208984375,0.4772186279296875,0.9967468976974488,4.689217090606689,-0.3904223442077637,33.30009460449219,99.84127807617188,-17.731201171875
242888,-0.436126708984375,2.805953979492188,-1.636383056640625,1.10447096824646,1.009624600410461,-1.758193373680115,34.61318969726562,99.83653259277344,-18.18649291992188
242889,-0.09014892578125,0.6219329833984375,-1.780303955078125,0.0816445276141166,-4.545142650604248,-1.482741832733154,34.78614807128906,99.43446350097656,-18.2752685546875
242890,-0.2903289794921875,0.2898712158203125,0.0816650390625,-1.279770374298096,-5.037881374359131,-1.219861745834351,33.85391235351562,98.96958923339844,-17.94796752929688
242891,0.1056365966796875,0.8314208984375,0.5770721435546875,-2.004918813705444,-1.718154311180115,-0.058062769472599,32.52450561523438,98.85699462890624,-16.9859619140625
242892,0.3594207763671875,2.063720703125,-0.6492156982421875,-1.602282285690308,0.9296916723251344,0.7001155018806458,31.4715576171875,98.8726043701172,-15.357666015625
242893,0.1869964599609375,2.592361450195312,-1.598190307617188,0.3304069340229034,0.012730442918837,0.5134544968605042,31.13699340820312,98.71598815917967,-13.93844604492188
242894,0.0535125732421875,2.079635620117188,-0.5469512939453125,1.977762460708618,-0.2105130255222321,0.6434242129325867,31.38685607910156,98.56086730957033,-13.29251098632812
242895,0.0535125732421875,2.079635620117188,-0.5469512939453125,1.977762460708618,-0.2105130255222321,0.6434242129325867,31.38685607910156,98.56086730957033,-13.29251098632812
242896,0.01300048828125,1.291595458984375,-0.3168487548828125,2.014540195465088,0.5624039769172668,0.8186610341072083,32.17326354980469,98.28721618652344,-14.30227661132812
242897,0.006500244140625,1.052398681640625,-0.3835601806640625,1.689162373542786,0.3181896805763245,0.833469808101654,32.640869140625,98.26310729980467,-15.50856018066406
242898,0.0050506591796875,0.8586273193359375,-0.4532928466796875,1.500283479690552,-0.0536440536379814,0.8350901007652283,33.04708862304688,98.31710815429688,-16.55874633789062
242899,0.0050506591796875,0.8586273193359375,-0.4532928466796875,1.500283479690552,-0.0536440536379814,0.8350901007652283,33.04708862304688,98.31710815429688,-16.55874633789062
242900,-0.021087646484375,0.569580078125,-0.417694091796875,1.388959407806396,-0.270251452922821,0.8174703121185303,33.8677978515625,98.5363311767578,-18.16702270507812
242901,-0.0725250244140625,0.4533538818359375,-0.3166351318359375,1.255762457847595,0.1486192941665649,0.7608089447021484,34.18038940429688,98.62274169921876,-18.91154479980469
242902,-0.116943359375,0.387786865234375,-0.2057342529296875,1.151774764060974,0.5873255729675293,0.6789388060569763,34.38151550292969,98.79525756835938,-19.50810241699219
242903,-0.116943359375,0.387786865234375,-0.2057342529296875,1.151774764060974,0.5873255729675293,0.6789388060569763,34.38151550292969,98.79525756835938,-19.50810241699219
242904,-0.1421356201171875,0.393951416015625,0.0990753173828125,1.175406694412231,1.025350093841553,0.4942214488983154,35.07978820800781,98.99749755859376,-20.82484436035156
242905,-0.1213836669921875,0.3396148681640625,0.206207275390625,1.140892863273621,1.262610197067261,0.3894002139568329,35.48004150390625,98.9556121826172,-21.45182800292969
242906,-0.0934600830078125,0.2583465576171875,0.218780517578125,0.8966962099075317,1.513697624206543,0.264904111623764,35.9144287109375,98.92839050292967,-21.92022705078125
242907,-0.080291748046875,0.1717071533203125,0.13726806640625,0.8040599822998047,1.329249501228333,0.234726756811142,36.28457641601562,98.90402221679688,-22.74008178710938
242908,-0.072723388671875,0.0710906982421875,0.02264404296875,0.8040599822998047,1.329249501228333,0.234726756811142,36.61750793457031,98.7715301513672,-23.36161804199219
242909,-0.066925048828125,-0.0328369140625,-0.020172119140625,0.7627221345901489,1.013901352882385,0.2158659845590591,36.9600830078125,98.73077392578124,-24.12223815917969
242910,-0.061248779296875,-0.1330718994140625,0.0881195068359375,0.6904364824295044,0.752633810043335,0.1503354460000992,37.47158813476562,98.63235473632812,-25.12297058105469
242911,-0.061248779296875,-0.1330718994140625,0.0881195068359375,0.6904364824295044,0.752633810043335,0.1503354460000992,37.47158813476562,98.63235473632812,-25.12297058105469
242912,-0.0541229248046875,-0.14691162109375,0.128173828125,0.6120119690895081,0.8814738392829895,0.1128107011318207,37.67472839355469,98.5719757080078,-25.37590026855469
242913,-0.0554962158203125,-0.1376953125,0.1486053466796875,0.5303536057472229,1.086007833480835,0.0791760459542274,37.85762023925781,98.57154846191406,-25.79238891601562
242914,-0.0584564208984375,-0.124267578125,0.156646728515625,0.4536649584770203,1.310933589935303,0.0314711071550846,37.95918273925781,98.6496124267578,-26.13177490234375
242915,-0.0584564208984375,-0.124267578125,0.156646728515625,0.4536649584770203,1.310933589935303,0.0314711071550846,37.95918273925781,98.6496124267578,-26.13177490234375
242916,-0.0667572021484375,-0.1207427978515625,0.10369873046875,0.3147193193435669,1.563390016555786,-0.1051005870103836,38.42120361328125,98.67453002929688,-26.5830078125
242917,-0.074188232421875,-0.12799072265625,0.0685882568359375,0.2429729700088501,1.50269877910614,-0.1899395734071732,38.64163208007812,98.5987548828125,-26.62777709960938
242918,-0.0798492431640625,-0.1366119384765625,0.0453643798828125,-0.023909593001008,1.142673969268799,-0.360174149274826,38.85377502441406,98.64723205566406,-26.91560363769531
242919,-0.0798492431640625,-0.1366119384765625,0.0453643798828125,-0.023909593001008,1.142673969268799,-0.360174149274826,38.85377502441406,98.64723205566406,-26.91560363769531
242920,-0.0621490478515625,-0.150634765625,0.0410614013671875,-0.2179672122001648,0.9760133624076844,-0.4243579506874084,39.02793884277344,98.57554626464844,-27.25028991699219
242921,-0.0392608642578125,-0.14239501953125,0.0419464111328125,-0.418077141046524,0.8328767418861389,-0.4776914715766907,39.09906005859375,98.6932373046875,-27.04205322265625
242922,-0.015899658203125,-0.129974365234375,0.0386199951171875,-0.7891883850097656,0.5917378664016724,-0.5586361289024353,39.1326904296875,98.64352416992188,-26.77059936523438
242923,-0.015899658203125,-0.129974365234375,0.0386199951171875,-0.7891883850097656,0.5917378664016724,-0.5586361289024353,39.1326904296875,98.64352416992188,-26.77059936523438
242924,0.0303192138671875,-0.0970458984375,-0.020721435546875,-0.9971154928207396,0.3668259382247925,-0.6127206683158875,38.96055603027344,98.73088073730467,-26.06077575683594
242925,0.05877685546875,-0.063232421875,-0.0654449462890625,-1.268540620803833,-0.0172173362225294,-0.6827577948570251,38.8929443359375,98.61979675292967,-25.42247009277344
242926,0.0648651123046875,0.055999755859375,-0.2014312744140625,-1.57772696018219,-0.6728585362434387,-0.7497807741165161,38.72050476074219,98.610595703125,-24.85496520996094
242927,0.0648651123046875,0.055999755859375,-0.2014312744140625,-1.57772696018219,-0.6728585362434387,-0.7497807741165161,38.72050476074219,98.610595703125,-24.85496520996094
242928,-0.0298309326171875,0.2260894775390625,0.05914306640625,-2.043952941894531,-2.035737276077271,-0.93164724111557,37.71281433105469,98.52688598632812,-23.29246520996094
242929,-0.0865936279296875,0.4004669189453125,0.6299591064453125,-2.087551593780518,-1.181767821311951,-1.025912523269653,36.90786743164062,98.81362915039062,-22.51942443847656
242930,-0.153778076171875,1.004150390625,1.146011352539062,-2.502858638763428,0.4462813436985016,-1.344499230384827,36.01754760742188,99.0326690673828,-21.68452453613281
242931,-0.153778076171875,1.004150390625,1.146011352539062,-2.502858638763428,0.4462813436985016,-1.344499230384827,36.01754760742188,99.0326690673828,-21.68452453613281
242932,-0.856353759765625,7.721923828125,0.8455657958984375,-1.855854392051697,1.94566547870636,-0.2778039276599884,34.32431030273438,99.58645629882812,-20.76747131347656
242933,-1.744171142578125,8.085342407226562,0.803192138671875,-0.80426025390625,-0.4399938881397247,0.6720207333564758,33.70614624023438,99.91978454589844,-21.1363525390625
242934,-1.475692749023438,6.909957885742188,0.9850311279296876,0.2138997763395309,-0.336007297039032,-0.4813501238822937,33.66015625,100.1399536132812,-21.50244140625
242935,-1.475692749023438,6.909957885742188,0.9850311279296876,0.2138997763395309,-0.336007297039032,-0.4813501238822937,33.66015625,100.1399536132812,-21.50244140625
242936,0.3023223876953125,1.473602294921875,-1.396041870117188,-0.2441801726818085,1.426292657852173,0.6996057629585266,33.75106811523438,99.95184326171876,-21.02549743652344
242937,0.555328369140625,1.3564453125,-2.244430541992188,0.8342551589012146,-2.045839548110962,1.631855964660645,33.55003356933594,99.73178100585938,-20.51716613769531
242938,0.757171630859375,1.890823364257812,-0.10052490234375,1.835378408432007,-0.969013810157776,1.071261286735535,33.93721008300781,99.74993896484376,-20.0299072265625
242939,0.757171630859375,1.890823364257812,-0.10052490234375,1.835378408432007,-0.969013810157776,1.071261286735535,33.93721008300781,99.74993896484376,-20.0299072265625
242940,0.90728759765625,1.688751220703125,-0.4902496337890625,1.330588817596436,-0.7181064486503601,1.033242583274841,34.34916687011719,99.69259643554688,-20.178955078125
242941,0.8045806884765625,1.462265014648438,-0.4039459228515625,1.007321000099182,-0.9734737873077391,0.9478440880775452,34.783203125,99.65357971191406,-20.62068176269531
242942,0.5827484130859375,1.1781005859375,-0.2573699951171875,1.110456705093384,-0.9099392890930176,0.7501605153083801,35.32391357421875,99.32693481445312,-20.94541931152344
242943,0.276580810546875,0.9178924560546876,-0.2812347412109375,1.700884819030762,-0.799561619758606,0.7136310338973999,35.83859252929688,99.2822265625,-21.30230712890625
242944,0.043792724609375,0.760589599609375,-0.282989501953125,1.700884819030762,-0.799561619758606,0.7136310338973999,36.29768371582031,99.31178283691406,-21.70161437988281
242945,-0.06256103515625,0.650604248046875,-0.2342376708984375,1.693934798240662,-0.7531241178512573,0.7711273431777954,36.61683654785156,99.22181701660156,-22.17723083496094
242946,-0.13189697265625,0.52642822265625,-0.1674652099609375,1.25799024105072,-0.4985021948814392,0.6130322217941284,37.06622314453125,99.06501770019533,-22.90005493164062
242947,-0.13189697265625,0.52642822265625,-0.1674652099609375,1.25799024105072,-0.4985021948814392,0.6130322217941284,37.06622314453125,99.06501770019533,-22.90005493164062
242948,-0.188446044921875,0.2756195068359375,-0.0659637451171875,1.081771016120911,-0.330064445734024,0.4614112973213196,37.68972778320312,98.97019958496094,-24.20738220214844
242949,-0.18328857421875,0.1625213623046875,-0.03643798828125,0.9804805517196656,-0.1907292008399963,0.3130548596382141,37.95704650878906,98.91729736328124,-24.80757141113281
242950,-0.1622772216796875,0.06378173828125,0.0080718994140625,0.9682971239089966,0.1310046166181564,0.0679588094353675,38.28814697265625,98.812744140625,-25.37614440917969
242951,-0.1622772216796875,0.06378173828125,0.0080718994140625,0.9682971239089966,0.1310046166181564,0.0679588094353675,38.28814697265625,98.812744140625,-25.37614440917969
242952,-0.0596466064453125,-0.0834808349609375,0.168426513671875,0.9617361426353456,0.3825154304504395,-0.0157925449311733,38.65811157226562,98.765869140625,-26.25233459472656
242953,-0.01666259765625,-0.132476806640625,0.2554168701171875,0.8350765109062195,1.045047879219055,-0.0510453395545482,38.76216125488281,98.7563934326172,-26.68336486816406
242954,-0.0062713623046875,-0.1510009765625,0.28753662109375,0.8350765109062195,1.045047879219055,-0.0510453395545482,38.89472961425781,98.62287902832033,-27.24581909179688
242955,-0.0062713623046875,-0.1510009765625,0.28753662109375,0.8350765109062195,1.045047879219055,-0.0510453395545482,38.89472961425781,98.62287902832033,-27.24581909179688
242956,-0.0313873291015625,-0.12115478515625,0.20318603515625,0.4497128427028656,1.626345634460449,-0.1331950724124908,39.06245422363281,98.30989074707033,-28.2164306640625
242957,-0.0466156005859375,-0.1142425537109375,0.132110595703125,0.4497128427028656,1.626345634460449,-0.1331950724124908,39.32859802246094,98.15634155273438,-28.55525207519531
242958,-0.071319580078125,-0.108367919921875,0.0683441162109375,0.313659131526947,1.532293677330017,-0.1956323534250259,39.51246643066406,98.02810668945312,-29.08799743652344
242959,-0.071319580078125,-0.108367919921875,0.0683441162109375,0.313659131526947,1.532293677330017,-0.1956323534250259,39.51246643066406,98.02810668945312,-29.08799743652344
242960,-0.1326904296875,-0.1057891845703125,-0.0177764892578125,0.0597517453134059,0.9937140941619872,-0.3923874795436859,40.07769775390625,97.99650573730467,-29.59233093261719
242961,-0.1783294677734375,-0.1140899658203125,-0.00030517578125,-0.0831761136651039,0.7216079831123352,-0.5190247893333435,40.30479431152344,97.95863342285156,-29.68392944335938
242962,-0.2148284912109375,-0.1348419189453125,0.03900146484375,-0.2445359826087952,0.5927791595458984,-0.6458367705345154,40.41543579101562,97.94737243652344,-29.68742370605469
242963,-0.2417449951171875,-0.1775054931640625,0.078277587890625,-0.4329048097133636,0.6282663345336914,-0.7119271159172058,40.42881774902344,97.9252471923828,-29.54713439941406
242964,-0.2626953125,-0.230194091796875,0.1156768798828125,-0.6747888326644897,0.8866690993309021,-0.694209098815918,40.41453552246094,98.03205871582033,-29.32304382324219
242965,-0.249053955078125,-0.254638671875,0.1068572998046875,-0.920140266418457,1.235108375549316,-0.6325638890266418,40.31019592285156,98.0811004638672,-28.88743591308594
242966,-0.2140655517578125,-0.2596282958984375,0.0561676025390625,-1.323523640632629,1.339781761169434,-0.5094307661056519,40.23268127441406,98.26600646972656,-28.41395568847656
242967,-0.2140655517578125,-0.2596282958984375,0.0561676025390625,-1.323523640632629,1.339781761169434,-0.5094307661056519,40.23268127441406,98.26600646972656,-28.41395568847656
242968,-0.1954193115234375,-0.3152313232421875,-0.187744140625,-1.815033793449402,0.4360265731811523,-0.3459672629833221,40.19509887695312,98.1478271484375,-27.02439880371094
242969,-0.2339630126953125,-0.3704681396484375,-0.3879547119140625,-1.821763038635254,0.0305557791143655,-0.3265642523765564,40.21383666992188,98.10960388183594,-26.19485473632812
242970,-0.25994873046875,-0.2109222412109375,-0.577880859375,-1.821763038635254,0.0305557791143655,-0.3265642523765564,40.18572998046875,98.0547332763672,-25.1502685546875
242971,-0.25994873046875,-0.2109222412109375,-0.577880859375,-1.821763038635254,0.0305557791143655,-0.3265642523765564,40.18572998046875,98.0547332763672,-25.1502685546875
242972,-0.1299896240234375,0.260040283203125,-0.31695556640625,-1.155575156211853,-0.2312369495630264,-0.1982736736536026,39.96920776367188,98.26515197753906,-23.05584716796875
242973,-0.058990478515625,0.230682373046875,0.098846435546875,-0.9574130773544312,-0.231734961271286,-0.1195777952671051,39.78724670410156,98.4163055419922,-22.18461608886719
242974,0.0004730224609375,0.2062225341796875,0.4672088623046875,-1.018158197402954,-0.1315883845090866,-0.122922457754612,39.52911376953125,98.5275421142578,-21.5780029296875
242975,0.0159149169921875,0.268798828125,0.6651763916015625,-1.303300976753235,0.4842465817928314,-0.3900915682315826,39.11386108398438,98.53622436523438,-21.568115234375
242976,0.0357666015625,0.439697265625,0.955780029296875,-1.538519024848938,1.21515941619873,-0.6533147096633911,38.63487243652344,98.744140625,-21.54454040527344
242977,0.0587615966796875,1.000473022460938,1.286026000976562,-1.538519024848938,1.21515941619873,-0.6533147096633911,38.04824829101562,98.96142578125,-21.67158508300781
242978,0.0677947998046875,3.701034545898438,1.670791625976562,-1.40217912197113,1.724948048591614,-0.2946920990943909,37.54669189453125,99.19821166992188,-22.03974914550781
242979,0.0677947998046875,3.701034545898438,1.670791625976562,-1.40217912197113,1.724948048591614,-0.2946920990943909,37.54669189453125,99.19821166992188,-22.03974914550781
242980,0.0079193115234375,7.485580444335938,2.249374389648438,-0.8840738534927368,4.826402187347412,3.766289710998535,37.10305786132812,99.49600219726562,-22.67570495605469
242981,-1.013427734375,7.321807861328125,0.8958892822265625,0.136137068271637,6.857248783111572,1.028374910354614,37.39338684082031,100.4974365234375,-24.15306091308594
242982,-0.1253814697265625,3.317489624023438,-1.366241455078125,0.4131385684013367,4.02369499206543,-0.9585278630256652,39.10322570800781,100.82861328125,-24.58494567871094
242983,0.2673187255859375,0.5255279541015625,-3.051254272460938,-0.8826307058334351,-3.429948329925537,-1.117461800575256,40.83882141113281,101.0640563964844,-24.653564453125
242984,0.3222808837890625,0.0947418212890625,-0.9981231689453124,-1.845327734947205,-8.026405334472656,-1.053864479064941,41.40397644042969,100.8938751220703,-24.33894348144531
242985,0.4086761474609375,0.3687591552734375,0.7880706787109375,-0.9578647613525392,1.451258182525635,0.1456261724233627,40.76953125,100.7424468994141,-23.49299621582031
242986,0.7198486328125,1.171279907226562,0.0643463134765625,-0.9578647613525392,1.451258182525635,0.1456261724233627,37.96565246582031,100.5597839355469,-20.30900573730469
242987,0.8198699951171875,2.114974975585938,-2.167877197265625,0.8042395114898682,0.7328742146492004,1.151177525520325,37.37490844726562,100.5977630615234,-19.3914794921875
242988,0.3613433837890625,2.46697998046875,-0.4546966552734375,2.207269430160522,-0.4649932384490967,1.104520440101624,37.74642944335938,100.3074798583984,-19.13519287109375
242989,0.158294677734375,2.097183227539062,0.016204833984375,2.514367341995239,-0.2140776664018631,0.5496053099632263,38.29330444335938,100.0578918457031,-19.77992248535156
242990,0.1451873779296875,1.47674560546875,-0.4084930419921875,2.112717628479004,-0.4215392470359802,0.2991350293159485,38.70550537109375,100.0406188964844,-20.88023376464844
242991,0.1451873779296875,1.47674560546875,-0.4084930419921875,2.112717628479004,-0.4215392470359802,0.2991350293159485,38.70550537109375,100.0406188964844,-20.88023376464844
242992,0.0589752197265625,0.8621063232421875,-0.4456787109375,1.448457360267639,-1.275007843971252,0.1980843245983124,38.96145629882812,99.89492797851562,-22.98060607910156
242993,0.030731201171875,0.691619873046875,-0.2935943603515625,1.507054567337036,-1.234777569770813,0.2626563906669617,39.04786682128906,99.79249572753906,-23.84654235839844
242994,0.0422515869140625,0.5060272216796875,-0.2638092041015625,1.606750011444092,-0.822113037109375,0.2981249094009399,39.17332458496094,99.55938720703124,-24.52381896972656
242995,0.0422515869140625,0.5060272216796875,-0.2638092041015625,1.606750011444092,-0.822113037109375,0.2981249094009399,39.17332458496094,99.55938720703124,-24.52381896972656
242996,0.0525360107421875,0.2062530517578125,-0.48876953125,1.306940913200378,0.5431010723114014,0.23752760887146,39.23562622070312,99.25968933105467,-25.8958740234375
242997,0.0592803955078125,0.309173583984375,-0.3631744384765625,1.075029492378235,0.777805745601654,0.2438222467899323,39.36170959472656,99.27218627929688,-26.69589233398438
242998,0.0632476806640625,0.4549102783203125,-0.010498046875,0.9573387503623962,0.9993972778320312,0.2149511873722076,39.5096435546875,99.19529724121094,-27.31158447265625
242999,0.0632476806640625,0.4549102783203125,-0.010498046875,0.9573387503623962,0.9993972778320312,0.2149511873722076,39.5096435546875,99.19529724121094,-27.31158447265625
243000,0.164703369140625,0.3827972412109375,0.3674468994140625,0.7309975028038025,1.838006138801575,0.2374466359615326,40.19705200195312,99.16351318359376,-28.25436401367188
243001,0.1888580322265625,0.29473876953125,0.3788909912109375,0.6291432976722717,2.173723220825195,0.2698405385017395,40.67776489257812,98.94183349609376,-28.73410034179688
243002,0.1706390380859375,0.2170562744140625,0.3288726806640625,0.6102529764175415,2.251096725463867,0.2912238538265228,41.27737426757812,98.80242919921876,-29.18931579589844
243003,0.1706390380859375,0.2170562744140625,0.3288726806640625,0.6102529764175415,2.251096725463867,0.2912238538265228,41.27737426757812,98.80242919921876,-29.18931579589844
243004,0.03411865234375,0.05181884765625,0.215179443359375,0.865595817565918,1.534730195999146,0.1946861296892166,42.61349487304688,98.4563446044922,-30.04165649414062
243005,-0.0553741455078125,-0.0120391845703125,0.195556640625,1.095879077911377,1.030836939811707,0.116586796939373,43.13575744628906,98.22674560546876,-30.51904296875
243006,-0.104949951171875,-0.046905517578125,0.186614990234375,1.248742699623108,0.6230374574661255,0.0382674932479858,43.52854919433594,98.02781677246094,-30.89697265625
243007,-0.104949951171875,-0.046905517578125,0.186614990234375,1.248742699623108,0.6230374574661255,0.0382674932479858,43.52854919433594,98.02781677246094,-30.89697265625
243008,-0.117889404296875,-0.087921142578125,0.1941986083984375,1.125277638435364,0.2036412805318832,-0.1634903997182846,44.05830383300781,97.6024932861328,-32.01606750488281
243009,-0.1126251220703125,-0.0966644287109375,0.1893463134765625,0.9398018717765808,0.1487782895565033,-0.2768422365188599,44.12393188476562,97.47947692871094,-32.54421997070312
243010,-0.1076507568359375,-0.1092376708984375,0.1805877685546875,0.7432147264480591,0.1433241367340088,-0.3830187618732452,44.03953552246094,97.43240356445312,-33.01493835449219
243011,-0.112335205078125,-0.120849609375,0.1696014404296875,0.5615339279174805,0.1510547548532486,-0.4889446496963501,43.95297241210938,97.29214477539062,-33.23226928710938
243012,-0.1280670166015625,-0.13885498046875,0.1677398681640625,0.4223259389400482,0.1608954071998596,-0.5873761773109436,43.87701416015625,97.3280792236328,-33.59980773925781
243013,-0.147613525390625,-0.15576171875,0.177947998046875,0.2489344477653503,0.2018425762653351,-0.6989844441413879,43.82977294921875,97.26515197753906,-33.58087158203125
243014,-0.1592254638671875,-0.1663818359375,0.1737518310546875,-0.0011542140273377,0.2711390852928162,-0.8198568224906921,43.59384155273438,97.31675720214844,-33.53756713867188
243015,-0.1592254638671875,-0.1663818359375,0.1737518310546875,-0.0011542140273377,0.2711390852928162,-0.8198568224906921,43.59384155273438,97.31675720214844,-33.53756713867188
243016,-0.157073974609375,-0.1899566650390625,0.1510162353515625,-0.5846416354179382,0.4115960597991943,-1.051420211791992,43.2066650390625,97.39964294433594,-32.89129638671875
243017,-0.1446075439453125,-0.1930999755859375,0.114044189453125,-0.8778607249259949,0.4656329452991486,-1.148640751838684,42.96177673339844,97.30006408691406,-32.37583923339844
243018,-0.1274871826171875,-0.179779052734375,0.0513458251953125,-1.166040897369385,0.4377416670322418,-1.251714706420898,42.62164306640625,97.30355834960938,-31.64976501464844
243019,-0.1079864501953125,-0.1526031494140625,-0.023681640625,-1.487078547477722,0.2646553516387939,-1.380492448806763,42.335205078125,97.30110168457033,-30.87748718261719
243020,-0.1012420654296875,-0.07281494140625,-0.145538330078125,-1.889271020889282,-0.1040763333439827,-1.568407416343689,42.05967712402344,97.22726440429688,-30.04013061523438
243021,-0.141510009765625,0.2721405029296875,-0.8114166259765625,-2.226276636123657,-1.222080945968628,-1.807508707046509,41.38868713378906,97.51890563964844,-29.15589904785156
243022,-0.31549072265625,0.56829833984375,-1.192092895507812,-2.358489513397217,-3.050944805145264,-2.034454107284546,40.45767211914062,97.92732238769533,-28.34500122070312
243023,-0.4731292724609375,0.5551300048828125,-0.059906005859375,-2.697074413299561,-2.884734392166138,-2.006583690643311,39.17875671386719,98.38142395019533,-27.50173950195312
243024,-0.4594879150390625,0.6300506591796875,0.9711456298828124,-3.261390447616577,-0.7971136569976807,-1.720778942108154,37.41148376464844,98.68666076660156,-26.56576538085938
243025,-0.418548583984375,1.507766723632812,1.069900512695312,-3.823309183120728,0.164194792509079,-1.536888360977173,35.84046936035156,98.72085571289062,-25.51318359375
243026,-0.5148162841796875,5.515518188476562,1.1004638671875,-3.364682197570801,0.1079677492380142,-0.3428585529327393,34.82705688476562,98.60133361816406,-24.39126586914062
243027,-0.9409637451171876,8.145660400390625,1.289169311523438,-1.815215349197388,-0.6148165464401245,2.318116903305054,34.53706359863281,98.93611145019533,-23.84632873535156
243028,-0.979278564453125,7.885848999023438,1.081268310546875,0.4126930236816406,0.5711979866027832,1.088004946708679,34.84526062011719,99.7275848388672,-23.55581665039062
243029,0.1766510009765625,5.0716552734375,-0.4786834716796875,0.9739523530006408,1.512520432472229,0.5704211592674255,35.46337890625,100.0233154296875,-23.32283020019531
243030,0.51483154296875,1.96527099609375,-2.006011962890625,1.284052133560181,-0.6724425554275513,1.461420297622681,35.82130432128906,99.96841430664062,-23.22227478027344
243031,0.51483154296875,1.96527099609375,-2.006011962890625,1.284052133560181,-0.6724425554275513,1.461420297622681,35.82130432128906,99.96841430664062,-23.22227478027344
243032,0.6274566650390625,1.084991455078125,-0.120880126953125,1.896629571914673,-0.34172323346138,1.170845985412598,36.36883544921875,99.71575927734376,-23.54165649414062
243033,0.7813262939453125,1.029815673828125,-0.404052734375,1.838383793830872,0.0590191110968589,1.090580701828003,36.68679809570312,99.48483276367188,-23.81118774414062
243034,0.83203125,1.119537353515625,-0.5958404541015625,1.627564787864685,-0.5363278985023499,1.08140504360199,37.16690063476562,99.361328125,-24.50511169433594
243035,0.83203125,1.119537353515625,-0.5958404541015625,1.627564787864685,-0.5363278985023499,1.08140504360199,37.16690063476562,99.361328125,-24.50511169433594
243036,0.6241302490234375,1.054962158203125,-0.438232421875,1.393339991569519,-0.7876229882240295,0.5399639010429382,37.96871948242188,98.9967041015625,-25.90628051757812
243037,0.389739990234375,0.892547607421875,-0.4281158447265625,1.302819967269897,-0.0703460648655891,0.3485899269580841,38.16249084472656,98.93585205078124,-26.466552734375
243038,0.1672210693359375,0.8561553955078125,-0.4749908447265625,1.334409594535828,0.3042320609092712,0.4648965895175934,38.35371398925781,98.864501953125,-27.0023193359375
243039,0.08349609375,0.8670806884765625,-0.431640625,1.536213040351868,-0.017402958124876,0.4452230036258698,38.50236511230469,98.66188049316406,-27.70089721679688
243040,0.0418548583984375,0.80352783203125,-0.2642364501953125,1.536213040351868,-0.017402958124876,0.4452230036258698,38.84239196777344,98.5810089111328,-28.52279663085938
243041,-0.0137939453125,0.703460693359375,-0.063446044921875,1.472111821174622,-0.0209585446864366,0.3020245730876923,39.15235900878906,98.31199645996094,-29.21995544433594
243042,-0.067718505859375,0.5816650390625,0.048309326171875,1.325556755065918,0.1779071539640427,0.1054979264736176,39.43466186523438,98.150634765625,-30.04396057128906
243043,-0.067718505859375,0.5816650390625,0.048309326171875,1.325556755065918,0.1779071539640427,0.1054979264736176,39.43466186523438,98.150634765625,-30.04396057128906
243044,-0.153167724609375,0.2030792236328125,-0.027435302734375,0.9682345390319824,0.2921189367771149,-0.2802987694740295,39.75904846191406,97.81658935546876,-31.2664794921875
243045,-0.1855316162109375,0.048095703125,-0.0158843994140625,0.8511942028999329,0.1167218238115311,-0.4151875972747803,39.8165283203125,97.63084411621094,-31.80548095703125
243046,-0.1807098388671875,-0.117034912109375,0.345611572265625,0.7876778244972229,0.7470057606697083,-0.6201159954071045,39.71328735351562,97.19671630859376,-32.67964172363281
243047,-0.1807098388671875,-0.117034912109375,0.345611572265625,0.7876778244972229,0.7470057606697083,-0.6201159954071045,39.71328735351562,97.19671630859376,-32.67964172363281
243048,-0.1807098388671875,-0.117034912109375,0.345611572265625,0.7876778244972229,0.7470057606697083,-0.6201159954071045,39.71328735351562,97.19671630859376,-32.67964172363281
243049,-0.1684722900390625,-0.11962890625,0.2803192138671875,0.5758651494979858,1.743302345275879,-0.8019862174987793,39.52943420410156,96.89132690429688,-33.50840759277344
243050,-0.187652587890625,-0.1302947998046875,0.2024688720703125,0.4357360303401947,1.946930527687073,-0.889359712600708,39.50234985351562,96.74839782714844,-33.85163879394531
243051,-0.187652587890625,-0.1302947998046875,0.2024688720703125,0.4357360303401947,1.946930527687073,-0.889359712600708,39.50234985351562,96.74839782714844,-33.85163879394531
243052,-0.227386474609375,-0.1867218017578125,0.0933990478515625,0.2712464034557343,1.900726795196533,-0.9434517025947572,39.69593811035156,96.70176696777344,-34.31878662109375
243053,-0.2437591552734375,-0.225189208984375,0.0666961669921875,0.1965783089399338,1.791160941123962,-0.8872174620628357,39.81053161621094,96.59706115722656,-34.46464538574219
243054,-0.25830078125,-0.2710418701171875,0.0510711669921875,0.0803036242723465,1.715150594711304,-0.7892475128173828,39.88970947265625,96.57455444335938,-34.39443969726562
243055,-0.260284423828125,-0.3141326904296875,0.0450592041015625,-0.1287782192230225,1.74345862865448,-0.6578149199485779,40.03376770019531,96.5095672607422,-34.31935119628906
243056,-0.2267608642578125,-0.317596435546875,0.016937255859375,-0.601994514465332,1.740179538726807,-0.5048738121986389,40.09500122070312,96.55508422851562,-34.07853698730469
243057,-0.1481170654296875,-0.25579833984375,-0.050537109375,-0.601994514465332,1.740179538726807,-0.5048738121986389,40.21403503417969,96.4949951171875,-33.76296997070312
243058,-0.095703125,-0.207275390625,-0.109832763671875,-0.8017800450325012,0.8148841261863708,-0.6367988586425781,40.43203735351562,96.39402770996094,-33.34831237792969
243059,-0.095703125,-0.207275390625,-0.109832763671875,-0.8017800450325012,0.8148841261863708,-0.6367988586425781,40.43203735351562,96.39402770996094,-33.34831237792969
243060,-0.0428924560546875,-0.1486968994140625,-0.1079559326171875,-0.9867736101150512,0.2784214913845062,-0.7336984872817993,40.87446594238281,96.13543701171876,-32.10478210449219
243061,-0.0125885009765625,-0.115570068359375,-0.092010498046875,-1.265436172485352,-0.3098092675209045,-0.8428995609283447,40.79270935058594,95.97189331054688,-31.64788818359375
243062,0.029998779296875,0.030548095703125,0.002685546875,-1.93697190284729,-1.670784115791321,-0.8601248860359192,40.22097778320312,95.92756652832033,-30.5247802734375
243063,0.029998779296875,0.030548095703125,0.002685546875,-1.93697190284729,-1.670784115791321,-0.8601248860359192,40.22097778320312,95.92756652832033,-30.5247802734375
243064,0.006591796875,0.073150634765625,0.1405029296875,-2.243178367614746,-2.22894287109375,-0.780874490737915,39.60868835449219,96.2333526611328,-29.82492065429688
243065,-0.003173828125,0.1655731201171875,0.3989105224609375,-2.331236362457275,-2.520721912384033,-0.7479251027107239,38.84719848632812,96.60964965820312,-29.16767883300781
243066,-0.021636962890625,0.3925323486328125,0.802398681640625,-2.125512599945068,-2.482353925704956,-0.8923435211181641,38.02958679199219,97.0677490234375,-28.74104309082031
243067,-0.021636962890625,0.3925323486328125,0.802398681640625,-2.125512599945068,-2.482353925704956,-0.8923435211181641,38.02958679199219,97.0677490234375,-28.74104309082031
243068,-0.1417083740234375,3.134109497070312,1.998794555664062,-2.214352607727051,-1.66672945022583,-0.5565854907035828,36.047119140625,97.49520874023438,-28.1444091796875
243069,-0.3897552490234375,6.205413818359375,2.74859619140625,-1.977756142616272,0.1147249862551689,1.117112755775452,35.37458801269531,97.6995086669922,-28.01701354980469
243070,-1.036224365234375,7.477767944335938,2.787704467773438,-1.827401757240295,3.204163551330566,1.747177481651306,35.29605102539062,98.05036926269533,-28.04884338378906
