time_idx,accelerometerAccelerationX(G),accelerometerAccelerationY(G),accelerometerAccelerationZ(G),gyroRotationX(rad/s),gyroRotationY(rad/s),gyroRotationZ(rad/s),magnetometerX(µT),magnetometerY(µT),magnetometerZ(µT)
221038,-0.1967010498046875,0.70037841796875,0.1289520263671875,-0.3681396842002869,-0.3400734066963196,-0.456296443939209,31.99496459960938,97.09327697753906,-10.32977294921875
221039,-0.1804046630859375,0.7111968994140625,0.1216888427734375,-0.4133630692958832,-0.3676246106624603,-0.4557417035102844,31.75752258300781,97.02035522460938,-10.16587829589844
221040,-0.1669158935546875,0.738250732421875,0.131256103515625,-0.4768957197666168,-0.3924844264984131,-0.4545712471008301,31.59950256347656,96.86898803710938,-9.95233154296875
221041,-0.1669158935546875,0.738250732421875,0.131256103515625,-0.4768957197666168,-0.3924844264984131,-0.4545712471008301,31.59950256347656,96.86898803710938,-9.95233154296875
221042,-0.1622467041015625,0.8513336181640625,0.1616058349609375,-0.674918532371521,-0.4126791656017303,-0.4473868310451508,31.16584777832031,96.78059387207033,-9.587326049804688
221043,-0.1759185791015625,0.9166717529296876,0.18572998046875,-0.8056821227073669,-0.4215059578418732,-0.4519035518169403,30.92124938964844,96.85260009765624,-9.293807983398438
221044,-0.188385009765625,0.9715423583984376,0.2174530029296875,-0.9469646811485292,-0.4538868069648743,-0.4667456150054932,30.49798583984375,96.67613220214844,-8.619796752929688
221045,-0.188385009765625,0.9715423583984376,0.2174530029296875,-0.9469646811485292,-0.4538868069648743,-0.4667456150054932,30.49798583984375,96.67613220214844,-8.619796752929688
221046,-0.210235595703125,1.1180419921875,0.24365234375,-1.182336211204529,-0.5447685122489929,-0.4679767787456512,30.05320739746094,96.51348876953124,-7.457489013671875
221047,-0.2150115966796875,1.160324096679688,0.1739044189453125,-1.311829686164856,-0.694952130317688,-0.5028042793273926,29.84889221191406,96.44088745117188,-6.905502319335938
221048,-0.1270294189453125,1.088729858398438,0.087646484375,-1.344305872917175,-0.9741076231002808,-0.5438427925109863,29.54112243652344,96.38368225097656,-6.221771240234375
221049,-0.1270294189453125,1.088729858398438,0.087646484375,-1.344305872917175,-0.9741076231002808,-0.5438427925109863,29.54112243652344,96.38368225097656,-6.221771240234375
221050,0.0205230712890625,1.189773559570312,-0.036376953125,-1.017696857452393,-0.904959201812744,-0.3038400411605835,29.16896057128906,95.95541381835938,-4.692367553710938
221051,-0.018218994140625,1.21923828125,-0.168548583984375,-0.6523812413215637,-0.8160830736160278,-0.2232501357793808,28.94758605957031,95.8643798828125,-3.943328857421875
221052,-0.0304412841796875,1.18304443359375,-0.0545806884765625,-0.4042236506938934,-0.8213455080986023,-0.1790602952241898,28.85995483398438,95.7808074951172,-3.322235107421875
221053,-0.0215301513671875,1.18621826171875,0.014556884765625,-0.3335856795310974,-0.7808164358139038,-0.1898796558380127,28.7154541015625,95.63442993164062,-2.799102783203125
221054,0.002044677734375,1.186614990234375,-0.0830841064453125,-0.2736507058143616,-0.8197427988052368,-0.2367334514856339,28.71646118164062,95.5756378173828,-2.375885009765625
221055,0.0688323974609375,1.172119140625,-0.212005615234375,-0.1323324739933014,-0.9604775905609132,-0.2348037213087082,28.64398193359375,95.5478057861328,-1.973907470703125
221056,0.1352996826171875,1.160171508789062,-0.28131103515625,0.0920098200440406,-1.04968786239624,-0.1738721877336502,28.64785766601562,95.41447448730467,-1.672607421875
221057,0.149658203125,1.174240112304688,-0.3133697509765625,0.2785597145557404,-1.084813117980957,-0.0561050809919834,28.6368408203125,95.30776977539062,-1.358856201171875
221058,0.158111572265625,1.136566162109375,-0.3327484130859375,0.4536606967449188,-1.027817130088806,0.0151509894058108,28.71728515625,95.2222900390625,-1.092910766601562
221059,0.1781463623046875,1.092971801757812,-0.326141357421875,0.6042536497116089,-0.9413648247718812,0.0963614210486412,28.9566650390625,95.18983459472656,-0.9571685791015624
221060,0.1809234619140625,1.080474853515625,-0.3007659912109375,0.7283862829208374,-0.8301741480827332,0.1535110026597977,29.16688537597656,95.17788696289062,-0.904541015625
221061,0.1809234619140625,1.080474853515625,-0.3007659912109375,0.7283862829208374,-0.8301741480827332,0.1535110026597977,29.16688537597656,95.17788696289062,-0.904541015625
221062,0.181243896484375,1.106979370117188,-0.2215576171875,0.8079617619514465,-0.6238704919815063,0.2247974276542664,29.57322692871094,95.3429718017578,-1.235916137695312
221063,0.1612548828125,1.151046752929688,-0.1775054931640625,0.8139600157737732,-0.5451594591140747,0.2512530088424683,29.86067199707031,95.55445861816406,-1.488845825195312
221064,0.134857177734375,1.208251953125,-0.110992431640625,0.8014695644378662,-0.4794752597808838,0.2701388001441956,30.09103393554688,95.76399230957033,-1.769866943359375
221065,0.134857177734375,1.208251953125,-0.110992431640625,0.8014695644378662,-0.4794752597808838,0.2701388001441956,30.09103393554688,95.76399230957033,-1.769866943359375
221066,0.086639404296875,1.36187744140625,0.0746307373046875,0.7138792276382446,-0.3890372216701508,0.2698554396629333,30.564453125,95.89271545410156,-2.199447631835938
221067,0.060882568359375,1.442459106445312,0.1594390869140625,0.6770778298377991,-0.4134416282176971,0.2441508769989014,30.74702453613281,96.1544952392578,-2.557632446289062
221068,0.0281219482421875,1.51666259765625,0.2374267578125,0.6418393850326538,-0.5153014063835144,0.1995298862457275,31.01832580566406,96.29289245605467,-2.904769897460938
221069,0.0281219482421875,1.51666259765625,0.2374267578125,0.6418393850326538,-0.5153014063835144,0.1995298862457275,31.01832580566406,96.29289245605467,-2.904769897460938
221070,-0.018463134765625,1.553604125976562,0.3217926025390625,0.5904374718666077,-0.6726300716400146,0.1114173382520676,31.63839721679688,96.46714782714844,-3.2269287109375
221071,-0.018463134765625,1.553604125976562,0.3217926025390625,0.5904374718666077,-0.6726300716400146,0.1114173382520676,31.63839721679688,96.46714782714844,-3.2269287109375
221072,-0.1053009033203125,1.19854736328125,0.1818695068359375,0.7820764183998108,-0.8857106566429138,0.1240564361214638,32.38125610351562,96.61441040039062,-3.583328247070312
221073,-0.1053009033203125,1.19854736328125,0.1818695068359375,0.7820764183998108,-0.8857106566429138,0.1240564361214638,32.38125610351562,96.61441040039062,-3.583328247070312
221074,-0.1168212890625,1.0494384765625,0.1674041748046875,0.8905589580535889,-0.953474760055542,0.1286762207746506,32.69955444335938,96.58235168457033,-3.615493774414062
221075,-0.1165008544921875,0.913177490234375,0.145355224609375,0.9126248359680176,-0.9724031686782836,0.1120085567235947,32.92799377441406,96.59791564941406,-3.770156860351562
221076,-0.114013671875,0.81524658203125,0.117218017578125,0.8350570797920227,-0.940632462501526,0.0689034312963485,33.22648620605469,96.55252075195312,-4.07269287109375
221077,-0.114013671875,0.81524658203125,0.117218017578125,0.8350570797920227,-0.940632462501526,0.0689034312963485,33.22648620605469,96.55252075195312,-4.07269287109375
221078,-0.0919189453125,0.758880615234375,0.1055145263671875,0.7156158685684204,-0.9776762723922728,0.013530190102756,33.70571899414062,96.4997100830078,-4.476455688476562
221079,-0.08148193359375,0.738525390625,0.1222381591796875,0.7141883969306946,-0.9646896123886108,-0.0021129520609974,33.89610290527344,96.4911651611328,-4.513687133789062
221080,-0.0756072998046875,0.7027587890625,0.1035919189453125,0.7003024220466614,-0.9216577410697936,-0.0174397099763155,33.96168518066406,96.4649658203125,-4.785964965820312
221081,-0.0756072998046875,0.7027587890625,0.1035919189453125,0.7003024220466614,-0.9216577410697936,-0.0174397099763155,33.96168518066406,96.4649658203125,-4.785964965820312
221082,-0.0851287841796875,0.59002685546875,-0.003021240234375,0.6295446157455444,-0.8837864995002747,-0.0791486129164695,34.31320190429688,96.56185913085938,-4.88385009765625
221083,-0.0919647216796875,0.545684814453125,-0.0341033935546875,0.613952100276947,-0.8238467574119568,-0.106830045580864,34.37287902832031,96.54318237304688,-5.121261596679688
221084,-0.09185791015625,0.5261077880859375,-0.0441131591796875,0.6220076084136963,-0.7316398620605469,-0.1295859515666962,34.428955078125,96.57624816894533,-5.25634765625
221085,-0.09185791015625,0.5261077880859375,-0.0441131591796875,0.6220076084136963,-0.7316398620605469,-0.1295859515666962,34.428955078125,96.57624816894533,-5.25634765625
221086,-0.0593414306640625,0.6252288818359375,0.0635986328125,0.4278722405433655,-0.4897806346416473,-0.0446111448109149,34.47196960449219,96.71292114257812,-5.567489624023438
221087,-0.020843505859375,0.697265625,0.149169921875,0.4278722405433655,-0.4897806346416473,-0.0446111448109149,34.47854614257812,96.74179077148438,-5.712844848632812
221088,0.004241943359375,0.7439117431640625,0.256866455078125,0.2442491501569748,-0.4705496728420258,0.0271147079765796,34.47592163085938,96.75669860839844,-5.706985473632812
221089,0.004241943359375,0.7439117431640625,0.256866455078125,0.2442491501569748,-0.4705496728420258,0.0271147079765796,34.47592163085938,96.75669860839844,-5.706985473632812
221090,-0.0290679931640625,0.9116973876953124,0.4475860595703125,-0.1974747180938721,-0.3517031669616699,0.1534382849931717,34.49357604980469,97.0115966796875,-5.649490356445312
221091,-0.0943450927734375,1.01434326171875,0.514129638671875,-0.3895682692527771,-0.2524887025356293,0.1741534173488617,34.67247009277344,96.87702941894533,-5.312362670898438
221092,-0.1623992919921875,1.061386108398438,0.531707763671875,-0.5075460076332092,-0.1591784656047821,0.1750016361474991,34.75018310546875,96.88531494140624,-5.079483032226562
221093,-0.1623992919921875,1.061386108398438,0.531707763671875,-0.5075460076332092,-0.1591784656047821,0.1750016361474991,34.75018310546875,96.88531494140624,-5.079483032226562
221094,-0.2270660400390625,1.01055908203125,0.4193267822265625,-0.5344961881637573,-0.2383148372173309,0.1467526853084564,34.78062438964844,97.2197723388672,-5.333511352539062
221095,-0.2270660400390625,1.01055908203125,0.4193267822265625,-0.5344961881637573,-0.2383148372173309,0.1467526853084564,34.78062438964844,97.2197723388672,-5.333511352539062
221096,-0.199615478515625,0.9708251953125,0.38458251953125,-0.5344961881637573,-0.2383148372173309,0.1467526853084564,34.78265380859375,97.35740661621094,-5.17620849609375
221097,-0.1063690185546875,0.918487548828125,0.3955535888671875,-0.6072912812232971,-0.2706187069416046,0.1276125460863113,34.85118103027344,97.30296325683594,-4.76153564453125
221098,-0.0712890625,0.905364990234375,0.3957366943359375,-0.7138334512710571,-0.3116886615753174,0.0854951962828636,34.97663879394531,97.26084899902344,-4.491775512695312
221099,-0.04058837890625,0.920684814453125,0.3739166259765625,-0.8861188888549805,-0.3817667961120605,0.0090848412364721,35.01170349121094,97.1982879638672,-4.210769653320312
221100,0.0283966064453125,0.9699554443359376,0.2076568603515625,-1.265732049942017,-0.6080987453460693,-0.2854245603084564,34.97970581054688,97.00672912597656,-3.34417724609375
221101,0.0283966064453125,0.9699554443359376,0.2076568603515625,-1.265732049942017,-0.6080987453460693,-0.2854245603084564,34.97970581054688,97.00672912597656,-3.34417724609375
221102,0.0602874755859375,1.00506591796875,0.0962982177734375,-1.265732049942017,-0.6080987453460693,-0.2854245603084564,34.98764038085938,96.8390655517578,-2.672531127929688
221103,0.0944061279296875,1.065200805664062,-0.00628662109375,-1.215342044830322,-0.5121399760246277,-0.3590641617774963,34.94364929199219,96.58642578125,-1.94720458984375
221104,0.1136322021484375,1.121795654296875,-0.0633697509765625,-1.011635541915894,-0.1795790791511536,-0.4089062809944153,34.74781799316406,96.51353454589844,-1.342620849609375
221105,0.1136322021484375,1.121795654296875,-0.0633697509765625,-1.011635541915894,-0.1795790791511536,-0.4089062809944153,34.74781799316406,96.51353454589844,-1.342620849609375
221106,0.0077362060546875,1.078933715820312,-0.0654144287109375,-0.5762667655944824,0.1508696675300598,-0.4794858992099762,34.21614074707031,96.33285522460938,-0.0623779296875
221107,-0.0347747802734375,1.102340698242188,-0.061767578125,-0.550959050655365,0.1829493045806885,-0.4962180256843567,33.94935607910156,96.31161499023438,0.3392181396484375
221108,-0.0797119140625,1.197799682617188,-0.1128387451171875,-0.5671135187149048,0.1669439822435379,-0.4875563383102417,33.62844848632812,96.29493713378906,0.51214599609375
221109,-0.0797119140625,1.197799682617188,-0.1128387451171875,-0.5671135187149048,0.1669439822435379,-0.4875563383102417,33.62844848632812,96.29493713378906,0.51214599609375
221110,-0.1435394287109375,1.307830810546875,-0.201171875,-0.4302749633789062,-0.0305589735507965,-0.3922079801559448,32.99038696289062,96.0007781982422,1.232406616210938
221111,-0.1367034912109375,1.2708740234375,-0.2115020751953125,-0.2748241126537323,-0.0774122327566146,-0.2795999646186829,32.7474365234375,95.92176818847656,1.327362060546875
221112,-0.0919952392578125,1.1961669921875,-0.2322235107421875,-0.0806788653135299,-0.0474047996103763,-0.142764613032341,32.5076904296875,95.90426635742188,1.489944458007812
221113,-0.0919952392578125,1.1961669921875,-0.2322235107421875,-0.0806788653135299,-0.0474047996103763,-0.142764613032341,32.5076904296875,95.90426635742188,1.489944458007812
221114,0.0001373291015625,1.08734130859375,-0.28509521484375,0.2846426367759705,0.0518030114471912,0.0947161242365837,32.25898742675781,95.82398986816406,1.84185791015625
221115,0.0001373291015625,1.08734130859375,-0.28509521484375,0.2846426367759705,0.0518030114471912,0.0947161242365837,32.25898742675781,95.82398986816406,1.84185791015625
221116,0.0584259033203125,1.084716796875,-0.324615478515625,0.5282046794891357,0.1257368922233582,0.2732935845851898,32.25166320800781,95.95974731445312,1.710784912109375
221117,0.064453125,1.134201049804688,-0.3235931396484375,0.6013489365577698,0.165889099240303,0.3171973824501038,32.205078125,96.0776824951172,1.562728881835938
221118,0.0530242919921875,1.190155029296875,-0.301971435546875,0.6348291635513306,0.2317322939634323,0.3289470076560974,32.31446838378906,96.19468688964844,1.44573974609375
221119,0.0359954833984375,1.230209350585938,-0.27215576171875,0.6461305618286133,0.3124987781047821,0.3407599925994873,32.44294738769531,96.24412536621094,1.196121215820312
221120,0.0091094970703125,1.264495849609375,-0.242218017578125,0.6676933765411377,0.3796802163124084,0.3532776236534119,32.60134887695312,96.40989685058594,0.7121734619140625
221121,0.0091094970703125,1.264495849609375,-0.242218017578125,0.6676933765411377,0.3796802163124084,0.3532776236534119,32.60134887695312,96.40989685058594,0.7121734619140625
221122,-0.06304931640625,1.29931640625,-0.148101806640625,0.7545425295829773,0.4454914629459381,0.362717479467392,32.94375610351562,96.796875,0.084869384765625
221123,-0.0828399658203125,1.27655029296875,-0.088775634765625,0.7805099487304688,0.4529206156730652,0.3507266044616699,33.20513916015625,96.8437957763672,-0.2463531494140625
221124,-0.095794677734375,1.237655639648438,-0.00689697265625,0.7720951437950134,0.4500324130058289,0.3300713896751404,33.38337707519531,96.9037628173828,-0.633392333984375
221125,-0.095794677734375,1.237655639648438,-0.00689697265625,0.7720951437950134,0.4500324130058289,0.3300713896751404,33.38337707519531,96.9037628173828,-0.633392333984375
221126,-0.087890625,1.09075927734375,0.096771240234375,0.6581799983978271,0.3383671343326569,0.2893300652503967,33.68424987792969,97.42129516601562,-1.821578979492188
221127,-0.078521728515625,1.017562866210938,0.1119384765625,0.6203897595405579,0.2011405676603317,0.3040922582149506,33.88327026367188,97.63406372070312,-2.290008544921875
221128,-0.053070068359375,0.9642791748046876,0.113250732421875,0.5995702147483826,0.0370618812739849,0.3442897200584412,33.99464416503906,97.7568359375,-2.623870849609375
221129,-0.053070068359375,0.9642791748046876,0.113250732421875,0.5995702147483826,0.0370618812739849,0.3442897200584412,33.99464416503906,97.7568359375,-2.623870849609375
221130,0.0215301513671875,0.869598388671875,0.1372222900390625,0.53324955701828,-0.3176546692848206,0.4333010911941528,34.22505187988281,97.85476684570312,-3.086761474609375
221131,0.05157470703125,0.8232574462890625,0.1804351806640625,0.4530505836009979,-0.403779149055481,0.4664329588413239,34.50045776367188,97.87344360351562,-3.40673828125
221132,0.0731353759765625,0.7704620361328125,0.2028350830078125,0.3600796163082123,-0.4635506272315979,0.4837799966335297,34.71878051757812,98.01570129394533,-3.577926635742188
221133,0.0863189697265625,0.7346038818359375,0.2127532958984375,0.2529547512531281,-0.5317272543907166,0.4767409861087799,34.9822998046875,98.09988403320312,-3.846481323242188
221134,0.1111297607421875,0.7154693603515625,0.2267608642578125,0.1383807808160782,-0.6040078401565552,0.4420085847377777,35.27557373046875,98.12686157226562,-4.013595581054688
221135,0.140411376953125,0.723480224609375,0.2413787841796875,0.015261510387063,-0.6436945796012878,0.3959169685840607,35.66787719726562,98.09895324707033,-3.995010375976562
221136,0.1650543212890625,0.764678955078125,0.233917236328125,-0.2291985601186752,-0.6560329794883728,0.3452564477920532,35.94291687011719,98.05337524414062,-3.953094482421875
221137,0.1650543212890625,0.764678955078125,0.233917236328125,-0.2291985601186752,-0.6560329794883728,0.3452564477920532,35.94291687011719,98.05337524414062,-3.953094482421875
221138,0.148040771484375,0.9805145263671876,0.138397216796875,-0.2491815984249115,-0.5965723395347595,0.3074065446853638,36.48487854003906,98.07107543945312,-4.010833740234375
221139,0.126068115234375,0.9798126220703124,0.03857421875,-0.1655703186988831,-0.5678130984306335,0.2533451914787292,36.83622741699219,97.96009826660156,-3.755096435546875
221140,0.117340087890625,0.9092254638671876,-0.02606201171875,0.1067149937152863,-0.5139879584312439,0.1954278200864792,36.97366333007812,97.86669921875,-3.483963012695312
221141,0.117340087890625,0.9092254638671876,-0.02606201171875,0.1067149937152863,-0.5139879584312439,0.1954278200864792,36.97366333007812,97.86669921875,-3.483963012695312
221142,0.111785888671875,0.837677001953125,0.03765869140625,0.1623122096061707,-0.4468632340431213,0.1514180153608322,37.41574096679688,97.86895751953124,-3.132949829101562
221143,0.0919647216796875,0.843597412109375,0.0449676513671875,0.1374747753143311,-0.3883847594261169,0.082799807190895,37.53684997558594,97.7979736328125,-2.999588012695312
221144,0.0475311279296875,0.86566162109375,0.02520751953125,0.028244687244296,-0.3332874178886414,-0.1059964746236801,37.75782775878906,97.77059936523438,-3.151962280273438
221145,-0.021209716796875,0.883941650390625,0.013397216796875,0.028244687244296,-0.3332874178886414,-0.1059964746236801,37.84254455566406,97.78327941894533,-3.0933837890625
221146,-0.0886077880859375,0.8992919921875,0.0166473388671875,0.0056000952608883,-0.327976793050766,-0.2031158357858658,37.98684692382812,97.85919189453124,-3.119949340820312
221147,-0.1392669677734375,0.9103240966796876,0.0266265869140625,-0.0099271992221474,-0.3291427493095398,-0.2879657447338104,37.99166870117188,97.83860778808594,-3.13043212890625
221148,-0.1813507080078125,0.912811279296875,0.042022705078125,-0.020420853048563,-0.3251184225082397,-0.3571887612342834,37.95236206054688,97.82476806640624,-3.193695068359375
221149,-0.21173095703125,0.91070556640625,0.079742431640625,-0.0407844483852386,-0.3075250685214996,-0.4142057001590729,37.80805969238281,97.8776397705078,-3.149658203125
221150,-0.2319488525390625,0.8964691162109375,0.131683349609375,-0.0664067193865776,-0.2705289721488953,-0.4449345767498016,37.73432922363281,97.8677215576172,-3.17822265625
221151,-0.2473297119140625,0.8684539794921875,0.1740570068359375,-0.1009441912174225,-0.2317786365747452,-0.4440323114395142,37.73640441894531,97.787109375,-2.9537353515625
221152,-0.257965087890625,0.8308868408203125,0.197357177734375,-0.1427020281553268,-0.2087577432394028,-0.3705482482910156,37.53582763671875,97.822998046875,-2.979476928710938
221153,-0.2648468017578125,0.7950286865234375,0.186065673828125,-0.1427020281553268,-0.2087577432394028,-0.3705482482910156,37.27619934082031,97.70114135742188,-2.94158935546875
221154,-0.260101318359375,0.7700347900390625,0.1648712158203125,-0.1941337883472443,-0.2948452234268188,-0.2643786668777466,37.14151000976562,97.71533203125,-2.785003662109375
221155,-0.2449188232421875,0.7690277099609375,0.1479034423828125,-0.1941337883472443,-0.2948452234268188,-0.2643786668777466,37.02688598632812,97.6697998046875,-2.591888427734375
221156,-0.2150726318359375,0.7807159423828125,0.136871337890625,-0.2380221486091614,-0.3326359987258911,-0.2460987269878387,36.91152954101562,97.55300903320312,-2.401901245117188
221157,-0.2150726318359375,0.7807159423828125,0.136871337890625,-0.2380221486091614,-0.3326359987258911,-0.2460987269878387,36.91152954101562,97.55300903320312,-2.401901245117188
221158,-0.162109375,0.791107177734375,0.18389892578125,-0.3321672976016998,-0.3383253216743469,-0.2407819777727127,36.79583740234375,97.50421142578124,-2.043685913085938
221159,-0.1580657958984375,0.8223114013671875,0.2222442626953125,-0.4028864800930023,-0.2998058795928955,-0.2436044067144394,36.65254211425781,97.50924682617188,-1.944381713867188
221160,-0.167633056640625,0.868927001953125,0.2557373046875,-0.501274824142456,-0.263680636882782,-0.26827272772789,36.47227478027344,97.56820678710938,-1.770980834960938
221161,-0.179840087890625,0.9304656982421876,0.2811126708984375,-0.632779061794281,-0.232983186841011,-0.3006865978240967,36.41726684570312,97.54380798339844,-1.61962890625
221162,-0.18304443359375,1.00506591796875,0.284454345703125,-0.7599164843559265,-0.2270174324512482,-0.3358893394470215,36.18019104003906,97.52645874023438,-1.30126953125
221163,-0.1785736083984375,1.078445434570312,0.2622833251953125,-0.8604795932769775,-0.2761354446411133,-0.360989898443222,36.11984252929688,97.41847229003906,-1.004867553710938
221164,-0.1907806396484375,1.2061767578125,0.232208251953125,-0.9200568795204164,-0.3290615081787109,-0.3362837433815002,35.92686462402344,97.38140869140624,-0.5933074951171875
221165,-0.1907806396484375,1.2061767578125,0.232208251953125,-0.9200568795204164,-0.3290615081787109,-0.3362837433815002,35.92686462402344,97.38140869140624,-0.5933074951171875
221166,-0.14300537109375,1.23309326171875,0.1429290771484375,-0.9434618353843688,-0.5560550093650818,-0.2703396081924438,35.53741455078125,97.26246643066406,0.22467041015625
221167,-0.0784912109375,1.210235595703125,0.1070404052734375,-0.807910680770874,-0.5711553692817688,-0.1456069946289062,35.48591613769531,97.00416564941406,0.7381591796875
221168,-0.0530242919921875,1.240264892578125,0.029296875,-0.5465778708457947,-0.4731033742427826,-0.0197971407324075,35.470458984375,96.86643981933594,1.26812744140625
221169,-0.0492401123046875,1.228897094726562,-0.075714111328125,-0.2548514604568481,-0.4460728168487549,0.026766899973154,35.354248046875,96.85057067871094,1.775421142578125
221170,-0.0316162109375,1.185195922851562,-0.1102294921875,-0.0610529668629169,-0.4850306212902069,0.0544182360172271,35.23545837402344,96.78282165527344,2.184402465820312
221171,-0.019256591796875,1.178817749023438,-0.1225128173828125,0.0288761220872402,-0.4909889101982117,0.0512810312211513,35.2711181640625,96.65457153320312,2.472518920898438
221172,0.00030517578125,1.16748046875,-0.15179443359375,0.0695740208029747,-0.52510666847229,-0.0124856978654861,35.38063049316406,96.57138061523438,2.614456176757812
221173,0.00030517578125,1.16748046875,-0.15179443359375,0.0695740208029747,-0.52510666847229,-0.0124856978654861,35.38063049316406,96.57138061523438,2.614456176757812
221174,0.0521087646484375,1.114700317382812,-0.17926025390625,0.2434414178133011,-0.6032885313034058,-0.1564082503318787,35.41952514648438,96.65788269042967,2.888107299804688
221175,0.0902862548828125,1.0931396484375,-0.2292633056640625,0.2434414178133011,-0.6032885313034058,-0.1564082503318787,35.52951049804688,96.6535186767578,3.036331176757812
221176,0.119232177734375,1.088912963867188,-0.2866668701171875,0.3604535162448883,-0.6682949662208557,-0.1008477807044983,35.47645568847656,96.62289428710938,2.9901123046875
221177,0.119232177734375,1.088912963867188,-0.2866668701171875,0.3604535162448883,-0.6682949662208557,-0.1008477807044983,35.47645568847656,96.62289428710938,2.9901123046875
221178,0.163848876953125,1.023651123046875,-0.3667144775390625,0.6217623353004456,-0.8073194622993469,0.0150130381807684,35.51025390625,96.71217346191406,2.972381591796875
221179,0.1865081787109375,1.01324462890625,-0.35577392578125,0.7400442361831665,-0.8538120985031128,0.1310232579708099,35.60272216796875,96.7334442138672,2.860321044921875
221180,0.217254638671875,1.022918701171875,-0.333709716796875,0.7355808019638062,-0.8425890207290649,0.1804129183292389,35.76405334472656,96.62179565429688,2.800689697265625
221181,0.217254638671875,1.022918701171875,-0.333709716796875,0.7355808019638062,-0.8425890207290649,0.1804129183292389,35.76405334472656,96.62179565429688,2.800689697265625
221182,0.2895965576171875,1.106307983398438,-0.2952880859375,0.71929931640625,-0.8467363715171814,0.2247353792190552,36.19992065429688,96.69627380371094,2.419998168945312
221183,0.3106231689453125,1.157012939453125,-0.252288818359375,0.6886298060417175,-0.8600888848304749,0.2665259540081024,36.39837646484375,96.79507446289062,2.167556762695312
221184,0.3128662109375,1.218170166015625,-0.194061279296875,0.6039548516273499,-0.8741312026977539,0.3045194149017334,36.64628601074219,96.90080261230467,1.972808837890625
221185,0.3128662109375,1.218170166015625,-0.194061279296875,0.6039548516273499,-0.8741312026977539,0.3045194149017334,36.64628601074219,96.90080261230467,1.972808837890625
221186,0.2782745361328125,1.330001831054688,-0.069122314453125,0.5901293158531189,-0.9067578911781312,0.2858788967132568,37.1397705078125,97.12379455566406,1.503005981445312
221187,0.23699951171875,1.349716186523438,0.000152587890625,0.5667084455490112,-0.9999133944511414,0.2458571642637253,37.61134338378906,97.24853515625,1.476760864257812
221188,0.1909637451171875,1.356460571289062,0.0634307861328125,0.5490269064903259,-1.143161058425903,0.2148702293634415,37.93692016601562,97.2100830078125,1.438461303710938
221189,0.1909637451171875,1.356460571289062,0.0634307861328125,0.5490269064903259,-1.143161058425903,0.2148702293634415,37.93692016601562,97.2100830078125,1.438461303710938
221190,0.1362152099609375,1.361236572265625,0.1669158935546875,0.5836772918701172,-1.337501287460327,0.0871801748871803,38.83267211914062,97.33847045898438,1.27142333984375
221191,0.0664520263671875,1.326568603515625,0.2240753173828125,0.6360925436019897,-1.351870656013489,0.010122675448656,39.23051452636719,97.39811706542967,1.2467041015625
221192,-0.009613037109375,1.263595581054688,0.243408203125,0.7356449961662292,-1.350457549095154,-0.0538864023983478,39.59683227539062,97.63040161132812,1.059066772460938
221193,-0.009613037109375,1.263595581054688,0.243408203125,0.7356449961662292,-1.350457549095154,-0.0538864023983478,39.59683227539062,97.63040161132812,1.059066772460938
221194,-0.0936279296875,1.092254638671875,0.19366455078125,0.88600093126297,-1.345993876457214,-0.1693320423364639,40.21595764160156,97.71963500976562,0.4530181884765625
221195,-0.124755859375,0.99359130859375,0.1479644775390625,0.9025008082389832,-1.393506526947021,-0.1696473509073257,40.49996948242188,97.70895385742188,0.1971282958984375
221196,-0.1435089111328125,0.90753173828125,0.1147308349609375,0.8930417895317078,-1.456110715866089,-0.1320808082818985,40.86563110351562,97.73410034179688,0.1067962646484375
221197,-0.1435089111328125,0.90753173828125,0.1147308349609375,0.8930417895317078,-1.456110715866089,-0.1320808082818985,40.86563110351562,97.73410034179688,0.1067962646484375
221198,-0.149322509765625,0.769866943359375,0.0835113525390625,0.8519654870033264,-1.478092193603516,-0.0393300950527191,41.32730102539062,97.8013916015625,-0.4728851318359375
221199,-0.149322509765625,0.769866943359375,0.0835113525390625,0.8519654870033264,-1.478092193603516,-0.0393300950527191,41.32730102539062,97.8013916015625,-0.4728851318359375
221200,-0.1793670654296875,0.7190704345703125,0.0483856201171875,0.8528264760971069,-1.159702301025391,0.0619123689830303,41.77934265136719,97.92356872558594,-1.02484130859375
221201,-0.1793670654296875,0.7190704345703125,0.0483856201171875,0.8528264760971069,-1.159702301025391,0.0619123689830303,41.77934265136719,97.92356872558594,-1.02484130859375
221202,-0.227447509765625,0.7590179443359375,0.063140869140625,0.4779146313667297,-0.6209567785263062,0.027732029557228,42.2862548828125,98.07777404785156,-1.49224853515625
221203,-0.222259521484375,0.76190185546875,0.0856781005859375,0.4779146313667297,-0.6209567785263062,0.027732029557228,42.48519897460938,98.19317626953124,-1.721603393554688
221204,-0.1857147216796875,0.7545013427734375,0.1256103515625,0.1113337129354477,-0.4673181772232056,0.0232025235891342,42.69659423828125,98.23475646972656,-1.891189575195312
221205,-0.1857147216796875,0.7545013427734375,0.1256103515625,0.1113337129354477,-0.4673181772232056,0.0232025235891342,42.69659423828125,98.23475646972656,-1.891189575195312
221206,-0.0889129638671875,0.7909393310546875,0.223602294921875,-0.0337236076593399,-0.3859333097934723,0.0531412474811077,42.72998046875,98.38639831542967,-2.336334228515625
221207,-0.0684661865234375,0.835540771484375,0.246551513671875,-0.1434242725372314,-0.2984926998615265,0.0831481516361236,42.78952026367188,98.493896484375,-2.54107666015625
221208,-0.0531158447265625,0.894256591796875,0.258209228515625,-0.2357145249843597,-0.2285839021205902,0.1178635209798813,42.824951171875,98.61354064941406,-2.517471313476562
221209,-0.0531158447265625,0.894256591796875,0.258209228515625,-0.2357145249843597,-0.2285839021205902,0.1178635209798813,42.824951171875,98.61354064941406,-2.517471313476562
221210,-0.0508270263671875,0.9924163818359376,0.3208770751953125,-0.3645340204238892,-0.0748159140348434,0.1454346925020218,42.97235107421875,98.62918090820312,-2.464736938476562
221211,-0.0517425537109375,0.9876251220703124,0.3499755859375,-0.3837449848651886,0.0216746684163808,0.1429819166660309,43.140869140625,98.58428955078124,-2.023818969726562
221212,-0.049713134765625,0.946441650390625,0.355499267578125,-0.3737823665142059,0.091695562005043,0.1321159601211548,43.23867797851562,98.46061706542967,-1.8997802734375
221213,-0.046661376953125,0.8968353271484375,0.332794189453125,-0.3399189412593842,0.098177433013916,0.1185423582792282,43.23231506347656,98.3407745361328,-1.822006225585938
221214,-0.0376434326171875,0.8574066162109375,0.29913330078125,-0.318185955286026,0.0237380862236022,0.0989894270896911,43.23075866699219,98.43324279785156,-1.64007568359375
221215,-0.016632080078125,0.8318023681640625,0.2768096923828125,-0.347773402929306,-0.0540443249046802,0.0690943822264671,43.2783203125,98.42202758789062,-1.459304809570312
221216,0.006591796875,0.8142547607421875,0.2547454833984375,-0.4416024386882782,-0.1180201098322868,0.0386912040412426,43.22566223144531,98.34417724609376,-1.270751953125
221217,0.006591796875,0.8142547607421875,0.2547454833984375,-0.4416024386882782,-0.1180201098322868,0.0386912040412426,43.22566223144531,98.34417724609376,-1.270751953125
221218,0.0636138916015625,0.802947998046875,0.1810760498046875,-0.6371791362762451,-0.2420011758804321,-0.0119261676445603,43.26658630371094,98.076904296875,-0.8111572265625
221219,0.0869293212890625,0.8126068115234375,0.1459808349609375,-0.6645164489746094,-0.2936987280845642,-0.0259048342704772,43.27633666992188,97.96908569335938,-0.420806884765625
221220,0.0927734375,0.832733154296875,0.1105499267578125,-0.6710041761398315,-0.2968828082084656,-0.0503465272486209,43.28933715820312,97.909423828125,-0.043487548828125
221221,0.0927734375,0.832733154296875,0.1105499267578125,-0.6710041761398315,-0.2968828082084656,-0.0503465272486209,43.28933715820312,97.909423828125,-0.043487548828125
221222,0.052581787109375,0.89532470703125,-0.02435302734375,-0.6359679102897644,-0.3235956430435181,-0.1867946535348892,43.08090209960938,97.76351928710938,0.5313262939453125
221223,0.028045654296875,0.909698486328125,-0.0736541748046875,-0.598556637763977,-0.3198054432868958,-0.2539435923099518,42.95741271972656,97.76365661621094,0.7888031005859375
221224,0.00836181640625,0.9311981201171876,-0.0843048095703125,-0.571147620677948,-0.2101625502109528,-0.3024943470954895,42.8155517578125,97.75576782226562,1.226089477539062
221225,0.00836181640625,0.9311981201171876,-0.0843048095703125,-0.571147620677948,-0.2101625502109528,-0.3024943470954895,42.8155517578125,97.75576782226562,1.226089477539062
221226,-0.0044403076171875,1.028656005859375,-0.113037109375,-0.5087963938713074,0.195046991109848,-0.3912170231342316,42.52571105957031,97.61529541015624,1.825180053710938
221227,-0.0186920166015625,1.081390380859375,-0.124267578125,-0.5042269229888916,0.2856490612030029,-0.4305857419967651,42.26399230957031,97.59596252441406,1.957489013671875
221228,-0.039031982421875,1.162628173828125,-0.135650634765625,-0.4089076220989227,0.2197035998106003,-0.4512702524662018,41.97250366210938,97.754150390625,2.098068237304688
221229,-0.039031982421875,1.162628173828125,-0.135650634765625,-0.4089076220989227,0.2197035998106003,-0.4512702524662018,41.97250366210938,97.754150390625,2.098068237304688
221230,-0.064849853515625,1.27703857421875,-0.09869384765625,-0.3279624283313751,0.1980616897344589,-0.42768794298172,41.27188110351562,97.5578155517578,2.796371459960938
221231,-0.057891845703125,1.272567749023438,-0.1002349853515625,-0.2448813915252686,0.1940062195062637,-0.3668799996376038,40.91835021972656,97.6597900390625,3.021026611328125
221232,-0.04638671875,1.20062255859375,-0.1451568603515625,0.0423176288604736,0.0861053243279457,-0.1331212967634201,40.68734741210938,97.63102722167967,3.0926513671875
221233,-0.04638671875,1.20062255859375,-0.1451568603515625,0.0423176288604736,0.0861053243279457,-0.1331212967634201,40.68734741210938,97.63102722167967,3.0926513671875
221234,-0.065216064453125,1.011337280273438,-0.2980194091796875,0.218655914068222,0.0627597868442535,0.0019997677300125,40.20109558105469,97.53823852539062,3.280975341796875
221235,-0.063201904296875,0.9705963134765624,-0.391387939453125,0.3969513475894928,0.0871628671884536,0.1387490928173065,40.13398742675781,97.53883361816406,3.3240966796875
221236,-0.03277587890625,0.9585723876953124,-0.465301513671875,0.6175849437713623,0.1953220963478088,0.3517234027385712,40.18667602539062,97.6511688232422,3.202957153320312
221237,0.00018310546875,0.9864044189453124,-0.4825897216796875,0.6175849437713623,0.1953220963478088,0.3517234027385712,40.31158447265625,97.73988342285156,2.940582275390625
221238,0.03338623046875,1.046478271484375,-0.463409423828125,0.6022845506668091,0.2437370270490646,0.376125693321228,40.39569091796875,97.7713623046875,2.715347290039062
221239,0.072052001953125,1.121673583984375,-0.3969573974609375,0.5302302837371826,0.2593042850494385,0.3421874344348907,40.54164123535156,97.91859436035156,2.336624145507812
221240,0.1214752197265625,1.190505981445312,-0.33673095703125,0.4631873667240143,0.2377715408802032,0.2929357290267944,40.71661376953125,98.02967834472656,2.088821411132812
221241,0.1214752197265625,1.190505981445312,-0.33673095703125,0.4631873667240143,0.2377715408802032,0.2929357290267944,40.71661376953125,98.02967834472656,2.088821411132812
221242,0.168731689453125,1.263839721679688,-0.2744140625,0.4287422895431519,0.1097014620900154,0.2434509992599487,40.95414733886719,98.17413330078124,1.64111328125
221243,0.1569976806640625,1.286163330078125,-0.2091217041015625,0.4092394411563873,0.0227609723806381,0.23501917719841,41.12007141113281,98.2418975830078,1.3212890625
221244,0.133026123046875,1.289031982421875,-0.1180572509765625,0.2800252735614777,-0.114277571439743,0.2055401057004929,41.18569946289062,98.33592224121094,1.186859130859375
221245,0.133026123046875,1.289031982421875,-0.1180572509765625,0.2800252735614777,-0.114277571439743,0.2055401057004929,41.18569946289062,98.33592224121094,1.186859130859375
221246,0.0688934326171875,1.171646118164062,-0.0261688232421875,0.2267753481864929,-0.2557771801948547,0.2123942822217941,41.56991577148438,98.63072204589844,0.7383575439453125
221247,0.043243408203125,1.102340698242188,-0.002777099609375,0.2351158410310745,-0.4282277822494507,0.2463346719741821,41.70846557617188,98.64021301269533,0.597930908203125
221248,0.02783203125,1.05108642578125,0.0147247314453125,0.3418391048908234,-0.7469740509986877,0.3507481813430786,41.92324829101562,98.7100067138672,0.505523681640625
221249,0.02783203125,1.05108642578125,0.0147247314453125,0.3418391048908234,-0.7469740509986877,0.3507481813430786,41.92324829101562,98.7100067138672,0.505523681640625
221250,0.00762939453125,1.004425048828125,0.100860595703125,0.377880185842514,-0.850128710269928,0.4077536761760712,42.44010925292969,98.7592315673828,0.3843841552734375
221251,0.0027618408203125,0.979248046875,0.142608642578125,0.3650147318840027,-0.9293699860572816,0.446811854839325,42.77392578125,98.7297821044922,0.2985687255859375
221252,0.0005645751953125,0.9410247802734376,0.1654510498046875,0.3150186538696289,-0.9667298793792723,0.4650838077068329,43.12962341308594,98.7427978515625,0.24468994140625
221253,0.0005645751953125,0.9410247802734376,0.1654510498046875,0.3150186538696289,-0.9667298793792723,0.4650838077068329,43.12962341308594,98.7427978515625,0.24468994140625
221254,0.009429931640625,0.9252471923828124,0.1736602783203125,0.1050862073898315,-0.8492655754089355,0.5078858733177185,43.84796142578125,98.9437255859375,-0.1935577392578125
221255,0.0009765625,0.9674224853515624,0.14495849609375,0.0056054214946925,-0.7077363729476929,0.5167504549026489,44.28843688964844,98.84512329101562,-0.2018585205078125
221256,-0.01409912109375,1.030990600585938,0.1004638671875,-0.0464628413319587,-0.5586968660354614,0.5098329186439514,44.660400390625,98.86282348632812,-0.086761474609375
221257,-0.01409912109375,1.030990600585938,0.1004638671875,-0.0464628413319587,-0.5586968660354614,0.5098329186439514,44.660400390625,98.86282348632812,-0.086761474609375
221258,0.0033721923828125,1.063888549804688,0.00787353515625,0.0606977008283138,-0.379974752664566,0.4723446369171143,45.30711364746094,98.86216735839844,0.0013885498046875
221259,0.0294342041015625,1.04559326171875,-0.0191802978515625,0.1710255444049835,-0.356032133102417,0.4565390348434448,45.68498229980469,98.82752990722656,-0.0400238037109375
221260,0.06207275390625,1.015869140625,-0.0497894287109375,0.2632233798503876,-0.3600178360939026,0.4391129016876221,45.99470520019531,98.87783813476562,-0.08111572265625
221261,0.06207275390625,1.015869140625,-0.0497894287109375,0.2632233798503876,-0.3600178360939026,0.4391129016876221,45.99470520019531,98.87783813476562,-0.08111572265625
221262,0.1413421630859375,0.9205322265625,-0.085418701171875,0.3569096624851227,-0.458499401807785,0.364059716463089,46.55039978027344,98.8100128173828,-0.2888641357421875
221263,0.1601409912109375,0.87432861328125,-0.0593719482421875,0.3377338349819183,-0.4842058122158051,0.300701767206192,46.91323852539062,98.79673767089844,-0.5667877197265625
221264,0.1517333984375,0.8304443359375,-0.0299072265625,0.2794337868690491,-0.4934901297092438,0.2207496911287308,47.16995239257812,98.73841857910156,-0.7457122802734375
221265,0.1517333984375,0.8304443359375,-0.0299072265625,0.2794337868690491,-0.4934901297092438,0.2207496911287308,47.16995239257812,98.73841857910156,-0.7457122802734375
221266,0.0482635498046875,0.8111572265625,0.017059326171875,0.1042007058858871,-0.5037683248519897,0.0023241406306624,47.50137329101562,98.79722595214844,-0.81573486328125
221267,-0.01141357421875,0.827484130859375,0.0548858642578125,-0.002085521351546,-0.5303158164024353,-0.1131904721260071,47.70954895019531,98.93386840820312,-0.98583984375
221268,-0.0772552490234375,0.8624267578125,0.1298370361328125,-0.1042558327317238,-0.5090078711509705,-0.2270278185606003,47.785888671875,98.94172668457033,-0.9473114013671876
221269,-0.0772552490234375,0.8624267578125,0.1298370361328125,-0.1042558327317238,-0.5090078711509705,-0.2270278185606003,47.785888671875,98.94172668457033,-0.9473114013671876
221270,-0.1907196044921875,0.9002685546875,0.297088623046875,-0.2472862303256989,-0.262333869934082,-0.3763020038604736,47.90647888183594,98.88249206542967,-0.96856689453125
221271,-0.1907196044921875,0.9002685546875,0.297088623046875,-0.2472862303256989,-0.262333869934082,-0.3763020038604736,47.90647888183594,98.88249206542967,-0.96856689453125
221272,-0.2840728759765625,0.887359619140625,0.331085205078125,-0.3096545338630676,-0.0014218616997823,-0.364924430847168,47.75663757324219,98.94920349121094,-0.708221435546875
221273,-0.3258209228515625,0.8577423095703125,0.3460235595703125,-0.3295504748821259,0.1186563447117805,-0.3260984718799591,47.64620971679688,99.003173828125,-0.5868377685546875
221274,-0.36077880859375,0.8377532958984375,0.3675079345703125,-0.3697775304317474,0.267825573682785,-0.2892706990242004,47.34323120117188,98.91764831542967,-0.2502593994140625
221275,-0.3839569091796875,0.837677001953125,0.3804931640625,-0.4407121539115906,0.4285316467285156,-0.2621815502643585,47.259521484375,98.9786376953125,-0.2864837646484375
221276,-0.385986328125,0.8530731201171875,0.355255126953125,-0.5220392346382141,0.5196349024772644,-0.2416512370109558,47.04840087890625,98.81005859375,-0.11492919921875
221277,-0.385986328125,0.8530731201171875,0.355255126953125,-0.5220392346382141,0.5196349024772644,-0.2416512370109558,47.04840087890625,98.81005859375,-0.11492919921875
221278,-0.3232421875,0.8628082275390625,0.2449188232421875,-0.6573288440704346,0.3296085298061371,-0.2184449881315231,46.60377502441406,98.71368408203124,0.270751953125
221279,-0.2758026123046875,0.8369903564453125,0.20709228515625,-0.721168041229248,0.1773129999637604,-0.1996529251337051,46.44660949707031,98.6842803955078,0.4351654052734375
221280,-0.211883544921875,0.81634521484375,0.2046051025390625,-0.8076158165931702,0.0251162722706794,-0.1367040574550629,46.26629638671875,98.64826965332033,0.63873291015625
221281,-0.211883544921875,0.81634521484375,0.2046051025390625,-0.8076158165931702,0.0251162722706794,-0.1367040574550629,46.26629638671875,98.64826965332033,0.63873291015625
221282,-0.0762481689453125,0.8432464599609375,0.237640380859375,-0.8396188020706177,0.0521598719060421,-0.1126088351011276,45.83917236328125,98.44471740722656,1.34344482421875
221283,-0.02618408203125,0.875701904296875,0.2222442626953125,-0.877703845500946,0.0741277560591697,-0.096475675702095,45.666748046875,98.292724609375,1.892974853515625
221284,0.0116119384765625,0.917236328125,0.1958770751953125,-0.938382089138031,0.0798990949988365,-0.0971561074256897,45.49818420410156,98.19204711914062,2.435745239257812
221285,0.0116119384765625,0.917236328125,0.1958770751953125,-0.938382089138031,0.0798990949988365,-0.0971561074256897,45.49818420410156,98.19204711914062,2.435745239257812
221286,0.020721435546875,1.114608764648438,0.0513916015625,-0.9693474769592284,0.0689558982849121,-0.1332041323184967,45.20021057128906,98.06764221191406,3.0899658203125
221287,0.068328857421875,1.111862182617188,-0.051788330078125,-0.9630184769630432,0.0031433289404958,-0.1638642996549606,45.06355285644531,97.91867065429688,3.52288818359375
221288,0.1019287109375,1.130111694335938,-0.137786865234375,-0.7647818326950073,-0.0952125340700149,-0.1548644155263901,44.88427734375,97.6968231201172,4.119903564453125
221289,0.1019287109375,1.130111694335938,-0.137786865234375,-0.7647818326950073,-0.0952125340700149,-0.1548644155263901,44.88427734375,97.6968231201172,4.119903564453125
221290,0.1478424072265625,1.212905883789062,-0.2489471435546875,-0.5677265524864197,-0.140002116560936,-0.1654414236545563,44.54396057128906,97.48420715332033,4.996734619140625
221291,0.1869659423828125,1.219528198242188,-0.2358245849609375,-0.3696049451828003,-0.1872537732124329,-0.1927814334630966,44.3123779296875,97.33544921875,5.706039428710938
221292,0.230621337890625,1.209426879882812,-0.2346343994140625,-0.1826619505882263,-0.2812002599239349,-0.2149796783924103,44.23588562011719,97.23179626464844,5.875335693359375
221293,0.230621337890625,1.209426879882812,-0.2346343994140625,-0.1826619505882263,-0.2812002599239349,-0.2149796783924103,44.23588562011719,97.23179626464844,5.875335693359375
221294,0.2879638671875,1.165176391601562,-0.2865142822265625,0.1686923503875732,-0.5334092974662781,-0.2313314974308014,43.99034118652344,97.08628845214844,5.883636474609375
221295,0.303375244140625,1.123062133789062,-0.3596649169921875,0.3223937451839447,-0.6707639694213867,-0.1872401982545853,43.99085998535156,97.0160675048828,5.911972045898438
221296,0.2955780029296875,1.109756469726562,-0.4336090087890625,0.4464171826839447,-0.7607178688049316,-0.1248878762125969,43.89358520507812,97.0066375732422,5.917892456054688
221297,0.2955780029296875,1.109756469726562,-0.4336090087890625,0.4464171826839447,-0.7607178688049316,-0.1248878762125969,43.89358520507812,97.0066375732422,5.917892456054688
221298,0.2637786865234375,1.118515014648438,-0.4979705810546875,0.6674872040748596,-0.7958726286888123,-0.0006290386663749,44.04969787597656,97.10823059082033,5.708587646484375
221299,0.2692718505859375,1.141311645507812,-0.4621734619140625,0.7303540706634521,-0.740606427192688,0.0222389921545982,44.27944946289062,97.04270935058594,5.533203125
221300,0.30377197265625,1.14752197265625,-0.4000701904296875,0.7451098561286926,-0.6826393008232117,0.0452367216348648,44.43215942382812,97.12493896484376,5.296356201171875
221301,0.30377197265625,1.14752197265625,-0.4000701904296875,0.7451098561286926,-0.6826393008232117,0.0452367216348648,44.43215942382812,97.12493896484376,5.296356201171875
221302,0.2838134765625,1.18792724609375,-0.304229736328125,0.7585422992706299,-0.7044851779937744,0.0748601257801055,44.96803283691406,97.45223999023438,4.803359985351562
221303,0.2474365234375,1.235733032226562,-0.2266998291015625,0.7373020052909851,-0.7422389984130859,0.0584513247013092,45.18919372558594,97.51676940917967,4.439208984375
221304,0.2120208740234375,1.286376953125,-0.141204833984375,0.6781297326087952,-0.7874820828437805,0.0277828946709632,45.38157653808594,97.66824340820312,4.108322143554688
221305,0.2120208740234375,1.286376953125,-0.141204833984375,0.6781297326087952,-0.7874820828437805,0.0277828946709632,45.38157653808594,97.66824340820312,4.108322143554688
221306,0.134765625,1.379592895507812,0.0335693359375,0.5580241084098816,-0.8621206283569336,-0.0387665703892707,45.9071044921875,97.90457153320312,3.436309814453125
221307,0.0923919677734375,1.416824340820312,0.1049346923828125,0.5612425804138184,-0.9012084007263184,-0.0737818107008934,46.13572692871094,97.94700622558594,3.208084106445312
221308,0.04296875,1.444381713867188,0.1670684814453125,0.5987529158592224,-0.92506206035614,-0.1158070266246796,46.45431518554688,98.0743408203125,2.964096069335938
221309,0.04296875,1.444381713867188,0.1670684814453125,0.5987529158592224,-0.92506206035614,-0.1158070266246796,46.45431518554688,98.0743408203125,2.964096069335938
221310,-0.101104736328125,1.39251708984375,0.2273406982421875,0.735598623752594,-0.9845858216285706,-0.1582370400428772,46.99140930175781,98.23503112792967,2.348800659179688
221311,-0.1622314453125,1.328582763671875,0.2490692138671875,0.8518304228782654,-0.9929718375205994,-0.1501157283782959,47.32821655273438,98.2792510986328,2.102890014648438
221312,-0.204071044921875,1.2371826171875,0.25537109375,0.9713970422744752,-0.9758301377296448,-0.1541672050952911,47.58303833007812,98.30032348632812,1.862686157226562
221313,-0.204071044921875,1.2371826171875,0.25537109375,0.9713970422744752,-0.9758301377296448,-0.1541672050952911,47.58303833007812,98.30032348632812,1.862686157226562
221314,-0.2461700439453125,1.028518676757812,0.2004241943359375,1.083956360816956,-0.9233139753341676,-0.1350547522306442,48.01191711425781,98.38938903808594,1.12188720703125
221315,-0.2515716552734375,0.9373321533203124,0.1795501708984375,1.051108121871948,-0.9357666373252868,-0.1189088076353073,48.272705078125,98.56973266601562,0.80224609375
221316,-0.240081787109375,0.837554931640625,0.1425628662109375,0.9868790507316588,-0.979920208454132,-0.1103901565074921,48.41554260253906,98.46231079101562,0.5013580322265625
221317,-0.240081787109375,0.837554931640625,0.1425628662109375,0.9868790507316588,-0.979920208454132,-0.1103901565074921,48.41554260253906,98.46231079101562,0.5013580322265625
221318,-0.1826324462890625,0.668975830078125,0.0508880615234375,0.8524363040924072,-1.098663091659546,-0.0794623345136642,48.80714416503906,98.743896484375,-0.443756103515625
221319,-0.1585845947265625,0.608306884765625,-0.00537109375,0.8388935923576355,-1.15245521068573,-0.0726622194051742,48.97955322265625,98.80418395996094,-0.881011962890625
221320,-0.1414794921875,0.58074951171875,-0.0249176025390625,0.8479989767074585,-1.139904856681824,-0.0856488570570945,49.13150024414062,98.9320068359375,-1.30596923828125
221321,-0.1414794921875,0.58074951171875,-0.0249176025390625,0.8479989767074585,-1.139904856681824,-0.0856488570570945,49.13150024414062,98.9320068359375,-1.30596923828125
221322,-0.131256103515625,0.5626068115234375,-0.030364990234375,0.732305645942688,-0.7656832933425903,-0.1701118052005768,49.35153198242188,99.08761596679688,-2.027984619140625
221323,-0.1266326904296875,0.5953216552734375,-0.018524169921875,0.5541700124740601,-0.5495190620422363,-0.1929260492324829,49.3819580078125,99.12019348144533,-2.306671142578125
221324,-0.11041259765625,0.653106689453125,0.0091705322265625,0.3311960399150848,-0.4809189438819885,-0.1605446636676788,49.39399719238281,99.16780090332033,-2.559249877929688
221325,-0.11041259765625,0.653106689453125,0.0091705322265625,0.3311960399150848,-0.4809189438819885,-0.1605446636676788,49.39399719238281,99.16780090332033,-2.559249877929688
221326,-0.0649871826171875,0.7812042236328125,0.1838836669921875,-0.1537645310163498,-0.4105992615222931,0.0332234688103199,49.41932678222656,99.2869110107422,-3.154083251953125
221327,-0.04388427734375,0.8018646240234375,0.214111328125,-0.1537645310163498,-0.4105992615222931,0.0332234688103199,49.33627319335938,99.25563049316406,-3.163970947265625
221328,-0.02984619140625,0.8116302490234375,0.2215423583984375,-0.2194010615348816,-0.3468804657459259,0.087013728916645,49.38404846191406,99.23103332519533,-3.034164428710938
221329,-0.02984619140625,0.8116302490234375,0.2215423583984375,-0.2194010615348816,-0.3468804657459259,0.087013728916645,49.38404846191406,99.23103332519533,-3.034164428710938
221330,-0.075653076171875,0.8765716552734375,0.2442474365234375,-0.2924912571907043,-0.1453398913145065,0.1676835417747498,49.46696472167969,99.39352416992188,-2.856918334960938
221331,-0.10931396484375,0.9070281982421876,0.2298431396484375,-0.3142287731170654,-0.035833366215229,0.1866180896759033,49.46144104003906,99.42341613769533,-2.76275634765625
221332,-0.1266632080078125,0.9092254638671876,0.20196533203125,-0.3098832964897156,0.0239532701671123,0.1870103627443314,49.57232666015625,99.4195556640625,-2.71905517578125
221333,-0.1179046630859375,0.904022216796875,0.1761932373046875,-0.2924017608165741,0.0288755893707275,0.1807295680046082,49.57577514648438,99.5460205078125,-2.65667724609375
221334,-0.090484619140625,0.897125244140625,0.171905517578125,-0.2926507890224457,-0.007424094248563,0.1603673100471497,49.59822082519531,99.41978454589844,-2.412063598632812
221335,-0.051513671875,0.900848388671875,0.1898193359375,-0.3480975329875946,-0.0382991842925548,0.1324986517429352,49.62242126464844,99.42489624023438,-2.357818603515625
221336,-0.0191497802734375,0.9099578857421876,0.212554931640625,-0.4592397511005402,-0.059822853654623,0.100768156349659,49.73992919921875,99.43498229980467,-2.153549194335938
221337,-0.0191497802734375,0.9099578857421876,0.212554931640625,-0.4592397511005402,-0.059822853654623,0.100768156349659,49.73992919921875,99.43498229980467,-2.153549194335938
221338,0.00994873046875,0.9386749267578124,0.2594146728515625,-0.6857844591140747,-0.1632357984781265,0.0227423310279846,49.77473449707031,99.306396484375,-1.952651977539062
221339,0.0079498291015625,0.9697113037109376,0.272186279296875,-0.7544834017753601,-0.1886396855115891,-0.0248829796910285,49.80012512207031,99.2933349609375,-1.72698974609375
221340,-0.0100555419921875,1.00390625,0.268035888671875,-0.7873595952987671,-0.2028857320547104,-0.0894678309559822,49.76387023925781,99.28985595703124,-1.404708862304688
221341,-0.0100555419921875,1.00390625,0.268035888671875,-0.7873595952987671,-0.2028857320547104,-0.0894678309559822,49.76387023925781,99.28985595703124,-1.404708862304688
221342,-0.0832672119140625,1.02947998046875,0.2310028076171875,-0.8115472197532654,-0.1662510186433792,-0.2214807271957397,49.66455078125,99.1344757080078,-0.7434539794921875
221343,-0.1171112060546875,1.033416748046875,0.180023193359375,-0.7926968336105347,-0.1473178118467331,-0.2826857566833496,49.53048706054688,99.17805480957033,-0.252044677734375
221344,-0.1487884521484375,1.041305541992188,0.1035919189453125,-0.6670938730239868,-0.1564133018255234,-0.3540177345275879,49.37841796875,98.94099426269533,0.3023681640625
221345,-0.1487884521484375,1.041305541992188,0.1035919189453125,-0.6670938730239868,-0.1564133018255234,-0.3540177345275879,49.37841796875,98.94099426269533,0.3023681640625
221346,-0.1799468994140625,1.021408081054688,-0.0440826416015625,-0.554101288318634,-0.0779038518667221,-0.3303946852684021,49.0845947265625,98.94783020019533,1.009536743164062
221347,-0.1715545654296875,1.016708374023438,-0.0986328125,-0.4566820561885834,0.020804613828659,-0.2970987856388092,48.86849975585938,98.91159057617188,1.424301147460938
221348,-0.1580352783203125,1.038711547851562,-0.12017822265625,-0.4007868468761444,0.143888995051384,-0.2895119786262512,48.83840942382812,98.67138671875,1.954620361328125
221349,-0.1256561279296875,1.082015991210938,-0.16204833984375,-0.393089771270752,0.2538178861141205,-0.3095416128635406,48.55760192871094,98.72244262695312,2.2359619140625
221350,-0.099822998046875,1.150131225585938,-0.214324951171875,-0.4144544303417206,0.3268178105354309,-0.344142735004425,48.21412658691406,98.85968017578124,2.24603271484375
221351,-0.083648681640625,1.20745849609375,-0.274169921875,-0.4180385172367096,0.3394997715950012,-0.3716824650764465,47.82466125488281,98.87425231933594,2.546630859375
221352,-0.0711822509765625,1.22650146484375,-0.3260040283203125,-0.3688395619392395,0.2760030925273895,-0.3483909964561462,47.68499755859375,98.90013122558594,2.688919067382812
221353,-0.0670623779296875,1.215118408203125,-0.3541107177734375,-0.256917268037796,0.2349885404109955,-0.3036512136459351,47.30567932128906,98.93650817871094,2.813949584960938
221354,-0.0492706298828125,1.1640625,-0.39190673828125,-0.1027665883302689,0.2774744927883148,-0.2085814327001572,46.96087646484375,98.88442993164062,3.07733154296875
221355,-0.008514404296875,1.108352661132812,-0.44921875,0.0766313970088958,0.3640051186084747,-0.0757924988865852,46.76007080078125,98.81256103515624,3.358413696289062
221356,0.0381622314453125,1.082687377929688,-0.4927520751953125,0.341461181640625,0.5825558304786682,0.1904759407043457,46.58329772949219,98.7125244140625,3.399642944335938
221357,0.0381622314453125,1.082687377929688,-0.4927520751953125,0.341461181640625,0.5825558304786682,0.1904759407043457,46.58329772949219,98.7125244140625,3.399642944335938
221358,0.0771636962890625,1.118255615234375,-0.5238037109375,0.3882545232772827,0.6839666366577148,0.297455906867981,46.45628356933594,98.57334899902344,3.301986694335938
221359,0.06378173828125,1.197952270507812,-0.5022430419921875,0.3751128911972046,0.7648337483406067,0.332639217376709,46.41584777832031,98.72056579589844,3.235794067382812
221360,0.042694091796875,1.278335571289062,-0.4720001220703125,0.3564707636833191,0.7780568599700928,0.3059159815311432,46.4158935546875,98.77865600585938,3.005615234375
221361,0.042694091796875,1.278335571289062,-0.4720001220703125,0.3564707636833191,0.7780568599700928,0.3059159815311432,46.4158935546875,98.77865600585938,3.005615234375
221362,0.0140533447265625,1.36273193359375,-0.378997802734375,0.4116314947605133,0.7324579954147339,0.223574236035347,46.53993225097656,98.95046997070312,2.663894653320312
221363,0.0131683349609375,1.3472900390625,-0.3194732666015625,0.4847975671291351,0.7604278326034546,0.190885528922081,46.59710693359375,98.99333190917967,2.426177978515625
221364,0.01861572265625,1.285079956054688,-0.256011962890625,0.5263892412185669,0.7649887800216675,0.1583273261785507,46.54789733886719,99.0476531982422,2.15264892578125
221365,0.01861572265625,1.285079956054688,-0.256011962890625,0.5263892412185669,0.7649887800216675,0.1583273261785507,46.54789733886719,99.0476531982422,2.15264892578125
221366,0.0363311767578125,1.08062744140625,-0.129608154296875,0.4778531193733215,0.6257126331329346,0.1308791935443878,46.65702819824219,99.13424682617188,1.574508666992188
221367,0.036407470703125,0.998321533203125,-0.0630645751953125,0.4607894420623779,0.4626539349555969,0.1439774185419083,46.73614501953125,99.21315002441406,1.365509033203125
221368,0.035552978515625,0.9701080322265624,-0.00787353515625,0.4630283713340759,0.0674738511443138,0.221819207072258,46.78289794921875,99.30943298339844,1.013534545898438
221369,0.040435791015625,0.989532470703125,0.0397796630859375,0.4630283713340759,0.0674738511443138,0.221819207072258,46.78994750976562,99.3529815673828,0.631866455078125
221370,0.046173095703125,0.9979248046875,0.0838165283203125,0.4825376272201538,-0.0611392557621002,0.2613740861415863,46.97018432617188,99.4312744140625,0.34161376953125
221371,0.046173095703125,0.9979248046875,0.0838165283203125,0.4825376272201538,-0.0611392557621002,0.2613740861415863,46.97018432617188,99.4312744140625,0.34161376953125
221372,0.02435302734375,0.9738616943359376,0.1353302001953125,0.4770072996616364,-0.1476174145936966,0.3224486112594604,47.24954223632812,99.4193115234375,-0.1013336181640625
221373,0.0089874267578125,0.937347412109375,0.1430511474609375,0.4576154947280884,-0.2526399791240692,0.3195505738258362,47.4761962890625,99.46603393554688,-0.3671112060546875
221374,-0.0120849609375,0.86761474609375,0.14990234375,0.3180559873580933,-0.5488694906234741,0.2121306359767914,47.72584533691406,99.51332092285156,-0.5448455810546875
221375,-0.037506103515625,0.7765960693359375,0.1562042236328125,0.3180559873580933,-0.5488694906234741,0.2121306359767914,47.80360412597656,99.58523559570312,-0.7249298095703125
221376,-0.0574951171875,0.71295166015625,0.154693603515625,0.2015416324138641,-0.6573147773742676,0.2020337879657745,48.32643127441406,99.7445831298828,-1.013229370117188
221377,-0.0574951171875,0.71295166015625,0.154693603515625,0.2015416324138641,-0.6573147773742676,0.2020337879657745,48.32643127441406,99.7445831298828,-1.013229370117188
221378,-0.0261383056640625,0.8735198974609375,0.0593414306640625,-0.0236331578344106,-0.6539663672447205,0.2171592116355896,48.80844116210938,99.64192199707033,-1.1024169921875
221379,-0.0214996337890625,0.9988250732421876,-0.060150146484375,-0.0437437519431114,-0.6286839246749878,0.2142601013183594,49.02224731445312,99.58587646484376,-0.9532012939453124
221380,-0.0189361572265625,0.9999542236328124,-0.1275482177734375,0.0126992836594581,-0.624495804309845,0.219091609120369,49.25238037109375,99.41989135742188,-0.86553955078125
221381,-0.0189361572265625,0.9999542236328124,-0.1275482177734375,0.0126992836594581,-0.624495804309845,0.219091609120369,49.25238037109375,99.41989135742188,-0.86553955078125
221382,-0.021575927734375,0.9541168212890624,-0.03326416015625,0.2489168792963028,-0.3376265168190002,0.264985591173172,49.62013244628906,99.54280090332033,-0.891448974609375
221383,-0.032928466796875,0.930511474609375,-0.00860595703125,0.3500615954399109,-0.2985869646072388,0.2519864439964294,49.83357238769531,99.49641418457033,-1.011886596679688
221384,-0.0542449951171875,0.8976593017578125,0.005889892578125,0.3612183928489685,-0.3338458836078644,0.2042878866195679,50.00032043457031,99.46125793457033,-1.0980224609375
221385,-0.0542449951171875,0.8976593017578125,0.005889892578125,0.3612183928489685,-0.3338458836078644,0.2042878866195679,50.00032043457031,99.46125793457033,-1.0980224609375
221386,-0.153472900390625,0.8336181640625,0.0030670166015625,-0.0616143606603145,-0.3191020786762238,-0.0792125314474105,50.34794616699219,99.40994262695312,-1.229278564453125
221387,-0.153472900390625,0.8336181640625,0.0030670166015625,-0.0616143606603145,-0.3191020786762238,-0.0792125314474105,50.34794616699219,99.40994262695312,-1.229278564453125
221388,-0.2702789306640625,0.8703155517578125,0.03399658203125,-0.176430955529213,-0.2025112956762314,-0.1709744036197662,50.625244140625,99.4694366455078,-1.384384155273438
221389,-0.2702789306640625,0.8703155517578125,0.03399658203125,-0.176430955529213,-0.2025112956762314,-0.1709744036197662,50.625244140625,99.4694366455078,-1.384384155273438
221390,-0.3401031494140625,0.911376953125,0.0949249267578125,-0.2463669031858444,0.0447949022054672,-0.3010554313659668,50.63298034667969,99.43527221679688,-0.877197265625
221391,-0.3550567626953125,0.9137725830078124,0.149444580078125,-0.2508417963981628,0.1613998115062714,-0.3277610838413239,50.557373046875,99.38009643554688,-0.8371429443359375
221392,-0.35760498046875,0.914459228515625,0.1974029541015625,-0.2683523595333099,0.2777301371097565,-0.3253740966320038,50.38958740234375,99.40354919433594,-1.052597045898438
221393,-0.35760498046875,0.914459228515625,0.1974029541015625,-0.2683523595333099,0.2777301371097565,-0.3253740966320038,50.38958740234375,99.40354919433594,-1.052597045898438
221394,-0.348724365234375,0.8710174560546875,0.22174072265625,-0.3088358640670776,0.3832509815692902,-0.2759466171264648,50.02479553222656,99.4697265625,-0.9782562255859376
221395,-0.3616180419921875,0.84033203125,0.2058868408203125,-0.2789360284805298,0.3207071721553802,-0.2518130540847778,49.84098815917969,99.5123291015625,-0.929107666015625
221396,-0.375,0.7996368408203125,0.189483642578125,-0.238295391201973,0.2032918632030487,-0.2266920059919357,49.70274353027344,99.33721923828124,-0.710052490234375
221397,-0.375,0.7996368408203125,0.189483642578125,-0.238295391201973,0.2032918632030487,-0.2266920059919357,49.70274353027344,99.33721923828124,-0.710052490234375
221398,-0.294891357421875,0.7830810546875,0.1894073486328125,-0.2732994556427002,0.0363100692629814,-0.2155645191669464,49.45611572265625,99.29054260253906,-0.2193603515625
221399,-0.239471435546875,0.76751708984375,0.1724853515625,-0.3585754632949829,0.0169598087668418,-0.2301104366779327,49.27174377441406,99.23875427246094,-0.0540313720703125
221400,-0.201324462890625,0.752166748046875,0.1516265869140625,-0.4590938091278076,-0.0210474953055381,-0.2351083904504776,49.11447143554688,99.31291198730467,-0.064422607421875
221401,-0.174896240234375,0.7586212158203125,0.1469573974609375,-0.5700812935829163,-0.0761397778987884,-0.2419966459274292,48.90132141113281,99.3391571044922,-0.099212646484375
221402,-0.1480255126953125,0.79644775390625,0.1580047607421875,-0.7059403657913208,-0.1228718608617783,-0.2731961309909821,48.76937866210938,99.09320068359376,0.0941162109375
221403,-0.1480255126953125,0.79644775390625,0.1580047607421875,-0.7059403657913208,-0.1228718608617783,-0.2731961309909821,48.76937866210938,99.09320068359376,0.0941162109375
221404,-0.0990753173828125,0.8960418701171875,0.141510009765625,-1.018872380256653,-0.1527698338031769,-0.3376182615756989,48.4129638671875,99.20144653320312,0.5784759521484375
221405,-0.0990753173828125,0.8960418701171875,0.141510009765625,-1.018872380256653,-0.1527698338031769,-0.3376182615756989,48.4129638671875,99.20144653320312,0.5784759521484375
221406,-0.0333251953125,1.076858520507812,0.03619384765625,-1.137242197990417,-0.2038889527320862,-0.3315632939338684,47.92231750488281,98.86184692382812,1.6396484375
221407,0.00140380859375,1.168365478515625,-0.043487548828125,-1.031824707984924,-0.2155267000198364,-0.2688255906105042,47.64985656738281,98.8375244140625,2.114608764648438
221408,0.02392578125,1.24334716796875,-0.125335693359375,-0.8183252215385437,-0.2667209208011627,-0.1793021112680435,47.41981506347656,98.69219970703124,2.59588623046875
221409,0.02392578125,1.24334716796875,-0.125335693359375,-0.8183252215385437,-0.2667209208011627,-0.1793021112680435,47.41981506347656,98.69219970703124,2.59588623046875
221410,0.053680419921875,1.329330444335938,-0.1349945068359375,-0.4114344120025635,-0.4371618926525116,-0.0586968697607517,47.15858459472656,98.51698303222656,3.611572265625
221411,0.0735015869140625,1.3291015625,-0.14910888671875,-0.2760699391365051,-0.4680803716182709,-0.0536099635064601,47.06826782226562,98.3319854736328,4.10015869140625
221412,0.0834197998046875,1.308197021484375,-0.1966094970703125,-0.138692632317543,-0.5242549777030945,-0.04325532913208,47.06475830078125,98.39485168457033,4.539031982421875
221413,0.0834197998046875,1.308197021484375,-0.1966094970703125,-0.138692632317543,-0.5242549777030945,-0.04325532913208,47.06475830078125,98.39485168457033,4.539031982421875
221414,0.0795745849609375,1.162246704101562,-0.2783203125,0.2708980739116669,-0.6084340214729309,0.0058427089825272,47.09039306640625,98.48361206054688,4.534469604492188
221415,0.0925750732421875,1.072860717773438,-0.293487548828125,0.2708980739116669,-0.6084340214729309,0.0058427089825272,47.1827392578125,98.52522277832033,4.490142822265625
221416,0.1176300048828125,1.010238647460938,-0.345733642578125,0.3669865131378174,-0.5649517774581909,0.0231367442756891,47.33283996582031,98.6192626953125,4.545730590820312
221417,0.1176300048828125,1.010238647460938,-0.345733642578125,0.3669865131378174,-0.5649517774581909,0.0231367442756891,47.33283996582031,98.6192626953125,4.545730590820312
221418,0.160430908203125,0.9634246826171876,-0.4404296875,0.4913580119609833,-0.549178421497345,0.0727434456348419,47.6617431640625,98.40641784667967,4.253936767578125
221419,0.1591644287109375,1.023147583007812,-0.404296875,0.4994337856769562,-0.5404009222984314,0.0748547986149787,47.81137084960938,98.42393493652344,4.074905395507812
221420,0.1603851318359375,1.106658935546875,-0.3680267333984375,0.4961729943752289,-0.540282666683197,0.0890188217163085,47.98959350585938,98.5435791015625,3.84124755859375
221421,0.16119384765625,1.177474975585938,-0.332763671875,0.4961729943752289,-0.540282666683197,0.0890188217163085,48.08375549316406,98.48294067382812,3.703781127929688
221422,0.156982421875,1.224212646484375,-0.2976837158203125,0.5354181528091431,-0.5021954774856567,0.1210553199052811,48.26200866699219,98.5430908203125,3.366561889648438
221423,0.155609130859375,1.25262451171875,-0.2625885009765625,0.5870842933654785,-0.4565582275390625,0.1672265380620956,48.5281982421875,98.46441650390624,3.216476440429688
221424,0.1647796630859375,1.274185180664062,-0.23321533203125,0.6286367774009705,-0.427309513092041,0.2081270962953568,48.63819885253906,98.65478515625,2.938262939453125
221425,0.1647796630859375,1.274185180664062,-0.23321533203125,0.6286367774009705,-0.427309513092041,0.2081270962953568,48.63819885253906,98.65478515625,2.938262939453125
221426,0.142578125,1.327362060546875,-0.0905914306640625,0.6092159152030945,-0.4637908339500427,0.243952751159668,49.04496765136719,98.71170043945312,2.372390747070312
221427,0.142578125,1.327362060546875,-0.0905914306640625,0.6092159152030945,-0.4637908339500427,0.243952751159668,49.04496765136719,98.71170043945312,2.372390747070312
221428,0.1109619140625,1.330490112304688,0.019134521484375,0.5394746661186218,-0.5030255913734436,0.2374777942895889,49.3841552734375,98.73974609375,2.215057373046875
221429,0.0075836181640625,1.356781005859375,0.1480255126953125,0.3942988514900208,-0.5888797640800476,0.1548231393098831,49.96000671386719,99.12351989746094,1.53594970703125
221430,-0.0383148193359375,1.354812622070312,0.1632537841796875,0.3867916464805603,-0.5726028084754944,0.0907187163829803,50.25120544433594,99.25933837890624,1.22271728515625
221431,-0.0775604248046875,1.31085205078125,0.14080810546875,0.4442639946937561,-0.5719140768051147,0.0064965151250362,50.50163269042969,99.34310913085938,1.107147216796875
221432,-0.1334075927734375,1.244338989257812,0.129913330078125,0.704217791557312,-0.6170706748962402,-0.121340811252594,50.71371459960938,99.3767547607422,0.893707275390625
221433,-0.1674041748046875,1.168914794921875,0.1086273193359375,0.704217791557312,-0.6170706748962402,-0.121340811252594,50.87120056152344,99.32754516601562,0.770721435546875
221434,-0.19195556640625,1.093063354492188,0.102508544921875,0.7551127076148987,-0.6654291152954102,-0.1658544838428497,51.02674865722656,99.29640197753906,0.457427978515625
221435,-0.20672607421875,1.027877807617188,0.1121063232421875,0.7168641090393066,-0.7065134644508362,-0.1836779564619064,51.18632507324219,99.34127807617188,0.168060302734375
221436,-0.21990966796875,0.9732818603515624,0.104339599609375,0.5986703634262085,-0.7643865942955017,-0.2087119370698929,51.33540344238281,99.39372253417967,-0.1925201416015625
221437,-0.21990966796875,0.9732818603515624,0.104339599609375,0.5986703634262085,-0.7643865942955017,-0.2087119370698929,51.33540344238281,99.39372253417967,-0.1925201416015625
221438,-0.2589263916015625,0.8185882568359375,0.033477783203125,0.365071177482605,-0.92005717754364,-0.2107407301664352,51.47886657714844,99.4329833984375,-0.761138916015625
221439,-0.263214111328125,0.7407073974609375,-0.0204925537109375,0.3696659207344055,-0.9461542963981628,-0.1979359835386276,51.640380859375,99.4662628173828,-0.96856689453125
221440,-0.2719879150390625,0.6627960205078125,-0.0656585693359375,0.4764424562454224,-0.8756399154663086,-0.1678153723478317,51.74620056152344,99.58430480957033,-1.216659545898438
221441,-0.2719879150390625,0.6627960205078125,-0.0656585693359375,0.4764424562454224,-0.8756399154663086,-0.1678153723478317,51.74620056152344,99.58430480957033,-1.216659545898438
221442,-0.26654052734375,0.5883026123046875,-0.1325225830078125,0.7224721908569336,-0.6166898608207703,-0.0550294294953346,51.86669921875,99.41009521484376,-1.494110107421875
221443,-0.2259674072265625,0.58782958984375,-0.11395263671875,0.7491296529769897,-0.4832758605480194,-0.0136313894763588,52.0140380859375,99.36175537109376,-1.555145263671875
221444,-0.1671295166015625,0.6034088134765625,-0.0440521240234375,0.6839130520820618,-0.3722867369651794,0.0268667675554752,52.02824401855469,99.51107788085938,-1.966049194335938
221445,-0.11065673828125,0.643096923828125,0.061859130859375,0.5283626317977905,-0.2851342558860779,0.0646208077669143,52.05767822265625,99.57731628417967,-2.2615966796875
221446,-0.0803375244140625,0.7004547119140625,0.1707611083984375,0.3077815175056458,-0.1961079835891724,0.0881402418017387,52.0787353515625,99.67189025878906,-2.67510986328125
221447,-0.0653228759765625,0.72918701171875,0.2479400634765625,0.0726241394877433,-0.0873402282595634,0.1029202565550804,52.15077209472656,99.70875549316406,-2.867935180664062
221448,-0.06109619140625,0.740142822265625,0.2912139892578125,-0.1564266234636307,0.0209372397512197,0.105914980173111,52.20834350585938,99.8246612548828,-3.063079833984375
221449,-0.0837249755859375,0.753265380859375,0.3047637939453125,-0.363872230052948,0.0958146750926971,0.1203932538628578,52.34283447265625,99.90005493164062,-3.148529052734375
221450,-0.1283721923828125,0.820098876953125,0.3015289306640625,-0.5181933641433716,0.1887518018484116,0.1707935780286789,52.31126403808594,99.85791015625,-3.104232788085938
221451,-0.1710662841796875,0.9418487548828124,0.2823333740234375,-0.5755900740623474,0.2954534888267517,0.2198114544153214,52.35098266601562,99.81672668457033,-2.971343994140625
221452,-0.190826416015625,0.9434967041015624,0.235443115234375,-0.5257732272148132,0.3521535098552704,0.2552871704101562,52.3690185546875,99.80436706542967,-2.6827392578125
221453,-0.175689697265625,0.8719635009765625,0.2096405029296875,-0.4138837158679962,0.3581879734992981,0.2938134968280792,52.47181701660156,99.66217041015624,-2.487319946289062
221454,-0.12713623046875,0.8177032470703125,0.22052001953125,-0.3260092735290527,0.3188664019107819,0.3098694384098053,52.51231384277344,99.5346221923828,-2.26617431640625
221455,-0.12713623046875,0.8177032470703125,0.22052001953125,-0.3260092735290527,0.3188664019107819,0.3098694384098053,52.51231384277344,99.5346221923828,-2.26617431640625
221456,-0.0159149169921875,0.830047607421875,0.265106201171875,-0.5650333166122437,0.133969783782959,0.2524231970310211,52.64068603515625,99.50198364257812,-2.043167114257812
221457,0.0240478515625,0.8489837646484375,0.308502197265625,-0.5650333166122437,0.133969783782959,0.2524231970310211,52.64891052246094,99.56573486328124,-1.92840576171875
221458,0.039703369140625,0.871063232421875,0.3454437255859375,-0.7337602376937866,0.0414694137871265,0.1931058019399643,52.75624084472656,99.48912048339844,-1.719955444335938
221459,0.039703369140625,0.871063232421875,0.3454437255859375,-0.7337602376937866,0.0414694137871265,0.1931058019399643,52.75624084472656,99.48912048339844,-1.719955444335938
221460,0.0772247314453125,0.94903564453125,0.3501434326171875,-1.134240031242371,-0.3281698822975159,-0.0195835549384355,52.78765869140625,99.35874938964844,-1.312408447265625
221461,0.0985565185546875,1.0078125,0.3343963623046875,-1.134240031242371,-0.3281698822975159,-0.0195835549384355,52.83125305175781,99.16775512695312,-0.986114501953125
221462,0.1002960205078125,1.084701538085938,0.313873291015625,-1.15614378452301,-0.3914234340190887,-0.083662137389183,52.87123107910156,98.94155883789062,-0.3579559326171875
221463,0.058380126953125,1.183883666992188,0.25469970703125,-1.087249040603638,-0.360328882932663,-0.1716798841953278,52.87637329101562,98.86639404296876,0.1991424560546875
221464,-0.0098114013671875,1.230728149414062,0.1328582763671875,-0.5889929533004761,-0.2500644326210022,-0.3120079636573792,52.75892639160156,98.66368103027344,0.7292938232421875
221465,-0.0098114013671875,1.230728149414062,0.1328582763671875,-0.5889929533004761,-0.2500644326210022,-0.3120079636573792,52.75892639160156,98.66368103027344,0.7292938232421875
221466,-0.12652587890625,1.131881713867188,-0.05743408203125,-0.2913706004619598,-0.2020875811576843,-0.3027406930923462,52.47178649902344,98.53707885742188,1.702255249023438
221467,-0.1631011962890625,1.086151123046875,-0.066314697265625,-0.1404950618743896,-0.1815026849508286,-0.2674495577812195,52.31440734863281,98.4287109375,2.028976440429688
221468,-0.170196533203125,1.109375,-0.058837890625,-0.1329527199268341,-0.0924521684646606,-0.2371281236410141,52.07101440429688,98.4679718017578,2.11138916015625
221469,-0.1529998779296875,1.174163818359375,-0.1054840087890625,-0.1853962242603302,-0.0166202560067176,-0.2063851356506348,51.83377075195312,98.535400390625,2.26483154296875
221470,-0.1334686279296875,1.266769409179688,-0.172637939453125,-0.2012287229299545,0.0013646037550643,-0.174612820148468,51.6607666015625,98.63304138183594,2.3367919921875
221471,-0.1334686279296875,1.266769409179688,-0.172637939453125,-0.2012287229299545,0.0013646037550643,-0.174612820148468,51.6607666015625,98.63304138183594,2.3367919921875
221472,-0.0849456787109375,1.295623779296875,-0.1965484619140625,-0.0714145302772522,0.164881631731987,-0.0299688186496496,51.2301025390625,98.72648620605467,2.431472778320312
221473,-0.064483642578125,1.228713989257812,-0.2018890380859375,-0.0714145302772522,0.164881631731987,-0.0299688186496496,51.05795288085938,98.5605926513672,2.652877807617188
221474,-0.0537567138671875,1.133880615234375,-0.261749267578125,0.023402526974678,0.3022879660129547,0.0474761724472045,50.92263793945312,98.6368408203125,2.853851318359375
221475,-0.050872802734375,1.0413818359375,-0.3375244140625,0.2036151736974716,0.5358871221542358,0.1798307448625565,50.83984375,98.57643127441406,2.9327392578125
221476,-0.03790283203125,0.991455078125,-0.419769287109375,0.2036151736974716,0.5358871221542358,0.1798307448625565,50.85787963867188,98.68025207519533,3.087005615234375
221477,-0.03790283203125,0.991455078125,-0.419769287109375,0.2036151736974716,0.5358871221542358,0.1798307448625565,50.85787963867188,98.68025207519533,3.087005615234375
221478,0.0469207763671875,1.018753051757812,-0.4849090576171875,0.3288761675357819,0.5747740864753723,0.2990415692329407,50.74984741210938,98.7384033203125,2.890396118164062
221479,0.0896453857421875,1.073089599609375,-0.4521026611328125,0.365032821893692,0.5690405368804932,0.3245290815830231,50.76991271972656,98.88607788085938,2.77239990234375
221480,0.1151123046875,1.1280517578125,-0.4137115478515625,0.37952521443367,0.5499891042709351,0.3368347585201263,50.84719848632812,98.89698791503906,2.676712036132812
221481,0.129974365234375,1.17633056640625,-0.3805694580078125,0.405675858259201,0.5156921148300171,0.3443152904510498,50.91961669921875,98.972412109375,2.470291137695312
221482,0.1310577392578125,1.217926025390625,-0.349853515625,0.4508127272129059,0.4909990131855011,0.3435696065425873,50.95320129394531,98.98390197753906,2.400131225585938
221483,0.1218414306640625,1.247146606445312,-0.3232421875,0.5011483430862427,0.4521296620368958,0.3364581763744354,51.12249755859375,98.97053527832033,2.187881469726562
221484,0.1028900146484375,1.2611083984375,-0.2848358154296875,0.5422675013542175,0.367497056722641,0.2855220139026642,51.13133239746094,99.10838317871094,1.942581176757812
221485,0.0834197998046875,1.263641357421875,-0.22991943359375,0.5422675013542175,0.367497056722641,0.2855220139026642,51.33503723144531,99.18576049804688,1.628997802734375
221486,0.067352294921875,1.247634887695312,-0.1636199951171875,0.5491776466369629,0.2972436547279358,0.2334010303020477,51.46063232421875,99.05557250976562,1.46209716796875
221487,0.0572967529296875,1.207717895507812,-0.111602783203125,0.5536147356033325,0.211972713470459,0.1876513957977295,51.60627746582031,99.10040283203124,1.336639404296875
221488,0.04827880859375,1.160629272460938,-0.069122314453125,0.4747492074966431,-0.0438116639852523,0.1403469890356064,51.74928283691406,99.157958984375,1.018280029296875
221489,0.04827880859375,1.160629272460938,-0.069122314453125,0.4747492074966431,-0.0438116639852523,0.1403469890356064,51.74928283691406,99.157958984375,1.018280029296875
221490,0.048065185546875,1.099044799804688,-0.0333251953125,0.3779286444187164,-0.2642223238945007,0.1358406543731689,51.78817749023438,99.22103881835938,0.9870147705078124
221491,0.04156494140625,1.0281982421875,-0.008758544921875,0.3779286444187164,-0.2642223238945007,0.1358406543731689,51.95173645019531,99.29475402832033,0.9730987548828124
221492,0.058258056640625,0.9382476806640624,0.0194854736328125,0.3131382167339325,-0.5477818846702576,0.1828534454107285,52.1983642578125,99.25347900390624,0.9640960693359376
221493,0.0760955810546875,0.8582916259765625,0.0600128173828125,0.2604568898677826,-0.910657286643982,0.3243852555751801,52.31045532226562,99.2587890625,0.5249481201171875
221494,0.1270904541015625,0.759918212890625,0.1321868896484375,0.2227683663368225,-0.9410969614982604,0.3636676967144012,52.75772094726562,99.22799682617188,-0.303802490234375
221495,0.1270904541015625,0.759918212890625,0.1321868896484375,0.2227683663368225,-0.9410969614982604,0.3636676967144012,52.75772094726562,99.22799682617188,-0.303802490234375
221496,0.13525390625,0.82177734375,0.186370849609375,0.1020605862140656,-0.7468486428260803,0.3088736832141876,53.33425903320312,99.2460479736328,-0.7008819580078125
221497,0.137664794921875,0.88006591796875,0.2008056640625,0.1020605862140656,-0.7468486428260803,0.3088736832141876,53.66218566894531,99.19842529296876,-0.7030181884765625
221498,0.1441192626953125,0.9196624755859376,0.214141845703125,0.0745725035667419,-0.6788791418075562,0.2530927062034607,54.00218200683594,99.12297058105467,-0.9684600830078124
221499,0.091094970703125,0.984832763671875,0.1949005126953125,0.0854051783680915,-0.5522556900978088,0.2378935217857361,54.23435974121094,99.04055786132812,-0.9884490966796876
221500,0.0170745849609375,1.003250122070312,0.1347808837890625,0.1440940648317337,-0.4587774276733398,0.2398682534694672,54.5943603515625,98.98519897460938,-0.9817047119140624
221501,-0.004119873046875,0.939727783203125,0.0821533203125,0.2287018895149231,-0.3796093761920929,0.2465820908546448,54.89601135253906,98.96128845214844,-1.023178100585938
221502,-0.024566650390625,0.88134765625,0.041961669921875,0.2995797991752625,-0.2949826419353485,0.2413468360900879,55.0609130859375,98.94317626953124,-1.121627807617188
221503,-0.060089111328125,0.8461151123046875,0.0181121826171875,0.33189857006073,-0.184517115354538,0.2232059240341187,55.28489685058594,98.8660888671875,-1.17181396484375
221504,-0.10125732421875,0.8124847412109375,3.0517578125e-05,0.2681904435157776,-0.0316218435764312,0.1724210381507874,55.4259033203125,98.87644958496094,-1.219161987304688
221505,-0.140777587890625,0.78851318359375,-0.0050811767578125,0.2681904435157776,-0.0316218435764312,0.1724210381507874,55.6141357421875,98.84292602539062,-1.402069091796875
221506,-0.153228759765625,0.7758331298828125,0.00433349609375,0.1893576830625534,0.0202243123203516,0.1384915709495544,55.7108154296875,98.83299255371094,-1.533538818359375
221507,-0.153228759765625,0.7758331298828125,0.00433349609375,0.1893576830625534,0.0202243123203516,0.1384915709495544,55.7108154296875,98.83299255371094,-1.533538818359375
221508,-0.0947723388671875,0.8274993896484375,0.0130157470703125,0.0178181454539299,0.0602942332625389,0.0691987797617912,55.88819885253906,98.83322143554688,-1.508987426757812
221509,-0.074371337890625,0.8985595703125,0.0196685791015625,-0.0500804781913757,0.0309563186019659,0.0256148166954517,55.93135070800781,98.88958740234376,-1.521484375
221510,-0.0863037109375,0.9753875732421876,0.0296478271484375,-0.1048316061496735,-0.0129062114283442,-0.0327499583363533,55.98519897460938,98.9669189453125,-1.728607177734375
221511,-0.1059417724609375,1.03271484375,0.0790252685546875,-0.1330848187208176,-0.0255279969424009,-0.0843439102172851,56.05729675292969,98.92123413085938,-1.79046630859375
221512,-0.122039794921875,1.070953369140625,0.118865966796875,-0.1429049521684647,-0.0175824556499719,-0.1366875469684601,56.11839294433594,98.82427978515624,-1.764480590820312
221513,-0.122039794921875,1.070953369140625,0.118865966796875,-0.1429049521684647,-0.0175824556499719,-0.1366875469684601,56.11839294433594,98.82427978515624,-1.764480590820312
221514,-0.1679840087890625,1.04022216796875,0.1756591796875,-0.0822852849960327,-0.0444430969655513,-0.262675553560257,55.93775939941406,98.83879089355467,-1.794631958007812
221515,-0.1922607421875,0.9842071533203124,0.1903076171875,-0.0822852849960327,-0.0444430969655513,-0.262675553560257,55.86677551269531,98.71646118164062,-1.60577392578125
221516,-0.2113189697265625,0.9173736572265624,0.1840362548828125,-0.0726816579699516,-0.0319629944860935,-0.2918781936168671,55.76483154296875,98.7814483642578,-1.529220581054688
221517,-0.21893310546875,0.858917236328125,0.1784820556640625,-0.0944444835186004,-0.0004631237243302,-0.3183068633079529,55.68754577636719,98.8201904296875,-1.627670288085938
221518,-0.2215728759765625,0.8098602294921875,0.1843719482421875,-0.1424010843038559,0.0692315325140953,-0.3506680130958557,55.55155944824219,98.89981079101562,-1.573654174804688
221519,-0.2215728759765625,0.8098602294921875,0.1843719482421875,-0.1424010843038559,0.0692315325140953,-0.3506680130958557,55.55155944824219,98.89981079101562,-1.573654174804688
221520,-0.2242431640625,0.7781524658203125,0.1879425048828125,-0.2120161205530167,0.1546401828527451,-0.3726910054683685,55.45053100585938,98.9302215576172,-1.388885498046875
221521,-0.2241668701171875,0.765625,0.18536376953125,-0.3919286131858826,0.2275756299495697,-0.4091262519359589,55.27903747558594,99.0739288330078,-1.484085083007812
221522,-0.2127532958984375,0.7765655517578125,0.1539154052734375,-0.492723673582077,0.1948357969522476,-0.4149703085422516,54.90969848632812,98.9978485107422,-1.238983154296875
221523,-0.1898651123046875,0.7959747314453125,0.1309356689453125,-0.6065341234207153,0.139982670545578,-0.4185269474983215,54.53804016113281,99.09713745117188,-0.924285888671875
221524,-0.16168212890625,0.813446044921875,0.112823486328125,-0.736122190952301,0.0953494235873222,-0.4139138162136078,54.21499633789062,99.10394287109376,-0.7014923095703125
221525,-0.16168212890625,0.813446044921875,0.112823486328125,-0.736122190952301,0.0953494235873222,-0.4139138162136078,54.21499633789062,99.10394287109376,-0.7014923095703125
221526,-0.0866546630859375,0.85614013671875,0.1231231689453125,-0.9342321157455444,0.1531935483217239,-0.3391618132591248,53.80319213867188,99.02195739746094,-0.168731689453125
221527,-0.0866546630859375,0.85614013671875,0.1231231689453125,-0.9342321157455444,0.1531935483217239,-0.3391618132591248,53.80319213867188,99.02195739746094,-0.168731689453125
221528,-0.035919189453125,1.013778686523438,0.077392578125,-0.8959009647369385,0.2442880421876907,-0.3199976980686188,53.28144836425781,98.94650268554688,0.7394866943359375
221529,-0.0176544189453125,1.137496948242188,-0.0194091796875,-0.8959009647369385,0.2442880421876907,-0.3199976980686188,52.99472045898438,98.84532165527344,1.232498168945312
221530,0.014129638671875,1.271270751953125,-0.1401519775390625,-0.7602531313896179,0.1907968521118164,-0.2983209192752838,52.57656860351562,98.84503173828124,1.558441162109375
221531,0.0467376708984375,1.375762939453125,-0.226837158203125,-0.5658727288246155,0.1298394948244095,-0.2641102075576782,52.27944946289062,98.80044555664062,1.955123901367188
221532,0.0731353759765625,1.430862426757812,-0.26885986328125,-0.3385919034481049,0.0415730103850364,-0.2184881269931793,51.9647216796875,98.7843017578125,2.317459106445312
221533,0.0731353759765625,1.430862426757812,-0.26885986328125,-0.3385919034481049,0.0415730103850364,-0.2184881269931793,51.9647216796875,98.7843017578125,2.317459106445312
221534,0.128936767578125,1.3995361328125,-0.2463531494140625,-0.0186951234936714,-0.0317336954176425,-0.1618770509958267,51.47499084472656,98.69895935058594,3.019119262695312
221535,0.1680450439453125,1.313919067382812,-0.2672882080078125,0.1131236255168915,-0.0779688358306884,-0.1536601334810257,51.27035522460938,98.755615234375,3.247955322265625
221536,0.23345947265625,1.04107666015625,-0.381805419921875,0.4571009576320648,-0.2292441129684448,-0.0699745565652847,51.0810546875,98.88677978515624,3.4075927734375
221537,0.23345947265625,1.04107666015625,-0.381805419921875,0.4571009576320648,-0.2292441129684448,-0.0699745565652847,51.0810546875,98.88677978515624,3.4075927734375
221538,0.2351226806640625,0.933380126953125,-0.454315185546875,0.5897080302238464,-0.2843435704708099,-0.0237767025828361,50.98646545410156,98.79972839355467,3.32952880859375
221539,0.2351226806640625,0.933380126953125,-0.454315185546875,0.5897080302238464,-0.2843435704708099,-0.0237767025828361,50.98646545410156,98.79972839355467,3.32952880859375
221540,0.2199554443359375,0.873138427734375,-0.5080718994140625,0.6869746446609497,-0.3163856565952301,0.0302085019648075,51.03019714355469,98.7834930419922,3.248779296875
221541,0.1958160400390625,0.8603057861328125,-0.5303802490234375,0.6423017382621765,-0.3015747666358948,0.0273788943886756,51.10879516601562,98.70616149902344,3.157546997070312
221542,0.1701507568359375,0.93280029296875,-0.469970703125,0.5587018728256226,-0.276572197675705,0.0269956644624471,51.58627319335938,98.83309936523438,2.65789794921875
221543,0.185211181640625,0.9875030517578124,-0.4209747314453125,0.4918783903121948,-0.2547915577888489,0.0365553461015224,51.71517944335938,98.77000427246094,2.523345947265625
221544,0.191162109375,1.049362182617188,-0.372589111328125,0.4769130349159241,-0.2560245990753174,0.0579794123768806,51.7943115234375,98.90658569335938,2.228927612304688
221545,0.18853759765625,1.109634399414062,-0.3289947509765625,0.4751207232475281,-0.252135843038559,0.0816669017076492,51.87867736816406,98.92855834960938,1.810943603515625
221546,0.185760498046875,1.1905517578125,-0.2867279052734375,0.450359433889389,-0.2693121731281281,0.0842131450772285,51.93319702148438,99.10821533203124,1.326873779296875
221547,0.1765289306640625,1.275680541992188,-0.20782470703125,0.3948927223682404,-0.2853401303291321,0.0607882477343082,52.07160949707031,99.1843719482422,0.936370849609375
221548,0.1493988037109375,1.344818115234375,-0.10687255859375,0.3847295641899109,-0.3305480778217316,0.0326186642050743,52.18414306640625,99.2757568359375,0.58697509765625
221549,0.1102447509765625,1.395782470703125,-0.0114288330078125,0.4020033776760101,-0.4252138733863831,-0.0143280727788806,52.33883666992188,99.2914581298828,0.3343658447265625
221550,0.0708160400390625,1.434219360351562,0.06988525390625,0.4129002094268799,-0.511067271232605,-0.0702816173434257,52.48500061035156,99.3434600830078,0.1444091796875
221551,0.0333709716796875,1.460769653320312,0.10693359375,0.4305119812488556,-0.600129246711731,-0.1470733433961868,52.57872009277344,99.39729309082033,0.0023040771484375
221552,-0.0166168212890625,1.4525146484375,0.1147613525390625,0.4794920384883881,-0.6859389543533325,-0.2391420155763626,52.76828002929688,99.5897216796875,-0.437286376953125
221553,-0.0818634033203125,1.397079467773438,0.10467529296875,0.5626460313796997,-0.8029510378837585,-0.3220254480838776,52.87161254882812,99.702880859375,-0.55010986328125
221554,-0.1375274658203125,1.306365966796875,0.1174774169921875,0.6515548825263977,-0.886299192905426,-0.3986128866672516,52.94606018066406,99.74647521972656,-0.7827606201171875
221555,-0.1375274658203125,1.306365966796875,0.1174774169921875,0.6515548825263977,-0.886299192905426,-0.3986128866672516,52.94606018066406,99.74647521972656,-0.7827606201171875
221556,-0.2125091552734375,1.10394287109375,0.126556396484375,0.7188369631767273,-1.048682570457458,-0.4834500253200531,53.05233764648438,99.80673217773438,-1.3447265625
221557,-0.2395172119140625,1.003585815429688,0.0886993408203125,0.6543935537338257,-1.134183287620544,-0.4680995643138885,53.09574890136719,99.98402404785156,-1.724014282226562
221558,-0.269683837890625,0.9291534423828124,0.0280303955078125,0.5762923359870911,-1.26375138759613,-0.4177341163158417,53.13839721679688,100.0352935791016,-2.002700805664062
221559,-0.2858428955078125,0.86181640625,-0.0039520263671875,0.5270419716835022,-1.385979890823364,-0.3347830474376678,53.1195068359375,99.98948669433594,-2.348464965820312
221560,-0.282501220703125,0.8175506591796875,-0.01324462890625,0.5732467770576477,-1.417479157447815,-0.2483613342046738,53.30972290039062,100.1707916259766,-2.685943603515625
221561,-0.282501220703125,0.8175506591796875,-0.01324462890625,0.5732467770576477,-1.417479157447815,-0.2483613342046738,53.30972290039062,100.1707916259766,-2.685943603515625
221562,-0.284759521484375,0.73077392578125,-0.00250244140625,0.7893513441085815,-1.237967967987061,-0.1166033148765564,53.59420776367188,100.1226196289062,-3.377105712890625
221563,-0.295989990234375,0.6925201416015625,0.0152435302734375,0.8352807760238647,-1.091466188430786,-0.0874385014176368,53.79327392578125,100.0507965087891,-3.567230224609375
221564,-0.3213043212890625,0.643951416015625,0.0315399169921875,0.8427647948265076,-0.9443275928497314,-0.0830528065562248,53.92630004882812,100.0697631835938,-3.882232666015625
221565,-0.3213043212890625,0.643951416015625,0.0315399169921875,0.8427647948265076,-0.9443275928497314,-0.0830528065562248,53.92630004882812,100.0697631835938,-3.882232666015625
221566,-0.330902099609375,0.535675048828125,0.077392578125,0.6906538009643555,-0.5614193677902222,-0.1048427894711494,54.04859924316406,100.3279724121094,-4.782012939453125
221567,-0.32745361328125,0.5187835693359375,0.0941619873046875,0.5243580341339111,-0.3107277750968933,-0.0972687602043151,54.11454772949219,100.3965454101562,-5.220779418945312
221568,-0.2995147705078125,0.5656585693359375,0.101318359375,0.0710291713476181,0.0228475257754325,0.0435554683208465,54.19784545898438,100.3553466796875,-5.509078979492188
221569,-0.243011474609375,0.6583099365234375,0.1357879638671875,0.0710291713476181,0.0228475257754325,0.0435554683208465,54.18977355957031,100.3241729736328,-5.811767578125
221570,-0.2178802490234375,0.7664337158203125,0.1943206787109375,-0.1496105343103409,0.1719517856836319,0.1403794884681702,54.21084594726562,100.3825378417969,-5.863800048828125
221571,-0.2178802490234375,0.7664337158203125,0.1943206787109375,-0.1496105343103409,0.1719517856836319,0.1403794884681702,54.21084594726562,100.3825378417969,-5.863800048828125
221572,-0.2581024169921875,0.8830718994140625,0.2212066650390625,-0.5106576681137085,0.3106923699378967,0.3156972527503967,54.1695556640625,100.3063507080078,-5.631317138671875
221573,-0.2330474853515625,0.8636932373046875,0.1922607421875,-0.5106576681137085,0.3106923699378967,0.3156972527503967,54.33570861816406,100.3514709472656,-5.683853149414062
221574,-0.172027587890625,0.858795166015625,0.18109130859375,-0.5019621849060059,0.1999133825302124,0.3642410635948181,54.47111511230469,100.3787994384766,-5.510223388671875
221575,-0.172027587890625,0.858795166015625,0.18109130859375,-0.5019621849060059,0.1999133825302124,0.3642410635948181,54.47111511230469,100.3787994384766,-5.510223388671875
221576,-0.0479583740234375,0.921661376953125,0.2628326416015625,-0.503448486328125,0.1527362763881683,0.3625920414924622,54.52377319335938,100.2277069091797,-5.1468505859375
221577,-0.0065765380859375,0.9470977783203124,0.3054962158203125,-0.5612252354621887,0.1539576053619385,0.3160974979400635,54.58367919921875,100.158935546875,-4.967636108398438
221578,0.013427734375,0.9622802734375,0.3527374267578125,-0.6402875781059265,0.1278591603040695,0.2508695125579834,54.6805419921875,100.1276245117188,-4.691558837890625
221579,0.019989013671875,0.9833221435546876,0.3871612548828125,-0.7143135666847229,0.074608989059925,0.1782751977443695,54.69679260253906,100.0627746582031,-4.41741943359375
221580,0.0140838623046875,1.011978149414062,0.4019012451171875,-0.7727065682411194,0.0183587670326232,0.1024336963891983,54.74969482421875,100.0736541748047,-4.149627685546875
221581,0.00323486328125,1.060989379882812,0.3930511474609375,-0.8113517165184021,-0.0634098649024963,0.0160101260989904,54.75387573242188,99.9545440673828,-3.892715454101562
221582,-0.008544921875,1.115570068359375,0.35614013671875,-0.8370040655136108,-0.1856878399848938,-0.0799225270748138,54.739990234375,99.84835815429688,-3.561080932617188
221583,-0.030120849609375,1.165359497070312,0.287200927734375,-0.8251285552978516,-0.3345856964588165,-0.1660275906324387,54.6654052734375,99.83248901367188,-3.2144775390625
221584,-0.052276611328125,1.188186645507812,0.1590728759765625,-0.7432363033294678,-0.5455469489097595,-0.2379845976829529,54.55067443847656,99.77267456054688,-2.898269653320312
221585,-0.052276611328125,1.188186645507812,0.1590728759765625,-0.7432363033294678,-0.5455469489097595,-0.2379845976829529,54.55067443847656,99.77267456054688,-2.898269653320312
221586,-0.0722198486328125,1.127838134765625,0.0365142822265625,-0.0599911659955978,-0.037685327231884,-0.1636858731508255,54.334716796875,99.72560119628906,-1.940505981445312
221587,-0.0722198486328125,1.127838134765625,0.0365142822265625,-0.0599911659955978,-0.037685327231884,-0.1636858731508255,54.334716796875,99.72560119628906,-1.940505981445312
221588,-0.1331329345703125,1.014999389648438,-0.22369384765625,0.0570353232324123,0.1011945307254791,-0.1544622778892517,54.12062072753906,99.56802368164062,-1.160507202148438
221589,-0.1797637939453125,0.972320556640625,-0.2115631103515625,-0.0145706869661808,0.0853095725178718,-0.1713158190250397,53.86607360839844,99.7507781982422,-1.164962768554688
221590,-0.20330810546875,0.9780120849609376,-0.2365875244140625,-0.1901054978370667,0.0744792968034744,-0.1692207157611847,53.72879028320312,99.82965087890624,-1.195297241210938
221591,-0.2024993896484375,1.032943725585938,-0.3234100341796875,-0.3117722570896149,0.0282801073044538,-0.1215240359306335,53.55950927734375,99.89997863769533,-1.1683349609375
221592,-0.17681884765625,1.080703735351562,-0.384429931640625,-0.2285399734973907,0.066215768456459,0.039696279913187,53.38130187988281,99.98063659667967,-1.314193725585938
221593,-0.136810302734375,1.1015625,-0.388458251953125,-0.2285399734973907,0.066215768456459,0.039696279913187,53.15335083007812,99.97785949707033,-1.262237548828125
221594,-0.1297607421875,1.100051879882812,-0.3760223388671875,-0.107095293700695,0.205197885632515,0.1351764649152756,52.97309875488281,99.91867065429688,-0.8437652587890625
221595,-0.1297607421875,1.100051879882812,-0.3760223388671875,-0.107095293700695,0.205197885632515,0.1351764649152756,52.97309875488281,99.91867065429688,-0.8437652587890625
221596,-0.10772705078125,1.083831787109375,-0.4137420654296875,0.0523628070950508,0.3521713614463806,0.2409625500440598,52.92991638183594,99.84521484375,-0.7011260986328125
221597,0.0358428955078125,1.01385498046875,-0.5807342529296875,0.4541035890579224,0.5722334384918213,0.4365831911563873,52.98457336425781,99.72293090820312,-0.7607421875
221598,0.1132049560546875,1.006698608398438,-0.626007080078125,0.5896015167236328,0.6197921633720398,0.4972726106643677,53.12022399902344,99.83314514160156,-0.85723876953125
221599,0.162994384765625,1.047332763671875,-0.6286468505859375,0.6015977263450623,0.6332064867019653,0.51173335313797,53.32966613769531,99.75592041015624,-1.067108154296875
221600,0.1782989501953125,1.111190795898438,-0.606781005859375,0.5101551413536072,0.6214156150817871,0.4614182114601135,53.46688842773438,99.6730499267578,-1.32940673828125
221601,0.1782989501953125,1.111190795898438,-0.606781005859375,0.5101551413536072,0.6214156150817871,0.4614182114601135,53.46688842773438,99.6730499267578,-1.32940673828125
221602,0.12554931640625,1.17254638671875,-0.48162841796875,0.363874614238739,0.6178427338600159,0.3219077289104462,53.72215270996094,99.882080078125,-1.744674682617188
221603,0.12554931640625,1.17254638671875,-0.48162841796875,0.363874614238739,0.6178427338600159,0.3219077289104462,53.72215270996094,99.882080078125,-1.744674682617188
221604,0.036285400390625,1.1845703125,-0.3190155029296875,0.3159547746181488,0.602147102355957,0.2891279458999634,54.09941101074219,99.7960968017578,-1.889419555664062
221605,0.036285400390625,1.1845703125,-0.3190155029296875,0.3159547746181488,0.602147102355957,0.2891279458999634,54.09941101074219,99.7960968017578,-1.889419555664062
221606,-0.0449676513671875,1.149612426757812,-0.118927001953125,0.1193527579307556,0.5132262706756592,0.200557067990303,54.24252319335938,100.0630798339844,-2.38580322265625
221607,-0.0636749267578125,1.119796752929688,-0.0486602783203125,-0.0389428734779357,0.4642297327518463,0.1623846441507339,54.42581176757812,99.9498291015625,-2.541778564453125
221608,-0.0496826171875,1.08544921875,-0.065277099609375,-0.1550082266330719,0.2971712350845337,0.1576095968484879,54.45271301269531,100.0428314208984,-2.675155639648438
221609,-0.01861572265625,1.057662963867188,-0.0392608642578125,-0.1585435718297958,0.0635211840271949,0.2002699822187424,54.57017517089844,100.0500946044922,-2.8017578125
221610,0.033843994140625,1.0362548828125,0.0133056640625,-0.0537330023944377,-0.1526329517364502,0.2633088529109955,54.7349853515625,99.95011901855467,-2.723236083984375
221611,0.092132568359375,1.01068115234375,0.06256103515625,0.0234137140214443,-0.3503383100032806,0.3224193155765533,54.83995056152344,99.96540832519533,-2.706390380859375
221612,0.1186676025390625,0.9701690673828124,0.110870361328125,0.0414315946400165,-0.4890567660331726,0.3769030570983887,54.93687438964844,99.99909973144533,-2.68011474609375
221613,0.1231536865234375,0.9434661865234376,0.1408233642578125,0.032639168202877,-0.5853723883628845,0.4140973091125488,55.19941711425781,99.8476104736328,-2.602447509765625
221614,0.12841796875,0.9261016845703124,0.1456756591796875,0.0243420917540788,-0.6523711085319519,0.4008363783359528,55.47406005859375,99.84048461914062,-2.652603149414062
221615,0.12841796875,0.9261016845703124,0.1456756591796875,0.0243420917540788,-0.6523711085319519,0.4008363783359528,55.47406005859375,99.84048461914062,-2.652603149414062
221616,0.14849853515625,0.9160919189453124,0.1494598388671875,-0.0002074602525681,-0.7577617168426514,0.269053041934967,56.03517150878906,99.54603576660156,-2.784515380859375
221617,0.189697265625,0.919677734375,0.1444854736328125,-0.0002074602525681,-0.7577617168426514,0.269053041934967,56.35427856445312,99.48065185546876,-2.817276000976562
221618,0.2059326171875,0.952484130859375,0.1268157958984375,0.0096281263977289,-0.760614275932312,0.2619104385375977,56.65533447265625,99.35514831542967,-2.79339599609375
221619,0.1806488037109375,0.9865570068359376,0.1174163818359375,0.0561942979693412,-0.6832782030105591,0.2471314966678619,56.87567138671875,99.24259948730467,-2.811767578125
221620,0.1218719482421875,0.98095703125,0.10986328125,0.1763715744018555,-0.4463969171047211,0.2228325456380844,57.13131713867188,99.11233520507812,-2.888900756835938
221621,0.056182861328125,0.9649200439453124,0.1176910400390625,0.1763715744018555,-0.4463969171047211,0.2228325456380844,57.40834045410156,99.18293762207033,-3.014556884765625
221622,-0.0056304931640625,0.962066650390625,0.1168212890625,0.1844204366207123,-0.3818938434123993,0.1831690222024918,57.57698059082031,99.05970764160156,-3.143310546875
221623,-0.059783935546875,0.9470367431640624,0.0982818603515625,0.1676057726144791,-0.3651236295700073,0.1275342553853989,57.83308410644531,98.941162109375,-3.06085205078125
221624,-0.12371826171875,0.92926025390625,0.0847015380859375,0.142595499753952,-0.337043285369873,0.0483813807368278,58.02079772949219,98.98306274414062,-3.128814697265625
221625,-0.12371826171875,0.92926025390625,0.0847015380859375,0.142595499753952,-0.337043285369873,0.0483813807368278,58.02079772949219,98.98306274414062,-3.128814697265625
221626,-0.267120361328125,0.8961639404296875,0.0811767578125,0.0780505910515785,-0.2625575959682465,-0.1186619326472282,58.26377868652344,99.06201171875,-3.361343383789062
221627,-0.267120361328125,0.8961639404296875,0.0811767578125,0.0780505910515785,-0.2625575959682465,-0.1186619326472282,58.26377868652344,99.06201171875,-3.361343383789062
221628,-0.34326171875,0.875885009765625,0.133544921875,0.0191726293414831,-0.1038528978824615,-0.193930596113205,58.28565979003906,99.01806640625,-3.374435424804688
221629,-0.33880615234375,0.8718414306640625,0.173492431640625,-0.0286375042051076,-0.0225034449249506,-0.1978307962417603,58.27346801757812,99.13645935058594,-3.479934692382812
221630,-0.31732177734375,0.8755035400390625,0.2086334228515625,-0.1049953922629356,0.0245239846408367,-0.1887307614088058,58.18611145019531,99.18251037597656,-3.496841430664062
221631,-0.290679931640625,0.8787689208984375,0.2424774169921875,-0.2017746716737747,0.0618825405836105,-0.1827232092618942,58.1617431640625,99.28279113769533,-3.516494750976562
221632,-0.26715087890625,0.884307861328125,0.2662353515625,-0.2855550348758698,0.0996959656476974,-0.1793226152658463,58.08807373046875,99.4038543701172,-3.550125122070312
221633,-0.26068115234375,0.886444091796875,0.2846832275390625,-0.3451390266418457,0.1652270406484604,-0.183546394109726,57.92579650878906,99.32225036621094,-3.462890625
221634,-0.2648468017578125,0.878814697265625,0.2950592041015625,-0.4465351402759552,0.319450706243515,-0.2461788803339005,57.86135864257812,99.22113037109376,-3.36279296875
221635,-0.2648468017578125,0.878814697265625,0.2950592041015625,-0.4465351402759552,0.319450706243515,-0.2461788803339005,57.86135864257812,99.22113037109376,-3.36279296875
221636,-0.2744293212890625,0.861236572265625,0.295379638671875,-0.4465351402759552,0.319450706243515,-0.2461788803339005,57.84236145019531,99.25575256347656,-3.20513916015625
221637,-0.290313720703125,0.8371124267578125,0.2694091796875,-0.5065542459487915,0.300695389509201,-0.3450916111469269,57.69209289550781,99.27474975585938,-2.970443725585938
221638,-0.2959442138671875,0.7931976318359375,0.1617889404296875,-0.537958025932312,0.2263031750917435,-0.3919424712657928,57.3023681640625,99.14402770996094,-2.577865600585938
221639,-0.2959442138671875,0.7931976318359375,0.1617889404296875,-0.537958025932312,0.2263031750917435,-0.3919424712657928,57.3023681640625,99.14402770996094,-2.577865600585938
221640,-0.2305908203125,0.7496795654296875,0.0955810546875,-0.6695919036865234,0.1311676055192947,-0.3816842436790466,56.77937316894531,99.2517547607422,-2.302230834960938
221641,-0.1731109619140625,0.7578125,0.1297607421875,-0.7711297273635864,0.1958006620407104,-0.3190368413925171,56.458740234375,99.16339111328124,-2.061004638671875
221642,-0.1211090087890625,0.7983551025390625,0.167266845703125,-0.8862877488136292,0.336042732000351,-0.2463980615139008,56.19352722167969,99.25357055664062,-1.686782836914062
221643,-0.099609375,0.87396240234375,0.1646270751953125,-0.9881060123443604,0.4561243951320648,-0.1877240985631943,55.98947143554688,99.1915283203125,-1.288360595703125
221644,-0.0880279541015625,0.9697265625,0.1107330322265625,-1.035324096679688,0.5013685822486877,-0.1754863411188126,55.69082641601562,99.2758331298828,-0.8509521484375
221645,-0.0880279541015625,0.9697265625,0.1107330322265625,-1.035324096679688,0.5013685822486877,-0.1754863411188126,55.69082641601562,99.2758331298828,-0.8509521484375
221646,-0.0883331298828125,1.133453369140625,-0.0739898681640625,-0.9992893934249878,0.3392568826675415,-0.1478627026081085,55.20838928222656,99.0841064453125,0.1853485107421875
221647,-0.051971435546875,1.237960815429688,-0.1357574462890625,-0.878670871257782,0.2225939333438873,-0.1000214070081711,54.97160339355469,98.79502868652344,0.8764190673828125
221648,0.002227783203125,1.294097900390625,-0.1853790283203125,-0.6943715810775757,0.1866865307092667,-0.0193981993943452,54.64411926269531,98.75650024414062,1.221481323242188
221649,0.0565185546875,1.31219482421875,-0.23455810546875,-0.4401619434356689,0.1346273124217987,0.0695468559861183,54.31745910644531,98.71482849121094,1.629180908203125
221650,0.126495361328125,1.291152954101562,-0.2254791259765625,-0.2048591375350952,0.1321652233600616,0.1243973225355148,54.10693359375,98.78401184082033,2.132553100585938
221651,0.18182373046875,1.251632690429688,-0.2196807861328125,-0.0472865551710128,0.0917695984244346,0.1478195488452911,54.07373046875,98.6188507080078,2.408157348632812
221652,0.238525390625,1.193893432617188,-0.2021484375,0.0716390311717987,0.0334663465619087,0.1368902027606964,54.01010131835938,98.59043884277344,2.530899047851562
221653,0.238525390625,1.193893432617188,-0.2021484375,0.0716390311717987,0.0334663465619087,0.1368902027606964,54.01010131835938,98.59043884277344,2.530899047851562
221654,0.33404541015625,1.039947509765625,-0.311859130859375,0.5026119947433472,-0.4023668766021729,0.1828742176294327,54.13882446289062,98.46031188964844,2.606674194335938
221655,0.3460540771484375,0.9685516357421876,-0.4169921875,0.5026119947433472,-0.4023668766021729,0.1828742176294327,54.19132995605469,98.4962158203125,2.58599853515625
221656,0.3381195068359375,0.92535400390625,-0.4814300537109375,0.7465418577194214,-0.5337270498275757,0.2191717624664307,54.31353759765625,98.42308044433594,2.467788696289062
221657,0.32080078125,0.9165496826171876,-0.494354248046875,0.7465418577194214,-0.5337270498275757,0.2191717624664307,54.46697998046875,98.4172821044922,2.215087890625
221658,0.2951812744140625,0.9459075927734376,-0.4827117919921875,0.76083904504776,-0.482930451631546,0.2146278768777847,54.70558166503906,98.43121337890624,1.952239990234375
221659,0.2779693603515625,0.9865264892578124,-0.4605865478515625,0.7558794021606445,-0.4226031899452209,0.2183752059936523,54.89932250976562,98.47003173828124,1.64166259765625
221660,0.2791900634765625,1.034011840820312,-0.430511474609375,0.7572831511497498,-0.3875027298927307,0.2399148643016815,55.08570861816406,98.58407592773438,1.32647705078125
221661,0.2791900634765625,1.034011840820312,-0.430511474609375,0.7572831511497498,-0.3875027298927307,0.2399148643016815,55.08570861816406,98.58407592773438,1.32647705078125
221662,0.2767486572265625,1.158920288085938,-0.3585968017578125,0.7408930063247681,-0.4270210862159729,0.2758896350860596,55.46104431152344,98.77713012695312,0.3855438232421875
221663,0.2578125,1.245651245117188,-0.3000030517578125,0.6975558996200562,-0.4796129465103149,0.2645863890647888,55.73942565917969,98.74464416503906,0.0797119140625
221664,0.2230072021484375,1.34063720703125,-0.2293853759765625,0.5634037256240845,-0.6228609085083008,0.1551445722579956,56.00341796875,98.83502197265624,-0.2959747314453125
221665,0.183502197265625,1.435943603515625,-0.14837646484375,0.5634037256240845,-0.6228609085083008,0.1551445722579956,56.29673767089844,98.882568359375,-0.636444091796875
221666,0.1397247314453125,1.516006469726562,-0.0465087890625,0.4879718124866486,-0.7369651198387146,0.0623342134058475,56.51258850097656,98.9490203857422,-1.0247802734375
221667,0.1397247314453125,1.516006469726562,-0.0465087890625,0.4879718124866486,-0.7369651198387146,0.0623342134058475,56.51258850097656,98.9490203857422,-1.0247802734375
221668,0.047607421875,1.623306274414062,0.1221466064453125,0.4717147946357727,-0.9599023461341858,-0.1702761203050613,57.06886291503906,99.1567840576172,-1.412948608398438
221669,0.001190185546875,1.595443725585938,0.126678466796875,0.5871769189834595,-1.035993099212646,-0.2681267857551575,57.22149658203125,99.2707061767578,-1.708938598632812
221670,-0.0465240478515625,1.532730102539062,0.10540771484375,0.788406491279602,-1.126029253005981,-0.3264169991016388,57.32562255859375,99.2747039794922,-2.180419921875
221671,-0.0465240478515625,1.532730102539062,0.10540771484375,0.788406491279602,-1.126029253005981,-0.3264169991016388,57.32562255859375,99.2747039794922,-2.180419921875
221672,-0.0889892578125,1.424667358398438,0.109375,1.020683884620667,-1.213398814201355,-0.3580199182033539,57.47650146484375,99.38761901855467,-2.5635986328125
221673,-0.1582489013671875,1.163818359375,0.128631591796875,1.25012993812561,-1.339208126068115,-0.314224511384964,57.7415771484375,99.68356323242188,-3.373809814453125
221674,-0.2009124755859375,1.041290283203125,0.17669677734375,1.162259936332703,-1.402914047241211,-0.2471245676279068,57.94633483886719,99.82215881347656,-3.972991943359375
221675,-0.23773193359375,0.93145751953125,0.228790283203125,0.9800339341163636,-1.38245165348053,-0.1688697189092636,58.13397216796875,99.82160949707033,-4.693618774414062
221676,-0.24969482421875,0.8252410888671875,0.2152099609375,0.6379421353340149,-1.422459363937378,-0.039911463856697,58.19039916992188,99.96453857421876,-5.337570190429688
221677,-0.24969482421875,0.8252410888671875,0.2152099609375,0.6379421353340149,-1.422459363937378,-0.039911463856697,58.19039916992188,99.96453857421876,-5.337570190429688
221678,-0.2704620361328125,0.66058349609375,0.0610198974609375,0.6066603660583496,-1.540042161941528,-0.0330298542976379,58.70120239257812,99.93211364746094,-6.346023559570312
221679,-0.286651611328125,0.6121978759765625,0.02020263671875,0.6066603660583496,-1.540042161941528,-0.0330298542976379,58.96870422363281,99.90911865234376,-6.657745361328125
221680,-0.3199462890625,0.58819580078125,0.029632568359375,0.6981101036071777,-1.337818741798401,-0.0574840642511844,59.24659729003906,99.90902709960938,-7.038848876953125
221681,-0.3698883056640625,0.58892822265625,0.0298614501953125,0.791254460811615,-0.9479852318763732,-0.0953747257590293,59.34086608886719,99.86143493652344,-7.379898071289062
221682,-0.3852081298828125,0.592193603515625,0.0142059326171875,0.8127373456954956,-0.5671049952507019,-0.120755709707737,59.46316528320312,99.86048889160156,-7.910385131835938
221683,-0.3324737548828125,0.602386474609375,0.01123046875,0.7743564248085022,-0.3594958484172821,-0.1402428597211838,59.61163330078125,99.84115600585938,-8.323806762695312
221684,-0.2454071044921875,0.619354248046875,0.07421875,0.4254133403301239,-0.2347006499767303,-0.0955595448613166,59.62112426757812,99.90711975097656,-8.831893920898438
221685,-0.2454071044921875,0.619354248046875,0.07421875,0.4254133403301239,-0.2347006499767303,-0.0955595448613166,59.62112426757812,99.90711975097656,-8.831893920898438
221686,-0.1856536865234375,0.5823974609375,0.191558837890625,-0.0376600287854671,-0.0184482485055923,-0.0078049260191619,59.51858520507812,100.0984649658203,-9.520675659179688
221687,-0.1561431884765625,0.577239990234375,0.1785430908203125,-0.2190375477075577,0.0761845186352729,0.084325797855854,59.46293640136719,100.1330871582031,-9.577346801757812
221688,-0.1561431884765625,0.577239990234375,0.1785430908203125,-0.2190375477075577,0.0761845186352729,0.084325797855854,59.46293640136719,100.1330871582031,-9.577346801757812
221689,-0.13543701171875,0.6224822998046875,0.1468353271484375,-0.3172562420368195,0.186676412820816,0.1706798672676086,59.47758483886719,100.0510406494141,-9.744857788085938
221690,-0.139190673828125,0.7734375,0.0682220458984375,-0.3451901376247406,0.2436408847570419,0.2276001423597336,59.51531982421875,100.1857757568359,-9.617523193359377
221691,-0.133087158203125,0.80126953125,0.082611083984375,-0.3538233041763306,0.3076371848583221,0.2742739021778107,59.49578857421875,100.1343536376953,-9.327835083007812
221692,-0.1207122802734375,0.8273162841796875,0.113739013671875,-0.4768760204315186,0.4306440651416779,0.3487350940704346,59.55364990234375,100.2448272705078,-9.280426025390623
221693,-0.09417724609375,0.86199951171875,0.159393310546875,-0.4768760204315186,0.4306440651416779,0.3487350940704346,59.5650634765625,100.3315887451172,-9.38726806640625
221694,-0.057647705078125,0.8985748291015625,0.2152252197265625,-0.5965304970741272,0.4509663879871368,0.3371476829051971,59.619140625,100.3447570800781,-9.265869140625
221695,-0.057647705078125,0.8985748291015625,0.2152252197265625,-0.5965304970741272,0.4509663879871368,0.3371476829051971,59.619140625,100.3447570800781,-9.265869140625
221696,-0.0227508544921875,0.936492919921875,0.2629852294921875,-0.7268688082695007,0.455559253692627,0.2933447957038879,59.58279418945312,100.2996063232422,-9.141021728515623
221697,0.025848388671875,1.025604248046875,0.29925537109375,-0.9185394048690796,0.3141914904117584,0.0663973987102508,59.67887878417969,100.1620788574219,-8.550094604492188
221698,0.0287017822265625,1.07110595703125,0.3184051513671875,-0.9735209345817566,0.1562596410512924,-0.0922463089227676,59.69563293457031,100.1023712158203,-8.192550659179688
221699,-0.007110595703125,1.119110107421875,0.3607177734375,-1.028260111808777,0.0655577033758163,-0.2237294912338257,59.7078857421875,100.0223541259766,-7.60986328125
221700,-0.046051025390625,1.178970336914062,0.3474273681640625,-1.136688590049744,-0.1776818484067917,-0.4317159950733185,59.68074035644531,99.97653198242188,-7.13336181640625
221701,-0.073822021484375,1.229965209960938,0.2678680419921875,-1.136688590049744,-0.1776818484067917,-0.4317159950733185,59.47114562988281,99.93679809570312,-6.624786376953125
221702,-0.097320556640625,1.257110595703125,0.1836395263671875,-1.068446397781372,-0.3255954086780548,-0.4992851614952087,59.28964233398438,100.0277862548828,-6.342803955078125
221703,-0.117584228515625,1.268478393554688,0.07470703125,-0.8829010128974915,-0.3641377389431,-0.5337315797805786,59.05320739746094,100.0627136230469,-5.845138549804688
221704,-0.148834228515625,1.219467163085938,-0.006927490234375,-0.6235038042068481,-0.2517589926719666,-0.5158359408378601,58.71432495117188,100.1533050537109,-5.431320190429688
221705,-0.1798553466796875,1.118682861328125,-0.089813232421875,-0.3475728929042816,-0.0798301175236702,-0.4625042676925659,58.46849060058594,100.0197601318359,-4.824005126953125
221706,-0.185333251953125,0.998779296875,-0.1621551513671875,-0.1844201683998108,-0.010577542707324,-0.4005018770694733,58.1334228515625,99.97836303710938,-4.466842651367188
221707,-0.185333251953125,0.998779296875,-0.1621551513671875,-0.1844201683998108,-0.010577542707324,-0.4005018770694733,58.1334228515625,99.97836303710938,-4.466842651367188
221708,-0.068206787109375,0.99945068359375,-0.32073974609375,-0.2738502025604248,0.2085436284542084,-0.2417559027671814,57.56399536132812,99.94764709472656,-3.867019653320312
221709,-0.013519287109375,1.089813232421875,-0.3941497802734375,-0.2738502025604248,0.2085436284542084,-0.2417559027671814,57.0655517578125,100.1718902587891,-3.785598754882812
221710,0.001434326171875,1.177230834960938,-0.43792724609375,-0.3259717226028442,0.1713014394044876,-0.2017243355512619,56.81581115722656,100.2390594482422,-3.530120849609375
221711,-0.033538818359375,1.274032592773438,-0.4762420654296875,-0.3285430073738098,0.0585354827344417,-0.141999214887619,56.615966796875,100.2605133056641,-3.371078491210938
221712,-0.0734710693359375,1.333145141601562,-0.552459716796875,-0.2164814323186874,-0.0034083134960383,-0.0594611950218677,56.40339660644531,100.237060546875,-2.99560546875
221713,-0.0629119873046875,1.323089599609375,-0.648040771484375,0.3197194039821625,0.1995828896760941,0.2339893281459808,56.3028564453125,100.1817169189453,-2.78509521484375
221714,-0.00067138671875,1.288665771484375,-0.7209930419921875,0.3197194039821625,0.1995828896760941,0.2339893281459808,56.34785461425781,100.0439910888672,-2.616790771484375
221715,0.067657470703125,1.260513305664062,-0.739501953125,0.5696427226066589,0.393910825252533,0.3924258351325989,56.41571044921875,100.0293579101562,-2.649627685546875
221716,0.1265106201171875,1.240631103515625,-0.71820068359375,0.7162659764289856,0.5358943343162537,0.4911534786224365,56.5599365234375,100.0727233886719,-2.834091186523438
221717,0.157073974609375,1.232147216796875,-0.676513671875,0.7886117696762085,0.6092582941055298,0.5169640183448792,56.69309997558594,99.92512512207033,-3.060317993164062
221718,0.1573486328125,1.201263427734375,-0.6215057373046875,0.8328439593315125,0.6010347008705139,0.5227465629577637,56.89164733886719,99.98786926269533,-3.421401977539062
221719,0.152130126953125,1.166946411132812,-0.5686492919921875,0.8938684463500977,0.5781472325325012,0.502034068107605,57.15438842773438,100.1424865722656,-3.801300048828125
221720,0.1422882080078125,1.124710083007812,-0.520355224609375,0.940837562084198,0.5318660140037537,0.4506726264953613,57.40231323242188,100.1815948486328,-4.165374755859375
221721,0.1170654296875,1.106979370117188,-0.444610595703125,0.8980682492256165,0.5168772339820862,0.3802538514137268,57.63006591796875,100.2361297607422,-4.655136108398438
221722,0.07171630859375,1.08123779296875,-0.3762054443359375,0.742758572101593,0.5024889707565308,0.2898938655853271,57.70246887207031,100.342041015625,-4.973312377929688
221723,0.019439697265625,1.010940551757812,-0.338470458984375,0.5465807914733887,0.4232223629951477,0.1958912163972855,57.92279052734375,100.5983581542969,-5.5872802734375
221724,-0.02630615234375,0.9344024658203124,-0.304443359375,0.3533207774162292,0.2368162721395493,0.1222193837165833,57.99879455566406,100.6749267578125,-5.935562133789062
221725,-0.0529022216796875,0.9060516357421876,-0.21319580078125,0.1807796359062195,-0.0129195265471935,0.0847292691469192,58.12611389160156,100.6759033203125,-6.231033325195312
221726,-0.060699462890625,0.9020843505859376,-0.0800933837890625,0.0578952580690383,-0.201887845993042,0.0837044864892959,58.28123474121094,100.6260528564453,-6.380325317382812
221727,-0.0555419921875,0.901519775390625,0.0254669189453125,0.0068581723608076,-0.2804713547229767,0.1276229321956635,58.42802429199219,100.6493530273438,-6.334823608398438
