time_idx,accelerometerAccelerationX(G),accelerometerAccelerationY(G),accelerometerAccelerationZ(G),gyroRotationX(rad/s),gyroRotationY(rad/s),gyroRotationZ(rad/s),magnetometerX(µT),magnetometerY(µT),magnetometerZ(µT)
261973,0.0142822265625,0.3205108642578125,-0.30419921875,-0.4291295111179352,-1.173509955406189,-0.0811577066779136,43.57992553710938,92.43435668945312,-45.44255065917969
261974,0.03924560546875,0.5405120849609375,-0.1045074462890625,-0.2176971733570099,-1.391575932502747,-0.168469175696373,43.57994079589844,92.73289489746094,-44.94810485839844
261975,0.03924560546875,0.5405120849609375,-0.1045074462890625,-0.2176971733570099,-1.391575932502747,-0.168469175696373,43.57994079589844,92.73289489746094,-44.94810485839844
261976,0.0020751953125,1.71435546875,-0.175933837890625,0.1553949117660522,-1.132710576057434,0.5227042436599731,42.33303833007812,93.22927856445312,-44.61347961425781
261977,-0.1934661865234375,2.298965454101562,-0.2064056396484375,-0.0944796353578567,-0.5323818922042847,-0.5163776278495789,41.47772216796875,93.46498107910156,-44.54853820800781
261978,-0.6041717529296875,2.366607666015625,-0.30413818359375,-0.0944796353578567,-0.5323818922042847,-0.5163776278495789,40.77180480957031,93.6867218017578,-44.32841491699219
261979,-0.6041717529296875,2.366607666015625,-0.30413818359375,-0.0944796353578567,-0.5323818922042847,-0.5163776278495789,40.77180480957031,93.6867218017578,-44.32841491699219
261980,-0.6224822998046875,1.328536987304688,0.0145111083984375,-0.4222782850265503,-1.245768666267395,-1.443898320198059,40.07633972167969,93.90069580078124,-44.46810913085938
261981,-0.655426025390625,1.182235717773438,0.1344451904296875,-0.633978009223938,-1.148298382759094,-1.27154541015625,39.61233520507812,93.92984008789062,-44.42961120605469
261982,-0.7197418212890625,1.172592163085938,0.19268798828125,-0.7665331363677979,-0.7994269132614136,-1.147331833839417,38.89138793945312,93.86651611328124,-44.37789916992188
261983,-0.7654876708984375,1.10845947265625,0.237762451171875,-0.7908285856246948,-0.3581368327140808,-1.145412802696228,38.20243835449219,93.95597839355467,-44.10035705566406
261984,-0.79986572265625,0.964111328125,0.291046142578125,-0.75360107421875,0.0924031659960746,-1.236003637313843,37.72335815429688,94.11358642578124,-43.88482666015625
261985,-0.881317138671875,0.7604522705078125,0.3078765869140625,-0.5953693389892578,0.3222938776016235,-1.263621211051941,37.23362731933594,94.28172302246094,-43.59300231933594
261986,-0.8855438232421875,0.3433074951171875,0.2555389404296875,-0.0687234029173851,-0.1319212764501572,-0.9487063884735109,36.81793212890625,94.44538879394533,-43.288818359375
261987,-0.8855438232421875,0.3433074951171875,0.2555389404296875,-0.0687234029173851,-0.1319212764501572,-0.9487063884735109,36.81793212890625,94.44538879394533,-43.288818359375
261988,-0.7198028564453125,0.2532958984375,0.2371063232421875,0.0533090271055698,-0.6534156203269958,-0.9399089217185974,36.65145874023438,94.37669372558594,-43.11387634277344
261989,-0.5550537109375,0.19000244140625,0.249725341796875,-0.0132244592532515,-1.148463726043701,-0.9377567768096924,36.4556884765625,94.30584716796876,-42.9898681640625
261990,-0.4079742431640625,0.129058837890625,0.26812744140625,-0.2686801850795746,-1.427944660186768,-0.8858435153961182,36.02035522460938,94.03973388671876,-43.0494384765625
261991,-0.4079742431640625,0.129058837890625,0.26812744140625,-0.2686801850795746,-1.427944660186768,-0.8858435153961182,36.02035522460938,94.03973388671876,-43.0494384765625
261992,-0.142242431640625,0.0901336669921875,0.173492431640625,-0.8586217761039734,-1.516961097717285,-0.694939374923706,34.70368957519531,93.81854248046876,-42.69073486328125
261993,-0.02734375,0.0907745361328125,-0.0024261474609375,-0.9919700026512146,-1.623764157295227,-0.5834810137748718,33.89744567871094,93.7726593017578,-42.25906372070312
261994,0.1131591796875,0.1388397216796875,-0.418731689453125,-0.8129323124885559,-2.169545412063599,-0.3446780145168304,33.12545776367188,93.59048461914062,-41.62332153320312
261995,0.1131591796875,0.1388397216796875,-0.418731689453125,-0.8129323124885559,-2.169545412063599,-0.3446780145168304,33.12545776367188,93.59048461914062,-41.62332153320312
261996,0.2221221923828125,0.46820068359375,-0.4927825927734375,0.1811870932579041,-3.964390277862549,0.5171853303909302,31.98774719238281,93.42315673828124,-40.08811950683594
261997,0.1560211181640625,0.7192840576171875,-0.061737060546875,-0.0199444126337766,-2.44453501701355,1.219010591506958,31.21878051757812,93.30989074707033,-39.20855712890625
261998,0.120330810546875,1.048721313476562,-0.3242034912109375,-0.1016563177108765,-0.6056073307991028,1.749612927436829,30.45034790039062,93.24403381347656,-38.51119995117188
261999,0.0855712890625,1.305404663085938,-0.60894775390625,0.1401621699333191,0.244866743683815,1.873424053192139,29.90104675292969,93.2258758544922,-37.89488220214844
262000,0.045745849609375,1.472183227539062,-0.6414031982421875,0.0107525130733847,0.5924351215362549,1.386459231376648,29.94151306152344,93.3519287109375,-37.45896911621094
262001,0.0137176513671875,1.565216064453125,-0.704925537109375,0.0107525130733847,0.5924351215362549,1.386459231376648,30.56021118164062,93.57899475097656,-37.20613098144531
262002,-0.081085205078125,1.627365112304688,-0.73699951171875,-0.1874426007270813,0.2483480274677277,1.049635887145996,31.35636901855469,93.6704559326172,-37.26507568359375
262003,-0.2193145751953125,1.566177368164062,-0.6312255859375,-0.2060828655958176,-0.1343080103397369,0.7796513438224792,32.1671142578125,93.78791809082033,-37.23393249511719
262004,-0.2560882568359375,1.3953857421875,-0.519927978515625,-0.0665784925222396,-0.2554394900798798,0.6590197086334229,32.88552856445312,93.86848449707033,-37.30953979492188
262005,-0.1550445556640625,1.16119384765625,-0.50543212890625,0.5512410402297974,0.4275039434432983,0.5554203391075134,33.35150146484375,94.01498413085938,-37.34579467773438
262006,-0.0099639892578125,0.92913818359375,-0.607513427734375,0.822871744632721,0.8644328117370605,0.4240157306194305,33.75482177734375,94.09951782226562,-37.29701232910156
262007,0.018280029296875,0.7961273193359375,-0.7447662353515625,0.822871744632721,0.8644328117370605,0.4240157306194305,33.93043518066406,94.13217163085938,-37.29977416992188
262008,-0.0064697265625,0.745147705078125,-0.92974853515625,0.807844340801239,1.056124448776245,0.2474135160446167,34.36430358886719,94.150146484375,-37.48040771484375
262009,-0.1139678955078125,0.818206787109375,-1.126083374023438,0.5639704465866089,0.8746926188468933,0.2286856472492218,34.71920776367188,94.11921691894533,-37.76618957519531
262010,-0.2335357666015625,1.039382934570312,-1.166366577148438,0.2728008925914764,0.6632245779037476,0.3619835078716278,35.0927734375,93.89363098144533,-38.22198486328125
262011,-0.2335357666015625,1.039382934570312,-1.166366577148438,0.2728008925914764,0.6632245779037476,0.3619835078716278,35.0927734375,93.89363098144533,-38.22198486328125
262012,-0.298126220703125,1.513900756835938,-1.054046630859375,0.0137397805228829,0.9422264099121094,0.4241597950458527,36.04949951171875,93.61965942382812,-39.25706481933594
262013,-0.3120574951171875,1.630477905273438,-1.098587036132812,0.0854496508836746,0.9650278091430664,0.3939592838287354,36.2279052734375,93.6928253173828,-39.34262084960938
262014,-0.2984771728515625,1.752410888671875,-1.067733764648438,0.1587715446949005,0.8859761357307434,0.3494749069213867,36.47897338867188,93.75212097167967,-39.50534057617188
262015,-0.2984771728515625,1.752410888671875,-1.067733764648438,0.1587715446949005,0.8859761357307434,0.3494749069213867,36.47897338867188,93.75212097167967,-39.50534057617188
262016,-0.2856903076171875,2.14276123046875,-0.9741363525390624,0.0395300984382629,0.8705671429634094,0.2032676339149475,36.85386657714844,93.88758850097656,-39.79574584960938
262017,-0.2856903076171875,2.14276123046875,-0.9741363525390624,0.0395300984382629,0.8705671429634094,0.2032676339149475,36.85386657714844,93.88758850097656,-39.79574584960938
262018,-0.3073272705078125,2.29852294921875,-0.857879638671875,-0.113351859152317,0.7652130126953125,0.0739224255084991,36.93954467773438,93.89274597167967,-39.89509582519531
262019,-0.377655029296875,2.351669311523438,-0.696563720703125,-0.2401737123727798,0.572858452796936,-0.0448899753391742,37.03988647460938,93.9785614013672,-39.98373413085938
262020,-0.4781494140625,2.16119384765625,-0.4445648193359375,-0.1011388674378395,0.0363239198923111,-0.2385806143283844,37.08074951171875,94.22683715820312,-39.97554016113281
262021,-0.4822845458984375,1.900421142578125,-0.370574951171875,0.1985200196504593,-0.1234236657619476,-0.0950154587626457,37.04721069335938,94.33097839355467,-39.97195434570312
262022,-0.45245361328125,1.662384033203125,-0.2921905517578125,0.5209212303161621,-0.1625705361366272,0.0724326521158218,36.89427185058594,94.5015869140625,-40.10148620605469
262023,-0.45245361328125,1.662384033203125,-0.2921905517578125,0.5209212303161621,-0.1625705361366272,0.0724326521158218,36.89427185058594,94.5015869140625,-40.10148620605469
262024,-0.4375457763671875,1.463333129882812,-0.1563720703125,0.8733471632003784,0.0571000389754772,0.0518083348870277,36.78680419921875,94.53450012207033,-40.59823608398438
262025,-0.610565185546875,1.602920532226562,-0.0748291015625,0.7789605259895325,0.0914827808737754,-0.106229767203331,36.83303833007812,94.57508850097656,-41.0059814453125
262026,-0.800689697265625,1.734283447265625,0.0810546875,0.4893949925899506,0.2501866817474365,-0.2864546775817871,37.08717346191406,94.3744659423828,-41.49452209472656
262027,-0.800689697265625,1.734283447265625,0.0810546875,0.4893949925899506,0.2501866817474365,-0.2864546775817871,37.08717346191406,94.3744659423828,-41.49452209472656
262028,-0.9586334228515624,1.440841674804688,0.2249908447265625,0.4537038505077362,0.2856786251068115,-0.2692700922489166,37.64335632324219,94.01292419433594,-42.09724426269531
262029,-1.0303955078125,1.067367553710938,0.23919677734375,0.8475792407989502,-0.021412082016468,0.0148846739903092,37.97930908203125,93.73200988769533,-42.38059997558594
262030,-0.96124267578125,0.769744873046875,0.147552490234375,1.107276558876038,-0.2848373353481293,0.3331047296524048,38.26884460449219,93.58210754394533,-42.74879455566406
262031,-0.96124267578125,0.769744873046875,0.147552490234375,1.107276558876038,-0.2848373353481293,0.3331047296524048,38.26884460449219,93.58210754394533,-42.74879455566406
262032,-0.506011962890625,0.5859222412109375,0.1056060791015625,0.8207659721374512,-0.5958577990531921,0.4882844686508179,38.38566589355469,93.12222290039062,-43.58226013183594
262033,-0.4084625244140625,0.628173828125,0.314361572265625,0.471022367477417,-0.1190747246146202,0.4507160484790802,38.38003540039062,93.05203247070312,-43.98086547851562
262034,-0.410552978515625,0.7137298583984375,0.4084625244140625,0.2368162721395493,0.6442407965660095,0.4528684020042419,38.27212524414062,93.03646850585938,-44.18545532226562
262035,-0.410552978515625,0.7137298583984375,0.4084625244140625,0.2368162721395493,0.6442407965660095,0.4528684020042419,38.27212524414062,93.03646850585938,-44.18545532226562
262036,-0.51953125,0.8472137451171875,0.3127593994140625,0.3164154887199402,1.30741024017334,0.349414736032486,38.70852661132812,93.031005859375,-44.67611694335938
262037,-0.5523681640625,0.7959747314453125,0.2823486328125,0.3701221346855164,1.306033372879028,0.2738437950611115,39.23216247558594,93.02745056152344,-44.98431396484375
262038,-0.547210693359375,0.711334228515625,0.257598876953125,0.2448305189609528,1.009631752967834,0.0887477099895477,39.65882873535156,93.12277221679688,-45.24278259277344
262039,-0.547210693359375,0.711334228515625,0.257598876953125,0.2448305189609528,1.009631752967834,0.0887477099895477,39.65882873535156,93.12277221679688,-45.24278259277344
262040,-0.47882080078125,0.460968017578125,0.1691741943359375,0.1546263247728348,0.7852482199668884,0.0282574705779552,40.4127197265625,93.11663818359376,-45.72966003417969
262041,-0.425048828125,0.3553466796875,0.1168975830078125,0.1144083365797997,0.5109421014785767,-0.0249793864786624,40.716796875,93.16221618652344,-45.91624450683594
262042,-0.3615264892578125,0.2834320068359375,0.1365966796875,0.1149388328194618,0.2828612625598907,-0.1214768961071968,41.00675964355469,92.9740753173828,-45.94477844238281
262043,-0.3615264892578125,0.2834320068359375,0.1365966796875,0.1149388328194618,0.2828612625598907,-0.1214768961071968,41.00675964355469,92.9740753173828,-45.94477844238281
262044,-0.24786376953125,0.171875,0.1782379150390625,0.0738396048545837,0.1724764257669449,-0.3051532506942749,41.12857055664062,92.98397827148438,-45.97770690917969
262045,-0.2044219970703125,0.1143035888671875,0.1740875244140625,0.010210826061666,0.1839804947376251,-0.3628149628639221,41.18598937988281,92.79904174804688,-46.11373901367188
262046,-0.1724853515625,0.0720977783203125,0.1574249267578125,-0.077863372862339,0.196992963552475,-0.4159593880176544,41.2030029296875,92.6783447265625,-46.06584167480469
262047,-0.1724853515625,0.0720977783203125,0.1574249267578125,-0.077863372862339,0.196992963552475,-0.4159593880176544,41.2030029296875,92.6783447265625,-46.06584167480469
262048,-0.142333984375,0.0099639892578125,0.10919189453125,-0.317924976348877,0.0768292695283889,-0.511371374130249,41.31120300292969,92.60299682617188,-46.04307556152344
262049,-0.15484619140625,-0.0012664794921875,0.0876922607421875,-0.460186243057251,0.0324117355048656,-0.5424981713294983,41.19525146484375,92.54324340820312,-45.79627990722656
262050,-0.2657623291015625,0.1773834228515625,0.101287841796875,-0.9021657705307008,-0.0531449764966964,-0.407698005437851,41.02642822265625,92.4538116455078,-45.46797180175781
262051,-0.2657623291015625,0.1773834228515625,0.101287841796875,-0.9021657705307008,-0.0531449764966964,-0.407698005437851,41.02642822265625,92.4538116455078,-45.46797180175781
262052,-0.35919189453125,0.3448028564453125,0.1723480224609375,-1.118445038795471,0.03880625218153,-0.4841006398200989,40.95339965820312,92.51507568359376,-45.14872741699219
262053,-0.35919189453125,0.3448028564453125,0.1723480224609375,-1.118445038795471,0.03880625218153,-0.4841006398200989,40.95339965820312,92.51507568359376,-45.14872741699219
262054,-0.553924560546875,0.6796112060546875,0.1545257568359375,-1.352877855300903,-0.0121208447962999,-0.6233392357826233,40.59565734863281,92.91842651367188,-44.35203552246094
262055,-0.652313232421875,0.834686279296875,0.0427703857421875,-1.528280854225159,-0.2952742576599121,-0.7978907823562622,40.373046875,93.14414978027344,-43.81936645507812
262056,-0.7178497314453125,0.9385833740234376,-0.0272064208984375,-1.620662093162537,-0.7559430599212646,-0.9598575830459596,39.98323059082031,93.43508911132812,-43.2467041015625
262057,-0.7178497314453125,0.9385833740234376,-0.0272064208984375,-1.620662093162537,-0.7559430599212646,-0.9598575830459596,39.98323059082031,93.43508911132812,-43.2467041015625
262058,-0.7025604248046875,0.953094482421875,0.18218994140625,-1.657058238983154,-1.008508682250977,-1.143148064613342,38.56040954589844,94.56021118164062,-42.16908264160156
262059,-0.7025604248046875,0.953094482421875,0.18218994140625,-1.657058238983154,-1.008508682250977,-1.143148064613342,38.56040954589844,94.56021118164062,-42.16908264160156
262060,-0.55401611328125,0.7794189453125,0.4072113037109375,-1.314212679862976,-0.2794433534145355,-1.295449733734131,36.70162963867188,95.49787902832033,-40.79214477539062
262061,-0.55401611328125,0.7794189453125,0.4072113037109375,-1.314212679862976,-0.2794433534145355,-1.295449733734131,36.70162963867188,95.49787902832033,-40.79214477539062
262062,-0.4871673583984375,0.6699981689453125,0.38824462890625,-1.034096598625183,-0.0191289540380239,-1.371584177017212,35.97312927246094,95.84072875976562,-39.9520263671875
262063,-0.458343505859375,0.4224090576171875,0.3019561767578125,-0.6944363117218018,0.2165078073740005,-1.323930859565735,34.72442626953125,96.199951171875,-39.07594299316406
262064,-0.4125518798828125,0.3280792236328125,0.1955413818359375,-0.7361065149307251,0.3298287689685822,-1.217119455337524,34.15440368652344,96.07717895507812,-38.78839111328125
262065,-0.33740234375,0.2354736328125,-0.018951416015625,-0.7708461284637451,0.1594583690166473,-1.119849324226379,33.69215393066406,96.1536102294922,-38.56318664550781
262066,-0.2284698486328125,0.14398193359375,-0.28656005859375,-0.7306840419769287,-0.4481143951416016,-1.007936716079712,33.31971740722656,96.1085968017578,-38.34120178222656
262067,-0.2284698486328125,0.14398193359375,-0.28656005859375,-0.7306840419769287,-0.4481143951416016,-1.007936716079712,33.31971740722656,96.1085968017578,-38.34120178222656
262068,-0.00439453125,0.169525146484375,-0.356658935546875,-0.8180892467498779,-1.663787722587585,-0.8878046870231628,32.43031311035156,96.00837707519533,-37.69789123535156
262069,0.065338134765625,0.1699981689453125,-0.2902679443359375,-0.8964424133300781,-2.095353364944458,-0.8407580852508545,31.98307800292969,95.96096801757812,-37.17155456542969
262070,0.210968017578125,0.0711517333984375,-0.35736083984375,-1.02379584312439,-3.231900215148926,-0.2845108211040497,30.69557189941406,95.58314514160156,-35.40684509277344
262071,0.210968017578125,0.0711517333984375,-0.35736083984375,-1.02379584312439,-3.231900215148926,-0.2845108211040497,30.69557189941406,95.58314514160156,-35.40684509277344
262072,0.289794921875,0.0096435546875,-0.4572601318359375,-0.9722556471824646,-4.087104320526123,0.2201384902000427,30.00192260742188,95.5399169921875,-34.1435546875
262073,0.4416046142578125,0.05853271484375,-0.4487152099609375,-0.6957228779792786,-4.741175651550293,0.8209792971611023,29.15089416503906,95.51148986816406,-32.83828735351562
262074,0.6519927978515625,0.251251220703125,-0.2888336181640625,-0.6503481864929199,-3.286269903182983,1.3349769115448,28.14370727539062,95.7163543701172,-31.40158081054688
262075,0.6519927978515625,0.251251220703125,-0.2888336181640625,-0.6503481864929199,-3.286269903182983,1.3349769115448,28.14370727539062,95.7163543701172,-31.40158081054688
262076,0.4148406982421875,0.856842041015625,-0.41290283203125,-0.0434619896113872,-0.0684251263737678,2.00939416885376,27.62315368652344,96.10671997070312,-28.55305480957031
262077,0.2594146728515625,1.190536499023438,-0.4182891845703125,0.1934703886508942,0.4614320695400238,2.056447982788086,28.19337463378906,96.35415649414062,-27.7078857421875
262078,0.0896759033203125,1.51080322265625,-0.57940673828125,0.2074186950922012,-0.1306014209985733,1.451778054237366,29.12979125976562,96.77037048339844,-27.36172485351562
262079,-0.119110107421875,1.864883422851562,-0.8721160888671875,0.2074186950922012,-0.1306014209985733,1.451778054237366,30.10417175292969,96.97712707519533,-27.1396484375
262080,-0.2882232666015625,2.1278076171875,-0.8029632568359375,0.4960339963436127,-0.1387778520584106,0.8045598864555359,31.08750915527344,97.03865051269533,-27.11788940429688
262081,-0.3958587646484375,2.360733032226562,-0.383575439453125,0.4960339963436127,-0.1387778520584106,0.8045598864555359,31.5792236328125,97.2218780517578,-27.13250732421875
262082,-0.5347747802734375,2.575347900390625,-0.13861083984375,0.6914710998535156,0.9486541748046876,0.42984539270401,31.92193603515625,97.31637573242188,-27.20458984375
262083,-0.5347747802734375,2.575347900390625,-0.13861083984375,0.6914710998535156,0.9486541748046876,0.42984539270401,31.92193603515625,97.31637573242188,-27.20458984375
262084,-0.8568115234375,2.779571533203125,-0.6175079345703125,1.067233085632324,1.740469813346863,-0.6724862456321716,32.20620727539062,97.30538940429688,-28.02391052246094
262085,-0.9700927734375,2.68255615234375,-0.6730804443359375,0.753383219242096,1.465320706367493,-0.7538016438484192,32.25180053710938,97.1323699951172,-29.04142761230469
262086,-1.077682495117188,2.540023803710938,-0.4195098876953125,0.0895392000675201,1.609792709350586,-0.3388819098472595,32.12002563476562,96.96183776855467,-30.10023498535156
262087,-1.077682495117188,2.540023803710938,-0.4195098876953125,0.0895392000675201,1.609792709350586,-0.3388819098472595,32.12002563476562,96.96183776855467,-30.10023498535156
262088,-1.156784057617188,2.597259521484375,-0.1416473388671875,-0.0493648871779441,1.768298745155334,0.3591560423374176,32.14567565917969,96.81790161132812,-31.81559753417969
262089,-1.156784057617188,2.597259521484375,-0.1416473388671875,-0.0493648871779441,1.768298745155334,0.3591560423374176,32.14567565917969,96.81790161132812,-31.81559753417969
262090,-1.335525512695312,2.678970336914062,-0.159027099609375,1.369006752967834,1.410458087921143,0.3328040540218353,32.82937622070312,97.04695129394533,-32.58578491210938
262091,-1.335525512695312,2.678970336914062,-0.159027099609375,1.369006752967834,1.410458087921143,0.3328040540218353,32.82937622070312,97.04695129394533,-32.58578491210938
262092,-1.23687744140625,2.205307006835938,-0.3350067138671875,1.576321840286255,1.727376818656921,0.3598090410232544,33.3489990234375,97.15023803710938,-34.07179260253906
262093,-1.0289306640625,1.752197265625,-0.275360107421875,1.429311871528625,1.666460752487183,0.4411560893058777,33.66751098632812,97.10809326171876,-35.10942077636719
262094,-0.977386474609375,1.427871704101562,-0.18914794921875,1.319915056228638,1.472801327705383,0.6386380195617676,34.13430786132812,96.81056213378906,-36.33053588867188
262095,-0.977386474609375,1.427871704101562,-0.18914794921875,1.319915056228638,1.472801327705383,0.6386380195617676,34.13430786132812,96.81056213378906,-36.33053588867188
262096,-1.000686645507812,1.100921630859375,-0.0676116943359375,1.247593998908997,0.9312368631362916,0.8149200677871704,35.416259765625,96.5217742919922,-38.15689086914062
262097,-1.035064697265625,1.054122924804688,0.0427093505859375,1.215126872062683,0.7734019756317139,0.7481809854507446,36.10400390625,96.45794677734376,-38.92790222167969
262098,-1.016876220703125,0.9854278564453124,0.127197265625,1.177860975265503,0.7455500960350037,0.6016456484794617,36.7772216796875,96.30307006835938,-39.78646850585938
262099,-0.92529296875,0.8688201904296875,0.1712493896484375,1.176577925682068,0.7581015825271606,0.4716775119304657,37.3316650390625,96.09298706054688,-40.52290344238281
262100,-0.7807464599609375,0.7395782470703125,0.2264251708984375,1.163337230682373,0.936809241771698,0.3469547629356384,37.89265441894531,95.81723022460938,-40.99107360839844
262101,-0.6231842041015625,0.6211090087890625,0.283843994140625,1.163337230682373,0.936809241771698,0.3469547629356384,38.40579223632812,95.490478515625,-41.56179809570312
262102,-0.4685821533203125,0.53192138671875,0.3123321533203125,1.064388513565063,1.20389187335968,0.249589592218399,38.91534423828125,95.2073211669922,-42.13153076171875
262103,-0.3369598388671875,0.4604034423828125,0.27606201171875,1.064388513565063,1.20389187335968,0.249589592218399,39.44218444824219,94.86009216308594,-42.61410522460938
262104,-0.2215728759765625,0.4056549072265625,0.1634979248046875,0.930974543094635,1.152411103248596,0.2090738564729691,39.990478515625,94.59017944335938,-43.08869934082031
262105,-0.140899658203125,0.396087646484375,0.0589599609375,0.7913101315498352,0.876213550567627,0.1690417528152466,40.47712707519531,94.28863525390624,-43.65585327148438
262106,-0.1055450439453125,0.4531097412109375,-0.0044708251953125,0.6154325604438782,-0.0271408073604106,-0.082409918308258,40.87722778320312,94.1204071044922,-44.18267822265625
262107,-0.1213531494140625,0.5453338623046875,-0.0247802734375,0.6154325604438782,-0.0271408073604106,-0.082409918308258,41.16075134277344,93.85330200195312,-44.56294250488281
262108,-0.1806640625,0.56793212890625,-0.006622314453125,0.5714483261108398,-0.3727528154850006,-0.1935777217149734,41.35409545898438,93.56936645507812,-44.80047607421875
262109,-0.2186431884765625,0.532073974609375,0.0049591064453125,0.524963915348053,-0.5267652869224548,-0.1917228251695633,41.28392028808594,93.4117431640625,-44.96437072753906
262110,-0.205322265625,0.4442138671875,0.016021728515625,0.491344153881073,-0.5390557646751404,-0.1694044768810272,41.2371826171875,93.20748901367188,-45.17991638183594
262111,-0.189666748046875,0.3462982177734375,0.038787841796875,0.4729148149490356,-0.4241145253181458,-0.1284716874361038,40.99882507324219,93.12483215332033,-45.24241638183594
262112,-0.18084716796875,0.2917633056640625,0.037017822265625,0.464668869972229,-0.2850402593612671,-0.1029133349657059,40.78578186035156,92.90565490722656,-45.39230346679688
262113,-0.1972808837890625,0.2683563232421875,0.039794921875,0.4356611967086792,-0.1744865775108337,-0.090140014886856,40.75068664550781,92.7260284423828,-45.57496643066406
262114,-0.2081756591796875,0.267242431640625,0.0535736083984375,0.1998510658740997,-0.0999215394258499,-0.0837154015898704,40.68913269042969,92.55958557128906,-45.71611022949219
262115,-0.2081756591796875,0.267242431640625,0.0535736083984375,0.1998510658740997,-0.0999215394258499,-0.0837154015898704,40.68913269042969,92.55958557128906,-45.71611022949219
262116,-0.262908935546875,0.3313446044921875,0.184783935546875,0.0051164650358259,-0.056353285908699,-0.1304565370082855,40.65780639648438,92.29759216308594,-45.98756408691406
262117,-0.2872161865234375,0.38592529296875,0.30230712890625,-0.4378204941749573,0.2236312329769135,-0.2993366420269012,40.65638732910156,92.35588073730467,-46.15501403808594
262118,-0.33355712890625,0.463897705078125,0.439178466796875,-0.4378204941749573,0.2236312329769135,-0.2993366420269012,40.60107421875,92.34893798828124,-46.09297180175781
262119,-0.4372100830078125,0.565887451171875,0.5144805908203125,-0.6432855129241943,0.4383352696895599,-0.4211629331111908,40.60664367675781,92.47750854492188,-45.92176818847656
262120,-0.5552978515625,0.6602325439453125,0.4912567138671875,-0.8058464527130127,0.4806795418262482,-0.5468276739120483,40.54801940917969,92.63153076171876,-45.77259826660156
262121,-0.6651611328125,0.699859619140625,0.4249725341796875,-0.9444743394851683,0.2567516267299652,-0.6568710803985596,40.39544677734375,92.90159606933594,-45.68995666503906
262122,-0.760101318359375,0.6822052001953125,0.370880126953125,-1.144941687583923,-0.6339947581291199,-1.008844017982483,40.29972839355469,93.34539794921876,-45.45283508300781
262123,-0.840911865234375,0.6430511474609375,0.3282623291015625,-1.144941687583923,-0.6339947581291199,-1.008844017982483,40.04078674316406,93.74371337890624,-45.10249328613281
262124,-0.8763427734375,0.562347412109375,0.2788543701171875,-1.178083658218384,-1.063028931617737,-1.179769992828369,39.70661926269531,93.95002746582033,-44.567138671875
262125,-0.8763427734375,0.562347412109375,0.2788543701171875,-1.178083658218384,-1.063028931617737,-1.179769992828369,39.70661926269531,93.95002746582033,-44.567138671875
262126,-0.53546142578125,0.1736297607421875,0.198394775390625,-0.8859604597091675,-2.053189277648926,-1.122516274452209,37.59124755859375,94.82698059082033,-42.89759826660156
262127,-0.53546142578125,0.1736297607421875,0.198394775390625,-0.8859604597091675,-2.053189277648926,-1.122516274452209,37.59124755859375,94.82698059082033,-42.89759826660156
262128,-0.3868865966796875,0.128265380859375,0.040863037109375,-0.7296222448348999,-2.239398241043091,-0.9614775776863098,36.70359802246094,94.88575744628906,-42.13252258300781
262129,-0.2400665283203125,0.0879058837890625,-0.18194580078125,-0.5442513227462769,-2.607645034790039,-0.7532663345336914,35.72840881347656,95.02520751953124,-41.53414916992188
262130,-0.0992431640625,0.040130615234375,-0.3138885498046875,-0.4515040814876556,-2.831402063369751,-0.4753012657165527,34.77207946777344,95.01017761230467,-41.01319885253906
262131,-0.002960205078125,-0.0243988037109375,-0.382080078125,-0.5478383302688599,-2.521891117095947,-0.1065125912427902,33.89190673828125,94.91700744628906,-40.263671875
262132,0.0914154052734375,-0.06982421875,-0.45458984375,-0.6447068452835083,-1.860141038894653,0.3362174332141876,33.11526489257812,94.759765625,-39.66972351074219
262133,0.1881103515625,-0.0197906494140625,-0.4413909912109375,-0.6071746349334717,-1.233346104621887,0.7873683571815491,32.54704284667969,94.64105224609376,-39.09950256347656
262134,0.202911376953125,0.09844970703125,-0.337066650390625,-0.5523409247398376,-0.7823741436004639,1.045440077781677,32.13104248046875,94.80972290039062,-38.26362609863281
262135,0.202911376953125,0.09844970703125,-0.337066650390625,-0.5523409247398376,-0.7823741436004639,1.045440077781677,32.13104248046875,94.80972290039062,-38.26362609863281
262136,0.198333740234375,0.2418670654296875,-0.334259033203125,-0.4410058856010437,-0.7182537317276001,1.095522165298462,32.1541748046875,95.08143615722656,-37.05439758300781
262137,0.198333740234375,0.2418670654296875,-0.334259033203125,-0.4410058856010437,-0.7182537317276001,1.095522165298462,32.1541748046875,95.08143615722656,-37.05439758300781
262138,0.23284912109375,0.3019866943359375,-0.3468475341796875,-0.3145097494125366,-0.919260323047638,1.089313268661499,32.35758972167969,95.32046508789062,-36.50167846679688
262139,0.2953643798828125,0.65765380859375,-0.4267730712890625,-0.0498208180069923,-1.003662586212158,1.240492224693298,32.97261047363281,95.69308471679688,-35.50425720214844
262140,0.2877960205078125,0.91845703125,-0.4747467041015625,0.0442239195108413,-0.5146079659461975,0.9331279397010804,33.09452819824219,95.7926788330078,-35.01158142089844
262141,0.2404022216796875,1.065231323242188,-0.502960205078125,0.0442239195108413,-0.5146079659461975,0.9331279397010804,33.44366455078125,95.94499206542967,-34.59475708007812
262142,0.1266021728515625,1.10723876953125,-0.6027984619140625,-0.0279149878770113,-0.3262076675891876,0.6604453325271606,33.74185180664062,95.91357421875,-34.30996704101562
262143,0.1266021728515625,1.10723876953125,-0.6027984619140625,-0.0279149878770113,-0.3262076675891876,0.6604453325271606,33.74185180664062,95.91357421875,-34.30996704101562
262144,-0.2095184326171875,1.290435791015625,-0.9053497314453124,-0.0848448500037193,0.062917448580265,0.6717368364334106,34.46881103515625,96.0437469482422,-33.8360595703125
262145,-0.29815673828125,1.578048706054688,-0.94085693359375,-0.017992315813899,0.4799578189849854,0.7121484279632568,34.64569091796875,96.0977020263672,-33.583740234375
262146,-0.3429718017578125,1.843719482421875,-0.875,0.1265912353992462,0.7323671579360962,0.5645464658737183,34.78347778320312,96.1386260986328,-33.47930908203125
262147,-0.3429718017578125,1.843719482421875,-0.875,0.1265912353992462,0.7323671579360962,0.5645464658737183,34.78347778320312,96.1386260986328,-33.47930908203125
262148,-0.3570404052734375,2.079940795898438,-0.639984130859375,0.6594703197479248,0.5201390385627747,-0.1453031301498413,35.5477294921875,96.07936096191406,-33.72639465332031
262149,-0.3570404052734375,2.079940795898438,-0.639984130859375,0.6594703197479248,0.5201390385627747,-0.1453031301498413,35.5477294921875,96.07936096191406,-33.72639465332031
262150,-0.1654510498046875,1.771774291992188,-0.3253021240234375,0.4844276607036591,1.29439902305603,0.2683765888214111,35.85929870605469,95.8864288330078,-34.26905822753906
262151,-0.0513763427734375,1.788619995117188,-0.4004364013671875,-0.1726918816566467,1.018169641494751,0.7937325239181519,35.98774719238281,95.8066864013672,-34.69947814941406
262152,-0.0335693359375,2.002960205078125,-0.3791961669921875,-0.2064415812492371,0.8608444333076477,0.7007604837417603,36.18833923339844,95.82980346679688,-35.20503234863281
262153,-0.0335693359375,2.002960205078125,-0.3791961669921875,-0.2064415812492371,0.8608444333076477,0.7007604837417603,36.18833923339844,95.82980346679688,-35.20503234863281
262154,-0.473419189453125,2.677093505859375,-0.157135009765625,-0.0265405308455228,0.8518503904342651,0.3653052747249603,37.16064453125,95.86628723144533,-35.6024169921875
262155,-0.7360992431640625,3.137252807617188,0.0403289794921875,0.2512572705745697,1.160096168518066,-0.2590675055980682,37.57000732421875,96.05064392089844,-35.71881103515625
262156,-1.027023315429688,3.575408935546875,0.1868133544921875,0.4881446361541748,1.853151798248291,-1.224234342575073,37.616455078125,96.3721923828125,-35.73471069335938
262157,-1.357192993164062,3.600677490234375,0.2451629638671875,0.4903747737407684,2.527540922164917,-2.208022594451904,37.58464050292969,96.53610229492188,-36.0274658203125
262158,-2.02862548828125,2.94061279296875,0.2987518310546875,0.1976169347763062,3.235934734344482,-2.202200412750244,37.24951171875,96.53262329101562,-36.84407043457031
262159,-2.02862548828125,2.94061279296875,0.2987518310546875,0.1976169347763062,3.235934734344482,-2.202200412750244,37.24951171875,96.53262329101562,-36.84407043457031
262160,-1.986236572265625,1.393692016601562,0.0560302734375,0.4443702697753906,2.754577159881592,0.0592279024422168,36.59288024902344,96.45423889160156,-39.1300048828125
262161,-1.986236572265625,1.393692016601562,0.0560302734375,0.4443702697753906,2.754577159881592,0.0592279024422168,36.59288024902344,96.45423889160156,-39.1300048828125
262162,-1.152313232421875,0.9571380615234376,0.3156890869140625,0.508608877658844,1.196670651435852,0.5148828029632568,37.87374877929688,96.43156433105467,-40.47999572753906
262163,-0.9329986572265624,0.86346435546875,0.236328125,0.2399681210517883,0.817038357257843,0.596542477607727,38.63372802734375,96.3685302734375,-41.14984130859375
262164,-0.7652587890625,0.7665863037109375,0.1529998779296875,0.124507836997509,0.3793465197086334,0.6134069561958313,39.19256591796875,96.30836486816406,-41.55323791503906
262165,-0.6417999267578125,0.652801513671875,0.0845794677734375,0.213766872882843,-0.036698892712593,0.578613817691803,39.62408447265625,96.18630981445312,-41.76698303222656
262166,-0.51324462890625,0.5707244873046875,0.037872314453125,0.4231067895889282,-0.3532163798809052,0.5061792731285095,40.06295776367188,96.09294128417967,-41.68939208984375
262167,-0.3786773681640625,0.5418701171875,0.0406646728515625,0.6555299162864685,-0.4929378032684326,0.3757115602493286,40.42999267578125,96.01168823242188,-41.79792785644531
262168,-0.249053955078125,0.541748046875,0.0226287841796875,0.8302119970321655,-0.494295746088028,0.1877549886703491,40.61068725585938,95.9054718017578,-41.95863342285156
262169,-0.1368865966796875,0.5548553466796875,-0.0003662109375,0.8893847465515137,-0.4530806541442871,-0.0055486960336565,40.80780029296875,95.71630859375,-41.99526977539062
262170,-0.040679931640625,0.5715789794921875,-0.009796142578125,0.8343425393104553,-0.359167218208313,-0.169665202498436,40.67839050292969,95.51597595214844,-42.27549743652344
262171,-0.040679931640625,0.5715789794921875,-0.009796142578125,0.8343425393104553,-0.359167218208313,-0.169665202498436,40.67839050292969,95.51597595214844,-42.27549743652344
262172,0.0544586181640625,0.659515380859375,-0.102081298828125,0.6175904870033264,-0.3917408585548401,-0.2680695354938507,40.44416809082031,94.78846740722656,-42.71366882324219
262173,-0.0219268798828125,0.730194091796875,-0.1577911376953125,0.592140257358551,-0.4570508897304535,-0.372503250837326,40.19194030761719,94.587646484375,-42.90342712402344
262174,-0.1775360107421875,0.6499786376953125,-0.1761474609375,0.6119853854179382,-0.4389824271202087,-0.5756899118423462,39.98719787597656,94.3729248046875,-42.94149780273438
262175,-0.1775360107421875,0.6499786376953125,-0.1761474609375,0.6119853854179382,-0.4389824271202087,-0.5756899118423462,39.98719787597656,94.3729248046875,-42.94149780273438
262176,-0.3707122802734375,0.360076904296875,-0.0986480712890625,0.6699261665344238,0.0121000725775957,-0.4098538160324097,39.33293151855469,93.97178649902344,-43.30787658691406
262177,-0.4021759033203125,0.30804443359375,-0.0660247802734375,0.7210918664932251,0.2112573832273483,-0.3035841286182404,38.85621643066406,93.90489196777344,-43.62484741210938
262178,-0.421661376953125,0.2852935791015625,-0.018310546875,0.6821386218070984,0.3646690547466278,-0.209191307425499,38.64241027832031,93.7215576171875,-43.90631103515625
262179,-0.421661376953125,0.2852935791015625,-0.018310546875,0.6821386218070984,0.3646690547466278,-0.209191307425499,38.64241027832031,93.7215576171875,-43.90631103515625
262180,-0.4479827880859375,0.2952728271484375,0.0626678466796875,0.2918571531772614,0.582573652267456,-0.2111449986696243,38.85359191894531,93.19972229003906,-44.81327819824219
262181,-0.4332427978515625,0.291961669921875,0.092437744140625,0.0386075787246227,0.6393898129463196,-0.2429713755846024,39.11470031738281,93.11790466308594,-45.08877563476562
262182,-0.40875244140625,0.2873077392578125,0.1648712158203125,-0.1954717636108398,0.7105798721313477,-0.2644124925136566,39.25971984863281,93.18109130859376,-45.31817626953125
262183,-0.40875244140625,0.2873077392578125,0.1648712158203125,-0.1954717636108398,0.7105798721313477,-0.2644124925136566,39.25971984863281,93.18109130859376,-45.31817626953125
262184,-0.40545654296875,0.36737060546875,0.3429412841796875,-0.3663274049758911,0.8069750666618347,-0.2533723413944244,39.72216796875,93.42489624023438,-45.28764343261719
262185,-0.4312896728515625,0.419769287109375,0.37347412109375,-0.3710145652294159,0.7886637449264526,-0.3361654877662659,39.92861938476562,93.4733428955078,-45.19960021972656
262186,-0.49407958984375,0.4439239501953125,0.3891754150390625,-0.3888137936592102,0.6298890113830566,-0.4452387094497681,40.11187744140625,93.56744384765624,-45.2918701171875
262187,-0.49407958984375,0.4439239501953125,0.3891754150390625,-0.3888137936592102,0.6298890113830566,-0.4452387094497681,40.11187744140625,93.56744384765624,-45.2918701171875
262188,-0.609771728515625,0.4427337646484375,0.40594482421875,-0.5189204216003418,0.125358447432518,-0.7361640334129333,40.19598388671875,93.94842529296876,-45.01736450195312
262189,-0.6101226806640625,0.36712646484375,0.392547607421875,-0.6367343664169312,-0.2070184350013733,-0.8630748391151428,40.03834533691406,94.24293518066406,-45.08146667480469
262190,-0.5637969970703125,0.2792816162109375,0.3607025146484375,-0.817998468875885,-0.4944741725921631,-0.9382731914520264,39.63386535644531,94.46395874023438,-44.94259643554688
262191,-0.5637969970703125,0.2792816162109375,0.3607025146484375,-0.817998468875885,-0.4944741725921631,-0.9382731914520264,39.63386535644531,94.46395874023438,-44.94259643554688
262192,-0.3777618408203125,0.18701171875,0.1934814453125,-1.142986416816711,-1.191065788269043,-0.9725763201713562,38.73503112792969,94.70413208007812,-44.26223754882812
262193,-0.3777618408203125,0.18701171875,0.1934814453125,-1.142986416816711,-1.191065788269043,-0.9725763201713562,38.73503112792969,94.70413208007812,-44.26223754882812
262194,-0.201263427734375,0.1929168701171875,0.0748291015625,-1.277050733566284,-1.977291345596313,-0.8042959570884705,37.34274291992188,95.1643524169922,-43.04246520996094
262195,-0.1488494873046875,0.2244720458984375,0.0542144775390625,-1.380619764328003,-2.244863986968994,-0.6633228659629822,36.55644226074219,95.38894653320312,-42.36236572265625
262196,-0.1036529541015625,0.2696685791015625,-0.01629638671875,-1.577543139457703,-2.288049221038818,-0.5183526277542114,35.65681457519531,95.431396484375,-41.45170593261719
262197,-0.0165557861328125,0.2802581787109375,-0.335968017578125,-1.70335066318512,-2.573024272918701,-0.381843239068985,34.758056640625,95.71670532226562,-40.62367248535156
262198,0.059783935546875,0.249755859375,-0.5805206298828125,-1.509767055511475,-3.169142961502075,-0.1573512703180313,33.87620544433594,95.99044799804688,-39.49815368652344
262199,0.059783935546875,0.249755859375,-0.5805206298828125,-1.509767055511475,-3.169142961502075,-0.1573512703180313,33.87620544433594,95.99044799804688,-39.49815368652344
262200,-0.009735107421875,0.2755279541015625,-0.053466796875,-0.6005588173866272,-2.103901624679565,0.1242324709892273,32.26997375488281,96.51667785644533,-36.97695922851562
262201,0.0057830810546875,0.3026275634765625,-0.0934906005859375,-0.2579055726528168,-0.6738090515136719,0.1198643520474434,31.51055908203125,96.81907653808594,-35.97511291503906
262202,0.04266357421875,0.3391571044921875,-0.234771728515625,0.1041522324085236,0.2188913375139236,0.2466097772121429,31.23030090332031,96.9015655517578,-35.25936889648438
262203,0.0631103515625,0.367706298828125,-0.33013916015625,0.1041522324085236,0.2188913375139236,0.2466097772121429,31.26908874511719,96.7283935546875,-35.00209045410156
262204,0.087158203125,0.396759033203125,-0.3946990966796875,0.0136950397863984,-0.0812091007828712,0.3783094882965088,31.41044616699219,96.53277587890624,-34.94743347167969
262205,0.1262969970703125,0.432464599609375,-0.4201507568359375,-0.2168444246053696,-0.5015280842781067,0.5329840183258057,31.61042785644531,96.26646423339844,-34.93170166015625
262206,0.1467132568359375,0.5184783935546875,-0.4624176025390625,-0.4509858191013336,-0.851784348487854,0.6865360140800476,31.80072021484375,96.25192260742188,-34.77565002441406
262207,0.1313018798828125,0.651123046875,-0.5076141357421875,-0.5473309755325317,-1.087810754776001,0.7382705807685852,31.98171997070312,96.274169921875,-34.42245483398438
262208,0.1103363037109375,0.80877685546875,-0.51727294921875,-0.4698039889335632,-1.206600546836853,0.7292773723602295,32.08024597167969,96.31814575195312,-33.81643676757812
262209,0.0695953369140625,1.020950317382812,-0.539459228515625,-0.2962591052055359,-1.179016828536987,0.7189363241195679,32.19189453125,96.5380401611328,-33.34402465820312
262210,-0.006561279296875,1.306427001953125,-0.605621337890625,-0.0553463473916053,-0.8513569235801697,0.7391158938407898,32.26351928710938,96.73135375976562,-32.830078125
262211,-0.006561279296875,1.306427001953125,-0.605621337890625,-0.0553463473916053,-0.8513569235801697,0.7391158938407898,32.26351928710938,96.73135375976562,-32.830078125
262212,-0.298736572265625,1.941238403320312,-0.5745086669921875,0.3210097253322601,0.7132387161254883,0.7586736083030701,32.52043151855469,96.80819702148438,-32.01350402832031
262213,-0.4056396484375,2.064651489257812,-0.34246826171875,0.2864951491355896,0.9239720106124878,0.5532674789428711,32.88459777832031,96.75706481933594,-31.98492431640625
262214,-0.517822265625,2.078384399414062,-0.1683197021484375,0.2848940491676331,0.6645468473434448,0.1417579352855682,33.18748474121094,96.88290405273438,-32.28401184082031
262215,-0.6159820556640625,2.124786376953125,-0.0523681640625,0.3733935654163361,0.4635644555091858,-0.2558876872062683,33.58918762207031,96.84072875976562,-32.72935485839844
262216,-0.64508056640625,2.1702880859375,-0.02593994140625,0.4407089352607727,0.6702651977539062,-0.3131073117256165,33.75372314453125,96.65901184082033,-32.97993469238281
262217,-0.64508056640625,2.1702880859375,-0.02593994140625,0.4407089352607727,0.6702651977539062,-0.3131073117256165,33.75372314453125,96.65901184082033,-32.97993469238281
262218,-0.5703125,2.210433959960938,-0.053314208984375,0.0856949314475059,1.412857055664062,0.6287747025489807,33.75581359863281,96.51960754394533,-33.78797912597656
262219,-0.493988037109375,2.382034301757812,0.0872039794921875,0.0346234925091266,1.378438353538513,0.8522940874099731,33.96112060546875,96.58389282226562,-34.24052429199219
262220,-0.5967864990234375,2.589218139648438,0.2585601806640625,0.1481660306453705,1.322136402130127,0.7982268929481506,34.42266845703125,96.63165283203124,-34.52253723144531
262221,-0.779510498046875,2.83807373046875,0.425506591796875,0.3403655588626862,1.4189373254776,0.6274895071983337,34.80569458007812,96.79656982421876,-34.852783203125
262222,-0.9750518798828124,3.126434326171875,0.5073699951171875,0.5264241099357605,1.7032470703125,0.3530664443969727,35.20552062988281,96.9363250732422,-35.28379821777344
262223,-0.9750518798828124,3.126434326171875,0.5073699951171875,0.5264241099357605,1.7032470703125,0.3530664443969727,35.20552062988281,96.9363250732422,-35.28379821777344
262224,-1.48187255859375,3.1673583984375,0.251251220703125,0.7667880058288574,2.054472208023071,-0.54543137550354,35.803466796875,97.14700317382812,-36.47515869140625
262225,-1.645706176757812,2.46746826171875,0.1637725830078125,0.7380311489105225,2.034194231033325,-0.5796290040016174,36.15005493164062,97.11703491210938,-37.34355163574219
262226,-1.55865478515625,1.693084716796875,0.0975494384765625,0.711689293384552,1.855450630187988,-0.2802705466747284,36.32954406738281,97.05917358398438,-38.13238525390625
262227,-1.3519287109375,1.158065795898438,0.0459747314453125,0.6614903211593628,1.418050765991211,0.0067899953573942,36.66180419921875,97.01097106933594,-38.98236083984375
262228,-1.190353393554688,0.870513916015625,0.034088134765625,0.4650795459747314,0.9606612920761108,0.1984291970729828,37.15789794921875,96.90087890625,-39.53329467773438
262229,-1.048965454101562,0.7134552001953125,0.0099029541015625,0.2222581058740616,0.5563774704933167,0.3126756250858307,37.68840026855469,96.90827941894533,-39.88209533691406
262230,-0.9006195068359375,0.624237060546875,-0.032470703125,0.1469715982675552,-0.210382267832756,0.3477145731449127,38.0557861328125,96.96307373046876,-40.275146484375
262231,-0.7613525390625,0.553955078125,-0.07843017578125,0.1469715982675552,-0.210382267832756,0.3477145731449127,38.44915771484375,96.98941040039062,-40.35552978515625
262232,-0.596954345703125,0.498016357421875,-0.1270904541015625,0.3056707084178925,-0.5182918906211853,0.3299653828144073,38.66612243652344,96.94076538085938,-40.39851379394531
262233,-0.432830810546875,0.47943115234375,-0.0830841064453125,0.4677064716815948,-0.5738848447799683,0.2846706211566925,38.89407348632812,96.82188415527344,-40.38558959960938
262234,-0.286163330078125,0.496337890625,0.0223846435546875,0.5766281485557556,-0.226040318608284,0.1721206307411194,38.98416137695312,96.74110412597656,-40.3536376953125
262235,-0.1680908203125,0.537567138671875,0.0460205078125,0.6758309006690979,0.2773064374923706,0.00023835292086,39.09519958496094,96.49481201171876,-40.45841979980469
262236,-0.112396240234375,0.60760498046875,0.0084075927734375,0.7675765752792358,0.638017475605011,-0.2027831971645355,39.24848937988281,96.25917053222656,-40.66094970703125
262237,-0.14013671875,0.6985626220703125,-0.0754547119140625,0.830114483833313,0.6882316470146179,-0.4267057776451111,39.47006225585938,95.96926879882812,-40.77227783203125
262238,-0.322845458984375,0.738494873046875,-0.1566619873046875,0.8226797580718994,0.2411870509386063,-0.6039963960647583,39.58218383789062,95.65797424316406,-41.18107604980469
262239,-0.322845458984375,0.738494873046875,-0.1566619873046875,0.8226797580718994,0.2411870509386063,-0.6039963960647583,39.58218383789062,95.65797424316406,-41.18107604980469
262240,-0.462860107421875,0.6609954833984375,-0.2303314208984375,0.8281485438346863,-0.0629858896136283,-0.6158733367919922,39.51133728027344,95.02024841308594,-42.00778198242188
262241,-0.4201812744140625,0.5196075439453125,-0.182830810546875,0.8396696448326111,-0.1370523869991302,-0.5647345185279846,39.38336181640625,94.776123046875,-42.35780334472656
262242,-0.3529815673828125,0.3963623046875,-0.1510162353515625,0.7772179841995239,0.0675705224275589,-0.3769390285015106,39.158935546875,94.4624481201172,-42.61671447753906
262243,-0.3529815673828125,0.3963623046875,-0.1510162353515625,0.7772179841995239,0.0675705224275589,-0.3769390285015106,39.158935546875,94.4624481201172,-42.61671447753906
262244,-0.2744293212890625,0.2872772216796875,-0.0483551025390625,0.7469924688339233,0.1555363237857819,-0.3279224932193756,38.740234375,93.9563446044922,-43.407958984375
262245,-0.26849365234375,0.2394561767578125,0.04608154296875,0.6905454397201538,0.2711342871189117,-0.3078819215297699,38.68130493164062,93.72100830078124,-43.62832641601562
262246,-0.263458251953125,0.1888580322265625,0.1231689453125,0.58697110414505,0.4383874833583832,-0.3134772181510925,38.60879516601562,93.52688598632812,-44.03364562988281
262247,-0.263458251953125,0.1888580322265625,0.1231689453125,0.58697110414505,0.4383874833583832,-0.3134772181510925,38.60879516601562,93.52688598632812,-44.03364562988281
262248,-0.2350921630859375,0.1035003662109375,0.1998291015625,0.3334871530532837,0.6901491284370422,-0.2836711406707764,38.67085266113281,93.1315460205078,-44.58447265625
262249,-0.230712890625,0.1143798828125,0.2323760986328125,0.1949274092912674,0.7073712944984436,-0.2211997658014297,38.79780578613281,93.0411376953125,-44.7913818359375
262250,-0.2234344482421875,0.168060302734375,0.27984619140625,-0.1279052346944809,0.5620636343955994,-0.0794924274086952,38.95246887207031,92.96676635742188,-45.05679321289062
262251,-0.2234344482421875,0.168060302734375,0.27984619140625,-0.1279052346944809,0.5620636343955994,-0.0794924274086952,38.95246887207031,92.96676635742188,-45.05679321289062
262252,-0.3209075927734375,0.3656768798828125,0.360443115234375,-0.4974569082260132,0.1959972083568573,-0.2762070894241333,39.29598999023438,93.18942260742188,-45.21206665039062
262253,-0.3209075927734375,0.3656768798828125,0.360443115234375,-0.4974569082260132,0.1959972083568573,-0.2762070894241333,39.29598999023438,93.18942260742188,-45.21206665039062
262254,-0.4498748779296875,0.4866485595703125,0.472503662109375,-0.7241896390914917,0.0382027775049209,-0.4487077593803406,39.32598876953125,93.33692932128906,-45.22415161132812
262255,-0.6502227783203125,0.5241851806640625,0.5649261474609375,-0.9674038887023926,-0.1025154590606689,-0.609469473361969,39.36669921875,93.69537353515624,-44.68017578125
262256,-0.703216552734375,0.436004638671875,0.5474853515625,-1.201254487037659,-0.2435007989406586,-0.7484849095344543,39.32695007324219,93.87060546875,-44.3243408203125
262257,-0.7179412841796875,0.3201751708984375,0.4658355712890625,-1.377592206001282,-0.4573473036289215,-0.8293083310127258,39.09538269042969,94.2610321044922,-43.97346496582031
262258,-0.6836090087890625,0.2255096435546875,0.3499755859375,-1.477108955383301,-0.7996391654014587,-0.8509377241134644,38.73100280761719,94.54792785644533,-43.65029907226562
262259,-0.6836090087890625,0.2255096435546875,0.3499755859375,-1.477108955383301,-0.7996391654014587,-0.8509377241134644,38.73100280761719,94.54792785644533,-43.65029907226562
262260,-0.475860595703125,0.17156982421875,0.134521484375,-1.541650652885437,-1.632638096809387,-0.7664998173713684,37.72151184082031,95.2365264892578,-42.45429992675781
262261,-0.3531036376953125,0.181793212890625,-0.0216064453125,-1.545724034309387,-2.007315635681152,-0.7130840420722961,36.987548828125,95.6338348388672,-41.67893981933594
262262,-0.2082977294921875,0.1859893798828125,-0.4406585693359375,-1.342513561248779,-2.829666376113892,-0.611036479473114,36.14291381835938,95.99447631835938,-40.73963928222656
262263,-0.2082977294921875,0.1859893798828125,-0.4406585693359375,-1.342513561248779,-2.829666376113892,-0.611036479473114,36.14291381835938,95.99447631835938,-40.73963928222656
262264,-0.074066162109375,0.1905517578125,-0.175201416015625,-1.000003695487976,-3.278917789459229,-0.1406620442867279,34.21794128417969,96.44000244140624,-38.91021728515625
262265,-0.0305023193359375,0.183349609375,-0.128387451171875,-0.984096884727478,-2.014798164367676,0.1393661499023438,33.20339965820312,96.48095703125,-37.820556640625
262266,0.044647216796875,0.240142822265625,-0.1870269775390625,-0.39809250831604,-0.4239627122879028,0.5043414831161499,32.47395324707031,96.55867004394533,-36.83244323730469
262267,0.044647216796875,0.240142822265625,-0.1870269775390625,-0.39809250831604,-0.4239627122879028,0.5043414831161499,32.47395324707031,96.55867004394533,-36.83244323730469
262268,0.0920257568359375,0.3311614990234375,-0.1000213623046875,-0.2673275768756866,0.0301597658544778,0.6246486902236938,32.01313781738281,96.64031982421876,-35.31198120117188
262269,0.094940185546875,0.3615264892578125,-0.20855712890625,-0.1912122964859009,0.1338262408971786,0.6650807857513428,32.05587768554688,96.72966003417967,-34.84085083007812
262270,0.1234283447265625,0.3731536865234375,-0.3391265869140625,-0.0957659408450126,-0.0906579941511154,0.678435742855072,32.26800537109375,96.73977661132812,-34.52009582519531
262271,0.1234283447265625,0.3731536865234375,-0.3391265869140625,-0.0957659408450126,-0.0906579941511154,0.678435742855072,32.26800537109375,96.73977661132812,-34.52009582519531
262272,0.191558837890625,0.46417236328125,-0.48944091796875,-0.0324972234666347,-0.6355495452880859,0.8506892919540405,32.60273742675781,96.73826599121094,-33.97093200683594
262273,0.177154541015625,0.5887603759765625,-0.5950469970703125,-0.0305914655327796,-0.8175318837165833,0.9184067845344543,32.88044738769531,96.77108764648438,-33.80622863769531
262274,0.1333160400390625,0.751312255859375,-0.6431427001953125,0.0530565604567527,-0.9566671252250672,0.9307806491851808,33.11669921875,96.8768310546875,-33.6578369140625
262275,0.1333160400390625,0.751312255859375,-0.6431427001953125,0.0530565604567527,-0.9566671252250672,0.9307806491851808,33.11669921875,96.8768310546875,-33.6578369140625
262276,0.010345458984375,1.19952392578125,-0.76873779296875,0.2870754599571228,-0.6912716627120972,0.8845668435096741,33.66030883789062,96.92454528808594,-33.01240539550781
262277,-0.0582427978515625,1.5159912109375,-0.8703765869140625,0.3634043037891388,-0.1802560538053513,0.8932979702949524,33.91270446777344,96.91578674316406,-32.84503173828125
262278,-0.15594482421875,1.80810546875,-0.7568817138671875,0.1022960096597672,0.9206310510635376,0.6819537878036499,34.11886596679688,96.80072021484376,-32.77680969238281
262279,-0.15594482421875,1.80810546875,-0.7568817138671875,0.1022960096597672,0.9206310510635376,0.6819537878036499,34.11886596679688,96.80072021484376,-32.77680969238281
262280,-0.476806640625,2.057891845703125,-0.48834228515625,0.1356752663850784,0.6340464353561401,0.1639918684959412,34.88595581054688,96.72126770019533,-33.00106811523438
262281,-0.5236968994140625,2.15435791015625,-0.34185791015625,0.3842821717262268,0.2757737934589386,-0.2385667711496353,35.31309509277344,96.75015258789062,-33.03660583496094
262282,-0.567413330078125,2.20404052734375,-0.0982513427734375,0.4481801688671112,0.6735283732414246,-0.1866774708032608,35.58026123046875,96.82054138183594,-33.23428344726562
262283,-0.567413330078125,2.20404052734375,-0.0982513427734375,0.4481801688671112,0.6735283732414246,-0.1866774708032608,35.58026123046875,96.82054138183594,-33.23428344726562
262284,-0.63677978515625,2.3468017578125,-0.177032470703125,-0.2274520695209503,1.647280216217041,0.5778598785400391,35.48802185058594,96.7860870361328,-34.10678100585938
262285,-0.60467529296875,2.475189208984375,-0.059539794921875,-0.3826856017112732,1.472734689712524,0.7465061545372009,35.681884765625,96.80389404296876,-34.61894226074219
262286,-0.6561431884765625,2.625076293945312,0.1043853759765625,-0.2235428094863892,1.269251942634583,0.7342771887779236,36.14352416992188,96.776611328125,-34.84417724609375
262287,-0.6561431884765625,2.625076293945312,0.1043853759765625,-0.2235428094863892,1.269251942634583,0.7342771887779236,36.14352416992188,96.776611328125,-34.84417724609375
262288,-1.009185791015625,3.044509887695312,0.16180419921875,0.5208389163017273,1.189108371734619,0.3921741843223572,37.08543395996094,97.1889190673828,-35.091552734375
262289,-1.29229736328125,3.150436401367188,0.1832427978515625,0.6340538859367371,1.653319716453552,0.0934175625443458,37.45510864257812,97.28546142578124,-35.40794372558594
262290,-1.476394653320312,2.958251953125,0.050689697265625,0.5615379214286804,2.056300401687622,-0.2002529352903366,37.67684936523438,97.44412231445312,-35.89126586914062
262291,-1.476394653320312,2.958251953125,0.050689697265625,0.5615379214286804,2.056300401687622,-0.2002529352903366,37.67684936523438,97.44412231445312,-35.89126586914062
262292,-1.2686767578125,1.591690063476562,0.104766845703125,0.5826551914215088,1.896942973136902,-0.2816532552242279,38.21099853515625,97.36883544921876,-37.15591430664062
262293,-1.218704223632812,1.191513061523438,0.1096954345703125,0.6203732490539551,1.531370639801025,-0.0723546221852302,38.74818420410156,97.31088256835938,-37.79135131835938
262294,-1.148284912109375,1.01226806640625,0.1249542236328125,0.1342446208000183,0.8583975434303284,0.2800540328025818,39.19541931152344,97.27943420410156,-38.38502502441406
262295,-1.148284912109375,1.01226806640625,0.1249542236328125,0.1342446208000183,0.8583975434303284,0.2800540328025818,39.19541931152344,97.27943420410156,-38.38502502441406
262296,-0.82269287109375,0.9770050048828124,0.0771026611328125,-0.0695617645978927,0.4389757513999939,0.2214021682739258,40.22050476074219,97.05441284179688,-38.88552856445312
262297,-0.6845855712890625,0.93731689453125,0.1093597412109375,-0.1055413410067558,0.1048041731119156,0.1192014887928963,40.68032836914062,97.00074768066406,-38.92034912109375
262298,-0.579315185546875,0.841094970703125,0.1115875244140625,0.1651048064231873,-0.1439627707004547,0.0612404532730579,40.91732788085938,97.0131378173828,-39.16389465332031
262299,-0.4783935546875,0.7259674072265625,0.079345703125,0.1651048064231873,-0.1439627707004547,0.0612404532730579,41.15171813964844,97.09236145019533,-39.16517639160156
262300,-0.38250732421875,0.6192474365234375,0.0883941650390625,0.3545578122138977,-0.0691694840788841,0.0845428481698036,41.16075134277344,97.06289672851562,-39.11210632324219
262301,-0.282501220703125,0.5211334228515625,0.10565185546875,0.49649977684021,0.1555014401674271,0.0709873586893081,41.19485473632812,96.985107421875,-39.21571350097656
262302,-0.1852874755859375,0.4412689208984375,0.0585479736328125,0.5593061447143555,0.3572079241275787,0.0535644255578517,41.29257202148438,96.84173583984376,-39.20478820800781
262303,-0.1151580810546875,0.40203857421875,-0.0500946044921875,0.543412983417511,0.3611030578613281,0.0339089632034301,41.45393371582031,96.62779235839844,-39.27023315429688
262304,-0.1363525390625,0.4589080810546875,-0.11126708984375,0.484620213508606,0.2101130187511444,-0.0838506892323494,41.55923461914062,96.5069580078125,-39.61819458007812
262305,-0.303802490234375,0.539031982421875,-0.1082916259765625,0.419051319360733,0.0901810228824615,-0.3228683173656464,41.71241760253906,96.41038513183594,-39.88711547851562
262306,-0.424041748046875,0.531951904296875,-0.108673095703125,0.4103036522865295,0.0341446548700332,-0.4075512588024139,41.83370971679688,96.12026977539062,-40.0831298828125
262307,-0.42437744140625,0.49188232421875,-0.114105224609375,0.4484768509864807,0.0127738518640399,-0.4503591656684875,41.75297546386719,95.99249267578124,-40.28958129882812
262308,-0.3511962890625,0.39166259765625,-0.1107940673828125,0.4737140238285065,0.0158841572701931,-0.439600795507431,41.67477416992188,95.90495300292967,-40.55754089355469
262309,-0.2990875244140625,0.302459716796875,-0.087982177734375,0.4450104832649231,0.0167669951915741,-0.4054393768310547,41.54762268066406,95.67428588867188,-40.7144775390625
262310,-0.305908203125,0.2501983642578125,-0.06878662109375,0.3322626352310181,-0.1276503652334213,-0.3413509428501129,41.39669799804688,95.52677917480467,-40.88204956054688
262311,-0.336639404296875,0.212493896484375,-0.04962158203125,0.3322626352310181,-0.1276503652334213,-0.3413509428501129,41.30252075195312,95.29847717285156,-41.15846252441406
262312,-0.3591156005859375,0.1750946044921875,-0.0282745361328125,0.2618401348590851,-0.2220482379198074,-0.3258878290653229,41.23475646972656,95.13262939453124,-41.29318237304688
262313,-0.3708648681640625,0.1431884765625,-0.011688232421875,0.1959955990314484,-0.3093738257884979,-0.2992711365222931,41.13931274414062,94.95271301269533,-41.35269165039062
262314,-0.3817596435546875,0.11993408203125,0.01702880859375,0.100542850792408,-0.3613928258419037,-0.2695918083190918,40.9998779296875,94.8442840576172,-41.47718811035156
262315,-0.37664794921875,0.1056671142578125,0.04669189453125,-0.0352011285722255,-0.3949915170669556,-0.2319160550832748,40.80307006835938,94.76089477539062,-41.52171325683594
262316,-0.343505859375,0.1240692138671875,0.1276092529296875,-0.2277218401432037,-0.3208983838558197,-0.1973759233951569,40.56895446777344,94.80598449707033,-41.46858215332031
262317,-0.343505859375,0.1240692138671875,0.1276092529296875,-0.2277218401432037,-0.3208983838558197,-0.1973759233951569,40.56895446777344,94.80598449707033,-41.46858215332031
262318,-0.3255462646484375,0.329345703125,0.3569488525390625,-0.6331585645675659,0.1780789196491241,-0.200017511844635,40.17205810546875,94.96640014648438,-41.41374206542969
262319,-0.340118408203125,0.38714599609375,0.4228057861328125,-0.7776052355766296,0.5049017667770386,-0.2218176126480103,40.000732421875,95.0280303955078,-41.25051879882812
262320,-0.4080657958984375,0.4607086181640625,0.461578369140625,-0.9330866932868958,0.8073104023933411,-0.4011527597904205,39.93008422851562,95.13258361816406,-40.90080261230469
262321,-0.4080657958984375,0.4607086181640625,0.461578369140625,-0.9330866932868958,0.8073104023933411,-0.4011527597904205,39.93008422851562,95.13258361816406,-40.90080261230469
262322,-0.500762939453125,0.5288543701171875,0.4532012939453125,-0.9824278950691224,0.6194033026695251,-0.5392216444015503,39.8314208984375,95.26492309570312,-40.58407592773438
262323,-0.646636962890625,0.522216796875,0.3736724853515625,-1.057037353515625,0.2623668909072876,-0.6498158574104309,39.82098388671875,95.89772033691406,-40.19369506835938
262324,-0.6516265869140625,0.4856719970703125,0.3152313232421875,-1.17533814907074,-0.2296971082687378,-0.7313466668128967,39.64938354492188,96.23738098144533,-39.92233276367188
262325,-0.6018829345703125,0.442626953125,0.26251220703125,-1.325904011726379,-0.8449171185493469,-0.7628979086875916,39.46316528320312,96.49668884277344,-39.46946716308594
262326,-0.5148773193359375,0.412628173828125,0.241943359375,-1.466556191444397,-1.443070888519287,-0.764200747013092,39.09237670898438,96.67242431640624,-39.09121704101562
262327,-0.4064178466796875,0.394012451171875,0.2187652587890625,-1.533315300941467,-1.8768310546875,-0.7458406090736389,38.5899658203125,96.90875244140624,-38.66664123535156
262328,-0.3107147216796875,0.396820068359375,0.2157135009765625,-1.588809728622437,-2.057921171188354,-0.7079286575317383,37.95657348632812,97.17245483398438,-37.84101867675781
262329,-0.2498779296875,0.4417266845703125,0.194061279296875,-1.692869186401367,-1.867463707923889,-0.6714425683021545,37.17974853515625,97.42982482910156,-36.937744140625
262330,-0.1748046875,0.453216552734375,0.0112152099609375,-1.437966585159302,-1.790747046470642,-0.5439538359642029,36.45100402832031,97.70069885253906,-36.02505493164062
262331,-0.0683746337890625,0.3954315185546875,-0.203643798828125,-1.437966585159302,-1.790747046470642,-0.5439538359642029,35.65144348144531,97.81297302246094,-35.03724670410156
262332,0.0031890869140625,0.3580322265625,-0.1944580078125,-1.027701377868652,-1.886323690414429,-0.3550931215286255,35.02178955078125,97.93113708496094,-33.98213195800781
262333,0.0031890869140625,0.3580322265625,-0.1944580078125,-1.027701377868652,-1.886323690414429,-0.3550931215286255,35.02178955078125,97.93113708496094,-33.98213195800781
262334,0.0722198486328125,0.3134918212890625,-0.169189453125,-0.1206036433577538,-0.6171345710754395,0.4659826159477234,33.91409301757812,98.10626220703124,-32.10081481933594
262335,0.0985870361328125,0.29901123046875,-0.254058837890625,-0.1206036433577538,-0.6171345710754395,0.4659826159477234,33.38616943359375,98.13865661621094,-31.28704833984375
262336,0.1361541748046875,0.3298187255859375,-0.331787109375,0.0819670408964157,-0.2040474116802216,0.7156020402908325,33.09989929199219,98.05722045898438,-30.57998657226562
262337,0.1361541748046875,0.3298187255859375,-0.331787109375,0.0819670408964157,-0.2040474116802216,0.7156020402908325,33.09989929199219,98.05722045898438,-30.57998657226562
262338,0.18243408203125,0.37396240234375,-0.418548583984375,0.1609023362398148,0.0146170258522033,0.8946764469146729,33.10513305664062,98.193359375,-30.25398254394531
262339,0.296600341796875,0.438262939453125,-0.4993896484375,0.0053628073073923,-0.1617273837327957,1.181118607521057,33.78424072265625,98.08718872070312,-29.72673034667969
262340,0.3252716064453125,0.519134521484375,-0.45562744140625,-0.1092753559350967,-0.2494367212057114,1.292831540107727,34.16151428222656,98.12228393554688,-29.66909790039062
262341,0.294464111328125,0.69342041015625,-0.42236328125,-0.1269571483135223,-0.2768539786338806,1.305515885353088,34.71302795410156,98.10916137695312,-29.45823669433594
262342,0.236053466796875,0.94500732421875,-0.459228515625,-0.0181792695075273,-0.2985720336437225,1.209161996841431,35.30093383789062,98.09138488769533,-29.20108032226562
262343,0.1514739990234375,1.273422241210938,-0.61285400390625,0.2240128517150879,-0.3396414518356323,1.01457405090332,35.98393249511719,98.1399383544922,-28.95552062988281
262344,0.0228424072265625,1.632308959960938,-0.72894287109375,0.5512317419052124,-0.2509496808052063,0.804412841796875,36.60731506347656,98.156982421875,-28.73500061035156
262345,-0.181060791015625,1.921218872070312,-0.5963897705078125,0.7399401068687439,0.3777939081192017,0.674402117729187,37.10459899902344,98.22052001953124,-28.46730041503906
262346,-0.3385772705078125,2.104629516601562,-0.38153076171875,0.3222155869007111,1.273543119430542,0.4240391552448273,37.2816162109375,98.3670654296875,-28.54598999023438
262347,-0.3542327880859375,2.229690551757812,-0.215484619140625,0.3222155869007111,1.273543119430542,0.4240391552448273,37.41383361816406,98.41462707519533,-28.84181213378906
262348,-0.351806640625,2.279861450195312,-0.0070037841796875,0.0406848452985286,0.931501030921936,0.3367865383625031,37.618896484375,98.5361328125,-29.28314208984375
262349,-0.4500885009765625,2.446304321289062,0.240203857421875,-0.101273886859417,0.684624433517456,0.3580087423324585,38.46163940429688,98.3202667236328,-30.07925415039062
262350,-0.5734710693359375,2.78900146484375,0.3406982421875,0.0155022609978914,0.6223679780960083,0.4242274463176727,38.76248168945312,98.4379425048828,-30.294189453125
262351,-0.5734710693359375,2.78900146484375,0.3406982421875,0.0155022609978914,0.6223679780960083,0.4242274463176727,38.76248168945312,98.4379425048828,-30.294189453125
262352,-0.8412017822265625,3.282501220703125,0.2199249267578125,0.9533450603485109,0.4197341501712799,0.6251150369644165,39.193359375,98.5976104736328,-30.96055603027344
262353,-0.8412017822265625,3.282501220703125,0.2199249267578125,0.9533450603485109,0.4197341501712799,0.6251150369644165,39.193359375,98.5976104736328,-30.96055603027344
262354,-1.045181274414062,3.07861328125,0.2070770263671875,1.342328548431396,0.5979515910148621,0.0720467641949653,39.40164184570312,98.68196105957033,-32.10969543457031
262355,-1.160781860351562,2.72161865234375,0.31011962890625,1.216708779335022,1.127431392669678,-0.5120726227760315,39.41067504882812,98.63815307617188,-32.89860534667969
262356,-1.379653930664062,2.269485473632812,0.337982177734375,0.9560338258743286,1.880417585372925,-1.003338694572449,39.35699462890625,98.533935546875,-33.53688049316406
262357,-1.716293334960938,1.744064331054688,0.2606964111328125,0.6425701379776001,2.510375022888184,-1.054981112480164,39.27470397949219,98.45809936523438,-34.60566711425781
262358,-1.910232543945312,1.277175903320312,0.15802001953125,0.460292249917984,2.686908483505249,-0.7674271464347839,39.35684204101562,98.43988037109376,-35.63392639160156
262359,-1.910232543945312,1.277175903320312,0.15802001953125,0.460292249917984,2.686908483505249,-0.7674271464347839,39.35684204101562,98.43988037109376,-35.63392639160156
262360,-1.6070556640625,0.6039886474609375,-0.0420989990234375,-0.043003924190998,1.481224894523621,-0.2966929078102112,39.97695922851562,98.29200744628906,-36.85235595703125
262361,-1.34356689453125,0.36083984375,-0.0743560791015625,-0.569563090801239,0.8238339424133301,-0.0978866145014762,40.30619812011719,98.26576232910156,-37.05828857421875
262362,-1.0732421875,0.3198699951171875,-0.04803466796875,-0.9028598070144652,0.5257580876350403,0.1273816525936127,40.5906982421875,98.38572692871094,-37.08305358886719
262363,-0.8319549560546875,0.5341796875,-0.0456390380859375,-0.7346010208129883,0.5292465090751648,0.2895820140838623,40.79556274414062,98.43995666503906,-36.89303588867188
262364,-0.6416015625,0.7857208251953125,-0.041107177734375,-0.2105186283588409,0.7092008590698242,0.3025982081890106,41.02619934082031,98.66072082519533,-36.58857727050781
262365,-0.4721527099609375,0.9095306396484376,-0.0381927490234375,0.2572387158870697,0.9750921726226808,0.2413012981414795,41.22135925292969,98.62889099121094,-36.22282409667969
262366,-0.3553924560546875,1.013687133789062,-0.113433837890625,0.48592409491539,1.1123286485672,0.1355146914720535,41.58802795410156,98.54554748535156,-36.33900451660156
262367,-0.2939910888671875,1.07659912109375,-0.17047119140625,0.5064930319786072,1.085491895675659,-0.0157739035785198,41.8765869140625,98.46893310546876,-36.53849792480469
262368,-0.2779083251953125,1.051040649414062,-0.1524810791015625,0.4436695873737335,1.039908766746521,-0.1336067914962769,42.11798095703125,98.3478546142578,-36.81163024902344
262369,-0.308837890625,0.9534149169921876,-0.150115966796875,0.4308432638645172,1.00560986995697,-0.2181190103292465,42.33970642089844,98.22105407714844,-37.05975341796875
262370,-0.3500823974609375,0.820709228515625,-0.215789794921875,0.5052791237831116,0.918503999710083,-0.297150731086731,42.56149291992188,98.03575134277344,-37.36152648925781
262371,-0.3500823974609375,0.820709228515625,-0.215789794921875,0.5052791237831116,0.918503999710083,-0.297150731086731,42.56149291992188,98.03575134277344,-37.36152648925781
262372,-0.3320465087890625,0.580718994140625,-0.2800445556640625,0.681194543838501,0.4595912992954254,-0.3824496269226074,42.74252319335938,97.6427764892578,-37.7369384765625
262373,-0.3079681396484375,0.492462158203125,-0.25323486328125,0.745164155960083,0.2197821587324142,-0.3849431574344635,42.7811279296875,97.56170654296876,-38.07603454589844
262374,-0.2844696044921875,0.4290618896484375,-0.2250213623046875,0.7855970859527588,-0.0361745171248912,-0.3827297985553741,42.72135925292969,97.36993408203124,-38.44598388671875
262375,-0.2495574951171875,0.3660430908203125,-0.1885833740234375,0.7945184111595154,-0.2845020294189453,-0.3823878467082977,42.67214965820312,97.1933135986328,-38.65267944335938
262376,-0.209625244140625,0.2987823486328125,-0.1158599853515625,0.7330851554870605,-0.4590954184532166,-0.3670158088207245,42.59194946289062,96.97239685058594,-39.03126525878906
262377,-0.1861419677734375,0.2372283935546875,-0.0298309326171875,0.6624463796615601,-0.523847758769989,-0.3777129352092743,42.54600524902344,96.75927734375,-39.24893188476562
262378,-0.172332763671875,0.1866455078125,0.05792236328125,0.6121986508369446,-0.4305649697780609,-0.4130469560623169,42.41999816894531,96.48854064941406,-39.55546569824219
262379,-0.1706085205078125,0.1244049072265625,0.1204071044921875,0.5830088257789612,-0.2318023443222046,-0.4513189792633057,42.18019104003906,96.28399658203124,-39.7030029296875
262380,-0.1864471435546875,0.06182861328125,0.1588287353515625,0.566055417060852,0.0187965910881757,-0.4617407321929932,42.08741760253906,96.1902313232422,-39.8021240234375
262381,-0.1988372802734375,0.00189208984375,0.179595947265625,0.5622753500938416,0.2457815408706665,-0.3896324634552002,41.87664794921875,95.99057006835938,-39.99147033691406
262382,-0.223358154296875,0.0097808837890625,0.24871826171875,0.4996665418148041,0.4371797144412994,-0.2722051441669464,41.70733642578125,95.88467407226562,-40.29881286621094
262383,-0.248565673828125,0.108428955078125,0.36480712890625,0.2965142130851746,0.6822318434715271,-0.1674031019210815,41.60409545898438,95.83839416503906,-40.65834045410156
262384,-0.309906005859375,0.25384521484375,0.4780731201171875,-0.0006348976166918,0.9437180161476136,-0.1029247865080833,41.73582458496094,95.73651123046876,-40.82435607910156
262385,-0.4113616943359375,0.437744140625,0.5273895263671875,-0.2898840308189392,1.125279545783997,-0.1566287577152252,41.88493347167969,95.8554229736328,-41.05763244628906
262386,-0.54962158203125,0.59405517578125,0.5094757080078125,-0.5216946005821228,1.018087387084961,-0.2836149334907532,42.08454895019531,96.00880432128906,-41.15605163574219
262387,-0.6898040771484375,0.6779937744140625,0.478729248046875,-0.6789708137512207,0.6125233173370361,-0.4433369636535645,42.32203674316406,96.21377563476562,-41.04969787597656
262388,-0.791015625,0.6717987060546875,0.4555816650390625,-0.7861496806144714,0.0419378615915775,-0.6073924899101257,42.36572265625,96.48562622070312,-41.01092529296875
262389,-0.807952880859375,0.572509765625,0.4370880126953125,-0.8936561942100525,-0.5036061406135559,-0.7681171894073486,42.27076721191406,96.74896240234376,-40.9017333984375
262390,-0.727264404296875,0.4287261962890625,0.3971405029296875,-1.066300988197327,-0.9969838857650756,-0.8583703637123108,42.01048278808594,97.06990051269533,-40.67208862304688
262391,-0.727264404296875,0.4287261962890625,0.3971405029296875,-1.066300988197327,-0.9969838857650756,-0.8583703637123108,42.01048278808594,97.06990051269533,-40.67208862304688
262392,-0.5386810302734375,0.304229736328125,0.3547210693359375,-1.428800344467163,-1.561587333679199,-0.8580949902534485,41.01887512207031,97.5207061767578,-39.63166809082031
262393,-0.4640655517578125,0.3154449462890625,0.3141326904296875,-1.517410635948181,-1.636820554733276,-0.7795267105102539,40.42059326171875,97.77302551269533,-39.08364868164062
262394,-0.3887939453125,0.36004638671875,0.2144622802734375,-1.535269975662231,-1.814228415489197,-0.7281015515327454,39.65695190429688,97.97425842285156,-38.30958557128906
262395,-0.3053436279296875,0.3941650390625,-0.0339508056640625,-1.535269975662231,-1.814228415489197,-0.7281015515327454,38.86958312988281,98.19256591796876,-37.57423400878906
262396,-0.2172698974609375,0.375579833984375,-0.2215118408203125,-1.443761944770813,-2.106147527694702,-0.6771947145462036,38.18093872070312,98.35842895507812,-36.652099609375
262397,-0.1213531494140625,0.3060150146484375,-0.27166748046875,-1.246440649032593,-2.260798215866089,-0.5597314834594727,37.51765441894531,98.5429229736328,-35.74955749511719
262398,-0.0291595458984375,0.26318359375,-0.1981353759765625,-0.6201722025871277,-1.593631029129028,-0.1593185514211655,36.73344421386719,98.75291442871094,-34.81143188476562
262399,0.0631561279296875,0.2533111572265625,-0.086944580078125,-0.6201722025871277,-1.593631029129028,-0.1593185514211655,36.1015625,98.69203186035156,-33.85087585449219
262400,0.1532135009765625,0.2423858642578125,-0.015777587890625,-0.3922255635261536,-1.054544448852539,0.219052717089653,35.579833984375,98.77085876464844,-33.16349792480469
262401,0.17803955078125,0.24639892578125,-0.0206298828125,-0.2413281947374344,-0.6084191203117371,0.6145837903022766,35.22953796386719,98.86474609375,-32.58590698242188
262402,0.1753692626953125,0.2545623779296875,-0.0970001220703125,-0.1492246389389038,-0.3833268880844116,0.8893876671791077,35.07015991210938,99.05426025390624,-31.995361328125
262403,0.18707275390625,0.271728515625,-0.16412353515625,-0.1131806150078773,-0.3656432330608368,1.054797887802124,35.00318908691406,99.0806121826172,-31.62486267089844
262404,0.2082061767578125,0.2960357666015625,-0.2252655029296875,-0.153136819601059,-0.4788592755794525,1.15553605556488,35.33549499511719,99.0801239013672,-31.24142456054688
262405,0.2154083251953125,0.3500518798828125,-0.3062591552734375,-0.2203789800405502,-0.6827138662338257,1.196241140365601,35.70216369628906,99.13677978515624,-30.97392272949219
262406,0.2026214599609375,0.446044921875,-0.3462677001953125,-0.2551920711994171,-0.8870810866355896,1.150439262390137,36.01081848144531,99.14309692382812,-30.67634582519531
262407,0.1654510498046875,0.585540771484375,-0.362518310546875,-0.23149074614048,-0.9161995649337769,1.019976019859314,36.44474792480469,99.184326171875,-30.25555419921875
262408,0.0736846923828125,0.77001953125,-0.461944580078125,-0.0908630639314651,-0.7590371370315552,0.8623225092887878,36.88534545898438,99.2850341796875,-29.805908203125
262409,-0.08990478515625,0.948272705078125,-0.6516571044921875,0.1947247385978699,-0.4580048620700836,0.7773324847221375,37.23417663574219,99.4207763671875,-29.35404968261719
262410,-0.229949951171875,1.172317504882812,-0.8192901611328125,0.5085324645042419,0.0985548049211502,0.8663612008094788,37.56866455078125,99.4465789794922,-29.13775634765625
262411,-0.2991943359375,1.47894287109375,-0.8643798828125,0.6465177536010742,0.8275219202041626,1.065034627914429,37.95469665527344,99.37942504882812,-28.99324035644531
262412,-0.34393310546875,1.72674560546875,-0.7087249755859375,0.5181224942207336,1.164067387580872,1.191209077835083,38.33758544921875,99.2790069580078,-29.05665588378906
262413,-0.34393310546875,1.72674560546875,-0.7087249755859375,0.5181224942207336,1.164067387580872,1.191209077835083,38.33758544921875,99.2790069580078,-29.05665588378906
262414,-0.7619171142578125,2.213623046875,-0.3269500732421875,0.2852376103401184,0.9884260892868042,-0.39652419090271,39.53611755371094,99.176025390625,-29.53184509277344
262415,-0.862762451171875,2.40924072265625,-0.2880401611328125,0.2852376103401184,0.9884260892868042,-0.39652419090271,39.99484252929688,99.21858215332033,-29.92729187011719
262416,-0.892852783203125,2.349533081054688,-0.1909637451171875,0.282245010137558,1.353657841682434,-0.4440368413925171,40.24211120605469,99.15861511230467,-30.30537414550781
262417,-0.8986663818359375,2.19921875,-0.1580352783203125,0.0298974458128213,1.852219700813293,0.0798884406685829,40.20657348632812,99.19480895996094,-30.74436950683594
262418,-0.7296295166015625,2.0732421875,-0.1073150634765625,-0.1714021116495132,1.950257897377014,0.6818621754646301,40.26823425292969,99.12757873535156,-31.27384948730469
262419,-0.7296295166015625,2.0732421875,-0.1073150634765625,-0.1714021116495132,1.950257897377014,0.6818621754646301,40.26823425292969,99.12757873535156,-31.27384948730469
262420,-0.5444793701171875,2.139755249023438,0.0415802001953125,-0.0506341494619846,1.342933893203735,1.035260438919067,41.05940246582031,99.12556457519533,-31.59797668457031
262421,-0.742279052734375,2.380218505859375,-0.0161285400390625,0.1974065452814102,1.045103192329407,0.9656699299812316,41.60667419433594,99.14700317382812,-31.60369873046875
262422,-1.068984985351562,2.74493408203125,-0.1977386474609375,0.4619077146053314,0.91410630941391,0.6053948402404785,42.0721435546875,99.51710510253906,-31.79574584960938
262423,-1.510940551757812,2.843765258789062,-0.267669677734375,0.6225663423538208,1.188851833343506,0.0795331746339798,42.43907165527344,99.64028930664062,-32.10565185546875
262424,-1.820724487304688,2.453369140625,-0.2273712158203125,0.5715713500976562,1.837506055831909,-0.2514165341854095,42.73855590820312,99.80239868164062,-32.5311279296875
262425,-1.75408935546875,1.8697509765625,-0.153717041015625,0.4942427575588226,2.179533958435059,-0.3695602118968964,42.92849731445312,99.7750244140625,-32.80264282226562
262426,-1.594314575195312,1.4521484375,-0.0600433349609375,0.4923716187477112,2.009151220321655,-0.2736842632293701,43.24639892578125,99.66804504394533,-33.24505615234375
262427,-1.447463989257812,1.1756591796875,0.0182647705078125,0.4768134355545044,1.729881525039673,0.0748545303940773,43.59352111816406,99.52859497070312,-33.72898864746094
262428,-1.22296142578125,1.104995727539062,0.0062408447265625,0.4201661348342896,1.437075018882751,0.4145050346851349,44.06546020507812,99.40272521972656,-34.04273986816406
262429,-0.9630584716796876,1.1302490234375,0.00189208984375,0.3716904520988464,1.083929181098938,0.4654156267642975,44.52001953125,99.32553100585938,-34.31051635742188
262430,-0.780914306640625,1.079544067382812,0.050811767578125,0.3481931388378143,0.7677107453346252,0.3618713915348053,45.02079772949219,99.26358032226562,-34.6524658203125
262431,-0.780914306640625,1.079544067382812,0.050811767578125,0.3481931388378143,0.7677107453346252,0.3618713915348053,45.02079772949219,99.26358032226562,-34.6524658203125
262432,-0.54833984375,0.793731689453125,0.068450927734375,0.3364278078079224,0.508375883102417,0.2135114818811417,45.88612365722656,99.09596252441406,-35.15829467773438
262433,-0.480133056640625,0.709991455078125,0.055267333984375,0.294719785451889,0.5674237608909607,0.1476278007030487,46.16050720214844,99.03370666503906,-35.388427734375
262434,-0.4177703857421875,0.709442138671875,0.025848388671875,0.2588645815849304,0.6848148107528687,0.0583674348890781,46.39118957519531,98.91822814941406,-35.55593872070312
262435,-0.4088897705078125,0.80816650390625,0.0411834716796875,0.2353145182132721,0.8957057595252991,-0.016250342130661,46.723876953125,98.74818420410156,-35.72676086425781
262436,-0.4713134765625,0.906707763671875,0.0211181640625,0.2063481062650681,1.12687075138092,-0.0733242779970169,46.99398803710938,98.557373046875,-35.82624816894531
262437,-0.4952239990234375,0.894256591796875,-0.0519561767578125,0.1794137060642242,1.111222624778748,-0.0933270156383514,47.19256591796875,98.44056701660156,-35.97308349609375
262438,-0.48870849609375,0.815399169921875,-0.047210693359375,0.1932051479816437,0.7523483037948608,-0.0542291514575481,47.35003662109375,98.37452697753906,-36.08451843261719
262439,-0.4732513427734375,0.7180023193359375,-0.01904296875,0.1932051479816437,0.7523483037948608,-0.0542291514575481,47.48605346679688,98.24630737304688,-36.17460632324219
262440,-0.4388427734375,0.6331024169921875,-0.0228118896484375,0.2262688279151917,0.5154495239257812,-0.022807577624917,47.66604614257812,98.34367370605467,-36.31138610839844
262441,-0.4175872802734375,0.55224609375,0.009613037109375,0.241620346903801,0.3640599846839905,-0.0167225208133459,47.78633117675781,98.286376953125,-36.37678527832031
262442,-0.3956146240234375,0.460357666015625,-0.015167236328125,0.2586054503917694,0.2671142518520355,-0.0222959853708744,47.87973022460938,98.2078857421875,-36.54072570800781
262443,-0.3751983642578125,0.3624420166015625,-0.0315093994140625,0.2729103565216064,0.2339352667331696,-0.0125986160710454,47.96281433105469,98.16081237792967,-36.6004638671875
262444,-0.3509063720703125,0.2767181396484375,-0.000335693359375,0.2682711482048035,0.328795462846756,-0.0014037522487342,47.97361755371094,97.98623657226562,-36.66917419433594
262445,-0.3261566162109375,0.212677001953125,0.045166015625,0.2176345884799957,0.5399590730667114,0.0107684917747974,48.08792114257812,97.89939880371094,-36.83387756347656
262446,-0.2995147705078125,0.18011474609375,0.1139068603515625,-0.0931544452905654,1.173682570457458,0.0402747169137001,48.10038757324219,97.85211181640624,-36.89335632324219
262447,-0.260589599609375,0.17327880859375,0.1988067626953125,-0.0931544452905654,1.173682570457458,0.0402747169137001,48.22421264648438,97.88226318359376,-37.07347106933594
262448,-0.2516021728515625,0.2422332763671875,0.3267822265625,-0.2471711784601212,1.514078736305237,0.0852198228240013,48.48728942871094,97.77043151855467,-37.00532531738281
262449,-0.28521728515625,0.39697265625,0.428802490234375,-0.3745200634002686,1.796731233596802,0.0801249295473098,48.91072082519531,97.74972534179688,-37.01406860351562
262450,-0.344757080078125,0.531951904296875,0.5271453857421875,-0.5127543807029724,2.037350654602051,-0.0094694020226597,49.29150390625,97.75973510742188,-36.85487365722656
262451,-0.4246826171875,0.59576416015625,0.531585693359375,-0.6301326751708984,2.075311899185181,-0.1485886722803116,49.73477172851562,97.92716979980467,-36.85801696777344
262452,-0.519805908203125,0.5975494384765625,0.509552001953125,-0.693525493144989,1.835851430892944,-0.3034954369068146,50.17021179199219,98.2021026611328,-36.60899353027344
262453,-0.6148529052734375,0.5531768798828125,0.534271240234375,-0.753235399723053,1.154719471931458,-0.6115403175354004,50.41423034667969,98.36654663085938,-36.27348327636719
262454,-0.6693115234375,0.47564697265625,0.54351806640625,-0.8346533179283142,0.7771804332733154,-0.7220223546028137,50.69184875488281,98.6400909423828,-35.97245788574219
262455,-0.6662750244140625,0.3847808837890625,0.5178070068359375,-0.8346533179283142,0.7771804332733154,-0.7220223546028137,50.77572631835938,98.94778442382812,-35.50283813476562
262456,-0.633636474609375,0.311981201171875,0.4908294677734375,-0.987089991569519,0.4164206385612488,-0.7906043529510498,50.75119018554688,99.25236511230467,-35.09800720214844
262457,-0.5791168212890625,0.2729034423828125,0.4422760009765625,-1.163926005363464,0.0857311487197876,-0.8402659296989441,50.53468322753906,99.55535888671876,-34.80523681640625
262458,-0.5791168212890625,0.2729034423828125,0.4422760009765625,-1.163926005363464,0.0857311487197876,-0.8402659296989441,50.53468322753906,99.55535888671876,-34.80523681640625
262459,-0.4858551025390625,0.2570343017578125,0.352783203125,-1.281573534011841,-0.2483429610729218,-0.8834104537963867,50.16607666015625,99.87374877929688,-34.60916137695312
262460,-0.273834228515625,0.1992950439453125,0.200439453125,-1.341546654701233,-0.9595843553543092,-0.9239357709884644,49.38987731933594,100.3689270019531,-33.8978271484375
262461,-0.273834228515625,0.1992950439453125,0.200439453125,-1.341546654701233,-0.9595843553543092,-0.9239357709884644,49.38987731933594,100.3689270019531,-33.8978271484375
262462,-0.155914306640625,0.121917724609375,0.1213836669921875,-1.406883239746094,-1.567946791648865,-0.8822717070579529,48.38934326171875,100.6432647705078,-32.58084106445312
262463,-0.109130859375,0.1079559326171875,0.0973663330078125,-1.5085529088974,-1.749401450157166,-0.8787398338317871,47.75126647949219,100.8362121582031,-31.8585205078125
262464,-0.068267822265625,0.098419189453125,0.0453948974609375,-1.727626919746399,-1.742318749427795,-0.8737090826034546,47.0965576171875,101.0064086914062,-31.16584777832031
262465,0.023468017578125,0.072265625,-0.3740386962890625,-1.929282784461975,-2.033097743988037,-0.8259197473526001,46.45671081542969,101.1068572998047,-30.18560791015625
262466,0.1799163818359375,-0.0001220703125,-0.9384307861328124,-1.753827691078186,-3.168205499649048,-0.5662239789962769,45.78547668457031,101.1680603027344,-29.26211547851562
262467,0.2885589599609375,-0.0251617431640625,-0.853973388671875,-1.110954165458679,-4.228195190429688,0.0292891785502433,44.97259521484375,101.2350463867188,-28.15084838867188
262468,0.353515625,0.0760650634765625,-0.1866912841796875,-0.677610456943512,-3.06787371635437,0.6618421077728271,44.15913391113281,101.3628540039062,-27.0330810546875
262469,0.4099273681640625,0.249298095703125,-0.127349853515625,-0.4960132241249084,-0.2910382449626923,1.045840620994568,43.34942626953125,101.4501647949219,-26.02517700195312
262470,0.3350830078125,0.3607940673828125,-0.3105621337890625,-0.1843288242816925,1.01851212978363,1.265960812568665,42.92658996582031,101.4904479980469,-25.28700256347656
262471,0.2903900146484375,0.430206298828125,-0.44110107421875,-0.1374025940895081,1.253492116928101,1.383086919784546,43.14356994628906,101.4803771972656,-24.68402099609375
262472,0.2768096923828125,0.5247344970703125,-0.533477783203125,-0.3612767159938812,0.8554877638816833,1.415563344955444,43.83657836914062,101.5139770507812,-24.26431274414062
262473,0.2568511962890625,0.6552581787109375,-0.514801025390625,-0.6428974866867065,0.3278883993625641,1.352242350578308,44.64901733398438,101.3784027099609,-23.96199035644531
262474,0.2262725830078125,0.8444061279296875,-0.5205841064453125,-0.7544364929199219,-0.0887474492192268,1.189008951187134,45.45904541015625,101.3894348144531,-23.69125366210938
262475,0.180023193359375,1.030426025390625,-0.4966278076171875,-0.5883913636207581,-0.2741170525550842,0.9886271953582764,46.12664794921875,101.4617004394531,-23.16000366210938
262476,0.0738525390625,1.140762329101562,-0.42333984375,-0.2525158822536469,-0.1154491007328033,0.8710813522338867,46.65046691894531,101.5535583496094,-22.71919250488281
262477,0.0738525390625,1.140762329101562,-0.42333984375,-0.2525158822536469,-0.1154491007328033,0.8710813522338867,46.65046691894531,101.5535583496094,-22.71919250488281
262478,-0.2045440673828125,1.531173706054688,-0.404815673828125,0.4832936823368073,0.8718100190162659,1.111676931381226,47.78056335449219,101.4650573730469,-21.87882995605469
262479,-0.2948455810546875,1.856948852539062,-0.253662109375,0.5487880110740662,1.489461302757263,1.104784727096558,48.12184143066406,101.4825439453125,-21.73211669921875
262480,-0.3962860107421875,2.036819458007812,-0.0312347412109375,0.405900627374649,1.889962553977966,0.8272777199745178,48.66427612304688,101.4435119628906,-21.77769470214844
262481,-0.550384521484375,2.159683227539062,0.112030029296875,0.2351784259080887,1.976290225982666,0.2962968945503235,49.13591003417969,101.2724761962891,-22.10990905761719
262482,-0.724365234375,2.4375,0.0749053955078125,0.0558084025979042,1.658949017524719,-0.3822751939296722,49.62643432617188,101.1508026123047,-22.37641906738281
262483,-0.87091064453125,2.82147216796875,0.0319366455078125,-0.1172592490911484,1.121881127357483,-1.001415729522705,49.90403747558594,101.1792755126953,-22.62101745605469
262484,-0.9671478271484376,3.029098510742188,0.095947265625,-0.195776954293251,0.7886802554130554,-1.263474941253662,49.93800354003906,101.2836456298828,-22.84335327148438
262485,-1.154022216796875,2.871337890625,0.2815399169921875,-0.2282944172620773,1.100081205368042,-0.7849041223526001,49.5406494140625,101.3602294921875,-23.166748046875
262486,-1.424591064453125,2.619918823242188,0.268463134765625,-0.2503688335418701,1.975413799285889,0.2925384044647217,48.78318786621094,101.4789276123047,-23.49371337890625
262487,-1.310211181640625,2.519790649414062,0.07843017578125,0.0480141304433345,2.195643186569214,0.8109295964241028,48.17390441894531,101.6438598632812,-24.00559997558594
262488,-1.174453735351562,2.422027587890625,0.228546142578125,0.4186273515224457,1.993637084960938,0.6287941932678223,47.9110107421875,101.8092956542969,-23.98150634765625
262489,-1.341384887695312,2.307861328125,0.384124755859375,0.5331187844276428,2.205329895019531,0.3184916973114014,48.23251342773438,101.8854522705078,-24.12953186035156
262490,-1.507827758789062,2.181777954101562,0.1871337890625,0.512710690498352,2.285729169845581,-0.077792003750801,48.5880126953125,101.8721771240234,-24.29695129394531
262491,-1.545761108398438,1.887420654296875,-0.0030670166015625,0.4598091542720795,1.913245797157288,-0.2962020933628082,48.8929443359375,101.822509765625,-24.60548400878906
262492,-1.400497436523438,1.448638916015625,-0.0289154052734375,0.4275867640972137,1.536285161972046,-0.251242071390152,49.2210693359375,101.8280029296875,-24.88052368164062
262493,-1.168930053710938,1.090591430664062,-0.061676025390625,0.3895829021930695,1.343388676643372,-0.0390869490802288,49.44189453125,101.7652435302734,-25.100341796875
262494,-1.02093505859375,0.8941497802734375,-0.100189208984375,0.2480566799640656,1.327698707580566,0.2230828851461411,49.45166015625,101.8153533935547,-25.33631896972656
262495,-0.88641357421875,0.886688232421875,-0.1850433349609375,0.0962471738457679,1.279597997665405,0.3830142319202423,49.45730590820312,101.8208923339844,-25.62197875976562
262496,-0.7540435791015625,0.9658660888671876,-0.2399749755859375,0.0708779022097587,1.041015267372131,0.4180145561695099,49.61134338378906,101.7714996337891,-25.67497253417969
262497,-0.6437835693359375,1.012420654296875,-0.2254791259765625,0.1585182696580887,0.7524634003639221,0.3771587312221527,49.95454406738281,101.6763153076172,-25.65170288085938
262498,-0.531707763671875,1.018814086914062,-0.201629638671875,0.256087452173233,0.5549671053886414,0.2869023382663727,50.18194580078125,101.6530303955078,-25.65847778320312
262499,-0.4230499267578125,1.0091552734375,-0.206329345703125,0.3052853345870972,0.4780238270759583,0.1635138243436813,50.52299499511719,101.7364196777344,-25.65409851074219
262500,-0.3546295166015625,1.0262451171875,-0.2078857421875,0.2951525449752808,0.5423732399940491,-0.0151099767535924,50.71542358398438,101.6470184326172,-25.66162109375
262501,-0.379730224609375,1.040924072265625,-0.1531524658203125,0.2800566852092743,0.8106302618980408,-0.230444923043251,50.92648315429688,101.5511474609375,-25.84483337402344
262502,-0.5574951171875,1.011001586914062,-0.1254119873046875,0.4487586319446564,1.102114796638489,-0.3409975469112396,51.09635925292969,101.4725341796875,-26.03288269042969
262503,-0.663787841796875,0.94573974609375,-0.135467529296875,0.4487586319446564,1.102114796638489,-0.3409975469112396,51.16891479492188,101.4224395751953,-26.09138488769531
262504,-0.7068939208984375,0.847015380859375,-0.170196533203125,0.4940387606620789,0.9693384170532228,-0.3666626811027527,51.248779296875,101.4224395751953,-26.21699523925781
262505,-0.7068939208984375,0.847015380859375,-0.170196533203125,0.4940387606620789,0.9693384170532228,-0.3666626811027527,51.248779296875,101.4224395751953,-26.21699523925781
262506,-0.7226409912109375,0.74725341796875,-0.2172088623046875,0.6349282264709473,0.7306702136993408,-0.384419322013855,51.14018249511719,101.2533874511719,-26.21772766113281
262507,-0.663238525390625,0.5399932861328125,-0.150909423828125,0.6952022314071655,0.8551064133644104,-0.3552118837833405,51.14433288574219,101.2235107421875,-26.66792297363281
262508,-0.629791259765625,0.4232177734375,-0.1331329345703125,0.7535773515701294,1.035484910011292,-0.292784720659256,50.99618530273438,101.0188751220703,-26.87016296386719
262509,-0.587921142578125,0.309783935546875,-0.1430511474609375,0.8104856610298157,1.149676561355591,-0.2217550277709961,50.97000122070312,100.9685974121094,-27.09901428222656
262510,-0.5415191650390625,0.19586181640625,-0.125,0.790961742401123,1.200331926345825,-0.1616469472646713,50.92471313476562,100.8601837158203,-27.38877868652344
262511,-0.5415191650390625,0.19586181640625,-0.125,0.790961742401123,1.200331926345825,-0.1616469472646713,50.92471313476562,100.8601837158203,-27.38877868652344
262512,-0.4305267333984375,0.031951904296875,-0.1128082275390625,0.4453476369380951,1.235331773757935,-0.112981416285038,51.08108520507812,100.7364196777344,-27.97731018066406
262513,-0.3702850341796875,0.010711669921875,-0.1054840087890625,0.173739567399025,1.182848334312439,-0.1419350355863571,51.27772521972656,100.4490356445312,-28.23367309570312
262514,-0.30621337890625,0.013031005859375,-0.0612335205078125,-0.3894138038158417,1.038700461387634,-0.203215703368187,51.4815673828125,100.4377746582031,-28.51824951171875
262515,-0.2430267333984375,0.05804443359375,0.026123046875,-0.3894138038158417,1.038700461387634,-0.203215703368187,51.54188537597656,100.4482421875,-28.56370544433594
262516,-0.2230072021484375,0.2169952392578125,0.207550048828125,-0.5707223415374756,1.062263607978821,-0.1343508809804916,51.7471923828125,100.3962097167969,-28.60450744628906
262517,-0.2481689453125,0.41290283203125,0.3951416015625,-0.7156566381454468,1.324190735816956,-0.1049048453569412,52.05534362792969,100.5992889404297,-28.01020812988281
262518,-0.289703369140625,0.5684051513671875,0.4488525390625,-0.8152772188186646,1.542300701141357,-0.1928408294916153,52.18096923828125,100.67822265625,-27.68669128417969
262519,-0.289703369140625,0.5684051513671875,0.4488525390625,-0.8152772188186646,1.542300701141357,-0.1928408294916153,52.18096923828125,100.67822265625,-27.68669128417969
262520,-0.4955596923828125,0.7329254150390625,0.48736572265625,-0.7398261427879333,1.180816054344177,-0.6579480767250061,52.27223205566406,101.1986541748047,-26.81602478027344
262521,-0.6277008056640625,0.7154693603515625,0.546630859375,-0.5962785482406616,0.8370845317840576,-0.8956458568572998,52.10623168945312,101.4368438720703,-26.28013610839844
262522,-0.7138824462890625,0.6534423828125,0.6189117431640625,-0.4881981611251831,0.6072326898574829,-1.12000036239624,51.72500610351562,101.7369537353516,-26.13023376464844
262523,-0.7138824462890625,0.6534423828125,0.6189117431640625,-0.4881981611251831,0.6072326898574829,-1.12000036239624,51.72500610351562,101.7369537353516,-26.13023376464844
262524,-0.7824554443359375,0.3621826171875,0.6901702880859375,-0.6971819996833801,0.6964762806892395,-1.455843329429626,50.56974792480469,102.2909545898438,-25.84629821777344
262525,-0.7824554443359375,0.3621826171875,0.6901702880859375,-0.6971819996833801,0.6964762806892395,-1.455843329429626,50.56974792480469,102.2909545898438,-25.84629821777344
262526,-0.698577880859375,0.12420654296875,0.2560882568359375,-1.248704314231873,-0.2866139113903046,-1.140133619308472,48.64030456542969,102.7418670654297,-24.89768981933594
262527,-0.698577880859375,0.12420654296875,0.2560882568359375,-1.248704314231873,-0.2866139113903046,-1.140133619308472,48.64030456542969,102.7418670654297,-24.89768981933594
262528,-0.5392913818359375,0.16192626953125,0.1285247802734375,-1.293039798736572,-1.030454277992249,-0.9566410183906556,48.08621215820312,102.8273773193359,-24.38554382324219
262529,-0.3946380615234375,0.222991943359375,0.0689697265625,-1.257050633430481,-1.686682939529419,-0.7756664156913757,47.51263427734375,102.9268341064453,-23.82679748535156
262530,-0.30389404296875,0.3286590576171875,0.06072998046875,-1.194510340690613,-2.125335693359375,-0.6787555813789368,46.88427734375,103.0807342529297,-23.29702758789062
262531,-0.231292724609375,0.4084014892578125,0.073822021484375,-1.167245388031006,-2.299657106399536,-0.6830651164054871,46.29121398925781,103.0587768554688,-22.57669067382812
262532,-0.1692657470703125,0.40289306640625,0.072723388671875,-1.234769582748413,-2.197434902191162,-0.6905975937843323,45.76678466796875,102.9903869628906,-21.95315551757812
262533,-0.066253662109375,0.3265228271484375,-0.2232513427734375,-1.412630081176758,-2.079864263534546,-0.6571773290634155,45.30018615722656,102.9170379638672,-21.25140380859375
262534,0.1648712158203125,0.1260986328125,-0.9331512451171876,-1.282193303108215,-3.019942045211792,-0.2684309184551239,44.98562622070312,102.7975769042969,-20.42710876464844
262535,0.3006134033203125,0.039886474609375,-0.74468994140625,-0.8728734254837036,-3.857470989227295,0.3824014365673065,44.68482971191406,102.6952362060547,-19.38803100585938
262536,0.3985137939453125,0.085540771484375,-0.1307830810546875,-0.8346295952796936,-2.479794502258301,0.9580777883529664,44.5675048828125,102.6335601806641,-18.43923950195312
262537,0.428375244140625,0.227142333984375,-0.0401153564453125,-0.2129969596862793,1.052445530891418,2.391685009002686,44.94168090820312,102.5027313232422,-16.61167907714844
262538,0.428375244140625,0.227142333984375,-0.0401153564453125,-0.2129969596862793,1.052445530891418,2.391685009002686,44.94168090820312,102.5027313232422,-16.61167907714844
262539,0.3543701171875,0.32647705078125,-0.16845703125,-0.2129969596862793,1.052445530891418,2.391685009002686,45.76332092285156,102.370361328125,-15.84022521972656
262540,0.3144378662109375,0.4859771728515625,-0.2885284423828125,-0.1688116490840912,0.7362521886825562,2.582201242446899,46.96994018554688,102.1432037353516,-15.43048095703125
262541,0.3144378662109375,0.4859771728515625,-0.2885284423828125,-0.1688116490840912,0.7362521886825562,2.582201242446899,46.96994018554688,102.1432037353516,-15.43048095703125
262542,0.3308868408203125,0.9002532958984375,-0.4445343017578125,-0.1829245388507843,-0.481406033039093,2.269628524780273,49.64125061035156,101.7975616455078,-14.41961669921875
262543,0.354949951171875,1.07916259765625,-0.4994964599609375,-0.0763176754117012,-0.632339358329773,1.852754235267639,50.80978393554688,101.6544036865234,-14.12405395507812
262544,0.2873687744140625,1.253341674804688,-0.576019287109375,0.1115739345550537,-0.1958544552326202,1.414335370063782,51.84358215332031,101.4581909179688,-13.65476989746094
262545,0.0447998046875,1.346969604492188,-0.666046142578125,0.3198544383049011,0.6144234538078308,1.171179413795471,52.76603698730469,101.2848205566406,-13.47119140625
262546,-0.146392822265625,1.4530029296875,-0.641937255859375,0.4081462025642395,1.493151068687439,1.170506477355957,53.39723205566406,101.1104278564453,-13.49325561523438
262547,-0.23968505859375,1.621795654296875,-0.5201873779296875,0.2462830096483231,2.044292688369751,1.12942373752594,53.9736328125,100.9423828125,-13.57186889648438
262548,-0.360748291015625,1.84197998046875,-0.3482513427734375,-0.0461107678711414,2.170231819152832,0.7649200558662415,54.51023864746094,100.7586517333984,-13.6016845703125
262549,-0.48492431640625,2.154953002929688,-0.265960693359375,-0.2873052656650543,1.934503436088562,0.0653260126709938,54.87998962402344,100.7429809570312,-13.6041259765625
262550,-0.569793701171875,2.471328735351562,-0.20928955078125,-0.4743161797523499,1.52470600605011,-0.6805322170257568,54.94981384277344,100.6919403076172,-13.61219787597656
262551,-0.569793701171875,2.471328735351562,-0.20928955078125,-0.4743161797523499,1.52470600605011,-0.6805322170257568,54.94981384277344,100.6919403076172,-13.61219787597656
262552,-0.7809906005859375,3.036102294921875,0.0008544921875,-0.6852262616157532,1.490237832069397,-1.352837562561035,54.16194152832031,100.6450042724609,-13.37467956542969
262553,-0.941162109375,3.178024291992188,-0.0214080810546875,-0.5622068643569946,1.847911834716797,-1.385470986366272,53.30955505371094,100.6148529052734,-13.21832275390625
262554,-0.941162109375,3.178024291992188,-0.0214080810546875,-0.5622068643569946,1.847911834716797,-1.385470986366272,53.30955505371094,100.6148529052734,-13.21832275390625
262555,-1.726577758789062,2.84228515625,-0.0199737548828125,-0.0376325957477092,2.960720539093018,-0.3803526759147644,51.37104797363281,101.0215301513672,-13.35203552246094
262556,-1.980636596679688,2.581405639648438,-0.1141204833984375,0.1967490166425705,3.406191349029541,0.4107116460800171,50.65872192382812,101.2614288330078,-13.56646728515625
262557,-1.855453491210938,2.339797973632812,-0.042816162109375,0.5815731287002563,3.331175565719604,0.3718989789485931,50.37052917480469,101.4234771728516,-13.95379638671875
262558,-1.747756958007812,1.969131469726562,0.070709228515625,0.8231319785118103,3.026318550109863,0.0675311088562011,50.36930847167969,101.5938110351562,-14.34341430664062
262559,-1.636337280273438,1.633560180664062,0.0261993408203125,0.767113983631134,2.509665727615356,-0.0585378780961036,50.48162841796875,101.7404632568359,-14.7447509765625
262560,-1.493667602539062,1.353424072265625,-0.050201416015625,0.5070719718933105,1.908247828483582,-0.0949781760573387,50.71697998046875,101.779541015625,-15.25798034667969
262561,-1.348541259765625,1.138427734375,-0.0653533935546875,0.0110696954652667,1.420285105705261,0.090196207165718,50.66200256347656,101.82373046875,-15.725830078125
262562,-1.206634521484375,1.043548583984375,-0.03594970703125,0.0110696954652667,1.420285105705261,0.090196207165718,50.52255249023438,101.9406890869141,-15.86125183105469
262563,-1.056488037109375,1.019866943359375,0.013092041015625,0.0572433173656463,1.41632068157196,0.2087614685297012,50.58692932128906,101.9131011962891,-16.00724792480469
262564,-0.9066314697265624,1.003997802734375,0.0345306396484375,0.2592549920082092,1.369189977645874,0.2618742287158966,50.63529968261719,101.9447326660156,-15.73574829101562
262565,-0.9066314697265624,1.003997802734375,0.0345306396484375,0.2592549920082092,1.369189977645874,0.2618742287158966,50.63529968261719,101.9447326660156,-15.73574829101562
262566,-0.769012451171875,0.9398345947265624,-0.017852783203125,0.4666992723941803,1.194453001022339,0.2737583220005035,50.92831420898438,101.9943542480469,-15.82098388671875
262567,-0.520050048828125,0.809967041015625,-0.187774658203125,0.7528748512268066,0.3049258291721344,0.1651237159967422,51.38040161132812,101.8381652832031,-16.19320678710938
262568,-0.378173828125,0.7995147705078125,-0.162841796875,0.8279085755348206,-0.1189591437578201,-0.0052381716668605,51.67381286621094,101.7722473144531,-16.41085815429688
262569,-0.1903076171875,0.8170928955078125,-0.085784912109375,0.8478695154190063,-0.3043902516365051,-0.1532534658908844,51.79351806640625,101.6015167236328,-16.59115600585938
262570,-0.0240631103515625,0.8339385986328125,-0.036224365234375,0.7926092147827148,-0.2083873003721237,-0.1353719383478165,51.72029113769531,101.6609954833984,-16.95317077636719
262571,-0.0465087890625,0.852294921875,-0.0627899169921875,0.7333946228027344,0.1068204566836357,-0.0931832045316696,51.67076110839844,101.5945281982422,-17.34465026855469
262572,-0.34320068359375,0.820068359375,-0.146331787109375,0.7763660550117493,0.4455987811088562,-0.2461913973093033,51.65245056152344,101.475341796875,-17.68476867675781
262573,-0.5731201171875,0.7415618896484375,-0.2038116455078125,0.9129340052604676,0.5086134076118469,-0.3571333587169647,51.49411010742188,101.5653076171875,-17.96553039550781
262574,-0.5959320068359375,0.679168701171875,-0.1663665771484375,0.9801697731018066,0.4328965544700623,-0.4290930330753326,51.44320678710938,101.6107330322266,-18.385498046875
262575,-0.589385986328125,0.562042236328125,-0.104400634765625,0.9959575533866882,0.4258751273155212,-0.4599420428276062,51.30375671386719,101.708740234375,-18.74432373046875
262576,-0.55029296875,0.4627227783203125,-0.07470703125,0.9860993027687072,0.4512670636177063,-0.4528590738773346,51.13017272949219,101.6569976806641,-19.22801208496094
262577,-0.51531982421875,0.370452880859375,-0.0291290283203125,0.946210503578186,0.4912624061107635,-0.4221597611904144,51.04379272460938,101.6153564453125,-19.74740600585938
262578,-0.48297119140625,0.2816314697265625,0.0214385986328125,0.859708845615387,0.5950859785079956,-0.3896076679229736,50.97492980957031,101.5541839599609,-20.29705810546875
262579,-0.48297119140625,0.2816314697265625,0.0214385986328125,0.859708845615387,0.5950859785079956,-0.3896076679229736,50.97492980957031,101.5541839599609,-20.29705810546875
262580,-0.4041290283203125,0.117034912109375,0.0313720703125,0.5377886295318604,0.8016746044158936,-0.3371668457984924,50.88711547851562,101.4424743652344,-21.08255004882812
262581,-0.3625640869140625,0.048095703125,0.0552978515625,0.2715257704257965,0.9346230626106262,-0.3208349943161011,50.81953430175781,101.4427642822266,-21.35447692871094
262582,-0.317474365234375,0.0020599365234375,0.0582427978515625,-0.1690811663866043,0.9989615678787231,-0.2768009603023529,50.85598754882812,101.5209197998047,-21.60047912597656
262583,-0.29345703125,-0.0109710693359375,0.0767059326171875,-0.1690811663866043,0.9989615678787231,-0.2768009603023529,50.95277404785156,101.5078430175781,-21.64456176757812
262584,-0.2924957275390625,0.0258636474609375,0.15435791015625,-0.266634076833725,0.9511842131614684,-0.2808899879455566,51.09622192382812,101.5117797851562,-21.42416381835938
262585,-0.2924957275390625,0.0258636474609375,0.15435791015625,-0.266634076833725,0.9511842131614684,-0.2808899879455566,51.09622192382812,101.5117797851562,-21.42416381835938
262586,-0.4398193359375,0.27471923828125,0.3813934326171875,-0.4328323900699615,0.8746476173400879,-0.4725614190101624,51.07528686523438,101.7469940185547,-21.22911071777344
262587,-0.56610107421875,0.39892578125,0.467987060546875,-0.5897120237350464,0.8719583749771118,-0.6197119951248169,50.97837829589844,101.7765808105469,-20.99369812011719
262588,-0.6658172607421875,0.4738922119140625,0.50640869140625,-0.7745351195335388,0.8540818691253662,-0.776909351348877,50.73825073242188,101.9652099609375,-20.69267272949219
262589,-0.7271575927734375,0.492279052734375,0.4911346435546875,-0.9410961270332336,0.7384700775146484,-0.9110721945762634,50.37554931640625,102.1310577392578,-20.45707702636719
262590,-0.7494354248046875,0.4459381103515625,0.427825927734375,-1.015154957771301,0.4857137203216553,-0.9866505861282348,49.98368835449219,102.2174224853516,-20.08978271484375
262591,-0.7494354248046875,0.4459381103515625,0.427825927734375,-1.015154957771301,0.4857137203216553,-0.9866505861282348,49.98368835449219,102.2174224853516,-20.08978271484375
262592,-0.66925048828125,0.3222198486328125,0.266937255859375,-0.8310380578041077,-0.4061419069766998,-0.947348952293396,48.96754455566406,102.4996185302734,-19.12075805664062
262593,-0.66925048828125,0.3222198486328125,0.266937255859375,-0.8310380578041077,-0.4061419069766998,-0.947348952293396,48.96754455566406,102.4996185302734,-19.12075805664062
262594,-0.482696533203125,0.2268218994140625,0.2149505615234375,-0.5520109534263611,-1.430066347122192,-0.7850950956344604,47.69717407226562,102.7972869873047,-18.43687438964844
262595,-0.3715972900390625,0.2386016845703125,0.176177978515625,-0.5520109534263611,-1.430066347122192,-0.7850950956344604,47.15443420410156,102.7506713867188,-18.13827514648438
262596,-0.281524658203125,0.2770233154296875,0.1317138671875,-0.5883055925369263,-1.647289276123047,-0.7870309352874756,46.66766357421875,102.7540130615234,-17.73257446289062
262597,-0.281524658203125,0.2770233154296875,0.1317138671875,-0.5883055925369263,-1.647289276123047,-0.7870309352874756,46.66766357421875,102.7540130615234,-17.73257446289062
262598,-0.1852569580078125,0.2605743408203125,0.082977294921875,-1.200575947761536,-1.933556079864502,-0.8273245692253113,46.02650451660156,102.6797943115234,-17.28123474121094
262599,-0.1373748779296875,0.22607421875,0.069091796875,-1.200575947761536,-1.933556079864502,-0.8273245692253113,45.81504821777344,102.6125335693359,-16.86677551269531
262600,-0.0762176513671875,0.1829071044921875,0.064422607421875,-1.593719482421875,-1.82027542591095,-0.7472406625747681,45.6727294921875,102.4027099609375,-16.18736267089844
262601,-0.0762176513671875,0.1829071044921875,0.064422607421875,-1.593719482421875,-1.82027542591095,-0.7472406625747681,45.6727294921875,102.4027099609375,-16.18736267089844
262602,0.0903472900390625,0.1119384765625,-0.3094329833984375,-1.921709060668945,-1.853297233581543,-0.4711792469024658,45.48536682128906,102.1734008789062,-15.39067077636719
262603,0.2994842529296875,0.05938720703125,-0.3050537109375,-0.1783532351255417,-3.604872941970825,1.224457263946533,44.88970947265625,101.7879791259766,-13.17520141601562
262604,0.1862945556640625,0.2380218505859375,0.3119354248046875,-0.0335174798965454,-0.9394324421882628,1.549320816993713,44.58293151855469,101.8649749755859,-12.2593994140625
262605,0.1803436279296875,0.3885498046875,-0.0936279296875,-0.0606995671987533,0.9280890226364136,1.558828115463257,44.76528930664062,102.0169830322266,-11.81637573242188
262606,0.1923980712890625,0.4974517822265625,-0.401397705078125,-0.223049059510231,0.4946992099285126,1.73856246471405,45.45388793945312,102.0858612060547,-11.50531005859375
262607,0.1848297119140625,0.6556549072265625,-0.431396484375,-0.223049059510231,0.4946992099285126,1.73856246471405,46.11268615722656,101.9329376220703,-11.24530029296875
262608,0.1503448486328125,0.876708984375,-0.4258575439453125,-0.5187084078788757,-0.1337671130895615,1.771200776100159,46.99972534179688,101.6116333007812,-10.89381408691406
262609,0.105010986328125,1.11187744140625,-0.4532470703125,-0.6262737512588501,-0.5510996580123901,1.614340305328369,47.88861083984375,101.5203247070312,-10.56951904296875
262610,0.052764892578125,1.285598754882812,-0.464752197265625,-0.2065294682979584,-0.0699750930070877,1.09603488445282,48.79888916015625,101.2423400878906,-10.10922241210938
262611,-0.0753173828125,1.39654541015625,-0.49462890625,-0.2065294682979584,-0.0699750930070877,1.09603488445282,49.64433288574219,101.1451416015625,-9.6337890625
262612,-0.242431640625,1.540191650390625,-0.56341552734375,0.0758566781878471,0.820330023765564,1.035039186477661,50.40708923339844,100.9693145751953,-9.209579467773438
262613,-0.3461456298828125,1.766006469726562,-0.538421630859375,0.1067448183894157,1.825315713882446,1.08312463760376,50.86546325683594,100.9452819824219,-8.820816040039062
262614,-0.39849853515625,1.968597412109375,-0.478607177734375,-0.1458940953016281,2.395449161529541,0.9230010509490968,51.26025390625,100.7102355957031,-8.685394287109375
262615,-0.39849853515625,1.968597412109375,-0.478607177734375,-0.1458940953016281,2.395449161529541,0.9230010509490968,51.26025390625,100.7102355957031,-8.685394287109375
262616,-0.470489501953125,2.087860107421875,-0.2509002685546875,-0.637936532497406,1.869932174682617,0.0635954886674881,51.91264343261719,100.3552551269531,-8.729156494140625
262617,-0.550689697265625,2.265945434570312,-0.1605072021484375,-0.7560994029045105,1.435741543769836,-0.2276787012815475,52.00784301757812,100.2749176025391,-8.579421997070312
262618,-0.650482177734375,2.555938720703125,-0.12017822265625,-0.6656672358512878,1.233719706535339,-0.3275086283683777,51.91510009765625,100.1694488525391,-8.486343383789062
262619,-0.650482177734375,2.555938720703125,-0.12017822265625,-0.6656672358512878,1.233719706535339,-0.3275086283683777,51.91510009765625,100.1694488525391,-8.486343383789062
262620,-0.8180999755859375,2.772842407226562,0.004730224609375,0.0406579487025737,1.784432172775269,0.0987939536571502,51.29469299316406,100.1501770019531,-8.115280151367188
262621,-0.85693359375,2.739822387695312,-0.0014801025390625,0.3560681045055389,2.214760541915894,0.3566361367702484,50.95001220703125,100.2233123779297,-8.128189086914062
262622,-0.8825225830078125,2.680587768554688,0.0008544921875,0.5645217299461365,2.388301372528076,0.4825911521911621,50.73165893554688,100.2081451416016,-8.1934814453125
262623,-0.9723052978515624,2.584014892578125,0.080078125,0.7126174569129944,2.501571893692017,0.4576333463191986,50.52627563476562,100.3342742919922,-8.4935302734375
262624,-1.127822875976562,2.51080322265625,0.0801849365234375,0.7962436079978943,2.510133266448975,0.2469631880521774,50.37016296386719,100.372314453125,-8.930648803710938
262625,-1.327880859375,2.3458251953125,0.02105712890625,0.809489369392395,2.431193113327026,-0.1348816454410553,50.26089477539062,100.6056823730469,-9.328292846679688
262626,-1.510513305664062,1.974761962890625,-0.014892578125,0.761449933052063,2.305559158325195,-0.4412953853607178,50.04740905761719,100.6869201660156,-9.9404296875
262627,-1.610855102539062,1.537582397460938,-0.0457916259765625,0.6801202297210693,2.105414867401123,-0.5143706798553467,49.82579040527344,100.9871978759766,-10.49162292480469
262628,-1.585174560546875,1.157379150390625,-0.0710601806640625,0.6761704683303833,1.724810361862183,-0.379825621843338,49.48918151855469,101.1634368896484,-10.95819091796875
262629,-1.428665161132812,0.9140777587890624,0.0415191650390625,0.6115384697914124,1.470269203186035,-0.1509959101676941,49.20783996582031,101.4613037109375,-11.41183471679688
262630,-1.200927734375,0.8182220458984375,0.1194305419921875,0.4507218897342682,1.407814860343933,-0.0086384955793619,48.89625549316406,101.6928863525391,-11.88215637207031
262631,-1.019851684570312,0.7961578369140625,0.1317291259765625,0.2524468898773193,1.315626859664917,0.0694224834442138,48.84736633300781,101.8578491210938,-12.18202209472656
262632,-0.8631439208984375,0.7879486083984375,0.0915679931640625,0.1048814058303833,1.130884170532227,0.1144967526197433,48.8004150390625,101.9290008544922,-12.43563842773438
262633,-0.7337799072265625,0.758453369140625,-0.0106964111328125,0.1002152860164642,0.7662244439125061,0.0786079913377761,48.80691528320312,101.9489135742188,-12.5562744140625
262634,-0.6219024658203125,0.713836669921875,-0.0926055908203125,0.2583220899105072,0.3036917150020599,0.0058224690146744,48.88313293457031,102.0723114013672,-12.70263671875
262635,-0.5117340087890625,0.656463623046875,-0.135009765625,0.5397968888282776,-0.0842738673090934,-0.0817782208323478,49.02471923828125,102.0548095703125,-12.71946716308594
262636,-0.41571044921875,0.5943145751953125,-0.16680908203125,0.7928920388221741,-0.3173140287399292,-0.1736407577991486,49.07771301269531,102.0920257568359,-12.74623107910156
262637,-0.309173583984375,0.5503997802734375,-0.1728515625,0.912154257297516,-0.3575842380523682,-0.2972239553928375,49.11863708496094,101.9959716796875,-12.85098266601562
262638,-0.309173583984375,0.5503997802734375,-0.1728515625,0.912154257297516,-0.3575842380523682,-0.2972239553928375,49.11863708496094,101.9959716796875,-12.85098266601562
262639,-0.0327301025390625,0.4802093505859375,-0.1713409423828125,0.6719871759414673,0.1582077443599701,-0.387116014957428,49.1668701171875,101.8000946044922,-13.59222412109375
262640,0.0042877197265625,0.4898834228515625,-0.147247314453125,0.5325056910514832,0.3818408250808716,-0.2679789960384369,49.11213684082031,101.6747436523438,-13.87307739257812
262641,-0.22125244140625,0.5533599853515625,-0.134918212890625,0.4691120982170105,0.4568468928337097,-0.2819864153862,49.00704956054688,101.5959320068359,-14.28466796875
262642,-0.4166717529296875,0.5733795166015625,-0.1931610107421875,0.4691403210163116,0.3088659644126892,-0.3264484107494354,48.86306762695312,101.5889739990234,-14.53520202636719
262643,-0.4166717529296875,0.5733795166015625,-0.1931610107421875,0.4691403210163116,0.3088659644126892,-0.3264484107494354,48.86306762695312,101.5889739990234,-14.53520202636719
262644,-0.416961669921875,0.5137481689453125,-0.106597900390625,0.4490470290184021,0.0227457918226718,-0.3370778858661652,48.6324462890625,101.6473541259766,-14.93154907226562
262645,-0.429931640625,0.4401702880859375,-0.076385498046875,0.4358865022659302,0.1183474138379097,-0.3467946946620941,48.39694213867188,101.8032836914062,-15.12535095214844
262646,-0.41534423828125,0.365264892578125,-0.0616912841796875,0.4162270426750183,0.3241458535194397,-0.3606327474117279,48.22817993164062,101.7221374511719,-15.22720336914062
262647,-0.41534423828125,0.365264892578125,-0.0616912841796875,0.4162270426750183,0.3241458535194397,-0.3606327474117279,48.22817993164062,101.7221374511719,-15.22720336914062
262648,-0.38116455078125,0.2004241943359375,0.0101318359375,0.3240310549736023,0.4840878546237946,-0.3701181411743164,48.17251586914062,101.7774658203125,-15.64987182617188
262649,-0.36767578125,0.0652923583984375,0.0703887939453125,0.0064722802489995,0.9172422289848328,-0.4386697709560394,48.24491882324219,101.7841796875,-16.00779724121094
262650,-0.36767578125,0.0652923583984375,0.0703887939453125,0.0064722802489995,0.9172422289848328,-0.4386697709560394,48.24491882324219,101.7841796875,-16.00779724121094
262651,-0.374237060546875,0.0068511962890625,0.1339111328125,0.0064722802489995,0.9172422289848328,-0.4386697709560394,48.17988586425781,101.6865692138672,-16.03778076171875
262652,-0.3905029296875,-0.0086669921875,0.2230072021484375,-0.1625649482011795,1.157678246498108,-0.4636630117893219,48.01295471191406,101.5358276367188,-15.89653015136719
262653,-0.3905029296875,-0.0086669921875,0.2230072021484375,-0.1625649482011795,1.157678246498108,-0.4636630117893219,48.01295471191406,101.5358276367188,-15.89653015136719
262654,-0.4247894287109375,0.0413055419921875,0.2710723876953125,-0.3799681067466736,1.368963599205017,-0.4610086381435394,47.84487915039062,101.6755828857422,-16.03565979003906
262655,-0.6005401611328125,0.306732177734375,0.2750091552734375,-0.7871680855751038,1.311133623123169,-0.5641355514526367,47.59693908691406,101.7574768066406,-15.78579711914062
262656,-0.7109832763671875,0.438568115234375,0.25457763671875,-0.8630908131599426,0.9169349074363708,-0.6653844118118286,47.43739318847656,101.8339538574219,-15.47657775878906
262657,-0.798553466796875,0.5550994873046875,0.2545013427734375,-0.9048497080802916,0.4210478961467743,-0.7892541289329529,47.10086059570312,101.9896240234375,-15.35145568847656
262658,-0.84600830078125,0.6219940185546875,0.2505950927734375,-0.925599217414856,-0.0393058620393276,-0.9246159791946412,46.73738098144531,102.1119079589844,-15.13253784179688
262659,-0.814971923828125,0.623443603515625,0.1995697021484375,-0.9174107909202576,-0.4718892276287079,-1.005168914794922,46.20066833496094,102.1506958007812,-14.74049377441406
262660,-0.6633453369140625,0.57275390625,0.1410064697265625,-0.9029905796051024,-0.892937421798706,-1.016375184059143,45.6201171875,102.3028717041016,-14.35781860351562
262661,-0.4784698486328125,0.5331268310546875,0.156982421875,-0.8972921967506409,-1.125497102737427,-0.998447597026825,44.95399475097656,102.3915557861328,-14.00579833984375
