time_idx,accelerometerAccelerationX(G),accelerometerAccelerationY(G),accelerometerAccelerationZ(G),gyroRotationX(rad/s),gyroRotationY(rad/s),gyroRotationZ(rad/s),magnetometerX(µT),magnetometerY(µT),magnetometerZ(µT)
176152,-0.1704864501953125,-0.42059326171875,-0.0046539306640625,-0.5135565400123596,0.1371535956859589,-0.1306522786617279,39.73399353027344,98.61007690429688,-11.44035339355469
176153,-0.1704864501953125,-0.42059326171875,-0.0046539306640625,-0.5135565400123596,0.1371535956859589,-0.1306522786617279,39.73399353027344,98.61007690429688,-11.44035339355469
176154,-0.0941009521484375,-0.416473388671875,-0.0901336669921875,-0.1927643865346909,0.2153330892324448,0.2797648012638092,39.74557495117188,98.47239685058594,-10.95751953125
176155,-0.03948974609375,-0.399688720703125,-0.0623626708984375,0.1446016579866409,0.2542130947113037,0.4189722239971161,39.95756530761719,97.62181091308594,-9.220413208007812
176156,-0.0065765380859375,-0.3376312255859375,-0.028717041015625,0.338319718837738,0.3780855238437653,0.4814124405384064,40.16426086425781,97.0447998046875,-8.608505249023438
176157,-0.0065765380859375,-0.3376312255859375,-0.028717041015625,0.338319718837738,0.3780855238437653,0.4814124405384064,40.16426086425781,97.0447998046875,-8.608505249023438
176158,0.02215576171875,-0.2802734375,-0.0020904541015625,0.3637909889221191,0.518759548664093,0.4577630460262299,40.36282348632812,96.4086456298828,-8.299880981445312
176159,0.038543701171875,-0.2370147705078125,0.0275421142578125,0.2874064743518829,0.6863679885864258,0.3639206886291504,40.48162841796875,95.90220642089844,-8.471603393554688
176160,0.0421600341796875,-0.2311248779296875,-0.0431060791015625,-0.1880157142877579,1.015039324760437,0.1144272461533546,40.22354125976562,95.19821166992188,-8.874114990234375
176161,0.0421600341796875,-0.2311248779296875,-0.0431060791015625,-0.1880157142877579,1.015039324760437,0.1144272461533546,40.22354125976562,95.19821166992188,-8.874114990234375
176162,0.0384063720703125,-0.2361907958984375,-0.106201171875,-0.5392451286315918,1.014644980430603,0.0344517156481742,40.05223083496094,95.09016418457033,-9.306060791015623
176163,0.0384063720703125,-0.2585906982421875,-0.2045745849609375,-1.349393606185913,0.3566364049911499,-0.0506362803280353,39.67402648925781,94.9782257080078,-9.614059448242188
176164,0.04925537109375,-0.350494384765625,-0.4709930419921875,-1.581564784049988,-0.3157718181610107,-0.0374110229313373,38.74606323242188,94.95950317382812,-9.447463989257812
176165,0.04925537109375,-0.350494384765625,-0.4709930419921875,-1.581564784049988,-0.3157718181610107,-0.0374110229313373,38.74606323242188,94.95950317382812,-9.447463989257812
176166,0.058319091796875,-0.3753204345703125,-0.4564361572265625,-1.586270928382874,-0.9268309473991394,0.0063111591152846,38.35507202148438,94.91566467285156,-9.013595581054688
176167,0.1132049560546875,-0.035125732421875,0.005859375,-1.571247696876526,-0.5141927599906921,-0.185881718993187,37.91195678710938,95.26799011230467,-7.882980346679688
176168,0.0781097412109375,0.1878204345703125,0.164306640625,-1.705180764198303,0.2769077718257904,-0.3032139241695404,37.77145385742188,95.5043487548828,-7.007080078125
176169,0.0781097412109375,0.1878204345703125,0.164306640625,-1.705180764198303,0.2769077718257904,-0.3032139241695404,37.77145385742188,95.5043487548828,-7.007080078125
176170,0.04254150390625,0.208282470703125,0.3040771484375,-1.892284035682678,1.020999550819397,-0.3691364824771881,37.70980834960938,95.45468139648438,-6.162612915039062
176171,0.017730712890625,0.3470611572265625,0.5121307373046875,-2.124457120895386,1.591825485229492,-0.5524248480796814,37.90287780761719,95.050048828125,-4.442642211914062
176172,-0.0124664306640625,0.5204620361328125,0.774566650390625,-1.96701180934906,1.3412024974823,-0.7166358828544617,38.29339599609375,94.75155639648438,-3.427886962890625
176173,-0.108673095703125,0.657623291015625,0.8382415771484375,-1.645824790000916,-0.5532107353210449,-1.030098438262939,38.61314392089844,94.87394714355467,-2.256881713867188
176174,-0.1222076416015625,1.7362060546875,1.159515380859375,-1.387794256210327,-1.334871411323547,-0.1360643655061722,38.57666015625,95.59219360351562,-1.32196044921875
176175,0.064300537109375,6.32244873046875,1.495925903320312,-1.387794256210327,-1.334871411323547,-0.1360643655061722,37.76190185546875,96.5369873046875,-1.51904296875
176176,-0.404571533203125,8.195770263671875,2.408157348632812,-1.694053769111633,-0.9437981843948364,4.422855854034424,36.97900390625,97.3409423828125,-2.806732177734375
176177,-0.404571533203125,8.195770263671875,2.408157348632812,-1.694053769111633,-0.9437981843948364,4.422855854034424,36.97900390625,97.3409423828125,-2.806732177734375
176178,-1.334442138671875,7.974594116210938,2.263397216796875,-1.860422492027283,1.312392711639404,3.341517448425293,36.68734741210938,98.1112060546875,-5.002532958984375
176179,-0.8039398193359375,6.698486328125,0.7383880615234375,-1.365085005760193,2.836448192596436,-0.5803976058959961,37.598388671875,98.8083953857422,-6.62762451171875
176180,0.4897613525390625,0.594482421875,-2.798675537109375,-1.518965125083923,-3.116797208786011,-0.8042280673980713,38.88740539550781,97.94784545898438,-3.328094482421875
176181,0.4897613525390625,0.594482421875,-2.798675537109375,-1.518965125083923,-3.116797208786011,-0.8042280673980713,38.88740539550781,97.94784545898438,-3.328094482421875
176182,0.3759002685546875,0.1544647216796875,-1.325836181640625,-1.097342729568481,-5.977107048034668,0.0822506621479988,38.10285949707031,97.61416625976562,-1.928543090820312
176183,0.2516021728515625,0.6219635009765625,0.253936767578125,1.153872847557068,2.575592041015625,0.536393940448761,38.24461364746094,97.57957458496094,0.449920654296875
176184,0.2816619873046875,1.098495483398438,-0.007354736328125,1.706005811691284,3.136430978775024,1.09655225276947,38.44258117675781,97.54742431640624,0.3719482421875
176185,0.2816619873046875,1.098495483398438,-0.007354736328125,1.706005811691284,3.136430978775024,1.09655225276947,38.44258117675781,97.54742431640624,0.3719482421875
176186,0.23870849609375,1.370941162109375,0.0649566650390625,1.698369145393372,2.839647769927979,1.394485712051392,38.62648010253906,97.55267333984376,-0.6448822021484375
176187,0.145050048828125,1.500701904296875,0.2181549072265625,0.869403064250946,1.223448514938354,1.250956535339355,39.64530944824219,97.61408996582033,-2.63067626953125
176188,0.0513458251953125,1.291259765625,0.319915771484375,0.6345402002334595,0.7599998712539673,0.8838235139846802,40.26576232910156,97.67193603515624,-3.333053588867188
176189,0.0513458251953125,1.291259765625,0.319915771484375,0.6345402002334595,0.7599998712539673,0.8838235139846802,40.26576232910156,97.67193603515624,-3.333053588867188
176190,-0.007232666015625,1.026947021484375,0.3329010009765625,0.6130071878433228,0.6969055533409119,0.7208713889122009,40.66513061523438,97.8369598388672,-3.783172607421875
176191,-0.031158447265625,0.6654205322265625,0.1420745849609375,0.8169257044792175,0.7103276252746582,0.5445173978805542,41.45477294921875,98.20408630371094,-4.392486572265625
176192,-0.03509521484375,0.51080322265625,-0.0002593994140625,0.8793214559555054,0.4975120425224304,0.445578545331955,41.71275329589844,98.32089233398438,-4.803604125976562
176193,-0.03509521484375,0.51080322265625,-0.0002593994140625,0.8793214559555054,0.4975120425224304,0.445578545331955,41.71275329589844,98.32089233398438,-4.803604125976562
176194,-0.04742431640625,0.36810302734375,-0.162933349609375,0.8563866019248962,-0.0019273296929895,0.3289129137992859,42.01188659667969,98.361083984375,-5.266403198242188
176195,-0.0778656005859375,0.1341552734375,-0.16265869140625,0.7778105735778809,-1.027286171913147,-0.0020567593164741,42.34423828125,98.6488037109375,-5.909683227539062
176196,-0.0897979736328125,0.027313232421875,-0.14666748046875,0.7965759634971619,-1.2745121717453,-0.1928650587797165,42.38836669921875,98.71665954589844,-6.210235595703125
176197,-0.0897979736328125,0.027313232421875,-0.14666748046875,0.7965759634971619,-1.2745121717453,-0.1928650587797165,42.38836669921875,98.71665954589844,-6.210235595703125
176198,-0.0865325927734375,-0.07672119140625,-0.21734619140625,0.8696874976158142,-1.473366975784302,-0.3567397594451904,42.3492431640625,98.78599548339844,-6.474090576171875
176199,0.0195770263671875,-0.2072601318359375,-0.157073974609375,1.108687043190002,-1.673787117004395,-0.4408620893955231,42.15318298339844,98.74226379394533,-6.912002563476562
176200,0.059967041015625,-0.203277587890625,-0.018585205078125,1.269383430480957,-1.301268219947815,-0.358832985162735,42.04635620117188,98.81808471679688,-7.266830444335938
176201,0.059967041015625,-0.203277587890625,-0.018585205078125,1.269383430480957,-1.301268219947815,-0.358832985162735,42.04635620117188,98.81808471679688,-7.266830444335938
176202,0.0665435791015625,-0.2051544189453125,0.125457763671875,1.236255049705505,0.8423365354537964,-0.3032594919204712,41.79463195800781,98.92933654785156,-7.530960083007812
176203,0.0567474365234375,-0.1912994384765625,0.06103515625,1.100582480430603,1.635989189147949,-0.2729929089546204,41.3072509765625,99.1773681640625,-8.507843017578125
176204,0.0491943359375,-0.169830322265625,-0.039031982421875,0.9635015726089478,1.796719431877136,-0.205700159072876,41.07963562011719,99.22378540039062,-8.88995361328125
176205,0.0491943359375,-0.169830322265625,-0.039031982421875,0.9635015726089478,1.796719431877136,-0.205700159072876,41.07963562011719,99.22378540039062,-8.88995361328125
176206,0.024932861328125,-0.14654541015625,-0.0609893798828125,0.7864810228347778,1.609389305114746,-0.139573872089386,40.96409606933594,99.19163513183594,-9.432907104492188
176207,-0.047210693359375,-0.09368896484375,0.0204315185546875,0.3268931806087494,1.166709542274475,-0.1300062090158463,40.77449035644531,99.070556640625,-10.3316650390625
176208,-0.07122802734375,-0.0818023681640625,0.0513458251953125,0.1149918362498283,1.138069152832031,-0.1729949414730072,40.74870300292969,98.95652770996094,-10.63934326171875
176209,-0.07122802734375,-0.0818023681640625,0.0513458251953125,0.1149918362498283,1.138069152832031,-0.1729949414730072,40.74870300292969,98.95652770996094,-10.63934326171875
176210,-0.1228179931640625,-0.07171630859375,0.064117431640625,-0.3132396638393402,1.454240918159485,-0.3959800899028778,40.56986999511719,99.18310546875,-10.770263671875
176211,-0.1630401611328125,-0.06658935546875,0.0569000244140625,-0.3132396638393402,1.454240918159485,-0.3959800899028778,40.575439453125,99.0740203857422,-10.68698120117188
176212,-0.1847381591796875,-0.0676422119140625,0.0297698974609375,-0.3872294723987579,1.579320549964905,-0.5261167883872986,40.38359069824219,98.91952514648438,-10.74671936035156
176213,-0.1847381591796875,-0.0676422119140625,0.0297698974609375,-0.3872294723987579,1.579320549964905,-0.5261167883872986,40.38359069824219,98.91952514648438,-10.74671936035156
176214,-0.087890625,-0.1166229248046875,-0.2524871826171875,-0.4354643821716309,1.260764122009277,-0.675667405128479,39.98463439941406,98.8809814453125,-10.50154113769531
176215,0.0082550048828125,-0.1240386962890625,-0.4806365966796875,-0.3738859891891479,0.453614354133606,-0.6248846650123596,39.6220703125,98.80908203125,-10.3797607421875
176216,0.09814453125,-0.0005950927734375,-0.590484619140625,-0.2524413168430328,-0.642486572265625,-0.5617133975028992,39.27252197265625,98.84625244140624,-10.24575805664062
176217,0.09814453125,-0.0005950927734375,-0.590484619140625,-0.2524413168430328,-0.642486572265625,-0.5617133975028992,39.27252197265625,98.84625244140624,-10.24575805664062
176218,0.0944366455078125,0.09942626953125,-0.4681396484375,-0.0370786599814891,-1.885223269462585,-0.627111554145813,38.82196044921875,98.83377075195312,-10.11557006835938
176219,0.068023681640625,0.148956298828125,0.184173583984375,-0.0758492276072502,-1.374225258827209,-0.6825668215751648,38.06295776367188,99.15829467773438,-9.827957153320312
176220,0.0867919921875,0.357574462890625,0.4253082275390625,-0.2980135679244995,-0.3115890324115753,-0.7791628837585449,37.518310546875,99.1001434326172,-9.700286865234377
176221,0.0867919921875,0.357574462890625,0.4253082275390625,-0.2980135679244995,-0.3115890324115753,-0.7791628837585449,37.518310546875,99.1001434326172,-9.700286865234377
176222,0.1355438232421875,0.719451904296875,0.430999755859375,-0.8694616556167603,0.7794995307922363,-1.014398574829102,36.85702514648438,99.0872802734375,-9.710372924804688
176223,0.227569580078125,2.378372192382812,0.37225341796875,-1.345074534416199,1.475597143173218,-1.51909613609314,36.11087036132812,99.18124389648438,-9.866058349609377
176224,0.244476318359375,5.403366088867188,-0.047760009765625,-2.10174298286438,0.0311531256884336,-1.347922444343567,34.10140991210938,99.40208435058594,-9.900634765625
176225,-0.142547607421875,6.911102294921875,0.571441650390625,-1.946089744567871,-2.369601964950562,-1.469802618026733,33.38505554199219,99.31639099121094,-9.290908813476562
176226,-0.458465576171875,6.345443725585938,1.560134887695312,-1.178711891174316,-2.508433818817139,-1.422910213470459,32.88209533691406,98.9251708984375,-8.417236328125
176227,-0.39404296875,3.89776611328125,1.452865600585938,-0.5595335960388184,-1.408464074134827,-0.9074825048446656,32.60398864746094,98.38864135742188,-7.265518188476562
176228,-0.328826904296875,2.245895385742188,0.803436279296875,-0.0585464015603065,-0.310939759016037,-0.7885939478874207,32.51121520996094,97.853759765625,-6.194183349609375
176229,-0.328826904296875,2.245895385742188,0.803436279296875,-0.0585464015603065,-0.310939759016037,-0.7885939478874207,32.51121520996094,97.853759765625,-6.194183349609375
176230,-0.24603271484375,1.478622436523438,0.271087646484375,0.3886342942714691,0.3863783180713654,-0.7917900085449219,32.37751770019531,97.4811553955078,-5.7138671875
176231,-0.21466064453125,1.160629272460938,-0.6947784423828125,1.39673638343811,-0.0852483212947845,-0.3756420612335205,31.82316589355469,97.1387939453125,-6.00506591796875
176232,-0.155731201171875,1.518539428710938,-0.8732147216796875,1.48016631603241,-0.4245139956474304,0.1677839457988739,31.48042297363281,97.09700012207033,-6.5816650390625
176233,-0.155731201171875,1.518539428710938,-0.8732147216796875,1.48016631603241,-0.4245139956474304,0.1677839457988739,31.48042297363281,97.09700012207033,-6.5816650390625
176234,0.0493621826171875,1.89862060546875,-0.66033935546875,0.2878565490245819,-0.4951924383640289,0.6167433857917786,31.33586120605469,97.2278289794922,-7.1837158203125
176235,0.1778411865234375,1.878143310546875,0.185333251953125,-0.20778489112854,0.295392245054245,0.7465474605560303,31.71919250488281,97.47207641601562,-7.867721557617188
176236,0.127471923828125,1.81903076171875,0.113739013671875,-0.4299042522907257,0.7708187103271484,0.7819246053695679,32.10005187988281,97.49327087402344,-7.947845458984375
176237,0.127471923828125,1.81903076171875,0.113739013671875,-0.4299042522907257,0.7708187103271484,0.7819246053695679,32.10005187988281,97.49327087402344,-7.947845458984375
176238,0.048187255859375,1.765060424804688,0.09783935546875,-0.3467678129673004,0.7610172033309937,0.645114541053772,32.57652282714844,97.31954956054688,-7.751205444335938
176239,-0.2236480712890625,1.40625,0.2244110107421875,0.482377827167511,0.6517029404640198,0.2983885705471039,33.55772399902344,97.05419921875,-7.416976928710938
176240,-0.274261474609375,1.1727294921875,0.1607208251953125,0.8955758213996887,0.6426665782928467,0.1996388137340546,33.91091918945312,96.9879913330078,-7.518661499023438
176241,-0.274261474609375,1.1727294921875,0.1607208251953125,0.8955758213996887,0.6426665782928467,0.1996388137340546,33.91091918945312,96.9879913330078,-7.518661499023438
176242,-0.2850799560546875,0.6906585693359375,-0.1339569091796875,1.317277193069458,0.205920934677124,0.1031599417328835,34.27694702148438,97.11296081542967,-8.760116577148438
176243,-0.3189239501953125,0.404510498046875,-0.1966552734375,1.285419106483459,-0.0105604985728859,0.1935308426618576,34.38279724121094,97.04338073730467,-9.41680908203125
176244,-0.2870330810546875,0.1490478515625,-0.240234375,1.082845330238342,0.114600881934166,0.4434000849723816,34.57853698730469,97.05331420898438,-10.01350402832031
176245,-0.2870330810546875,0.1490478515625,-0.240234375,1.082845330238342,0.114600881934166,0.4434000849723816,34.57853698730469,97.05331420898438,-10.01350402832031
176246,-0.14312744140625,0.0032958984375,-0.4278564453125,0.8052674531936646,-0.2346782833337784,1.017736077308655,34.72119140625,97.10334777832033,-10.72520446777344
176247,0.1602630615234375,-0.0484771728515625,-0.6144866943359375,0.9517375826835632,-0.8606820106506348,1.186362862586975,35.11360168457031,97.23243713378906,-11.51171875
176248,0.2320709228515625,-0.0343017578125,-0.445404052734375,1.104655265808105,-1.089769005775452,1.252061486244202,35.43403625488281,97.30836486816406,-11.83894348144531
176249,0.2320709228515625,-0.0343017578125,-0.445404052734375,1.104655265808105,-1.089769005775452,1.252061486244202,35.43403625488281,97.30836486816406,-11.83894348144531
176250,0.2906036376953125,-0.04364013671875,-0.2511138916015625,1.082246661186218,-0.7423401474952698,1.237903833389282,35.73149108886719,97.68815612792967,-12.12673950195312
176251,0.3132476806640625,0.0363616943359375,0.0601959228515625,0.3003390431404114,1.520553350448608,0.7291173338890076,36.41792297363281,98.20294189453124,-12.62251281738281
176252,0.256805419921875,0.1425628662109375,0.1331024169921875,0.3003390431404114,1.520553350448608,0.7291173338890076,36.7957763671875,98.36557006835938,-12.92372131347656
176253,0.256805419921875,0.1425628662109375,0.1331024169921875,0.3003390431404114,1.520553350448608,0.7291173338890076,36.7957763671875,98.36557006835938,-12.92372131347656
176254,0.2061920166015625,0.1677398681640625,0.0681915283203125,0.1260218471288681,1.629528045654297,0.4696833491325378,37.20307922363281,98.45692443847656,-13.26820373535156
176255,0.04998779296875,-0.000213623046875,-0.1353302001953125,0.0848997086286544,0.792456865310669,0.19101282954216,37.77754211425781,98.52294921875,-13.72221374511719
176256,0.0318450927734375,-0.0597381591796875,-0.09503173828125,0.1034867092967033,0.3909448683261871,0.1201373264193535,38.09646606445312,98.5443115234375,-13.91554260253906
176257,0.0318450927734375,-0.0597381591796875,-0.09503173828125,0.1034867092967033,0.3909448683261871,0.1201373264193535,38.09646606445312,98.5443115234375,-13.91554260253906
176258,0.0315399169921875,-0.077056884765625,-0.047882080078125,-0.0699327439069747,0.1198992431163788,0.028463864699006,38.26411437988281,98.57420349121094,-14.02738952636719
176259,0.0261993408203125,-0.1077880859375,-0.0424957275390625,-0.2430499345064163,0.1398785412311554,0.0199846271425485,38.37696838378906,98.6447296142578,-14.12715148925781
176260,0.0185699462890625,-0.1221466064453125,-0.0714569091796875,-0.4215472340583801,0.2407827824354172,0.0316868238151073,38.40107727050781,98.66189575195312,-14.08464050292969
176261,0.008575439453125,-0.1341400146484375,-0.1674957275390625,-0.7493799924850464,0.2039496749639511,0.0721903070807457,38.45895385742188,98.81925964355467,-13.96482849121094
176262,0.008575439453125,-0.1341400146484375,-0.1674957275390625,-0.7493799924850464,0.2039496749639511,0.0721903070807457,38.45895385742188,98.81925964355467,-13.96482849121094
176263,-0.0298614501953125,-0.1806182861328125,-0.237213134765625,-0.9184193015098572,0.2024327367544174,0.0886648893356323,38.57440185546875,98.91325378417967,-13.44789123535156
176264,-0.074432373046875,-0.22137451171875,-0.18341064453125,-1.152853965759277,0.6101304888725281,0.068307414650917,38.67451477050781,98.86123657226562,-12.89617919921875
176265,-0.074432373046875,-0.22137451171875,-0.18341064453125,-1.152853965759277,0.6101304888725281,0.068307414650917,38.67451477050781,98.86123657226562,-12.89617919921875
176266,-0.1199188232421875,-0.1823272705078125,-0.26287841796875,-1.339673399925232,1.019267320632935,-0.1928490847349167,39.08416748046875,99.02488708496094,-11.75859069824219
176267,-0.14483642578125,-0.13848876953125,-0.23223876953125,-1.339673399925232,1.019267320632935,-0.1928490847349167,39.28564453125,98.87239074707033,-11.03529357910156
176268,-0.1240386962890625,-0.0110931396484375,-0.1314849853515625,-1.232019066810608,0.9899073839187622,-0.3280785381793976,39.44065856933594,98.69563293457033,-10.26693725585938
176269,-0.1240386962890625,-0.0110931396484375,-0.1314849853515625,-1.232019066810608,0.9899073839187622,-0.3280785381793976,39.44065856933594,98.69563293457033,-10.26693725585938
176270,-0.00360107421875,0.1464385986328125,0.0518341064453125,-1.133421063423157,1.167638421058655,-0.3873434662818909,39.32398986816406,98.6117706298828,-9.687286376953123
176271,0.03448486328125,0.121551513671875,0.359771728515625,-1.19284451007843,1.820825576782227,-0.5100105404853821,38.95468139648438,98.41885375976562,-8.735061645507812
176272,0.0347442626953125,0.2132568359375,0.4607696533203125,-1.300500631332397,2.174101114273071,-0.5841241478919983,38.44010925292969,98.3433074951172,-8.369110107421875
176273,0.0447235107421875,0.3945770263671875,0.6572113037109375,-1.491854667663574,2.565912961959839,-0.7045807838439941,37.89642333984375,98.36717224121094,-8.326675415039062
176274,0.0447235107421875,0.3945770263671875,0.6572113037109375,-1.491854667663574,2.565912961959839,-0.7045807838439941,37.89642333984375,98.36717224121094,-8.326675415039062
176275,-0.0118408203125,3.515640258789062,1.149917602539062,-1.499104022979736,2.94856595993042,-0.0874227881431579,36.90982055664062,98.31178283691406,-8.79327392578125
176276,-0.4915771484375,4.803955078125,1.436355590820312,-1.191325664520264,1.707320332527161,1.032902479171753,36.55484008789062,98.20863342285156,-9.123275756835938
176277,-0.4915771484375,4.803955078125,1.436355590820312,-1.191325664520264,1.707320332527161,1.032902479171753,36.55484008789062,98.20863342285156,-9.123275756835938
176278,-0.963470458984375,5.78887939453125,1.582534790039062,-0.4434986114501953,0.3889189958572388,0.8782010674476624,36.54055786132812,98.0771484375,-9.377899169921877
176279,-0.8906707763671875,5.471878051757812,1.559829711914062,-0.1209589093923569,-0.2528381049633026,-0.0868845656514167,36.92752075195312,98.05290222167967,-9.559951782226562
176280,-0.11993408203125,2.127090454101562,0.5746307373046875,-1.700413107872009,-0.6086092591285706,-0.7017179131507874,37.31884765625,98.05989074707033,-9.194137573242188
176281,-0.11993408203125,2.127090454101562,0.5746307373046875,-1.700413107872009,-0.6086092591285706,-0.7017179131507874,37.31884765625,98.05989074707033,-9.194137573242188
176282,0.2423248291015625,1.47357177734375,0.0152740478515625,-2.181436061859131,-0.7803876996040344,-0.3509676158428192,36.48860168457031,97.83976745605467,-8.09039306640625
176283,0.5320587158203125,1.688980102539062,-0.5966644287109375,-1.969027280807495,-1.38659930229187,0.2202071994543076,36.04904174804688,97.52252197265624,-6.920486450195312
176284,0.8597869873046875,2.119110107421875,-1.2445068359375,-1.174876928329468,-3.35121750831604,0.8477765917778015,35.70712280273438,97.42581176757812,-5.7723388671875
176285,0.8597869873046875,2.119110107421875,-1.2445068359375,-1.174876928329468,-3.35121750831604,0.8477765917778015,35.70712280273438,97.42581176757812,-5.7723388671875
176286,0.8397979736328125,2.417800903320312,0.13873291015625,1.116374731063843,0.885099470615387,0.8592302799224854,35.5692138671875,97.41607666015624,-4.616775512695312
176287,0.4250946044921875,2.06976318359375,0.1119537353515625,1.258700251579285,2.231608867645264,0.5024162530899048,36.11180114746094,97.61929321289062,-3.070556640625
176288,0.1183319091796875,1.884994506835938,-0.077789306640625,0.8792982697486877,1.726238608360291,0.145380362868309,36.48786926269531,97.82072448730467,-3.170913696289062
176289,0.1183319091796875,1.884994506835938,-0.077789306640625,0.8792982697486877,1.726238608360291,0.145380362868309,36.48786926269531,97.82072448730467,-3.170913696289062
176290,-0.0944061279296875,1.783279418945312,0.1686553955078125,0.4487008154392242,1.085140705108643,-0.221913754940033,36.66050720214844,97.9788055419922,-3.848556518554688
176291,-0.2603607177734375,1.299301147460938,0.23443603515625,0.1021490022540092,0.306000143289566,-0.689116358757019,36.9244384765625,97.69053649902344,-5.000473022460938
176292,-0.287445068359375,1.018798828125,0.1985931396484375,0.1667003035545349,0.0759932994842529,-0.6719115376472473,36.87855529785156,97.46232604980467,-5.285293579101562
176293,-0.287445068359375,1.018798828125,0.1985931396484375,0.1667003035545349,0.0759932994842529,-0.6719115376472473,36.87855529785156,97.46232604980467,-5.285293579101562
176294,-0.310394287109375,0.762939453125,0.2090301513671875,0.4820771515369415,0.1729882955551147,-0.415757805109024,36.832275390625,97.39581298828124,-5.535140991210938
176295,-0.3665313720703125,0.401336669921875,0.2026519775390625,0.685001790523529,0.400674968957901,-0.2575186192989349,36.44850158691406,97.160888671875,-5.753585815429688
176296,-0.396453857421875,0.24505615234375,0.15716552734375,0.8735035061836243,0.6327188611030579,-0.0480599366128444,36.23304748535156,97.20411682128906,-6.129379272460938
176297,-0.4020843505859375,0.106201171875,0.0926055908203125,1.019004225730896,0.7967381477355957,0.2174092829227448,36.15516662597656,97.27180480957033,-6.671737670898438
176298,-0.4020843505859375,0.106201171875,0.0926055908203125,1.019004225730896,0.7967381477355957,0.2174092829227448,36.15516662597656,97.27180480957033,-6.671737670898438
176299,-0.2914276123046875,-0.05859375,-0.1381683349609375,1.160465478897095,0.7821274995803833,0.5012292861938477,36.17538452148438,97.39627075195312,-7.7860107421875
176300,-0.201446533203125,-0.1167449951171875,-0.2814788818359375,1.218509316444397,0.5593191981315613,0.5262960195541382,36.20516967773438,97.56095886230467,-8.42437744140625
176301,-0.201446533203125,-0.1167449951171875,-0.2814788818359375,1.218509316444397,0.5593191981315613,0.5262960195541382,36.20516967773438,97.56095886230467,-8.42437744140625
176302,-0.115234375,-0.1765594482421875,-0.4239654541015625,1.239306807518005,0.2629128396511078,0.5296252369880676,36.442626953125,97.56251525878906,-9.071136474609377
176303,-0.004669189453125,-0.2094268798828125,-0.5010223388671875,1.131942510604858,-0.4026238918304443,0.5999673008918762,36.52403259277344,97.75942993164062,-9.686309814453123
176304,0.0894622802734375,-0.1127471923828125,0.03460693359375,1.061699032783508,-0.1965708434581757,0.5702800154685974,36.77210998535156,98.14576721191406,-10.7872314453125
176305,0.10357666015625,-0.080963134765625,0.2620849609375,0.9991527795791626,0.3703676760196686,0.5004066228866577,36.8328857421875,98.18605041503906,-11.11947631835938
176306,0.10357666015625,-0.080963134765625,0.2620849609375,0.9991527795791626,0.3703676760196686,0.5004066228866577,36.8328857421875,98.18605041503906,-11.11947631835938
176307,0.1228790283203125,-0.0567779541015625,0.305694580078125,0.5871814489364624,1.954137086868286,0.3474109470844269,37.1395263671875,98.66880798339844,-11.86775207519531
176308,0.1290130615234375,-0.047027587890625,0.2755279541015625,0.5871814489364624,1.954137086868286,0.3474109470844269,37.22663879394531,98.83372497558594,-12.22801208496094
176309,0.13232421875,-0.0396881103515625,0.235321044921875,0.4130429625511169,2.16915225982666,0.3174282908439636,37.41236877441406,98.8329620361328,-12.60772705078125
176310,0.13232421875,-0.0396881103515625,0.235321044921875,0.4130429625511169,2.16915225982666,0.3174282908439636,37.41236877441406,98.8329620361328,-12.60772705078125
176311,0.0566253662109375,0.023956298828125,0.1740875244140625,0.0639480873942375,2.122003793716431,0.0682914406061172,37.68260192871094,98.82127380371094,-13.15071105957031
176312,0.00164794921875,0.025848388671875,0.148956298828125,-0.0949350371956825,1.96062958240509,-0.2087588012218475,37.91902160644531,98.70304870605467,-13.43325805664062
176313,-0.0542449951171875,-0.014923095703125,0.131927490234375,-0.3148410320281982,1.515686750411987,-0.5345664620399475,38.07981872558594,98.74560546875,-13.61703491210938
176314,-0.0542449951171875,-0.014923095703125,0.131927490234375,-0.3148410320281982,1.515686750411987,-0.5345664620399475,38.07981872558594,98.74560546875,-13.61703491210938
176315,-0.0818634033203125,-0.0384063720703125,0.08831787109375,-0.3938365280628204,1.250097632408142,-0.6250079274177551,37.93086242675781,98.57957458496094,-14.05213928222656
176316,-0.08099365234375,-0.0392913818359375,0.0741119384765625,-0.4730679392814636,0.992919147014618,-0.7061925530433655,37.71308898925781,98.58566284179688,-14.10032653808594
176317,-0.08099365234375,-0.0392913818359375,0.0741119384765625,-0.4730679392814636,0.992919147014618,-0.7061925530433655,37.71308898925781,98.58566284179688,-14.10032653808594
176318,-0.0838165283203125,-0.030181884765625,0.069000244140625,-0.6780983209609985,0.582634687423706,-0.881663978099823,37.48170471191406,98.53547668457033,-14.10061645507812
176319,-0.0904388427734375,0.0947418212890625,0.0149688720703125,-0.8501071333885193,0.3589490950107574,-0.9907105565071106,36.6748046875,98.42152404785156,-14.05535888671875
176320,-0.0713653564453125,0.202392578125,-0.1773834228515625,-1.01704740524292,-0.086448073387146,-1.118746042251587,36.22950744628906,98.36392211914062,-13.86863708496094
176321,-0.0419158935546875,0.3899993896484375,-0.6448211669921875,-0.8889343738555908,-1.312363743782043,-1.276509046554565,35.66279602050781,98.40719604492188,-13.60179138183594
176322,-0.0419158935546875,0.3899993896484375,-0.6448211669921875,-0.8889343738555908,-1.312363743782043,-1.276509046554565,35.66279602050781,98.40719604492188,-13.60179138183594
176323,-0.1243896484375,1.251068115234375,-0.6321258544921875,0.0155669758096337,-2.429247379302979,-2.270629167556763,34.94415283203125,98.48394775390624,-13.39297485351562
176324,-0.33807373046875,3.109115600585938,0.474945068359375,0.1927793025970459,0.8699809312820435,-1.15130877494812,32.97714233398438,98.85052490234376,-12.64356994628906
176325,-0.145660400390625,3.796737670898438,0.3069915771484375,0.1927793025970459,0.8699809312820435,-1.15130877494812,31.69601440429688,98.94435119628906,-12.35517883300781
176326,0.12335205078125,4.2877197265625,0.1611328125,0.0394816286861896,0.8685029149055481,-0.4590296447277069,30.48106384277344,98.78001403808594,-12.28329467773438
176327,0.225433349609375,4.395782470703125,0.2761688232421875,-0.3651041984558105,-0.0613216795027256,0.2830641865730286,29.7552490234375,98.4074249267578,-12.24818420410156
176328,0.1226959228515625,4.208587646484375,0.6122894287109375,-0.6798328757286072,-1.005557179450989,0.757179856300354,29.4090576171875,98.08552551269533,-12.24227905273438
176329,0.1226959228515625,4.208587646484375,0.6122894287109375,-0.6798328757286072,-1.005557179450989,0.757179856300354,29.4090576171875,98.08552551269533,-12.24227905273438
176330,-0.2172698974609375,3.5218505859375,0.935302734375,-0.6096093058586121,-0.49392369389534,0.1334890872240067,29.53782653808594,97.79299926757812,-12.11396789550781
176331,-0.45953369140625,2.656982421875,0.651123046875,-0.2617485225200653,0.7046905159950256,-0.364849865436554,29.75933837890625,97.88835144042967,-11.91316223144531
176332,-0.35162353515625,1.988265991210938,-0.624664306640625,1.319880962371826,0.8177747130393982,0.2186617702245712,30.05816650390625,97.7229461669922,-11.384521484375
176333,-0.023162841796875,2.13720703125,-0.7350006103515625,1.915478587150574,0.3532957434654236,0.793354868888855,30.02507019042969,97.5705108642578,-11.51768493652344
176334,-0.023162841796875,2.13720703125,-0.7350006103515625,1.915478587150574,0.3532957434654236,0.793354868888855,30.02507019042969,97.5705108642578,-11.51768493652344
176335,0.406646728515625,2.062347412109375,-0.50286865234375,1.436230301856995,-0.4716634154319763,1.385524153709412,30.31494140625,97.46859741210938,-13.15431213378906
176336,0.469512939453125,1.830276489257812,-0.170166015625,0.5401772260665894,0.106240950524807,1.847100019454956,30.66383361816406,97.66120910644533,-14.12388610839844
176337,0.44952392578125,1.657852172851562,0.0615081787109375,0.3751022517681122,0.7150057554244995,1.905374526977539,31.20439147949219,97.84288024902344,-14.7205810546875
176338,0.388671875,1.542694091796875,0.1762237548828125,0.3751022517681122,0.7150057554244995,1.905374526977539,31.94139099121094,98.04714965820312,-15.20150756835938
176339,0.3256072998046875,1.39654541015625,0.1782379150390625,0.4739412069320679,0.9924099445343018,1.725814938545227,32.88502502441406,98.16244506835938,-15.36911010742188
176340,0.2551116943359375,1.2445068359375,0.170379638671875,0.730735182762146,0.8146346211433411,1.362848162651062,34.86933898925781,98.39993286132812,-15.58941650390625
176341,0.2551116943359375,1.2445068359375,0.170379638671875,0.730735182762146,0.8146346211433411,1.362848162651062,34.86933898925781,98.39993286132812,-15.58941650390625
176342,0.121551513671875,1.034774780273438,0.2332763671875,1.04300332069397,0.5269895195960999,0.9508350491523744,35.79000854492188,98.49713134765624,-15.94136047363281
176343,-0.0827178955078125,0.65216064453125,0.20257568359375,1.541864037513733,0.1988507807254791,0.4634499549865723,37.10337829589844,98.41258239746094,-16.95062255859375
176344,-0.1158905029296875,0.47137451171875,0.158447265625,1.622354865074158,-0.0212349817156791,0.2525688707828522,37.60252380371094,98.35256958007812,-17.63215637207031
176345,-0.1313934326171875,0.31390380859375,0.125091552734375,1.567868113517761,-0.221145436167717,0.0443552136421203,37.79710388183594,98.3309326171875,-18.43925476074219
176346,-0.1313934326171875,0.31390380859375,0.125091552734375,1.567868113517761,-0.221145436167717,0.0443552136421203,37.79710388183594,98.3309326171875,-18.43925476074219
176347,-0.115753173828125,0.0577545166015625,0.0446624755859375,1.186327219009399,-0.5347081422805786,-0.3121118247509003,38.05021667480469,98.33047485351562,-19.88836669921875
176348,-0.110748291015625,-0.031982421875,0.022552490234375,0.9489612579345704,-0.6328895688056946,-0.4495575726032257,38.03526306152344,98.33477783203124,-20.56182861328125
176349,-0.110748291015625,-0.031982421875,0.022552490234375,0.9489612579345704,-0.6328895688056946,-0.4495575726032257,38.03526306152344,98.33477783203124,-20.56182861328125
176350,-0.0961456298828125,-0.096405029296875,0.034423828125,0.5806056261062622,-0.5368799567222595,-0.6014205813407898,37.62977600097656,98.21234130859376,-21.41578674316406
176351,-0.113037109375,-0.12847900390625,0.0443267822265625,0.4540095627307892,-0.3058379590511322,-0.6121312975883484,37.35516357421875,98.15231323242188,-21.61613464355469
176352,-0.1236114501953125,-0.1790618896484375,0.0423126220703125,0.3071817755699158,-0.039373505860567,-0.5682405233383179,37.16441345214844,98.06016540527344,-21.79153442382812
176353,-0.12701416015625,-0.2291717529296875,0.047454833984375,0.1231155395507812,0.2778579890727997,-0.4747966229915619,36.84440612792969,97.9483642578125,-21.84904479980469
176354,-0.12701416015625,-0.2291717529296875,0.047454833984375,0.1231155395507812,0.2778579890727997,-0.4747966229915619,36.84440612792969,97.9483642578125,-21.84904479980469
176355,-0.104217529296875,-0.3597412109375,-0.264495849609375,-0.1197415813803673,0.5595424175262451,-0.1598708927631378,36.64851379394531,97.81231689453124,-21.3834228515625
176356,-0.10455322265625,-0.511016845703125,-0.506378173828125,-0.1522832810878754,0.0880491659045219,0.1275558322668076,36.78715515136719,97.58741760253906,-20.91793823242188
176357,-0.10455322265625,-0.511016845703125,-0.506378173828125,-0.1522832810878754,0.0880491659045219,0.1275558322668076,36.78715515136719,97.58741760253906,-20.91793823242188
176358,-0.1309051513671875,-0.6609344482421875,-0.6105499267578125,-0.3097954094409943,-0.1021109223365784,0.6054396033287048,37.09332275390625,97.51382446289062,-20.35679626464844
176359,0.037994384765625,-0.491455078125,-0.33843994140625,-0.0352109856903553,-0.7037762403488159,1.21579110622406,38.25672912597656,96.68870544433594,-19.11161804199219
176360,0.040374755859375,-0.425628662109375,-0.02545166015625,-0.0148218227550387,-0.0564656741917133,1.137301325798035,38.66038513183594,96.06541442871094,-18.6756591796875
176361,0.040374755859375,-0.425628662109375,-0.02545166015625,-0.0148218227550387,-0.0564656741917133,1.137301325798035,38.66038513183594,96.06541442871094,-18.6756591796875
176362,0.098724365234375,-0.3232879638671875,-0.0081787109375,-0.2857318818569183,1.625596761703491,0.7900546789169312,38.73126220703125,95.47747802734376,-18.67530822753906
176363,0.103607177734375,-0.3129425048828125,-0.08837890625,-0.4331999123096466,1.977012515068054,0.6634304523468018,38.54243469238281,95.55198669433594,-18.81088256835938
176364,0.0987548828125,-0.3028106689453125,-0.1360321044921875,-0.598262369632721,1.992311835289001,0.559493362903595,38.408203125,95.83274841308594,-18.81956481933594
176365,0.0987548828125,-0.3028106689453125,-0.1360321044921875,-0.598262369632721,1.992311835289001,0.559493362903595,38.408203125,95.83274841308594,-18.81956481933594
176366,0.1017303466796875,-0.4449615478515625,-0.339111328125,-0.8874699473381042,1.010205984115601,0.3286353945732117,38.55740356445312,96.53434753417967,-18.84371948242188
176367,0.0911102294921875,-0.49481201171875,-0.3144378662109375,-1.073621153831482,0.2846461236476898,-0.1685245633125305,38.78025817871094,96.81195068359376,-18.38275146484375
176368,-0.01934814453125,-0.128509521484375,-0.07568359375,-1.257296204566956,-0.076281189918518,-0.5315256714820862,38.88005065917969,97.156494140625,-17.97610473632812
176369,-0.0480499267578125,0.114288330078125,0.191619873046875,-1.439087271690369,0.2200700491666794,-0.4719440937042236,38.69606018066406,97.25794982910156,-17.52400207519531
176370,-0.0480499267578125,0.114288330078125,0.191619873046875,-1.439087271690369,0.2200700491666794,-0.4719440937042236,38.69606018066406,97.25794982910156,-17.52400207519531
176371,-0.052032470703125,0.178466796875,0.2625274658203125,-1.696176648139954,0.5003728270530701,-0.4511807560920715,38.47377014160156,97.17489624023438,-16.9808349609375
176372,-0.12701416015625,0.5061492919921875,0.8163299560546875,-2.176886796951294,0.7014161944389343,-0.6315010190010071,38.22378540039062,96.55892944335938,-15.28427124023438
176373,-0.262176513671875,0.86016845703125,1.280548095703125,-2.123683929443359,1.073335886001587,-0.9777644276618958,38.63897705078125,96.19905090332033,-14.03085327148438
176374,-0.6452484130859375,1.261322021484375,1.44970703125,-1.473174691200256,2.159021377563477,-2.272231101989746,39.08683776855469,96.63265991210938,-12.63047790527344
176375,-1.183624267578125,3.202804565429688,1.876434326171875,-1.473174691200256,2.159021377563477,-2.272231101989746,38.67880249023438,97.89407348632812,-12.22151184082031
176376,-0.9586029052734376,7.360519409179688,1.971847534179688,0.0073223612271249,4.453605651855469,0.3243319988250732,37.66900634765625,99.24958801269533,-13.52925109863281
176377,-0.9586029052734376,7.360519409179688,1.971847534179688,0.0073223612271249,4.453605651855469,0.3243319988250732,37.66900634765625,99.24958801269533,-13.52925109863281
176378,-0.8667755126953125,8.130767822265625,1.100799560546875,-0.9945822954177856,2.25317120552063,5.766906261444092,37.04179382324219,100.1744537353516,-16.16700744628906
176379,-0.9515228271484376,7.863601684570312,0.860076904296875,-1.284123778343201,0.0618159621953964,3.59328556060791,37.88801574707031,100.9370574951172,-18.3594970703125
176380,0.835693359375,2.125579833984375,-0.2635955810546875,-1.901489853858948,-3.545314073562622,0.8469027876853943,40.73905944824219,101.17822265625,-16.82281494140625
176381,0.835693359375,2.125579833984375,-0.2635955810546875,-1.901489853858948,-3.545314073562622,0.8469027876853943,40.73905944824219,101.17822265625,-16.82281494140625
176382,1.617950439453125,0.5394744873046875,-2.078842163085938,-1.863589882850647,-3.118456602096558,2.301234722137451,41.16799926757812,100.8162384033203,-12.86410522460938
176383,1.600860595703125,0.5832672119140625,-1.585433959960938,-0.0684496313333511,-0.4753196537494659,2.469717741012573,41.62228393554688,100.8124237060547,-11.06161499023438
176384,1.046920776367188,1.19830322265625,-0.13818359375,1.939698696136475,1.535663366317749,2.171811103820801,42.62835693359375,100.7333526611328,-9.740127563476562
176385,0.8730926513671875,1.495361328125,0.0317230224609375,2.801954746246338,2.315406799316406,1.802684187889099,43.81356811523438,100.7344970703125,-9.454910278320312
176386,0.706817626953125,1.550125122070312,-0.1724090576171875,2.539529085159302,1.556642413139343,1.438545107841492,44.9434814453125,100.6552581787109,-10.35455322265625
176387,0.458892822265625,1.467910766601562,0.07330322265625,1.787986636161804,0.4518793225288391,1.066529154777527,46.01077270507812,100.6967620849609,-11.83512878417969
176388,0.285919189453125,1.31182861328125,0.4008026123046875,1.157662510871887,0.1526135057210922,0.6956562995910645,46.84521484375,100.58984375,-13.147216796875
176389,0.285919189453125,1.31182861328125,0.4008026123046875,1.157662510871887,0.1526135057210922,0.6956562995910645,46.84521484375,100.58984375,-13.147216796875
176390,0.2305755615234375,1.032180786132812,0.4211273193359375,0.764065682888031,0.253071129322052,0.4500007033348083,47.47395324707031,100.5625152587891,-14.15887451171875
176391,0.1078948974609375,0.61199951171875,0.287109375,0.507635772228241,0.4730274677276611,0.2002497315406799,48.34138488769531,100.505859375,-15.05015563964844
176392,0.038818359375,0.4438934326171875,0.0782623291015625,0.5534346699714661,0.3052291572093964,0.0785693749785423,48.5780029296875,100.4846343994141,-15.32864379882812
176393,0.038818359375,0.4438934326171875,0.0782623291015625,0.5534346699714661,0.3052291572093964,0.0785693749785423,48.5780029296875,100.4846343994141,-15.32864379882812
176394,-0.0264739990234375,0.3000335693359375,-0.077392578125,0.6407589316368103,-0.2165789157152176,-0.0522245876491069,48.93055725097656,100.3314208984375,-15.67216491699219
176395,-0.139556884765625,0.124969482421875,0.002593994140625,0.8647417426109314,-1.092607378959656,-0.4727494418621063,49.14187622070312,100.2955474853516,-16.30604553222656
176396,-0.1802978515625,0.0760345458984375,0.0807647705078125,0.9386809468269348,-1.153058409690857,-0.7925722002983093,49.07330322265625,100.3501434326172,-16.58407592773438
176397,-0.1802978515625,0.0760345458984375,0.0807647705078125,0.9386809468269348,-1.153058409690857,-0.7925722002983093,49.07330322265625,100.3501434326172,-16.58407592773438
176398,-0.2031097412109375,0.0205841064453125,0.06280517578125,0.9875006675720216,-1.09099805355072,-1.173606872558594,48.75157165527344,100.3661193847656,-16.9439697265625
176399,-0.1510162353515625,-0.084442138671875,-0.050445556640625,0.9484025239944458,-1.140481948852539,-1.848292350769043,47.95439147949219,100.3576354980469,-17.92935180664062
176400,-0.1377716064453125,-0.1163330078125,-0.0328216552734375,0.9503969550132751,-1.08266818523407,-2.070731639862061,47.2520751953125,100.3184661865234,-18.37042236328125
176401,-0.1377716064453125,-0.1163330078125,-0.0328216552734375,0.9503969550132751,-1.08266818523407,-2.070731639862061,47.2520751953125,100.3184661865234,-18.37042236328125
176402,-0.1317596435546875,-0.1541290283203125,-0.0157928466796875,0.9649897813796996,-0.9117214679718018,-2.233206510543823,46.47097778320312,100.2538909912109,-18.952880859375
176403,-0.1227569580078125,-0.2517852783203125,0.0109710693359375,0.9562188982963562,-0.3147941529750824,-2.286608219146729,44.4774169921875,100.1045379638672,-20.13885498046875
176404,-0.148712158203125,-0.354766845703125,0.006134033203125,0.8979036808013916,0.1466653347015381,-2.070261001586914,43.36334228515625,99.96571350097656,-20.51210021972656
176405,-0.1240234375,-0.4431915283203125,-0.0236663818359375,0.7899351119995117,0.6204030513763428,-1.717242956161499,42.40829467773438,100.0023956298828,-20.99531555175781
176406,-0.1240234375,-0.4431915283203125,-0.0236663818359375,0.7899351119995117,0.6204030513763428,-1.717242956161499,42.40829467773438,100.0023956298828,-20.99531555175781
176407,-0.0436248779296875,-0.4363250732421875,-0.076690673828125,0.279066264629364,1.673648715019226,-0.9913119077682496,40.96443176269531,99.78701782226562,-21.62564086914062
176408,0.0266265869140625,-0.3618316650390625,-0.104461669921875,0.1295585185289383,1.820083379745483,-0.7677770853042603,40.5828857421875,99.2267608642578,-21.64096069335938
176409,0.0266265869140625,-0.3618316650390625,-0.104461669921875,0.1295585185289383,1.820083379745483,-0.7677770853042603,40.5828857421875,99.2267608642578,-21.64096069335938
176410,0.0570220947265625,-0.25677490234375,-0.1087799072265625,-0.0710547342896461,1.563214778900146,-0.6491497755050659,40.04911804199219,98.01959228515624,-21.61788940429688
176411,0.0589752197265625,-0.2584381103515625,-0.1420745849609375,-0.2407790571451187,1.207459926605225,-0.6696204543113708,39.85476684570312,97.37655639648438,-21.41131591796875
176412,0.065460205078125,-0.297454833984375,-0.2002410888671875,-0.3763744235038757,0.708025336265564,-0.6323249936103821,39.57933044433594,96.9109344482422,-21.40693664550781
176413,0.065460205078125,-0.297454833984375,-0.2002410888671875,-0.3763744235038757,0.708025336265564,-0.6323249936103821,39.57933044433594,96.9109344482422,-21.40693664550781
176414,0.086395263671875,-0.345306396484375,-0.290618896484375,-0.399363100528717,0.1010488495230675,-0.5182684659957886,39.14706420898438,96.52389526367188,-21.38638305664062
176415,0.192169189453125,-0.3264617919921875,-0.33819580078125,-0.1781383156776428,-1.000454783439636,-0.1899494379758835,38.22386169433594,95.87554931640624,-20.90303039550781
176416,0.2175445556640625,-0.0541534423828125,-0.1388397216796875,-0.227700799703598,-0.8662921786308289,-0.1912897974252701,37.77261352539062,95.88304138183594,-20.59954833984375
176417,0.2175445556640625,-0.0541534423828125,-0.1388397216796875,-0.227700799703598,-0.8662921786308289,-0.1912897974252701,37.77261352539062,95.88304138183594,-20.59954833984375
176418,0.0885467529296875,0.2373046875,0.1602783203125,-0.8660567998886108,0.6837192177772522,-0.6824384927749634,37.12762451171875,96.03469848632812,-19.98345947265625
176419,0.0662689208984375,0.263916015625,0.242401123046875,-1.112380027770996,1.280843615531921,-0.8826637268066406,36.94749450683594,96.14492797851562,-19.53146362304688
176420,0.051666259765625,0.3001251220703125,0.480133056640625,-1.324544429779053,1.82373321056366,-1.081385374069214,36.72889709472656,96.40467834472656,-19.08648681640625
176421,0.0370941162109375,0.3985748291015625,0.6815185546875,-1.697384119033813,2.336745500564575,-1.287008762359619,36.58441162109375,96.639892578125,-18.78718566894531
176422,0.0370941162109375,0.3985748291015625,0.6815185546875,-1.697384119033813,2.336745500564575,-1.287008762359619,36.58441162109375,96.639892578125,-18.78718566894531
176423,-0.1091156005859375,1.7755126953125,1.165771484375,-1.678528904914856,0.8403292894363403,-1.841879487037659,35.49183654785156,97.5324249267578,-18.502685546875
176424,-0.3661651611328125,5.699874877929688,1.41143798828125,-1.678528904914856,0.8403292894363403,-1.841879487037659,34.68011474609375,97.78775024414062,-18.4705810546875
176425,-1.2486572265625,8.192672729492188,2.273117065429688,0.0171235930174589,0.98469877243042,1.347411394119263,33.89616394042969,98.30525207519533,-19.28080749511719
176426,-1.2486572265625,8.192672729492188,2.273117065429688,0.0171235930174589,0.98469877243042,1.347411394119263,33.89616394042969,98.30525207519533,-19.28080749511719
176427,-1.569076538085938,6.31182861328125,-0.2186431884765625,2.151543617248535,1.200063824653625,-1.09182596206665,34.74363708496094,99.48988342285156,-23.17280578613281
176428,-0.4795989990234375,2.563400268554688,-0.5971832275390625,1.203323006629944,-2.501061201095581,-2.239039659500122,36.18310546875,99.19471740722656,-24.16764831542969
176429,-0.4795989990234375,2.563400268554688,-0.5971832275390625,1.203323006629944,-2.501061201095581,-2.239039659500122,36.18310546875,99.19471740722656,-24.16764831542969
176430,0.0956878662109375,0.2509765625,-0.564422607421875,-1.461044549942017,-7.446882247924805,-2.478369951248169,35.05987548828125,97.43495178222656,-24.00433349609375
176431,0.20391845703125,0.1176300048828125,0.084747314453125,-2.501229524612427,-6.800089836120605,-2.067882776260376,33.00440979003906,96.89598083496094,-22.78207397460938
176432,0.3697357177734375,0.2878875732421875,-0.27947998046875,-2.937165260314941,-3.907593488693237,-0.5656695365905762,30.84637451171875,96.6843719482422,-20.85591125488281
176433,0.5467529296875,1.127761840820312,-0.8842315673828125,1.159953951835632,-0.2095460295677185,1.598929643630981,28.9666748046875,96.8843994140625,-18.51713562011719
176434,0.5467529296875,1.127761840820312,-0.8842315673828125,1.159953951835632,-0.2095460295677185,1.598929643630981,28.9666748046875,96.8843994140625,-18.51713562011719
176435,0.1408233642578125,2.204605102539062,0.42156982421875,2.451152563095093,2.194675922393799,1.421303510665894,28.20394897460938,97.45765686035156,-14.86122131347656
176436,0.256011962890625,2.005630493164062,0.059539794921875,2.573235988616943,3.128840923309326,1.511043548583984,28.92131042480469,97.6348114013672,-14.7021484375
176437,0.23492431640625,1.759017944335938,-0.206146240234375,2.054153203964233,2.328522920608521,1.493207216262817,29.82318115234375,97.75250244140624,-15.81906127929688
176438,0.23492431640625,1.759017944335938,-0.206146240234375,2.054153203964233,2.328522920608521,1.493207216262817,29.82318115234375,97.75250244140624,-15.81906127929688
176439,0.0626678466796875,1.0880126953125,0.3262176513671875,1.460235714912415,0.7596147656440735,0.8867998719215393,32.01097106933594,97.4772491455078,-18.59500122070312
176440,0.0051422119140625,0.702850341796875,0.379241943359375,1.544579863548279,0.5461363196372986,0.8034067153930664,32.9112548828125,97.51055908203124,-19.59364318847656
176441,0.0051422119140625,0.702850341796875,0.379241943359375,1.544579863548279,0.5461363196372986,0.8034067153930664,32.9112548828125,97.51055908203124,-19.59364318847656
176442,-0.04217529296875,0.430328369140625,0.3919677734375,1.674440383911133,0.4785548746585846,0.8369297981262207,33.72979736328125,97.5614013671875,-20.29924011230469
176443,-0.0988922119140625,0.0858154296875,0.2855377197265625,1.63610851764679,0.466270238161087,0.8477001190185547,34.85475158691406,97.58918762207033,-21.93646240234375
176444,-0.1102447509765625,-0.0066680908203125,0.2108612060546875,1.460950493812561,0.4284477531909943,0.7777088284492493,35.42491149902344,97.45646667480467,-22.5924072265625
176445,-0.1102447509765625,-0.0066680908203125,0.2108612060546875,1.460950493812561,0.4284477531909943,0.7777088284492493,35.42491149902344,97.45646667480467,-22.5924072265625
176446,-0.1012115478515625,-0.06109619140625,0.1437835693359375,1.254472136497498,0.4075222313404083,0.680665910243988,35.96412658691406,97.4207763671875,-23.3946533203125
176447,-0.1060638427734375,-0.079498291015625,0.021728515625,0.6881690621376038,0.201771467924118,0.4145194292068481,36.841552734375,97.37933349609376,-24.6673583984375
176448,-0.1544342041015625,-0.164764404296875,-0.219940185546875,0.377063661813736,-0.0663321539759635,0.2986956238746643,37.20761108398438,97.2907257080078,-25.13700866699219
176449,-0.1544342041015625,-0.164764404296875,-0.219940185546875,0.377063661813736,-0.0663321539759635,0.2986956238746643,37.20761108398438,97.2907257080078,-25.13700866699219
176450,-0.47442626953125,-0.571533203125,-0.267578125,-0.4928877353668213,-1.196447730064392,0.6621372103691101,37.53878784179688,97.60145568847656,-25.81001281738281
176451,-0.51959228515625,-0.564453125,-0.164459228515625,-0.6008583903312683,0.3632993698120117,0.9548519253730774,37.48178100585938,98.1220703125,-25.76304626464844
176452,-0.1707763671875,-0.4051055908203125,-0.37158203125,-0.0213955696672201,1.004520416259766,0.9803367257118224,37.47096252441406,98.50299072265624,-25.21307373046875
176453,0.05560302734375,-0.251800537109375,-0.145294189453125,0.7269529700279236,0.978276789188385,0.8568028211593628,37.87965393066406,98.69606018066406,-24.7322998046875
176454,0.05560302734375,-0.251800537109375,-0.145294189453125,0.7269529700279236,0.978276789188385,0.8568028211593628,37.87965393066406,98.69606018066406,-24.7322998046875
176455,0.0651092529296875,-0.107452392578125,0.2526702880859375,1.180504202842712,1.38542914390564,0.4510987401008606,39.00611877441406,98.5494384765625,-24.70753479003906
176456,0.05352783203125,-0.103118896484375,0.213226318359375,0.9583078622817992,1.683243989944458,0.2792529463768005,39.58102416992188,98.37477111816406,-25.01399230957031
176457,0.0504302978515625,-0.10791015625,0.1404876708984375,0.6300903558731079,1.842216372489929,0.1619265824556351,40.00418090820312,98.25462341308594,-25.63557434082031
176458,0.0504302978515625,-0.10791015625,0.1404876708984375,0.6300903558731079,1.842216372489929,0.1619265824556351,40.00418090820312,98.25462341308594,-25.63557434082031
176459,0.0453948974609375,-0.1109161376953125,0.0690765380859375,-0.0204552076756954,1.677762150764465,0.0024325312115252,40.23138427734375,98.12484741210938,-26.06687927246094
176460,0.038055419921875,-0.137176513671875,-0.0853118896484375,-0.3013912737369537,1.364717125892639,-0.0654953867197036,40.86485290527344,97.82247924804688,-26.62355041503906
176461,0.038055419921875,-0.137176513671875,-0.0853118896484375,-0.3013912737369537,1.364717125892639,-0.0654953867197036,40.86485290527344,97.82247924804688,-26.62355041503906
176462,0.0395050048828125,-0.158966064453125,-0.1447906494140625,-0.5611075162887573,0.9688750505447388,-0.1374465376138687,41.27693176269531,97.72828674316406,-26.64848327636719
176463,0.0407257080078125,-0.158966064453125,-0.1416778564453125,-0.9988558292388916,0.4084191918373108,-0.3086752891540527,41.62759399414062,97.44187927246094,-26.39413452148438
176464,0.0484771728515625,-0.158660888671875,-0.1590728759765625,-1.139000654220581,0.2734632194042206,-0.3891791701316833,41.55357360839844,97.23240661621094,-25.813720703125
176465,0.0647735595703125,-0.169036865234375,-0.2331390380859375,-1.323418736457825,-0.0757871717214584,-0.5466936826705933,41.54995727539062,97.072509765625,-25.33644104003906
176466,0.0647735595703125,-0.169036865234375,-0.2331390380859375,-1.323418736457825,-0.0757871717214584,-0.5466936826705933,41.54995727539062,97.072509765625,-25.33644104003906
176467,0.148284912109375,-0.138275146484375,-0.4201507568359375,-1.370856523513794,-0.335363894701004,-0.6509519219398499,41.25102233886719,96.98771667480467,-24.01353454589844
176468,0.18548583984375,0.0289306640625,-0.40667724609375,-1.162795186042786,-0.4641333222389221,-0.8646623492240906,41.04588317871094,96.96212768554688,-23.32797241210938
176469,0.086456298828125,0.137786865234375,0.072906494140625,-1.013464570045471,-0.0790295675396919,-0.93537700176239,40.197509765625,97.18986511230467,-22.02944946289062
176470,0.086456298828125,0.137786865234375,0.072906494140625,-1.013464570045471,-0.0790295675396919,-0.93537700176239,40.197509765625,97.18986511230467,-22.02944946289062
176471,0.068817138671875,0.118072509765625,0.357025146484375,-1.005362749099731,0.6295995116233826,-1.030707836151123,39.64996337890625,97.3808135986328,-21.32102966308594
176472,0.07305908203125,0.1344146728515625,0.502288818359375,-1.064522981643677,1.363446831703186,-1.129963755607605,39.04640197753906,97.6478271484375,-20.94110107421875
176473,0.0959014892578125,0.2467803955078125,0.6750030517578125,-1.163840293884277,1.958748579025269,-1.235133647918701,38.31416320800781,98.01261901855467,-20.69021606445312
176474,0.0959014892578125,0.2467803955078125,0.6750030517578125,-1.163840293884277,1.958748579025269,-1.235133647918701,38.31416320800781,98.01261901855467,-20.69021606445312
176475,0.2605743408203125,3.151092529296875,1.355224609375,-2.239930391311646,2.525308132171631,-1.366139531135559,36.41593933105469,98.5980987548828,-20.59211730957031
176476,-0.04022216796875,7.609603881835938,1.795562744140625,-2.96551513671875,1.57562780380249,0.0866075977683067,35.28422546386719,99.02507019042967,-20.87896728515625
176477,-1.666580200195312,8.109115600585938,1.9324951171875,-2.95427417755127,-0.4961447715759277,1.296230554580688,34.41139221191406,99.6840362548828,-21.84251403808594
176478,-1.666580200195312,8.109115600585938,1.9324951171875,-2.95427417755127,-0.4961447715759277,1.296230554580688,34.41139221191406,99.6840362548828,-21.84251403808594
176479,-0.6705780029296875,4.897918701171875,0.528900146484375,0.6631699800491333,-1.058712244033813,-2.586398839950562,34.54257202148438,100.5111083984375,-22.51655578613281
176480,-0.0584869384765625,2.064743041992188,-0.106201171875,1.141673445701599,-2.078697443008423,-1.628724098205566,34.61555480957031,100.1489105224609,-21.53863525390625
176481,0.0225067138671875,1.261199951171875,-0.010589599609375,1.145392775535583,-2.448246955871582,-0.7743687033653259,33.81266784667969,99.64076232910156,-20.83125305175781
176482,0.0225067138671875,1.261199951171875,-0.010589599609375,1.145392775535583,-2.448246955871582,-0.7743687033653259,33.81266784667969,99.64076232910156,-20.83125305175781
176483,0.27386474609375,0.7203826904296875,-0.6495361328125,0.7138440608978271,0.7719457149505615,0.6281054615974426,31.52757263183594,99.39793395996094,-20.3765869140625
176484,0.5906219482421875,1.280181884765625,-2.470382690429688,-0.44565150141716,0.7432988882064819,0.9874945282936096,30.74311828613281,99.4005889892578,-20.39744567871094
176485,0.1835784912109375,1.821395874023438,-1.0113525390625,-0.0419349335134029,1.033491849899292,1.087143659591675,30.57731628417969,99.4790496826172,-20.43911743164062
176486,-0.0415496826171875,1.924240112304688,0.1654815673828125,0.1625705361366272,1.938714981079102,1.150285840034485,30.93252563476562,99.56500244140624,-20.64576721191406
176487,-0.094818115234375,1.885162353515625,0.3105621337890625,0.1625705361366272,1.938714981079102,1.150285840034485,31.56272888183594,99.57850646972656,-20.673095703125
176488,-0.1527099609375,1.689834594726562,0.2690887451171875,0.1553637534379959,2.399019002914429,1.047875285148621,32.42979431152344,99.3723602294922,-20.71900939941406
176489,-0.2144622802734375,1.396469116210938,0.158294677734375,0.8155310153961182,1.431300520896912,0.710853636264801,33.5496826171875,99.12165832519533,-21.01322937011719
176490,-0.3091583251953125,1.102676391601562,0.230072021484375,0.8155310153961182,1.431300520896912,0.710853636264801,34.67683410644531,98.78160095214844,-21.40768432617188
176491,-0.3314056396484375,0.815948486328125,0.2666015625,1.386756181716919,1.124040603637695,0.7005674242973328,35.65655517578125,98.64222717285156,-21.85137939453125
176492,-0.3031005859375,0.5974578857421875,0.254638671875,1.811764478683472,0.929331600666046,0.7489384412765503,36.4764404296875,98.55116271972656,-22.22401428222656
176493,-0.28387451171875,0.4659423828125,0.2287139892578125,1.982544660568237,0.8573458790779114,0.7314582467079163,37.10247802734375,98.4993896484375,-22.81727600097656
176494,-0.28387451171875,0.4659423828125,0.2287139892578125,1.982544660568237,0.8573458790779114,0.7314582467079163,37.10247802734375,98.4993896484375,-22.81727600097656
176495,-0.2415618896484375,0.2490386962890625,0.102508544921875,1.755859613418579,0.7785839438438416,0.4605721235275269,38.01217651367188,98.49176025390624,-24.82173156738281
176496,-0.234100341796875,0.11236572265625,-0.0560150146484375,1.513555884361267,0.686208963394165,0.2953315079212189,38.29853820800781,98.62454223632812,-25.82771301269531
176497,-0.1745147705078125,-0.2446746826171875,-0.73516845703125,0.5258520841598511,-2.540586471557617,0.4510867595672607,38.91883850097656,98.38748168945312,-27.60971069335938
176498,-0.1745147705078125,-0.2446746826171875,-0.73516845703125,0.5258520841598511,-2.540586471557617,0.4510867595672607,38.91883850097656,98.38748168945312,-27.60971069335938
176499,-0.1745147705078125,-0.2446746826171875,-0.73516845703125,0.5258520841598511,-2.540586471557617,0.4510867595672607,38.91883850097656,98.38748168945312,-27.60971069335938
176500,-0.121002197265625,-0.2709197998046875,-0.1348419189453125,0.3417765200138092,-2.649724960327148,0.589444637298584,38.9490966796875,98.38150024414062,-28.73237609863281
176501,-0.1259765625,-0.2720947265625,0.072418212890625,0.3063708543777466,-1.930002093315125,0.6941577196121216,38.56817626953125,98.55686950683594,-28.83526611328125
176502,-0.1259765625,-0.2720947265625,0.072418212890625,0.3063708543777466,-1.930002093315125,0.6941577196121216,38.56817626953125,98.55686950683594,-28.83526611328125
176503,-0.0821075439453125,-0.27984619140625,0.1089324951171875,0.4223999679088593,-0.827946126461029,0.7673624157905579,38.48712158203125,98.62086486816406,-28.68013000488281
176504,0.078125,-0.24554443359375,0.126190185546875,0.9544878602027892,1.091987133026123,0.7439327239990234,38.76425170898438,98.68336486816406,-28.40187072753906
176505,0.09613037109375,-0.1988677978515625,0.1680145263671875,1.310396909713745,1.766550898551941,0.6789217591285706,39.210205078125,98.68327331542967,-28.6551513671875
176506,0.09613037109375,-0.1988677978515625,0.1680145263671875,1.310396909713745,1.766550898551941,0.6789217591285706,39.210205078125,98.68327331542967,-28.6551513671875
176507,0.084686279296875,-0.1632537841796875,0.144683837890625,1.650654435157776,2.492069482803345,0.4900972843170166,40.53742980957031,98.2676239013672,-29.35346984863281
176508,0.077545166015625,-0.1697540283203125,0.0946807861328125,1.579206824302673,2.574528455734253,0.3842999935150146,41.27970886230469,97.974609375,-29.74732971191406
176509,0.073577880859375,-0.1891326904296875,0.0470428466796875,1.35000479221344,2.4430832862854,0.2619820833206177,42.00209045410156,97.53166198730467,-30.26100158691406
176510,0.073577880859375,-0.1891326904296875,0.0470428466796875,1.35000479221344,2.4430832862854,0.2619820833206177,42.00209045410156,97.53166198730467,-30.26100158691406
176511,0.0409088134765625,-0.1776885986328125,0.069061279296875,0.5902702212333679,1.783821821212769,-0.0014775217277929,43.07443237304688,96.68621826171876,-31.35110473632812
176512,0.017333984375,-0.1684417724609375,0.0914306640625,0.1763302981853485,1.373815059661865,-0.1279281377792358,43.54348754882812,96.2526397705078,-31.572021484375
176513,0.000701904296875,-0.1639404296875,0.1280670166015625,-0.1981381177902222,0.9830105900764464,-0.2418174147605896,43.88858032226562,95.81790161132812,-31.7969970703125
176514,0.0005035400390625,-0.166107177734375,0.170867919921875,-0.4894368052482605,0.6914684772491455,-0.3452516794204712,44.01896667480469,95.68370056152344,-31.67083740234375
176515,0.01666259765625,-0.170013427734375,0.20709228515625,-0.6817458271980286,0.4859810769557953,-0.4339351952075958,44.05368041992188,95.62161254882812,-31.53572082519531
176516,0.0388336181640625,-0.1684417724609375,0.2354736328125,-0.7951514720916748,0.3667710721492767,-0.5124707818031311,43.96022033691406,95.52838134765624,-31.24636840820312
176517,0.065765380859375,-0.164031982421875,0.2519683837890625,-0.8541122674942017,0.3150546252727509,-0.6021474003791809,43.69586181640625,95.58439636230467,-31.01486206054688
176518,0.0980377197265625,-0.1433258056640625,0.2556304931640625,-0.8873764276504517,0.2904741764068604,-0.7131620645523071,43.4422607421875,95.5487060546875,-30.70724487304688
176519,0.133270263671875,-0.103729248046875,0.2266845703125,-0.9192582368850708,0.2246842384338379,-0.8549638986587524,43.23248291015625,95.5790557861328,-30.27899169921875
176520,0.1649169921875,-0.036865234375,0.1598968505859375,-0.9969218373298644,0.0248938985168933,-1.022881865501404,42.73558044433594,95.64190673828124,-29.91363525390625
176521,0.160980224609375,0.0675506591796875,0.1135101318359375,-1.139735698699951,-0.3072941601276398,-1.202164530754089,42.21659851074219,95.88363647460938,-29.50895690917969
176522,0.1110687255859375,0.1585845947265625,0.150665283203125,-1.319953203201294,-0.503383219242096,-1.367873787879944,41.81501770019531,95.947265625,-29.02473449707031
176523,0.054718017578125,0.198883056640625,0.15277099609375,-1.502304911613464,-0.4384868144989014,-1.513874411582947,41.11660766601562,96.16195678710938,-28.38059997558594
176524,0.0507659912109375,0.3094482421875,-0.43072509765625,-0.7657509446144104,-4.103707790374756,-1.976100921630859,40.32032775878906,96.52452087402344,-27.64402770996094
176525,0.1945037841796875,0.7003631591796875,-1.7969970703125,0.3011955320835114,-6.881768226623535,-2.424155235290527,39.50311279296875,96.8895263671875,-26.61451721191406
176526,0.1945037841796875,0.7003631591796875,-1.7969970703125,0.3011955320835114,-6.881768226623535,-2.424155235290527,39.50311279296875,96.8895263671875,-26.61451721191406
176527,0.2064361572265625,3.157257080078125,0.7172088623046875,-0.3569642603397369,-0.6067652702331543,-4.785980224609375,36.21792602539062,97.3511962890625,-24.88211059570312
176528,0.0904693603515625,7.7203369140625,0.37396240234375,-0.3569642603397369,-0.6067652702331543,-4.785980224609375,33.7373046875,97.41012573242188,-24.29576110839844
176529,-1.355209350585938,8.09637451171875,-0.105926513671875,-0.0258523691445589,1.383209586143494,-3.036179304122925,30.98759460449219,97.54286193847656,-24.95799255371094
176530,-1.355209350585938,8.09637451171875,-0.105926513671875,-0.0258523691445589,1.383209586143494,-3.036179304122925,30.98759460449219,97.54286193847656,-24.95799255371094
176531,-1.093002319335938,3.0220947265625,-0.3612060546875,-0.5473770499229431,4.313382148742676,0.9939164519309998,28.73818969726562,97.23785400390624,-28.29145812988281
176532,-0.0519256591796875,1.266189575195312,-0.845123291015625,-0.7671576142311096,2.189610242843628,1.234316349029541,29.8385009765625,96.88677978515624,-28.64945983886719
176533,-0.058441162109375,0.774169921875,-0.579437255859375,-0.0633086636662483,-1.39531397819519,0.7609421014785767,31.04916381835938,96.7764129638672,-28.40673828125
176534,-0.058441162109375,0.774169921875,-0.579437255859375,-0.0633086636662483,-1.39531397819519,0.7609421014785767,31.04916381835938,96.7764129638672,-28.40673828125
176535,0.1097259521484375,1.274581909179688,0.1570892333984375,0.3585104942321777,-1.422823309898376,0.6828544735908508,32.51670837402344,96.97650146484376,-27.48133850097656
176536,0.15606689453125,1.658294677734375,0.186279296875,0.6124359369277954,-0.9636845588684082,0.9657865762710572,32.61753845214844,97.2792510986328,-27.30747985839844
176537,0.14581298828125,1.87841796875,0.133056640625,0.7470062971115112,-0.3508794605731964,1.249489426612854,32.78875732421875,97.35491943359376,-27.18992614746094
176538,0.14581298828125,1.87841796875,0.133056640625,0.7470062971115112,-0.3508794605731964,1.249489426612854,32.78875732421875,97.35491943359376,-27.18992614746094
176539,0.0781097412109375,1.878952026367188,0.0345458984375,0.6627987623214722,0.018820559605956,1.127249002456665,33.77189636230469,97.41004943847656,-27.75581359863281
176540,-0.0157318115234375,1.70172119140625,0.09832763671875,0.5044146776199341,-0.0439695864915847,0.6747829914093018,34.44168090820312,97.23818969726562,-28.015380859375
176541,-0.1327056884765625,1.437698364257812,0.223175048828125,0.3799808919429779,0.06192621961236,0.2447266578674316,35.18406677246094,97.107666015625,-28.38902282714844
176542,-0.1327056884765625,1.437698364257812,0.223175048828125,0.3799808919429779,0.06192621961236,0.2447266578674316,35.18406677246094,97.107666015625,-28.38902282714844
176543,-0.258636474609375,0.9134674072265624,0.246795654296875,0.465902179479599,0.4198422729969025,-0.2976157069206238,35.88725280761719,96.846923828125,-28.72674560546875
176544,-0.2955474853515625,0.6822509765625,0.1832275390625,0.7155721783638,0.4943484663963318,-0.4179967045783997,36.07685852050781,96.82414245605467,-28.96498107910156
176545,-0.3119659423828125,0.4473876953125,0.1019744873046875,0.988886296749115,0.450810581445694,-0.45076584815979,36.14826965332031,96.74148559570312,-29.35572814941406
176546,-0.3119659423828125,0.4473876953125,0.1019744873046875,0.988886296749115,0.450810581445694,-0.45076584815979,36.14826965332031,96.74148559570312,-29.35572814941406
176547,-0.3372344970703125,0.035491943359375,0.0181121826171875,1.270873785018921,0.3062177300453186,-0.0772444531321525,36.141357421875,96.42024230957033,-30.45516967773438
176548,-0.2563934326171875,-0.060577392578125,0.011444091796875,1.205772519111633,0.3382984101772308,0.1293308287858963,36.150390625,96.24070739746094,-31.16287231445312
176549,-0.1602630615234375,-0.117218017578125,-0.033355712890625,1.017546653747559,0.4457556307315826,0.2615450620651245,36.248291015625,96.15216064453124,-31.74996948242188
176550,-0.1602630615234375,-0.117218017578125,-0.033355712890625,1.017546653747559,0.4457556307315826,0.2615450620651245,36.248291015625,96.15216064453124,-31.74996948242188
176551,0.1104888916015625,-0.3236236572265625,-1.041015625,0.1441228240728378,-1.206776857376099,0.5840863585472107,36.56278991699219,95.66763305664062,-32.58921813964844
176552,0.173370361328125,-0.27679443359375,-0.8836822509765625,-0.1100165173411369,-2.945186853408813,0.8393884301185608,36.6417236328125,95.57136535644533,-32.75294494628906
176553,0.1336822509765625,-0.1529083251953125,-0.1243133544921875,-0.0231468640267849,-3.430022716522217,0.980356752872467,36.523193359375,95.41070556640624,-32.48202514648438
176554,0.1336822509765625,-0.1529083251953125,-0.1243133544921875,-0.0231468640267849,-3.430022716522217,0.980356752872467,36.523193359375,95.41070556640624,-32.48202514648438
176555,0.1235198974609375,-0.0551910400390625,0.649017333984375,0.915510594844818,1.143396019935608,0.5639941096305847,35.9000244140625,95.87469482421876,-31.03971862792969
176556,0.1455535888671875,-0.064178466796875,0.57965087890625,0.915510594844818,1.143396019935608,0.5639941096305847,35.64582824707031,96.19651794433594,-30.42826843261719
176557,0.156646728515625,-0.0978546142578125,0.130615234375,1.245529055595398,1.49093234539032,0.5012804269790649,35.78514099121094,96.34762573242188,-30.24018859863281
176558,0.156646728515625,-0.0978546142578125,0.130615234375,1.245529055595398,1.49093234539032,0.5012804269790649,35.78514099121094,96.34762573242188,-30.24018859863281
176559,0.1759796142578125,-0.16650390625,-0.446380615234375,1.245529055595398,1.49093234539032,0.5012804269790649,36.21932983398438,96.18460083007812,-30.62930297851562
176560,0.097015380859375,-0.1446380615234375,-0.11712646484375,0.9892876148223876,-0.2357560694217682,0.6256255507469177,37.23294067382812,95.53425598144533,-31.59706115722656
176561,0.0828399658203125,-0.1546630859375,0.0986328125,0.4021106958389282,0.2521502077579498,0.5373002290725708,37.62626647949219,95.23843383789062,-32.08169555664062
176562,0.0828399658203125,-0.1546630859375,0.0986328125,0.4021106958389282,0.2521502077579498,0.5373002290725708,37.62626647949219,95.23843383789062,-32.08169555664062
176563,0.105712890625,-0.1946868896484375,-0.2017974853515625,-0.4753793179988861,0.3815665245056152,0.3668264746665955,38.31718444824219,95.00338745117188,-32.36434936523438
176564,0.1146697998046875,-0.2123260498046875,-0.086700439453125,-0.5648503303527832,0.1702676117420197,0.2907476723194122,38.68898010253906,95.04542541503906,-32.12501525878906
176565,0.1219635009765625,-0.227691650390625,0.0215606689453125,-0.6951465606689453,0.3171595931053162,0.1261169165372849,38.98062133789062,95.03622436523438,-31.84344482421875
176566,0.1171112060546875,-0.2302398681640625,0.03851318359375,-0.9005758762359619,0.6976754665374756,-0.0730486437678337,39.28347778320312,95.03215026855467,-31.38609313964844
176567,0.1171112060546875,-0.2302398681640625,0.03851318359375,-0.9005758762359619,0.6976754665374756,-0.0730486437678337,39.28347778320312,95.03215026855467,-31.38609313964844
176568,0.0870208740234375,-0.221343994140625,-0.0302581787109375,-0.9078398942947388,1.077304840087891,-0.2361462265253067,39.49221801757812,95.03176879882812,-30.60896301269531
176569,0.068695068359375,-0.2093505859375,-0.0130615234375,-0.8490058779716492,1.087918639183044,-0.2472627907991409,39.58685302734375,94.95863342285156,-30.1856689453125
176570,0.068695068359375,-0.2093505859375,-0.0130615234375,-0.8490058779716492,1.087918639183044,-0.2472627907991409,39.58685302734375,94.95863342285156,-30.1856689453125
176571,0.0301055908203125,-0.1852264404296875,-0.0356292724609375,-1.039699196815491,0.9643327593803406,-0.2773807346820831,39.76756286621094,95.06309509277344,-29.38241577148438
176572,0.0183868408203125,-0.1652984619140625,-0.2093353271484375,-1.172565340995789,0.536400318145752,-0.291284054517746,39.86976623535156,95.11192321777344,-29.19775390625
176573,0.0688934326171875,0.013916015625,-0.3609619140625,-1.204735994338989,-0.292819082736969,-0.3643582463264465,39.84329223632812,95.29307556152344,-28.74983215332031
176574,0.1302032470703125,0.1616363525390625,-0.2630462646484375,-1.215573191642761,-0.9936999678611756,-0.4535994529724121,39.78179931640625,95.3589324951172,-28.25297546386719
176575,0.1434173583984375,0.2143402099609375,0.079833984375,-1.377472162246704,-1.018548846244812,-0.5746286511421204,39.60472106933594,95.59584045410156,-27.62040710449219
176576,0.13134765625,0.2439117431640625,0.4615478515625,-1.632179737091064,-0.1637061089277267,-0.7507086396217346,39.20628356933594,95.9246063232422,-26.85736083984375
176577,0.1104583740234375,0.2490234375,0.6846160888671875,-1.955987691879272,2.088068008422852,-1.182601451873779,38.63792419433594,96.28157043457033,-26.27519226074219
176578,0.1104583740234375,0.2490234375,0.6846160888671875,-1.955987691879272,2.088068008422852,-1.182601451873779,38.63792419433594,96.28157043457033,-26.27519226074219
176579,0.1589202880859375,1.377044677734375,1.255706787109375,-2.561232805252075,3.404516696929932,-1.661242365837097,37.21833801269531,97.40934753417967,-25.26902770996094
176580,0.209991455078125,4.398406982421875,0.78045654296875,-2.932668685913086,3.656654834747314,-2.27643871307373,36.41059875488281,97.87762451171876,-25.17131042480469
176581,-0.052520751953125,8.042022705078125,-0.282928466796875,-1.773186206817627,0.2918840646743774,-2.661293983459473,35.50971984863281,98.41250610351562,-25.48710632324219
176582,-0.052520751953125,8.042022705078125,-0.282928466796875,-1.773186206817627,0.2918840646743774,-2.661293983459473,35.50971984863281,98.41250610351562,-25.48710632324219
176583,-2.100982666015625,6.872146606445312,1.937973022460938,-0.2788760960102081,-1.365930795669556,-3.854433298110962,33.12716674804688,99.1724090576172,-26.94938659667969
176584,-1.961761474609375,2.517364501953125,1.269195556640625,0.0235633831471204,1.166231513023376,-2.711235046386719,31.83378601074219,98.9056396484375,-27.19216918945312
176585,-1.482437133789062,0.4003448486328125,0.5441436767578125,-0.5444790124893188,4.115186214447021,-0.5244967937469482,30.68421936035156,98.2546844482422,-27.23223876953125
176586,-1.482437133789062,0.4003448486328125,0.5441436767578125,-0.5444790124893188,4.115186214447021,-0.5244967937469482,30.68421936035156,98.2546844482422,-27.23223876953125
176587,-0.4283905029296875,0.626708984375,-2.224822998046875,-0.369179368019104,-0.5987033843994141,1.303512692451477,30.41416931152344,97.18238830566406,-27.21292114257812
176588,-0.3197784423828125,1.473495483398438,-0.6719818115234375,-0.4924032986164093,-1.435179948806763,0.9364340305328368,30.98146057128906,97.27581787109376,-27.12933349609375
176589,-0.173553466796875,2.025970458984375,-0.0856475830078125,0.0787765681743621,-0.3410215079784393,1.120791912078857,31.31758117675781,97.61857604980467,-26.82818603515625
176590,-0.173553466796875,2.025970458984375,-0.0856475830078125,0.0787765681743621,-0.3410215079784393,1.120791912078857,31.31758117675781,97.61857604980467,-26.82818603515625
176591,0.0409393310546875,2.027114868164062,0.1146087646484375,0.5289298892021179,-0.0505036525428295,1.289344668388367,31.72911071777344,97.8525848388672,-25.90010070800781
176592,0.1031036376953125,1.775650024414062,0.153472900390625,0.6681775450706482,0.2237159162759781,1.403647780418396,32.23544311523438,97.8070831298828,-25.72630310058594
176593,0.1654815673828125,1.5753173828125,0.1488800048828125,0.6377498507499695,0.293408989906311,1.520890235900879,32.81417846679688,97.79248046875,-25.74186706542969
176594,0.1654815673828125,1.5753173828125,0.1488800048828125,0.6377498507499695,0.293408989906311,1.520890235900879,32.81417846679688,97.79248046875,-25.74186706542969
176595,0.209320068359375,1.237335205078125,0.06475830078125,0.7644638419151306,0.1613090038299561,1.613499879837036,34.19654846191406,97.82756042480467,-26.16558837890625
176596,0.205963134765625,1.087615966796875,-0.00762939453125,0.9917092323303224,-0.015041533857584,1.573564887046814,34.99404907226562,97.930908203125,-26.38723754882812
176597,0.1927947998046875,0.9282379150390624,-0.065399169921875,1.252016425132751,-0.2209512889385223,1.476276516914368,35.78506469726562,98.06451416015624,-26.56622314453125
176598,0.1927947998046875,0.9282379150390624,-0.065399169921875,1.252016425132751,-0.2209512889385223,1.476276516914368,35.78506469726562,98.06451416015624,-26.56622314453125
176599,0.119659423828125,0.6566009521484375,0.003997802734375,1.521046876907349,-0.4187426567077637,1.130857825279236,37.07077026367188,98.14761352539062,-27.2230224609375
176600,0.0715179443359375,0.5147552490234375,0.0462799072265625,1.472976803779602,-0.309928297996521,0.9230028986930848,37.58892822265625,98.1911163330078,-27.74871826171875
176601,0.0300445556640625,0.3530731201171875,0.051300048828125,1.319214701652527,-0.1911121606826782,0.7522867918014526,38.12588500976562,98.16915893554688,-28.42059326171875
176602,0.0300445556640625,0.3530731201171875,0.051300048828125,1.319214701652527,-0.1911121606826782,0.7522867918014526,38.12588500976562,98.16915893554688,-28.42059326171875
176603,-0.02362060546875,0.069915771484375,-0.1075592041015625,0.9292144179344176,-0.2318545430898666,0.516817033290863,38.87631225585938,97.92636108398438,-29.51338195800781
176604,-0.0322418212890625,-0.0576324462890625,-0.2671051025390625,0.8977872729301453,-0.6679570078849792,0.4417545199394226,39.19114685058594,97.8105010986328,-29.90702819824219
176605,-0.01904296875,-0.1462554931640625,-0.328094482421875,1.18663477897644,-1.800881743431091,0.4320238530635834,39.46165466308594,97.73187255859376,-30.25665283203125
176606,-0.01904296875,-0.1462554931640625,-0.328094482421875,1.18663477897644,-1.800881743431091,0.4320238530635834,39.46165466308594,97.73187255859376,-30.25665283203125
176607,0.0553741455078125,-0.2314453125,-0.3427276611328125,1.343577027320862,-2.186914443969727,0.5067172646522522,39.56997680664062,97.46063232421876,-31.05804443359375
176608,0.0900421142578125,-0.3238677978515625,-0.1704864501953125,1.23686146736145,-1.722907781600952,0.5161645412445068,39.57081604003906,97.25625610351562,-31.31752014160156
176609,0.1355438232421875,-0.413238525390625,-0.288299560546875,0.8051055669784546,0.2033552527427673,0.3570468127727509,39.35736083984375,97.35662841796876,-31.58737182617188
176610,0.1355438232421875,-0.413238525390625,-0.288299560546875,0.8051055669784546,0.2033552527427673,0.3570468127727509,39.35736083984375,97.35662841796876,-31.58737182617188
176611,0.1586456298828125,-0.2472686767578125,0.0140838623046875,1.110628724098206,0.4091954827308655,0.3122918605804443,39.29489135742188,97.30535888671876,-31.73716735839844
176612,0.159149169921875,-0.2253570556640625,0.070281982421875,1.321301579475403,0.6366171836853027,0.2465216368436813,39.59620666503906,97.06985473632812,-31.74151611328125
176613,0.1593017578125,-0.2282867431640625,0.0779876708984375,1.378915071487427,0.7516455054283142,0.1795383393764496,39.83590698242188,96.8148193359375,-32.06126403808594
176614,0.1593017578125,-0.2282867431640625,0.0779876708984375,1.378915071487427,0.7516455054283142,0.1795383393764496,39.83590698242188,96.8148193359375,-32.06126403808594
176615,0.145233154296875,-0.2854156494140625,0.057037353515625,0.9481218457221984,0.8366493582725525,0.0653329342603683,40.51974487304688,96.1497802734375,-32.88810729980469
176616,0.1248626708984375,-0.29937744140625,0.0811614990234375,0.4914538860321045,0.884270966053009,-0.029157618060708,40.82611083984375,95.8112335205078,-33.20742797851562
176617,0.098602294921875,-0.2844696044921875,0.118804931640625,-0.4100165367126465,1.142052173614502,-0.2209939062595367,41.090087890625,95.37254333496094,-33.45172119140625
176618,0.098602294921875,-0.2844696044921875,0.118804931640625,-0.4100165367126465,1.142052173614502,-0.2209939062595367,41.090087890625,95.37254333496094,-33.45172119140625
176619,0.0528564453125,-0.2147369384765625,0.1759185791015625,-0.6102327108383179,1.213246941566467,-0.276680052280426,41.57003784179688,95.05035400390624,-33.68400573730469
176620,0.0335693359375,-0.187896728515625,0.190704345703125,-0.7391976118087769,1.262700796127319,-0.3437206149101257,41.71231079101562,94.99879455566406,-33.48776245117188
176621,0.0137481689453125,-0.152587890625,0.17095947265625,-0.9364710450172424,1.114884495735168,-0.5734730958938599,41.94573974609375,95.04544067382812,-33.43965148925781
176622,-0.0137176513671875,-0.09130859375,0.1428985595703125,-0.9364710450172424,1.114884495735168,-0.5734730958938599,42.00978088378906,94.92787170410156,-33.17338562011719
176623,-0.0430908203125,0.0235595703125,0.116180419921875,-0.9827998876571656,0.913644552230835,-0.7397395968437195,42.08709716796875,95.04338073730467,-32.91085815429688
176624,-0.0491943359375,0.121429443359375,-0.039825439453125,-1.0272616147995,-0.568601667881012,-1.118500709533691,42.19384765625,95.20191955566406,-32.38577270507812
176625,-0.0227203369140625,0.253387451171875,-0.1134490966796875,-1.073061943054199,-1.598761081695557,-1.333099365234375,41.74215698242188,95.58517456054688,-31.59988403320312
176626,-0.0227203369140625,0.253387451171875,-0.1134490966796875,-1.073061943054199,-1.598761081695557,-1.333099365234375,41.74215698242188,95.58517456054688,-31.59988403320312
176627,-0.0128936767578125,0.274169921875,0.190948486328125,-1.258263945579529,-2.056270122528076,-1.547064661979675,41.21022033691406,95.87922668457033,-31.07644653320312
176628,-0.0159149169921875,0.411041259765625,0.4770355224609375,-1.60028338432312,-1.91264283657074,-1.748381733894348,40.49543762207031,96.23492431640624,-30.30789184570312
176629,-0.0233917236328125,1.107879638671875,0.9281768798828124,-2.923018455505371,-0.2069068402051926,-3.254692316055298,39.34013366699219,96.74937438964844,-29.82228088378906
176630,-0.0233917236328125,1.107879638671875,0.9281768798828124,-2.923018455505371,-0.2069068402051926,-3.254692316055298,39.34013366699219,96.74937438964844,-29.82228088378906
176631,-0.2082977294921875,6.65570068359375,0.409576416015625,-2.579763412475586,0.1908205449581146,-4.067521095275879,36.26588439941406,97.8430633544922,-28.99331665039062
176632,-0.9082183837890624,8.112823486328125,0.4119415283203125,-1.692051410675049,-2.554415702819824,-3.053385972976685,34.48225402832031,98.27204895019533,-28.60488891601562
176633,-2.634231567382812,7.332916259765625,1.782791137695312,-0.3755978643894196,-1.158150434494019,-2.037728309631348,32.66893005371094,98.7446746826172,-28.49540710449219
176634,-2.634231567382812,7.332916259765625,1.782791137695312,-0.3755978643894196,-1.158150434494019,-2.037728309631348,32.66893005371094,98.7446746826172,-28.49540710449219
176635,-0.6056976318359375,1.326431274414062,-0.525390625,0.0160788353532552,2.754591941833496,0.0484881736338138,30.610595703125,98.3835906982422,-28.84902954101562
176636,-0.258514404296875,0.887847900390625,-0.8514862060546875,0.1498339623212814,0.9225152730941772,0.6138951182365417,30.48687744140625,97.661376953125,-28.52757263183594
176637,-0.0496978759765625,0.7404327392578125,-0.871337890625,0.3395557105541229,-1.45181405544281,1.080246806144714,30.74154663085938,97.24485778808594,-28.22648620605469
176638,-0.0496978759765625,0.7404327392578125,-0.871337890625,0.3395557105541229,-1.45181405544281,1.080246806144714,30.74154663085938,97.24485778808594,-28.22648620605469
176639,0.19598388671875,1.82196044921875,-0.3994598388671875,0.3335041999816895,-1.558235287666321,1.262647032737732,31.14851379394531,97.27311706542967,-28.02098083496094
176640,0.3294830322265625,2.188751220703125,-0.2350311279296875,0.3547509014606476,-1.177920699119568,1.485289454460144,31.29183959960938,97.48739624023438,-27.85345458984375
176641,0.440521240234375,2.178421020507812,-0.2551727294921875,0.3432281911373138,-0.5873167514801025,1.708880424499512,31.56956481933594,97.52774047851562,-27.68458557128906
176642,0.440521240234375,2.178421020507812,-0.2551727294921875,0.3432281911373138,-0.5873167514801025,1.708880424499512,31.56956481933594,97.52774047851562,-27.68458557128906
176643,0.363372802734375,1.786773681640625,-0.0574493408203125,0.5831864476203918,0.372422844171524,1.690093159675598,32.54904174804688,97.68492126464844,-27.36814880371094
176644,0.273101806640625,1.606353759765625,0.0916900634765625,0.7611860036849976,0.6347439289093018,1.442968368530273,33.32969665527344,97.81509399414062,-27.41023254394531
176645,0.1206207275390625,1.37921142578125,0.2161865234375,0.9297135472297668,0.7128802537918091,1.190601825714111,34.21372985839844,97.8944854736328,-27.68527221679688
176646,0.1206207275390625,1.37921142578125,0.2161865234375,0.9297135472297668,0.7128802537918091,1.190601825714111,34.21372985839844,97.8944854736328,-27.68527221679688
176647,-0.1319580078125,0.9291229248046876,0.2456207275390625,1.272718787193298,0.94083833694458,1.043298125267029,36.0704345703125,97.8184814453125,-28.44000244140625
176648,-0.1753692626953125,0.7233123779296875,0.1925811767578125,1.395374655723572,0.8794375658035278,1.006515622138977,36.98110961914062,97.779052734375,-28.81350708007812
176649,-0.1925048828125,0.5233001708984375,0.1974334716796875,1.450885653495789,0.7695015072822571,0.9615010023117064,37.76168823242188,97.63800048828124,-29.40025329589844
176650,-0.192626953125,0.3526458740234375,0.2163848876953125,1.448379039764404,0.7318907380104065,0.8945920467376709,38.57368469238281,97.4074249267578,-30.09487915039062
176651,-0.185455322265625,0.194061279296875,0.1761627197265625,1.397148370742798,0.6860963106155396,0.814415693283081,39.21688842773438,97.33578491210938,-30.81340026855469
176652,-0.16748046875,0.0400848388671875,0.074920654296875,1.302043199539185,0.4975408017635345,0.7337914109230042,39.93940734863281,97.23616027832033,-31.70219421386719
176653,-0.13861083984375,-0.06884765625,-0.0098419189453125,1.217854738235474,0.1940147429704666,0.6722614765167236,40.54240417480469,96.99282836914062,-32.23663330078125
176654,-0.13861083984375,-0.06884765625,-0.0098419189453125,1.217854738235474,0.1940147429704666,0.6722614765167236,40.54240417480469,96.99282836914062,-32.23663330078125
176655,-0.0579071044921875,-0.192230224609375,-0.2855377197265625,1.041008591651917,-0.8536025285720825,0.6586902737617493,41.35064697265625,96.748291015625,-33.40475463867188
176656,-0.03326416015625,-0.2166595458984375,-0.34954833984375,1.007874369621277,-1.647150993347168,0.7158089876174927,41.66007995605469,96.58351135253906,-33.82121276855469
176657,-0.03271484375,-0.2215423583984375,-0.1020355224609375,0.9323561787605286,-1.377605557441711,0.8322652578353882,41.96292114257812,96.56867980957033,-34.27137756347656
176658,-0.03271484375,-0.2215423583984375,-0.1020355224609375,0.9323561787605286,-1.377605557441711,0.8322652578353882,41.96292114257812,96.56867980957033,-34.27137756347656
176659,-0.059417724609375,-0.26251220703125,0.4228057861328125,0.6921558380126953,-0.2644662857055664,0.869033694267273,42.11878967285156,96.49085998535156,-34.856201171875
176660,-0.0265045166015625,-0.3050384521484375,0.3973236083984375,-0.0794708579778671,1.737396240234375,0.8320085406303406,42.25689697265625,96.3725128173828,-34.87077331542969
176661,0.0074615478515625,-0.2957000732421875,0.340240478515625,-0.0794708579778671,1.737396240234375,0.8320085406303406,42.65922546386719,96.22438049316406,-34.73197937011719
176662,0.04034423828125,-0.292327880859375,0.183807373046875,-0.3163675665855408,2.361693382263184,0.758314847946167,43.18125915527344,95.87458801269533,-34.71023559570312
176663,0.0562591552734375,-0.3277587890625,-0.1350860595703125,-0.1474459171295166,1.744677782058716,0.6205312013626099,43.7734375,95.39878845214844,-34.55558776855469
176664,0.05792236328125,-0.3232421875,-0.3450469970703125,-0.1474459171295166,1.744677782058716,0.6205312013626099,44.38026428222656,94.7855224609375,-34.20726013183594
176665,0.053955078125,-0.3389739990234375,-0.2116546630859375,-0.036535907536745,1.193911075592041,0.5926539897918701,44.72953796386719,94.3209228515625,-34.11555480957031
176666,0.053955078125,-0.3389739990234375,-0.2116546630859375,-0.036535907536745,1.193911075592041,0.5926539897918701,44.72953796386719,94.3209228515625,-34.11555480957031
176667,0.0439300537109375,-0.3220367431640625,-0.002044677734375,-0.279859334230423,1.232292294502258,0.4740509390830994,44.8792724609375,94.56817626953124,-34.3909912109375
176668,0.05792236328125,-0.38458251953125,-0.05047607421875,-0.4479343593120575,1.336982488632202,0.4403486251831055,45.0262451171875,94.85162353515624,-34.187744140625
176669,0.1234130859375,-0.8112030029296875,-0.084442138671875,-0.6638850569725037,1.334339261054993,0.1691954135894775,45.41569519042969,95.28668212890624,-33.92726135253906
176670,0.1234130859375,-0.8112030029296875,-0.084442138671875,-0.6638850569725037,1.334339261054993,0.1691954135894775,45.41569519042969,95.28668212890624,-33.92726135253906
176671,0.0334625244140625,-0.9136962890625,-0.2224273681640625,-1.053988099098206,0.6432303786277771,-1.57356595993042,46.14772033691406,95.65872192382812,-32.99253845214844
176672,-0.127899169921875,-0.8577728271484375,-0.222015380859375,-0.7956111431121826,0.50599205493927,-1.355983853340149,45.94709777832031,95.83331298828124,-32.50375366210938
176673,-0.206787109375,-0.5968170166015625,-0.3725738525390625,-0.5525113940238953,0.4757300615310669,-0.8527718782424927,45.42817687988281,96.21183776855467,-32.11343383789062
176674,-0.206787109375,-0.5968170166015625,-0.3725738525390625,-0.5525113940238953,0.4757300615310669,-0.8527718782424927,45.42817687988281,96.21183776855467,-32.11343383789062
176675,0.0213165283203125,0.223968505859375,-0.3616485595703125,-0.9197799563407898,0.7047576308250427,-0.6070193648338318,44.52903747558594,96.42800903320312,-31.48684692382812
176676,0.0358428955078125,0.2716827392578125,-0.2494964599609375,-1.287587523460388,0.8603389859199524,-0.5416430234909058,44.21780395507812,96.5270538330078,-31.31248474121094
176677,0.0367279052734375,0.2802581787109375,-0.0125579833984375,-1.716655015945435,0.9833865761756896,-0.4965589046478271,43.89404296875,96.69743347167967,-30.95066833496094
176678,0.0367279052734375,0.2802581787109375,-0.0125579833984375,-1.716655015945435,0.9833865761756896,-0.4965589046478271,43.89404296875,96.69743347167967,-30.95066833496094
176679,0.0349884033203125,0.3722686767578125,0.5749053955078125,-2.562314510345459,1.76392662525177,-0.6354033350944519,44.01460266113281,96.65617370605467,-29.70625305175781
176680,0.0389556884765625,0.488800048828125,0.7128753662109375,-2.807090997695923,1.892957091331482,-0.8262249231338501,44.65814208984375,96.73175048828124,-28.62153625488281
176681,0.0239410400390625,2.484283447265625,0.90826416015625,-2.270517349243164,0.4758064746856689,-1.488685488700867,45.16064453125,98.71153259277344,-26.56056213378906
176682,0.0239410400390625,2.484283447265625,0.90826416015625,-2.270517349243164,0.4758064746856689,-1.488685488700867,45.16064453125,98.71153259277344,-26.56056213378906
176683,0.028411865234375,6.894851684570312,1.40093994140625,-0.8733863234519958,-1.267629504203796,-0.8486958742141724,44.56817626953125,99.78244018554688,-26.50907897949219
176684,-0.223358154296875,8.15496826171875,2.159072875976562,-0.5131208300590515,-2.614273309707642,3.266323328018188,43.90243530273438,100.8960723876953,-27.39901733398438
176685,-1.05352783203125,7.9898681640625,2.2100830078125,-0.1860031634569168,-1.185068845748901,2.861421346664429,44.1458740234375,101.680419921875,-28.58808898925781
176686,-1.05352783203125,7.9898681640625,2.2100830078125,-0.1860031634569168,-1.185068845748901,2.861421346664429,44.1458740234375,101.680419921875,-28.58808898925781
176687,0.4250030517578125,2.647064208984375,-0.3201446533203125,-1.069655179977417,-1.307712197303772,-0.5447937846183777,45.36408996582031,101.4911041259766,-28.33427429199219
176688,0.54510498046875,0.763214111328125,-0.7480316162109375,-1.261286973953247,-1.939828157424927,-0.1526723653078079,44.94790649414062,101.2226257324219,-26.989990234375
176689,0.9842681884765624,-0.459503173828125,-2.76641845703125,-0.914162814617157,-4.201603889465332,0.7914440631866455,44.34307861328125,101.2891845703125,-25.50575256347656
176690,0.9842681884765624,-0.459503173828125,-2.76641845703125,-0.914162814617157,-4.201603889465332,0.7914440631866455,44.34307861328125,101.2891845703125,-25.50575256347656
176691,0.527587890625,0.659149169921875,0.1479949951171875,1.289737462997437,2.026396512985229,0.9449691772460938,43.90509033203125,101.661376953125,-23.28044128417969
176692,0.5449676513671875,1.1688232421875,0.059600830078125,1.996478676795959,3.239263296127319,1.074931740760803,44.37081909179688,101.53759765625,-23.16304016113281
176693,0.6099853515625,1.665176391601562,-0.0894927978515625,1.929700136184692,2.932650089263916,1.344851851463318,45.25715637207031,101.1957855224609,-24.12750244140625
176694,0.5240020751953125,2.080947875976562,-0.1238555908203125,1.221964001655579,1.581442356109619,1.459272503852844,46.31649780273438,100.7422332763672,-25.23878479003906
176695,0.239532470703125,2.091262817382812,0.12518310546875,0.5243090391159058,0.4451167583465576,0.9372734427452089,47.42497253417969,100.4144744873047,-26.29618835449219
176696,0.15478515625,1.560150146484375,0.2480926513671875,0.1579097360372543,0.0622207634150981,0.4368151426315308,48.34635925292969,100.1660919189453,-26.89666748046875
176697,0.17791748046875,1.091659545898438,0.2201690673828125,0.0712398216128349,-0.1743219941854477,0.3530496656894684,48.99041748046875,99.9998016357422,-27.13676452636719
176698,0.17791748046875,1.091659545898438,0.2201690673828125,0.0712398216128349,-0.1743219941854477,0.3530496656894684,48.99041748046875,99.9998016357422,-27.13676452636719
176699,0.051849365234375,0.676116943359375,0.2023773193359375,0.5236088633537292,-0.0509220361709594,0.3438551127910614,49.63082885742188,99.98509216308594,-27.12649536132812
176700,0.010009765625,0.5203094482421875,0.133392333984375,0.7184920907020569,0.0369734652340412,0.2745338082313538,49.863037109375,99.90493774414062,-27.25373840332031
176701,-0.038726806640625,0.3719940185546875,-0.014801025390625,0.7721009850502014,-0.0766258016228675,0.1679447889328003,50.03944396972656,99.81292724609376,-27.66380310058594
176702,-0.038726806640625,0.3719940185546875,-0.014801025390625,0.7721009850502014,-0.0766258016228675,0.1679447889328003,50.03944396972656,99.81292724609376,-27.66380310058594
176703,-0.1464080810546875,0.142333984375,-0.293182373046875,0.6072811484336853,-1.165717840194702,-0.1876513957977295,50.34645080566406,99.58697509765624,-28.46597290039062
176704,-0.19256591796875,0.030364990234375,-0.3816680908203125,0.544613778591156,-1.751333832740784,-0.4358601272106171,50.2890625,99.43809509277344,-28.72257995605469
176705,-0.2180633544921875,-0.1080169677734375,-0.4709930419921875,0.5370290875434875,-2.271060943603516,-0.652207612991333,50.04496765136719,99.33171081542967,-29.06689453125
176706,-0.2180633544921875,-0.1080169677734375,-0.4709930419921875,0.5370290875434875,-2.271060943603516,-0.652207612991333,50.04496765136719,99.33171081542967,-29.06689453125
176707,-0.1622314453125,-0.356170654296875,-0.399658203125,0.7401779294013977,-2.094311714172363,-0.8597104549407959,48.73240661621094,99.36795043945312,-29.72355651855469
176708,-0.0447998046875,-0.419525146484375,-0.1749420166015625,0.8009888529777527,-0.7505336403846741,-0.8261557221412659,48.02372741699219,99.244384765625,-29.95211791992188
176709,0.073333740234375,-0.3491668701171875,-0.0005035400390625,0.8421655893325806,0.6622946262359619,-0.7597426176071167,47.29051208496094,99.15139770507812,-30.31382751464844
176710,0.073333740234375,-0.3491668701171875,-0.0005035400390625,0.8421655893325806,0.6622946262359619,-0.7597426176071167,47.29051208496094,99.15139770507812,-30.31382751464844
176711,0.105926513671875,-0.1602325439453125,0.0671539306640625,0.8336716890335083,1.589993715286255,-0.6828619241714478,46.53611755371094,99.014892578125,-31.13827514648438
176712,0.101531982421875,-0.1138916015625,0.077667236328125,0.734846830368042,1.493987321853638,-0.6615438461303711,46.51309204101562,98.91000366210938,-31.48919677734375
176713,0.091217041015625,-0.092864990234375,0.09808349609375,0.6034715175628662,1.348723292350769,-0.6526504755020142,46.42765808105469,98.757568359375,-31.78500366210938
176714,0.091217041015625,-0.092864990234375,0.09808349609375,0.6034715175628662,1.348723292350769,-0.6526504755020142,46.42765808105469,98.757568359375,-31.78500366210938
176715,0.0644989013671875,-0.0913238525390625,0.0780792236328125,0.3079788684844971,1.021551847457886,-0.65638667345047,46.43666076660156,98.21232604980467,-32.14010620117188
176716,0.047454833984375,-0.0990753173828125,0.063446044921875,0.1546364426612854,0.7955136299133301,-0.6630043387413025,46.39292907714844,98.09124755859376,-32.15470886230469
176717,0.0281219482421875,-0.105987548828125,0.059600830078125,0.0069476547650992,0.5610864758491516,-0.6735248565673828,46.31013488769531,97.97381591796876,-32.18142700195312
176718,0.0281219482421875,-0.105987548828125,0.059600830078125,0.0069476547650992,0.5610864758491516,-0.6735248565673828,46.31013488769531,97.97381591796876,-32.18142700195312
176719,0.0100555419921875,-0.1083526611328125,0.07196044921875,-0.1288983225822449,0.3754673600196838,-0.6835253238677979,46.1846923828125,97.90046691894533,-32.19935607910156
176720,-0.0105743408203125,-0.10626220703125,0.0923919677734375,-0.54073166847229,0.2149360030889511,-0.7382679581642151,45.8463134765625,97.82756042480467,-31.8284912109375
176721,-0.0128326416015625,-0.1040191650390625,0.091094970703125,-0.54073166847229,0.2149360030889511,-0.7382679581642151,45.63330078125,97.88084411621094,-31.55325317382812
176722,-0.0128326416015625,-0.1040191650390625,0.091094970703125,-0.54073166847229,0.2149360030889511,-0.7382679581642151,45.63330078125,97.88084411621094,-31.55325317382812
176723,-0.00885009765625,-0.102020263671875,-0.0289154052734375,-1.081236243247986,-0.2838506400585175,-0.8475648760795593,45.05915832519531,97.97573852539062,-30.70500183105469
176724,-0.0075531005859375,0.0001373291015625,-0.1059417724609375,-1.081236243247986,-0.2838506400585175,-0.8475648760795593,44.76170349121094,98.04164123535156,-30.42539978027344
176725,0.00494384765625,0.1162261962890625,0.002716064453125,-1.277141809463501,-0.5568728446960449,-0.9041823148727416,44.287353515625,98.2994384765625,-29.97923278808594
176726,0.00494384765625,0.1162261962890625,0.002716064453125,-1.277141809463501,-0.5568728446960449,-0.9041823148727416,44.287353515625,98.2994384765625,-29.97923278808594
176727,0.0132904052734375,0.2432403564453125,0.455780029296875,-1.705989837646484,-0.0326492898166179,-1.03237247467041,43.12107849121094,98.77792358398438,-28.74064636230469
176728,0.042205810546875,0.5915069580078125,0.8154449462890625,-2.099635601043701,0.9211027026176452,-1.301208257675171,42.43147277832031,99.09771728515624,-28.15243530273438
176729,0.04571533203125,1.74267578125,0.9420013427734376,-2.409261226654053,1.861936330795288,-1.637660264968872,41.65510559082031,99.45245361328124,-27.68916320800781
176730,0.04571533203125,1.74267578125,0.9420013427734376,-2.409261226654053,1.861936330795288,-1.637660264968872,41.65510559082031,99.45245361328124,-27.68916320800781
176731,0.042510986328125,6.537872314453125,0.677703857421875,-1.500581026077271,0.6592450141906738,-0.625831127166748,40.08595275878906,100.4450531005859,-27.26197814941406
176732,-0.6422576904296875,7.727920532226562,0.946807861328125,-0.4157972037792206,-1.509303450584412,0.0745980739593505,39.55844116210938,100.9377593994141,-27.15855407714844
176733,-0.827911376953125,5.87835693359375,1.030029296875,0.3555913865566254,-1.633880734443665,-0.5028935074806213,39.33470153808594,101.0716857910156,-27.06829833984375
176734,-0.827911376953125,5.87835693359375,1.030029296875,0.3555913865566254,-1.633880734443665,-0.5028935074806213,39.33470153808594,101.0716857910156,-27.06829833984375
176735,-0.08660888671875,1.639389038085938,0.230987548828125,-0.0070014502853155,-1.087661027908325,-0.9358031153678894,38.92970275878906,100.6852264404297,-26.72509765625
176736,-0.033599853515625,1.056900024414062,-0.13299560546875,0.0238864235579967,-0.4007985591888428,-0.6861762404441833,38.31224060058594,100.583740234375,-26.48179626464844
176737,-0.0433807373046875,0.9981536865234376,-1.1380615234375,0.6388510465621948,-1.265994906425476,0.3148511648178101,37.68531799316406,100.5851745605469,-26.28456115722656
176738,-0.0433807373046875,0.9981536865234376,-1.1380615234375,0.6388510465621948,-1.265994906425476,0.3148511648178101,37.68531799316406,100.5851745605469,-26.28456115722656
176739,0.07037353515625,2.26934814453125,0.2179107666015625,1.077374935150146,0.1143721118569374,0.6557791829109192,37.10305786132812,100.6761169433594,-26.08993530273438
176740,0.1919403076171875,2.19293212890625,0.1255035400390625,1.256086826324463,0.8105344176292419,1.053159832954407,37.07408142089844,100.5718841552734,-26.15330505371094
176741,0.223419189453125,2.041717529296875,0.04364013671875,1.281665444374084,0.7112267017364502,1.227628588676453,37.50386047363281,100.4295196533203,-26.51205444335938
176742,0.223419189453125,2.041717529296875,0.04364013671875,1.281665444374084,0.7112267017364502,1.227628588676453,37.50386047363281,100.4295196533203,-26.51205444335938
176743,0.18707275390625,1.551528930664062,0.0969390869140625,1.331430077552795,-0.1027191877365112,0.9928272366523744,39.08894348144531,99.76821899414062,-27.73664855957031
176744,0.163970947265625,1.231231689453125,0.085968017578125,1.337361693382263,-0.4479711353778839,0.911309778690338,39.88179016113281,99.4139404296875,-28.32896423339844
176745,0.16064453125,0.9546051025390624,0.01300048828125,1.319434404373169,-1.042567849159241,1.019507050514221,40.54536437988281,99.13082885742188,-28.95033264160156
176746,0.16064453125,0.9546051025390624,0.01300048828125,1.319434404373169,-1.042567849159241,1.019507050514221,40.54536437988281,99.13082885742188,-28.95033264160156
176747,0.1681365966796875,0.7056884765625,-0.0631103515625,1.334622144699097,-1.218879818916321,1.11821174621582,41.02296447753906,98.94488525390624,-29.41360473632812
176748,0.12127685546875,0.3135223388671875,0.0367431640625,1.387731432914734,-1.158334136009216,1.182758331298828,41.78468322753906,98.79890441894533,-30.31828308105469
176749,0.089385986328125,0.1285858154296875,-0.020538330078125,1.436385989189148,-1.032871842384338,1.204651355743408,42.12396240234375,98.72933959960938,-30.86985778808594
176750,0.089385986328125,0.1285858154296875,-0.020538330078125,1.436385989189148,-1.032871842384338,1.204651355743408,42.12396240234375,98.72933959960938,-30.86985778808594
176751,0.003204345703125,-0.142822265625,0.0165252685546875,1.505905747413635,-0.4949719309806824,1.033272624015808,42.89016723632812,98.3027801513672,-31.60946655273438
176752,-0.0538330078125,-0.215911865234375,-0.040679931640625,1.505905747413635,-0.4949719309806824,1.033272624015808,43.32778930664062,98.22650146484376,-32.159423828125
176753,-0.156707763671875,-0.1957550048828125,-0.0556182861328125,1.337893605232239,-0.405233234167099,0.9326043725013732,44.06758117675781,97.94625854492188,-33.26322937011719
176754,-0.217620849609375,-0.1459808349609375,-0.05072021484375,1.134341239929199,-0.3232124149799347,0.8212911486625671,44.50032043457031,97.75285339355467,-33.87588500976562
176755,-0.217620849609375,-0.1459808349609375,-0.05072021484375,1.134341239929199,-0.3232124149799347,0.8212911486625671,44.50032043457031,97.75285339355467,-33.87588500976562
176756,-0.263580322265625,-0.0981903076171875,-0.022064208984375,0.90533709526062,-0.1214931383728981,0.6596695184707642,44.88456726074219,97.7209014892578,-34.54049682617188
176757,-0.2885589599609375,-0.0601806640625,0.07220458984375,0.5889764428138733,0.8958932161331177,0.1960379481315613,45.23028564453125,97.48918151855467,-35.13969421386719
176758,-0.2885589599609375,-0.0601806640625,0.07220458984375,0.5889764428138733,0.8958932161331177,0.1960379481315613,45.23028564453125,97.48918151855467,-35.13969421386719
176759,-0.2286834716796875,-0.0507659912109375,0.1231842041015625,0.4533131718635559,1.324550867080688,-0.07582338899374,45.740234375,97.27993774414062,-35.9307861328125
176760,-0.1135101318359375,-0.1042633056640625,0.0770416259765625,0.2726664245128632,1.495203018188477,-0.2093063443899155,46.0218505859375,97.3058624267578,-36.17385864257812
176761,-0.04296875,-0.112091064453125,0.0661163330078125,0.04892573133111,1.550536274909973,-0.247277170419693,46.28131103515625,97.24818420410156,-36.43658447265625
176762,-0.04296875,-0.112091064453125,0.0661163330078125,0.04892573133111,1.550536274909973,-0.247277170419693,46.28131103515625,97.24818420410156,-36.43658447265625
176763,-0.011871337890625,-0.094207763671875,0.0031890869140625,-0.3938365280628204,1.608350872993469,-0.3239825963973999,46.80996704101562,97.19158935546876,-36.60554504394531
176764,-0.0171051025390625,-0.0946044921875,-0.0797119140625,-0.580026388168335,1.472322225570679,-0.3712603747844696,47.11221313476562,97.10041809082033,-36.52919006347656
176765,-0.0199432373046875,-0.1071319580078125,-0.190521240234375,-0.8951824307441711,0.5130614638328552,-0.4623556435108185,47.37863159179688,97.29556274414062,-36.40653991699219
176766,-0.0199432373046875,-0.1071319580078125,-0.190521240234375,-0.8951824307441711,0.5130614638328552,-0.4623556435108185,47.37863159179688,97.29556274414062,-36.40653991699219
176767,-0.014373779296875,-0.150970458984375,-0.3683624267578125,-1.029625177383423,-0.2492894530296326,-0.4940547347068787,47.71633911132812,97.7124481201172,-35.93190002441406
176768,-0.014373779296875,-0.150970458984375,-0.3683624267578125,-1.029625177383423,-0.2492894530296326,-0.4940547347068787,47.71633911132812,97.7124481201172,-35.93190002441406
176769,0.0129852294921875,-0.208526611328125,-0.331146240234375,-1.365380883216858,-0.3513678908348083,-0.5505185127258301,47.43635559082031,97.81118774414062,-34.82394409179688
176770,0.048583984375,-0.30303955078125,-0.24273681640625,-1.365380883216858,-0.3513678908348083,-0.5505185127258301,47.23403930664062,97.96809387207033,-34.10560607910156
176771,0.1522674560546875,-0.2350616455078125,-0.5447540283203125,-1.429690599441528,0.4569209516048431,-0.6159508228302002,46.70820617675781,98.12205505371094,-33.38587951660156
176772,0.1848297119140625,0.1424560546875,-0.376708984375,-1.179897546768188,0.3417256474494934,-0.6280924081802368,46.32667541503906,98.3541259765625,-32.53355407714844
176773,0.0932769775390625,0.2369537353515625,0.1729583740234375,-1.039054155349731,0.643624484539032,-0.7115987539291382,46.02914428710938,98.49183654785156,-31.78071594238281
176774,0.0932769775390625,0.2369537353515625,0.1729583740234375,-1.039054155349731,0.643624484539032,-0.7115987539291382,46.02914428710938,98.49183654785156,-31.78071594238281
176775,0.105621337890625,0.3505401611328125,0.8055267333984375,-1.369974851608276,2.445852756500244,-0.9647634029388428,45.333984375,98.86599731445312,-30.63079833984375
176776,0.126007080078125,0.64190673828125,0.885162353515625,-1.844531178474426,3.317075967788696,-1.22729218006134,44.92550659179688,99.15576171875,-30.15830993652344
176777,0.159027099609375,1.983505249023438,0.8628082275390625,-2.269065618515015,3.40576958656311,-1.437832713127136,44.52702331542969,99.46983337402344,-29.86727905273438
176778,0.159027099609375,1.983505249023438,0.8628082275390625,-2.269065618515015,3.40576958656311,-1.437832713127136,44.52702331542969,99.46983337402344,-29.86727905273438
176779,-0.254638671875,7.196456909179688,1.046844482421875,-1.78650975227356,0.2853409349918365,0.4349453449249268,43.83270263671875,100.3344268798828,-29.67497253417969
176780,-1.208526611328125,8.073440551757812,1.469863891601562,-0.5397774577140808,-0.3715463876724243,0.32084059715271,43.7529296875,100.8926086425781,-29.48066711425781
176781,-1.173370361328125,6.248733520507812,0.875,0.2516570091247559,0.4844857156276703,-1.490401387214661,43.97564697265625,101.3204040527344,-29.43081665039062
176782,-1.173370361328125,6.248733520507812,0.875,0.2516570091247559,0.4844857156276703,-1.490401387214661,43.97564697265625,101.3204040527344,-29.43081665039062
176783,-0.34033203125,1.158462524414062,-1.304977416992188,-0.5801435112953186,-2.758432149887085,-1.594080328941345,43.82879638671875,101.2404327392578,-29.25645446777344
176784,-0.631988525390625,0.4756317138671875,-0.6861419677734375,-0.9888935089111328,-2.563340902328491,-0.7935700416564941,43.02651977539062,101.0802307128906,-28.85585021972656
176785,-0.1232147216796875,0.9036865234375,-0.1360321044921875,0.8684621453285217,0.722655177116394,0.9431195855140686,41.87327575683594,101.1015319824219,-28.44412231445312
176786,-0.1232147216796875,0.9036865234375,-0.1360321044921875,0.8684621453285217,0.722655177116394,0.9431195855140686,41.87327575683594,101.1015319824219,-28.44412231445312
176787,0.225494384765625,1.97918701171875,-0.010406494140625,1.719069719314575,0.706903874874115,1.078472852706909,40.8619384765625,101.0479583740234,-27.39772033691406
176788,0.178131103515625,2.03729248046875,0.021759033203125,1.682163834571838,0.3569805026054382,1.020973086357117,41.24311828613281,100.7974548339844,-27.53030395507812
176789,0.1156463623046875,1.897247314453125,0.158355712890625,1.18910539150238,0.1901481002569199,0.7991949319839478,41.93156433105469,100.4700164794922,-28.16313171386719
176790,0.1156463623046875,1.897247314453125,0.158355712890625,1.18910539150238,0.1901481002569199,0.7991949319839478,41.93156433105469,100.4700164794922,-28.16313171386719
176791,0.0154266357421875,1.213104248046875,0.122222900390625,0.4224132895469666,0.2841566205024719,0.4802201390266418,43.18972778320312,99.82095336914062,-29.7210693359375
176792,0.0661163330078125,0.891510009765625,-0.1294708251953125,0.4458139538764954,-0.0511060617864131,0.5326370000839233,43.65785217285156,99.58506774902344,-30.13861083984375
176793,0.109466552734375,0.6382293701171875,-0.2527618408203125,0.9984757900238036,-0.9763692021369934,0.7581036686897278,43.86105346679688,99.548583984375,-30.42428588867188
176794,0.109466552734375,0.6382293701171875,-0.2527618408203125,0.9984757900238036,-0.9763692021369934,0.7581036686897278,43.86105346679688,99.548583984375,-30.42428588867188
176795,0.1131134033203125,0.31201171875,-0.049713134765625,1.33502984046936,-0.9664227962493896,0.8443842530250549,44.30216979980469,99.34675598144533,-30.88569641113281
176796,0.103790283203125,0.18682861328125,0.0240478515625,1.60504138469696,-0.7065033316612244,0.892652153968811,44.43991088867188,99.30274963378906,-31.28611755371094
176797,0.0494537353515625,0.001983642578125,-0.080963134765625,1.664193630218506,-0.1578793823719025,0.799765408039093,44.76959228515625,98.87632751464844,-32.36929321289062
176798,0.0494537353515625,0.001983642578125,-0.080963134765625,1.664193630218506,-0.1578793823719025,0.799765408039093,44.76959228515625,98.87632751464844,-32.36929321289062
176799,0.029754638671875,-0.0827484130859375,-0.2134246826171875,1.560680031776428,-0.2151586413383484,0.7172307968139648,45.13310241699219,98.66998291015624,-32.99012756347656
176800,0.0239715576171875,-0.153289794921875,-0.2985992431640625,1.447752714157104,-0.4663772881031036,0.6708089709281921,45.43829345703125,98.40576171875,-33.44358825683594
176801,0.0238189697265625,-0.207305908203125,-0.2934112548828125,1.279208183288574,-0.646081805229187,0.6682882905006409,45.70391845703125,98.18231201171876,-34.17071533203125
176802,0.0238189697265625,-0.207305908203125,-0.2934112548828125,1.279208183288574,-0.646081805229187,0.6682882905006409,45.70391845703125,98.18231201171876,-34.17071533203125
176803,0.09393310546875,-0.345947265625,-0.5244140625,0.3818544149398804,0.5628622770309448,0.6238760948181152,46.13790893554688,97.67620849609376,-35.35520935058594
176804,0.1313323974609375,-0.3170623779296875,-0.4689178466796875,0.4235973358154297,0.4214385747909546,0.6359162330627441,46.44528198242188,97.49627685546876,-35.62611389160156
176805,0.138580322265625,-0.28997802734375,-0.2917633056640625,0.4235973358154297,0.4214385747909546,0.6359162330627441,46.81877136230469,97.40341186523438,-35.73802185058594
176806,0.138580322265625,-0.28997802734375,-0.2917633056640625,0.4235973358154297,0.4214385747909546,0.6359162330627441,46.81877136230469,97.40341186523438,-35.73802185058594
176807,0.148529052734375,-0.26531982421875,-0.2795562744140625,0.5383638739585876,0.3929153382778168,0.5370272397994995,47.57403564453125,97.28427124023438,-35.56784057617188
176808,0.145751953125,-0.2542266845703125,-0.2440643310546875,0.54185551404953,0.2993366420269012,0.4676825106143951,48.05586242675781,97.19000244140624,-35.72474670410156
176809,0.136383056640625,-0.240264892578125,-0.177215576171875,0.4689102172851562,0.2832436859607697,0.3729773163795471,48.44293212890625,97.0502471923828,-35.71527099609375
176810,0.136383056640625,-0.240264892578125,-0.177215576171875,0.4689102172851562,0.2832436859607697,0.3729773163795471,48.44293212890625,97.0502471923828,-35.71527099609375
176811,0.1226348876953125,-0.2195587158203125,-0.0319671630859375,0.044442031532526,0.4151687026023865,0.0136292595416307,49.08584594726562,96.71127319335938,-35.79840087890625
176812,0.116668701171875,-0.2142333984375,-0.0111541748046875,-0.1191780567169189,0.4183493256568909,-0.1081855893135071,49.41661071777344,96.63348388671876,-35.71160888671875
176813,0.1091461181640625,-0.2120208740234375,-0.0316009521484375,-0.1191780567169189,0.4183493256568909,-0.1081855893135071,49.57633972167969,96.48704528808594,-35.68183898925781
176814,0.1091461181640625,-0.2120208740234375,-0.0316009521484375,-0.1191780567169189,0.4183493256568909,-0.1081855893135071,49.57633972167969,96.48704528808594,-35.68183898925781
176815,0.1268463134765625,-0.1871490478515625,-0.186309814453125,-0.4922602772712708,0.1204449236392975,-0.3310224115848541,49.86329650878906,96.28033447265624,-35.48565673828125
176816,0.1487884521484375,-0.0089569091796875,-0.3080291748046875,-0.6827037334442139,-0.2053712606430054,-0.4492265284061432,49.90481567382812,96.31800842285156,-35.33541870117188
176817,0.1300201416015625,0.255615234375,-0.2749786376953125,-0.7466670274734497,-0.3262484073638916,-0.7990084886550903,49.8839111328125,96.3165283203125,-34.95742797851562
176818,0.1300201416015625,0.255615234375,-0.2749786376953125,-0.7466670274734497,-0.3262484073638916,-0.7990084886550903,49.8839111328125,96.3165283203125,-34.95742797851562
176819,0.123748779296875,0.3897705078125,0.1912689208984375,-0.7856945395469666,0.1106026768684387,-1.006850123405457,49.24595642089844,96.78396606445312,-34.53861999511719
176820,0.1124725341796875,0.416259765625,0.4673614501953125,-1.05001699924469,0.8888468146324158,-1.230179309844971,48.79501342773438,97.01676940917967,-34.15890502929688
176821,0.1354522705078125,0.636474609375,0.7086181640625,-2.251138687133789,2.848311185836792,-1.923019886016846,48.21824645996094,97.31382751464844,-33.91029357910156
176822,0.1354522705078125,0.636474609375,0.7086181640625,-2.251138687133789,2.848311185836792,-1.923019886016846,48.21824645996094,97.31382751464844,-33.91029357910156
176823,0.1849517822265625,2.69354248046875,0.9273834228515624,-2.639373779296875,3.456556081771851,-2.494938611984253,47.17372131347656,98.0082550048828,-33.17579650878906
176824,0.2924346923828125,5.386154174804688,0.712066650390625,-1.365491628646851,0.1693794429302216,-0.9736157059669496,46.61712646484375,98.43907165527344,-32.75044250488281
176825,-0.2764892578125,6.887664794921875,0.5173492431640625,-1.365491628646851,0.1693794429302216,-0.9736157059669496,46.02775573730469,99.02360534667967,-32.339599609375
176826,-0.2764892578125,6.887664794921875,0.5173492431640625,-1.365491628646851,0.1693794429302216,-0.9736157059669496,46.02775573730469,99.02360534667967,-32.339599609375
176827,-0.8269500732421875,5.239944458007812,0.9669952392578124,0.5638393759727478,-1.358341336250305,-1.373596429824829,44.94873046875,100.3175048828125,-31.82499694824219
176828,-0.278656005859375,2.780517578125,0.4258270263671875,0.2962247431278229,-1.382602691650391,-1.371690392494202,44.5821533203125,100.5351867675781,-31.51094055175781
176829,-0.166961669921875,1.60101318359375,-0.078948974609375,-0.3181992769241333,-1.848529934883118,-0.5591234564781189,43.99395751953125,100.2969207763672,-31.26434326171875
176830,-0.1181488037109375,1.184127807617188,-0.5359344482421875,-0.3181992769241333,-1.848529934883118,-0.5591234564781189,42.26007080078125,100.1681671142578,-31.42109680175781
176831,-0.0858306884765625,1.726837158203125,-0.181427001953125,-0.105453185737133,-1.33220374584198,-0.0253386460244655,41.58018493652344,100.1331176757812,-31.11836242675781
176832,-0.0858306884765625,1.726837158203125,-0.181427001953125,-0.105453185737133,-1.33220374584198,-0.0253386460244655,41.58018493652344,100.1331176757812,-31.11836242675781
176833,0.1154022216796875,2.2344970703125,-0.2594146728515625,0.8104395866394043,0.195369228720665,0.263373851776123,40.89559936523438,100.1753692626953,-30.98068237304688
176834,0.0677337646484375,1.886444091796875,-0.1138763427734375,0.9937247037887572,0.2405790537595749,0.3271240592002869,41.16270446777344,99.89976501464844,-31.3212890625
176835,-0.0507049560546875,1.605178833007812,-0.018798828125,1.051680684089661,0.3451432883739471,0.5286777019500732,41.51258850097656,99.42341613769533,-31.70054626464844
176836,-0.1424102783203125,1.4166259765625,-0.0511322021484375,1.040763378143311,0.292182058095932,0.6947782635688782,41.97627258300781,99.11268615722656,-32.254638671875
176837,-0.2003936767578125,1.2255859375,-0.0130157470703125,0.981187641620636,0.1285462528467178,0.7891087532043457,42.54182434082031,98.818115234375,-32.80120849609375
176838,-0.20513916015625,1.025283813476562,0.0697479248046875,0.940686821937561,0.017512148246169,0.8106251955032349,43.02314758300781,98.53825378417967,-33.16848754882812
176839,-0.1785888671875,0.8079986572265625,0.11334228515625,0.9091616272926332,-0.0141152860596776,0.7590174078941345,43.57077026367188,98.36557006835938,-33.55555725097656
176840,-0.145416259765625,0.5859832763671875,0.12493896484375,0.8817574381828308,0.0256022997200489,0.6578570008277893,43.97854614257812,98.10882568359376,-34.15969848632812
176841,-0.113006591796875,0.3670196533203125,0.1211395263671875,0.8667441606521606,0.1944192796945572,0.4614613652229309,44.2733154296875,98.02481079101562,-34.67349243164062
176842,-0.113006591796875,0.3670196533203125,0.1211395263671875,0.8667441606521606,0.1944192796945572,0.4614613652229309,44.2733154296875,98.02481079101562,-34.67349243164062
176843,-0.0815582275390625,0.161102294921875,0.070068359375,0.8667441606521606,0.1944192796945572,0.4614613652229309,44.59414672851562,97.87101745605467,-34.95631408691406
