time_idx,accelerometerAccelerationX(G),accelerometerAccelerationY(G),accelerometerAccelerationZ(G),gyroRotationX(rad/s),gyroRotationY(rad/s),gyroRotationZ(rad/s),magnetometerX(µT),magnetometerY(µT),magnetometerZ(µT)
206495,-0.49871826171875,3.166351318359375,-1.129776000976562,2.542651176452637,1.930627703666687,-0.1633298099040985,25.32173156738281,89.13897705078125,4.742355346679688
206496,-0.7281646728515625,3.538360595703125,-1.498321533203125,2.057429313659668,1.729058980941772,-1.182966589927673,25.16114807128906,89.734619140625,3.732070922851562
206497,-0.7281646728515625,3.538360595703125,-1.498321533203125,2.057429313659668,1.729058980941772,-1.182966589927673,25.16114807128906,89.734619140625,3.732070922851562
206498,-0.8265838623046875,3.682098388671875,-1.366317749023438,1.053407788276672,0.8993825316429138,-1.848894000053406,24.62681579589844,90.2239227294922,2.269744873046875
206499,-0.95953369140625,3.6990966796875,-0.80279541015625,0.1727057248353958,0.2777256071567535,-1.9457927942276,24.03218078613281,90.3722686767578,0.9457550048828124
206500,-0.95953369140625,3.6990966796875,-0.80279541015625,0.1727057248353958,0.2777256071567535,-1.9457927942276,24.03218078613281,90.3722686767578,0.9457550048828124
206501,-1.305618286132812,3.511367797851562,-0.2039031982421875,1.14166247844696,0.7792254686355591,-1.805253028869629,22.29739379882812,89.91444396972656,-0.6801300048828125
206502,-1.35552978515625,2.88800048828125,-0.27532958984375,2.150915861129761,1.305865049362183,-1.780454158782959,21.37338256835938,89.76069641113281,-1.547103881835938
206503,-1.34429931640625,1.212600708007812,-0.0437774658203125,2.219681262969971,2.247522830963135,0.6481641530990601,19.53823852539062,89.46217346191406,-3.758316040039062
206504,-0.98089599609375,1.188644409179688,0.358245849609375,2.219681262969971,2.247522830963135,0.6481641530990601,18.76498413085938,89.58506774902344,-5.402862548828125
206505,-0.6037139892578125,1.407333374023438,0.6534576416015625,2.221419334411621,2.599269390106201,0.71437007188797,18.44416809082031,89.71150207519531,-7.491775512695312
206506,-0.4661712646484375,1.382904052734375,0.7582855224609375,2.227410316467285,2.695089817047119,0.5452526807785034,18.56813049316406,89.83004760742188,-9.453155517578123
206507,-0.371917724609375,1.201202392578125,0.7629547119140625,2.1569983959198,2.467747688293457,0.3301739096641541,19.09603881835938,89.87959289550781,-10.96360778808594
206508,-0.371917724609375,1.201202392578125,0.7629547119140625,2.1569983959198,2.467747688293457,0.3301739096641541,19.09603881835938,89.87959289550781,-10.96360778808594
206509,-0.19232177734375,0.78863525390625,0.6389312744140625,1.545591115951538,1.153096318244934,0.0870315730571746,20.2281494140625,89.85549926757812,-13.9268798828125
206510,-0.1716766357421875,0.6808013916015625,0.7469024658203125,0.937619924545288,0.5287695527076721,-0.0413279980421066,20.61944580078125,89.69944763183594,-15.1431884765625
206511,-0.190338134765625,0.623931884765625,0.90191650390625,0.2020106166601181,0.277425229549408,-0.3047031760215759,20.92466735839844,89.682373046875,-16.20663452148438
206512,-0.245269775390625,0.5270843505859375,0.9935760498046876,-0.4996691942214966,0.3779707252979279,-0.550445020198822,21.02348327636719,89.65394592285156,-16.71786499023438
206513,-0.3224639892578125,0.3991241455078125,0.95458984375,-0.9990015029907228,0.7304619550704956,-0.4968337416648865,20.94668579101562,89.41635131835938,-16.90995788574219
206514,-0.3739776611328125,0.327423095703125,0.7649078369140625,-1.257648468017578,0.970816731452942,-0.3165315985679626,20.79080200195312,89.39549255371094,-16.78829956054688
206515,-0.4482574462890625,0.2754058837890625,0.565216064453125,-1.493892788887024,0.7609673738479614,-0.1262314319610596,20.4925537109375,89.34580993652344,-16.80604553222656
206516,-0.4482574462890625,0.2754058837890625,0.565216064453125,-1.493892788887024,0.7609673738479614,-0.1262314319610596,20.4925537109375,89.34580993652344,-16.80604553222656
206517,-0.6676177978515625,0.23663330078125,0.3772735595703125,-1.678521156311035,0.5063918232917786,-0.0661409348249435,20.02427673339844,89.54931640625,-16.42591857910156
206518,-0.729095458984375,0.2415008544921875,0.342376708984375,-2.163401365280151,0.0528160780668258,-0.2291514277458191,19.82650756835938,89.68399047851562,-16.16047668457031
206519,-0.7271270751953125,0.209869384765625,0.247161865234375,-2.219677925109863,-0.4957210719585419,-0.4368452429771423,19.57440185546875,89.91200256347656,-15.77456665039062
206520,-0.7271270751953125,0.209869384765625,0.247161865234375,-2.219677925109863,-0.4957210719585419,-0.4368452429771423,19.57440185546875,89.91200256347656,-15.77456665039062
206521,-0.663848876953125,0.0384521484375,-0.2897796630859375,-1.901878118515015,-1.469465970993042,-0.6259677410125732,19.28956604003906,90.05882263183594,-14.473388671875
206522,-0.5800018310546875,-0.016510009765625,-0.0630340576171875,-1.4781334400177,-1.91081428527832,-0.7524508833885193,19.0399169921875,89.92303466796875,-13.49896240234375
206523,-0.50286865234375,-0.0253448486328125,0.175628662109375,-1.208859086036682,-1.564332008361816,-0.8226797580718994,18.81330871582031,89.82566833496094,-12.45846557617188
206524,-0.50286865234375,-0.0253448486328125,0.175628662109375,-1.208859086036682,-1.564332008361816,-0.8226797580718994,18.81330871582031,89.82566833496094,-12.45846557617188
206525,-0.4372406005859375,0.04742431640625,0.1175994873046875,-1.137557506561279,-0.5819257497787476,-0.96489018201828,18.47068786621094,89.11480712890625,-10.36672973632812
206526,-0.442413330078125,0.0995330810546875,0.0171966552734375,-1.250742435455322,-0.495752215385437,-1.037354469299316,18.41020202636719,88.38398742675781,-9.451705932617188
206527,-0.49462890625,0.1648712158203125,-0.0253753662109375,-1.404820680618286,-0.5935570597648621,-1.06682026386261,18.48283386230469,87.72267150878906,-8.717422485351562
206528,-0.49462890625,0.1648712158203125,-0.0253753662109375,-1.404820680618286,-0.5935570597648621,-1.06682026386261,18.48283386230469,87.72267150878906,-8.717422485351562
206529,-0.5867462158203125,0.52508544921875,0.05621337890625,-1.59735631942749,-0.2030886709690094,-0.8768055438995361,18.40028381347656,86.71878051757812,-7.451522827148438
206530,-0.681640625,0.7607574462890625,-0.01397705078125,-1.605198264122009,0.577339768409729,-0.6545051336288452,18.171142578125,86.25564575195312,-6.845855712890625
206531,-0.74169921875,0.8859405517578125,-0.1050262451171875,-1.605198264122009,0.577339768409729,-0.6545051336288452,17.69541931152344,85.72994995117188,-6.085357666015625
206532,-0.74169921875,0.8859405517578125,-0.1050262451171875,-1.605198264122009,0.577339768409729,-0.6545051336288452,17.69541931152344,85.72994995117188,-6.085357666015625
206533,-0.5717010498046875,0.78076171875,-0.1154022216796875,-1.713489532470703,0.8211013078689575,-0.794774055480957,16.68376159667969,85.143798828125,-5.180267333984375
206534,-0.442718505859375,0.7368316650390625,-0.0699005126953125,-1.724831104278564,0.8215529918670654,-0.7926451563835144,16.33261108398438,84.8038330078125,-4.926651000976562
206535,-0.272674560546875,0.688018798828125,-0.0297393798828125,-1.707015633583069,0.8155632615089417,-0.6742838621139526,15.78965759277344,84.60639953613281,-4.635162353515625
206536,-0.272674560546875,0.688018798828125,-0.0297393798828125,-1.707015633583069,0.8155632615089417,-0.6742838621139526,15.78965759277344,84.60639953613281,-4.635162353515625
206537,0.01513671875,0.4892425537109375,0.0037994384765625,-1.660626292228699,0.4425017833709717,-0.2325922250747681,14.84184265136719,83.941650390625,-4.095809936523438
206538,0.01513671875,0.4892425537109375,0.0037994384765625,-1.660626292228699,0.4425017833709717,-0.2325922250747681,14.84184265136719,83.941650390625,-4.095809936523438
206539,0.144073486328125,0.3670501708984375,-0.079559326171875,-1.326486229896545,-1.045477151870728,0.0429533272981643,14.67236328125,83.21400451660156,-3.306442260742188
206540,0.103424072265625,0.3403778076171875,-0.1057586669921875,-0.8710582256317139,-1.663719892501831,0.0426747575402259,14.903076171875,82.82797241210938,-2.701141357421875
206541,0.0077667236328125,0.3462982177734375,-0.16455078125,-0.3287709653377533,-1.667357206344604,-0.0844895839691162,15.21418762207031,82.57170104980469,-1.12420654296875
206542,-0.0461883544921875,0.3744354248046875,-0.218048095703125,0.1977647393941879,-1.310632348060608,-0.2327498942613602,15.27592468261719,82.58180236816406,-0.3725128173828125
206543,-0.1013641357421875,0.4354095458984375,-0.23724365234375,0.6109075546264648,-0.8243242502212524,-0.3987838625907898,15.27926635742188,82.47695922851562,0.0508880615234375
206544,-0.171142578125,0.4595489501953125,-0.2604217529296875,0.737606942653656,-0.3880787491798401,-0.5492729544639587,15.14982604980469,82.39035034179688,0.3874359130859375
206545,-0.251068115234375,0.429046630859375,-0.310028076171875,0.5213401317596436,-0.2149165719747543,-0.6644659042358398,14.90818786621094,82.35432434082031,0.29052734375
206546,-0.251068115234375,0.429046630859375,-0.310028076171875,0.5213401317596436,-0.2149165719747543,-0.6644659042358398,14.90818786621094,82.35432434082031,0.29052734375
206547,-0.4005584716796875,0.2864532470703125,-0.4090576171875,-0.3268643915653229,-0.5533745288848877,-0.7663584351539612,14.25338745117188,82.26646423339844,0.2097320556640625
206548,-0.471405029296875,0.2155609130859375,-0.4210968017578125,-0.5572619438171387,-0.8196349740028381,-0.720801830291748,14.02693176269531,82.08323669433594,0.258148193359375
206549,-0.514556884765625,0.18560791015625,-0.3834228515625,-0.5748792886734009,-0.9059794545173644,-0.5987571477890015,13.68013000488281,81.81248474121094,0.602081298828125
206550,-0.514556884765625,0.18560791015625,-0.3834228515625,-0.5748792886734009,-0.9059794545173644,-0.5987571477890015,13.68013000488281,81.81248474121094,0.602081298828125
206551,-0.51654052734375,0.2304840087890625,-0.373931884765625,-0.3504797220230103,-0.8121663928031921,-0.4384753406047821,13.39971923828125,81.66111755371094,1.089920043945312
206552,-0.421722412109375,0.446044921875,-0.3466033935546875,0.3801145851612091,-0.3311195969581604,-0.041493646800518,13.15469360351562,81.26510620117188,2.029006958007812
206553,-0.3498992919921875,0.615325927734375,-0.4075164794921875,0.670064389705658,-0.1488392800092697,0.135929599404335,13.13169860839844,81.0447998046875,2.280899047851562
206554,-0.309478759765625,0.791351318359375,-0.48822021484375,0.9590051174163818,-0.1495695114135742,0.2803453803062439,13.11019897460938,81.11773681640625,2.349395751953125
206555,-0.2880706787109375,0.870697021484375,-0.495697021484375,1.182730317115784,-0.177232563495636,0.4522265791893005,13.07318115234375,81.30606079101562,2.249191284179688
206556,-0.293182373046875,0.91021728515625,-0.4863128662109375,1.305343627929688,-0.0286297798156738,0.6333907842636108,13.03047180175781,81.53935241699219,2.001235961914062
206557,-0.3545379638671875,0.968780517578125,-0.59417724609375,1.357390284538269,0.19542196393013,0.735890805721283,13.18806457519531,81.77267456054688,1.934799194335938
206558,-0.3545379638671875,0.968780517578125,-0.59417724609375,1.357390284538269,0.19542196393013,0.735890805721283,13.18806457519531,81.77267456054688,1.934799194335938
206559,-0.64263916015625,1.36175537109375,-0.9960784912109376,1.68889844417572,0.0944346264004707,0.4707728326320648,13.27610778808594,82.53346252441406,1.1065673828125
206560,-0.7303619384765625,1.604339599609375,-1.042938232421875,1.895322680473328,0.13630111515522,0.3587363064289093,13.29421997070312,82.93316650390625,0.665618896484375
206561,-0.7154693603515625,1.941452026367188,-1.138229370117188,2.063498258590698,0.3957446813583374,0.446026474237442,13.27986145019531,83.38809204101562,0.1201324462890625
206562,-0.5636444091796875,2.462631225585938,-1.2900390625,2.057485103607178,0.4353930056095123,0.4740802347660065,13.11582946777344,83.76321411132812,-0.5423126220703125
206563,-0.363433837890625,2.954498291015625,-1.121368408203125,1.722935557365417,0.1546241939067841,0.5007216930389404,13.00015258789062,84.22270202636719,-1.37127685546875
206564,-0.363433837890625,2.954498291015625,-1.121368408203125,1.722935557365417,0.1546241939067841,0.5007216930389404,13.00015258789062,84.22270202636719,-1.37127685546875
206565,-0.5502777099609375,3.869522094726562,-0.00860595703125,0.8874395489692688,0.3423232436180115,0.393801361322403,12.859375,85.1279296875,-2.7335205078125
206566,-1.187637329101562,3.981460571289062,0.1702728271484375,0.6741368770599365,0.7410945892333984,0.4884226620197296,12.88124084472656,85.52166748046875,-3.242477416992188
206567,-2.262893676757812,3.78118896484375,0.4266510009765625,0.3319534361362457,1.242181658744812,1.297702670097351,13.06649780273438,85.96070861816406,-3.91754150390625
206568,-2.858367919921875,3.606201171875,0.4696502685546875,0.0926239416003227,1.289942502975464,2.354290008544922,13.53836059570312,86.50082397460938,-4.710113525390625
206569,-2.876296997070312,3.221343994140625,0.3457794189453125,0.3607280850410461,0.7842066884040833,3.045192241668701,14.40560913085938,87.21728515625,-5.562667846679688
206570,-2.308731079101562,2.458480834960938,0.246490478515625,0.9833897948265076,0.0651526376605033,2.734628915786743,15.6422119140625,88.20094299316406,-6.37322998046875
206571,-1.717758178710938,1.54571533203125,0.199676513671875,1.443047404289246,-0.2005131244659424,2.378802537918091,17.02337646484375,89.08477783203125,-6.9615478515625
206572,-1.365432739257812,1.021286010742188,0.014251708984375,1.543421626091003,-0.6144181489944458,2.268296241760254,18.32029724121094,89.9654541015625,-7.355056762695312
206573,-1.139068603515625,0.8478240966796875,0.2211761474609375,1.4638991355896,-0.820326566696167,2.071984052658081,19.30850219726562,90.70986938476562,-7.79052734375
206574,-0.96795654296875,0.79339599609375,0.5913543701171875,1.380916118621826,-0.1549648195505142,1.767640709877014,20.17495727539062,91.30979919433594,-8.310882568359375
206575,-0.7952423095703125,0.7362823486328125,0.7526702880859375,1.423645496368408,2.198142766952515,1.193601369857788,20.86766052246094,91.7691650390625,-8.763946533203125
206576,-0.7952423095703125,0.7362823486328125,0.7526702880859375,1.423645496368408,2.198142766952515,1.193601369857788,20.86766052246094,91.7691650390625,-8.763946533203125
206577,-0.3885955810546875,0.730377197265625,0.7440338134765625,1.410709500312805,3.053733587265015,1.083940148353577,22.103515625,92.53880310058594,-10.06027221679688
206578,-0.22650146484375,0.7674560546875,0.5750885009765625,1.286452412605286,3.410208702087402,1.064584732055664,22.63995361328125,92.67805480957033,-11.2138671875
206579,-0.1162872314453125,0.7552947998046875,0.417755126953125,1.057005405426025,3.276453256607056,1.073577761650085,23.13302612304688,92.86990356445312,-12.57376098632812
206580,-0.1162872314453125,0.7552947998046875,0.417755126953125,1.057005405426025,3.276453256607056,1.073577761650085,23.13302612304688,92.86990356445312,-12.57376098632812
206581,-0.055511474609375,0.6560516357421875,0.2899017333984375,0.6985586285591125,1.966103911399841,0.9089280962944032,24.02091979980469,93.31080627441406,-14.942138671875
206582,-0.055511474609375,0.6560516357421875,0.2899017333984375,0.6985586285591125,1.966103911399841,0.9089280962944032,24.02091979980469,93.31080627441406,-14.942138671875
206583,-0.0556793212890625,0.6033172607421875,0.2823333740234375,0.6619957685470581,1.028291821479797,0.6358938813209534,24.68820190429688,93.47378540039062,-15.72894287109375
206584,-0.016754150390625,0.5560150146484375,0.2710113525390625,0.7404152154922485,-1.157459378242493,-0.1110351756215096,26.09730529785156,93.40335083007812,-16.5772705078125
206585,0.06207275390625,0.5175018310546875,0.26751708984375,0.6679980158805847,-2.338971614837646,-0.3622543513774872,26.65798950195312,93.12811279296876,-16.64805603027344
206586,0.157745361328125,0.4319915771484375,0.2743988037109375,0.4121942222118378,-3.488178968429565,-0.4388740360736847,26.95521545410156,92.89663696289062,-16.46243286132812
206587,0.2592010498046875,0.309112548828125,0.3380889892578125,-0.3224749863147736,-5.019797325134277,-0.1367330849170685,26.99696350097656,92.4482879638672,-15.93606567382812
206588,0.2592010498046875,0.309112548828125,0.3380889892578125,-0.3224749863147736,-5.019797325134277,-0.1367330849170685,26.99696350097656,92.4482879638672,-15.93606567382812
206589,0.4564361572265625,0.0711822509765625,0.503326416015625,-0.6062073707580566,-5.34443473815918,0.1477111577987671,26.80220031738281,92.0604248046875,-13.82705688476562
206590,0.53680419921875,0.0220489501953125,0.6967620849609375,-0.8239354491233826,-5.266613006591797,0.4810832738876343,26.78408813476562,91.84280395507812,-12.18928527832031
206591,0.56341552734375,0.0585479736328125,0.927215576171875,-0.9335508942604064,-4.270621299743652,0.7760137319564819,26.80615234375,91.981201171875,-10.47099304199219
206592,0.5630035400390625,0.1448516845703125,0.9793243408203124,-0.9151633381843568,-2.548351764678955,1.047790050506592,26.90435791015625,92.1085205078125,-8.460220336914062
206593,0.5436553955078125,0.2474212646484375,0.879364013671875,-0.8810141682624817,-0.7221736311912537,1.314168810844421,27.23130798339844,92.21681213378906,-6.809219360351562
206594,0.487823486328125,0.394805908203125,0.727264404296875,-0.946444571018219,0.8209068775177002,1.540229320526123,27.71200561523438,92.46701049804688,-5.555892944335938
206595,0.3769989013671875,0.6211090087890625,0.6199951171875,-1.115862369537354,2.073698043823242,1.538594126701355,28.28346252441406,92.67974853515624,-4.744308471679688
206596,0.3769989013671875,0.6211090087890625,0.6199951171875,-1.115862369537354,2.073698043823242,1.538594126701355,28.28346252441406,92.67974853515624,-4.744308471679688
206597,0.205474853515625,1.085861206054688,0.355804443359375,-1.617048978805542,3.744911909103394,0.6563717126846313,29.23983764648438,92.95979309082033,-4.154159545898438
206598,0.1145477294921875,1.275482177734375,0.1166534423828125,-1.894870042800903,3.784435510635376,-0.0224152933806181,29.47633361816406,93.1881866455078,-4.155410766601562
206599,-0.177520751953125,1.528030395507812,-0.78350830078125,-1.653868794441223,2.693704843521118,-0.892570436000824,29.3614501953125,93.1330108642578,-3.979629516601562
206600,-0.177520751953125,1.528030395507812,-0.78350830078125,-1.653868794441223,2.693704843521118,-0.892570436000824,29.3614501953125,93.1330108642578,-3.979629516601562
206601,-0.2713775634765625,1.122482299804688,-0.59100341796875,-0.006860302761197,-2.763919591903687,-2.669573545455933,28.56254577636719,92.70167541503906,-3.728530883789062
206602,-0.128662109375,0.6875152587890625,0.1937408447265625,-0.2541624903678894,-3.244142055511475,-2.796444892883301,27.6983642578125,92.1552734375,-3.320114135742188
206603,-0.16357421875,0.471038818359375,0.4528656005859375,-0.6919962763786316,-2.545995473861694,-2.781402826309204,26.75421142578125,91.69093322753906,-2.930679321289062
206604,-0.16357421875,0.471038818359375,0.4528656005859375,-0.6919962763786316,-2.545995473861694,-2.781402826309204,26.75421142578125,91.69093322753906,-2.930679321289062
206605,-0.167633056640625,0.2024383544921875,0.1735076904296875,-1.166345238685608,-0.6513700485229492,-2.925293922424316,24.81884765625,90.3524169921875,-1.78375244140625
206606,-0.122833251953125,0.0896759033203125,-0.0811614990234375,-1.061750173568726,-0.2773298621177673,-3.008834838867188,23.73982238769531,89.64808654785156,-1.33026123046875
206607,-0.075225830078125,0.0025177001953125,-0.247283935546875,-0.7849608659744263,-0.3264076709747314,-3.045244216918945,22.66815185546875,88.86955261230469,-0.9188385009765624
206608,-0.0328216552734375,-0.063323974609375,-0.2549896240234375,-0.5177955031394958,-0.5471576452255249,-2.970510005950928,21.53250122070312,88.1070556640625,-0.7039794921875
206609,-0.03875732421875,-0.1418914794921875,-0.197113037109375,-0.3871551752090454,-0.6378616690635681,-2.759869337081909,20.43887329101562,87.24258422851562,-0.4494171142578125
206610,-0.1346282958984375,-0.325958251953125,-0.1775360107421875,-0.4437574744224548,-0.4445353746414185,-2.263773441314697,19.46412658691406,86.55146789550781,-0.5251922607421875
206611,-0.170623779296875,-0.4972076416015625,-0.2942047119140625,-0.6554920673370361,0.0044908886775374,-1.406945824623108,18.51811218261719,85.90779113769531,-0.522430419921875
206612,0.0009918212890625,-0.2970428466796875,-0.4538726806640625,-0.6225962042808533,-0.0332053564488887,-0.6859312057495117,17.82247924804688,85.29129028320312,-0.349365234375
206613,0.0691986083984375,0.013702392578125,-0.398529052734375,-0.5022322535514832,-0.4225850701332092,-0.3404449224472046,17.32131958007812,84.82403564453125,-0.1730194091796875
206614,0.0385284423828125,0.1731414794921875,-0.2577972412109375,-0.450920581817627,-0.8870425224304199,-0.1071368381381035,17.07017517089844,84.46585083007812,0.101318359375
206615,0.0211334228515625,0.3004150390625,-0.1531829833984375,-0.4790094792842865,-1.224096179008484,0.1388755887746811,16.99240112304688,84.29743957519531,0.510528564453125
206616,0.0211334228515625,0.3004150390625,-0.1531829833984375,-0.4790094792842865,-1.224096179008484,0.1388755887746811,16.99240112304688,84.29743957519531,0.510528564453125
206617,-0.0031585693359375,0.504486083984375,-0.0462188720703125,-0.5695228576660156,-1.395944356918335,0.8099338412284851,17.21748352050781,84.09983825683594,1.778961181640625
206618,-0.0031585693359375,0.504486083984375,-0.0462188720703125,-0.5695228576660156,-1.395944356918335,0.8099338412284851,17.21748352050781,84.09983825683594,1.778961181640625
206619,-0.0389251708984375,0.6215057373046875,0.0356903076171875,-0.4163759052753448,-0.7119486927986145,1.296685695648193,18.04647827148438,84.28208923339844,3.173248291015625
206620,-0.014739990234375,0.6272125244140625,0.0896148681640625,-0.3605331480503082,-0.1859690696001053,1.471868395805359,18.51170349121094,84.47264099121094,3.8363037109375
206621,0.0136871337890625,0.6514739990234375,0.146331787109375,-0.4367719888687134,0.3229439556598663,1.650787830352783,19.09136962890625,84.78459167480469,4.50006103515625
206622,0.0136871337890625,0.6514739990234375,0.146331787109375,-0.4367719888687134,0.3229439556598663,1.650787830352783,19.09136962890625,84.78459167480469,4.50006103515625
206623,0.0277862548828125,0.9146575927734376,0.3085784912109375,-1.022433876991272,1.23135244846344,1.79368793964386,20.41429138183594,85.36669921875,5.2310791015625
206624,0.0277862548828125,0.9146575927734376,0.3085784912109375,-1.022433876991272,1.23135244846344,1.79368793964386,20.41429138183594,85.36669921875,5.2310791015625
206625,-0.0596771240234375,1.485214233398438,0.2702484130859375,-1.954065442085266,1.833419919013977,1.1664719581604,21.52725219726562,85.82455444335938,5.671188354492188
206626,-0.345062255859375,2.066390991210938,-0.2593231201171875,-1.778244256973267,1.402531623840332,0.3907022476196289,21.80413818359375,85.86416625976562,6.06219482421875
206627,-0.755706787109375,3.134765625,-0.93927001953125,0.3003800809383392,0.171137660741806,-1.047717690467834,21.95944213867188,85.84553527832031,6.580718994140625
206628,-0.755706787109375,3.134765625,-0.93927001953125,0.3003800809383392,0.171137660741806,-1.047717690467834,21.95944213867188,85.84553527832031,6.580718994140625
206629,-0.952484130859375,3.820907592773438,0.148895263671875,4.536660671234131,2.17663311958313,-3.283697366714478,21.00653076171875,85.632080078125,6.65057373046875
206630,-1.571868896484375,4.097763061523438,-1.416046142578125,4.979796886444092,2.218092679977417,-4.712125778198242,19.7596435546875,85.54574584960938,5.486038208007812
206631,-2.72503662109375,3.750701904296875,-3.115325927734375,3.25261402130127,1.26573121547699,-5.172103881835938,18.00263977050781,85.26564025878906,3.039596557617188
206632,-2.72503662109375,3.750701904296875,-3.115325927734375,3.25261402130127,1.26573121547699,-5.172103881835938,18.00263977050781,85.26564025878906,3.039596557617188
206633,-2.28973388671875,1.563812255859375,-1.263595581054688,-0.5222602486610413,2.096912384033203,0.0113914050161838,13.92364501953125,83.53727722167969,-2.180282592773438
206634,-2.28973388671875,1.563812255859375,-1.263595581054688,-0.5222602486610413,2.096912384033203,0.0113914050161838,13.92364501953125,83.53727722167969,-2.180282592773438
206635,-0.5502471923828125,1.350570678710938,-0.4669952392578125,1.447839498519897,2.911547660827637,1.213465929031372,12.60055541992188,82.75674438476562,-4.843017578125
206636,-0.4138946533203125,1.041183471679688,-0.6388397216796875,2.106861352920532,2.438040256500244,1.442150473594666,12.99810791015625,83.07327270507812,-6.002700805664062
206637,-0.3793487548828125,0.781982421875,-0.6054534912109375,2.108133316040039,1.040085077285767,1.228533267974854,13.53364562988281,83.550537109375,-7.327392578125
206638,-0.3793487548828125,0.781982421875,-0.6054534912109375,2.108133316040039,1.040085077285767,1.228533267974854,13.53364562988281,83.550537109375,-7.327392578125
206639,-0.230499267578125,0.9797821044921876,0.0797271728515625,1.572413682937622,0.8526434898376465,0.5092546939849854,14.46823120117188,84.88357543945312,-10.34095764160156
206640,-0.023468017578125,1.23724365234375,-0.15216064453125,1.572413682937622,0.8526434898376465,0.5092546939849854,14.81529235839844,85.47254943847656,-11.53361511230469
206641,0.007537841796875,1.524520874023438,-0.4119720458984375,1.474103331565857,0.2626356184482574,0.1354587525129318,15.07173156738281,85.77020263671875,-12.36668395996094
206642,-0.270233154296875,1.625152587890625,-0.1269378662109375,1.536157369613647,0.2449618130922318,-0.3444583117961884,15.06954956054688,86.03457641601562,-13.19392395019531
206643,-0.4101104736328125,1.377517700195312,0.183074951171875,1.623343467712402,1.109356999397278,-0.0273772962391376,14.96275329589844,86.08705139160156,-13.88542175292969
206644,-0.400726318359375,1.084030151367188,0.2049407958984375,1.623343467712402,1.109356999397278,-0.0273772962391376,14.76541137695312,86.08889770507812,-14.56990051269531
206645,-0.4120635986328125,1.049392700195312,0.1471710205078125,1.419290900230408,1.061861991882324,0.0754121989011764,14.6910400390625,85.99116516113281,-15.32478332519531
206646,-0.4120635986328125,1.049392700195312,0.1471710205078125,1.419290900230408,1.061861991882324,0.0754121989011764,14.6910400390625,85.99116516113281,-15.32478332519531
206647,-0.5815277099609375,1.295745849609375,0.4390411376953125,0.2004931569099426,1.359904289245605,-0.5349116325378418,14.76457214355469,85.92939758300781,-17.29644775390625
206648,-0.7103424072265625,1.414962768554688,0.6317291259765625,0.2004931569099426,1.359904289245605,-0.5349116325378418,14.77122497558594,85.92707824707031,-18.08280944824219
206649,-0.7951812744140625,1.433807373046875,0.7633209228515625,0.0004950816510245,1.894670486450195,-0.5844762325286865,14.79386901855469,85.72694396972656,-18.68611145019531
206650,-0.7951812744140625,1.433807373046875,0.7633209228515625,0.0004950816510245,1.894670486450195,-0.5844762325286865,14.79386901855469,85.72694396972656,-18.68611145019531
206651,-0.7523956298828125,0.8253021240234375,0.8497161865234375,0.0227468572556972,2.767347574234009,-0.4803591668605804,14.90774536132812,85.43145751953125,-20.09860229492188
206652,-0.5961761474609375,0.4812774658203125,0.5679931640625,-0.0341795422136783,2.650420665740967,-0.5090083479881287,14.98873901367188,85.25852966308594,-20.9952392578125
206653,-0.5313568115234375,0.2463531494140625,0.3344573974609375,-0.2033645659685135,2.15834641456604,-0.5087282061576843,15.0050048828125,85.11933898925781,-21.9962158203125
206654,-0.5313568115234375,0.2463531494140625,0.3344573974609375,-0.2033645659685135,2.15834641456604,-0.5087282061576843,15.0050048828125,85.11933898925781,-21.9962158203125
206655,-0.4415130615234375,0.0101776123046875,0.14312744140625,-0.7091800570487976,0.7088831663131714,-0.4630661904811859,15.18161010742188,84.999267578125,-23.80506896972656
206656,-0.436767578125,-0.1247711181640625,0.284088134765625,-1.14169180393219,-0.0206216555088758,-0.496049702167511,15.11866760253906,84.93254089355469,-24.14949035644531
206657,-0.4892730712890625,-0.249114990234375,0.5014190673828125,-1.662158131599426,-0.4434184432029724,-0.5071223378181458,14.98001098632812,84.77153015136719,-24.12431335449219
206658,-0.5866546630859375,-0.3505401611328125,0.74273681640625,-2.214696645736694,-0.3205074369907379,-0.4889843463897705,14.79966735839844,84.72926330566406,-23.72119140625
206659,-0.68603515625,-0.4013671875,0.8659515380859375,-3.186577081680298,0.7354601621627808,-0.4638038873672485,14.58294677734375,84.83784484863281,-23.02752685546875
206660,-0.7490386962890625,-0.3684234619140625,0.7607574462890625,-3.186577081680298,0.7354601621627808,-0.4638038873672485,14.29856872558594,84.837890625,-22.04019165039062
206661,-0.7737274169921875,-0.2542877197265625,0.5156097412109375,-3.506784200668335,0.8261189460754395,-0.5449618697166443,14.08993530273438,84.86329650878906,-21.13607788085938
206662,-0.787628173828125,-0.1026153564453125,0.289886474609375,-3.747891902923584,0.6295648813247681,-0.6830118894577026,13.81199645996094,85.07594299316406,-20.11213684082031
206663,-0.7827301025390625,0.0675201416015625,0.1414031982421875,-3.938217401504517,0.3628319799900055,-0.8930063843727112,13.50680541992188,85.09178161621094,-19.3111572265625
206664,-0.746978759765625,0.2116851806640625,0.0074005126953125,-4.059048175811768,0.0568185411393642,-1.110554933547974,13.12455749511719,85.08967590332031,-18.37997436523438
206665,-0.7514495849609375,0.437225341796875,-0.61297607421875,-3.801878929138184,-0.931949257850647,-1.310928463935852,12.69776916503906,85.04931640625,-17.16645812988281
206666,-0.8239898681640625,0.6944580078125,-0.841339111328125,-2.964221477508545,-2.755822658538818,-1.547927260398865,12.204345703125,84.69590759277344,-15.84716796875
206667,-0.8608245849609375,0.822723388671875,-0.047607421875,-2.284637928009033,-3.088810682296753,-1.710629343986511,11.76963806152344,84.14266967773438,-14.24130249023438
206668,-0.8232879638671875,0.9793243408203124,0.3380279541015625,-1.852329134941101,-1.907546162605286,-1.692543506622314,11.25335693359375,83.53436279296875,-12.49517822265625
206669,-0.7871246337890625,1.15399169921875,0.16754150390625,-1.374004483222961,-0.6083810329437256,-1.653199076652527,10.73558044433594,82.90411376953125,-10.71726989746094
206670,-0.735443115234375,1.103424072265625,-0.015228271484375,-0.9535661339759828,0.168109118938446,-1.625473380088806,10.35057067871094,82.03990173339844,-9.322311401367188
206671,-0.65069580078125,0.919647216796875,-0.11767578125,-0.8370509743690491,0.3522384762763977,-1.471102714538574,10.16581726074219,81.08203125,-8.519424438476562
206672,-0.65069580078125,0.919647216796875,-0.11767578125,-0.8370509743690491,0.3522384762763977,-1.471102714538574,10.16581726074219,81.08203125,-8.519424438476562
206673,-0.3526458740234375,0.6680145263671875,-0.1982879638671875,-1.196743845939636,-0.3222464919090271,-0.928796887397766,9.990066528320312,79.5230712890625,-8.178466796875
206674,-0.168914794921875,0.5528106689453125,-0.21240234375,-1.327766895294189,-0.8292692303657532,-0.6172109842300415,10.03092956542969,78.863525390625,-8.029998779296875
206675,-0.00604248046875,0.39288330078125,-0.2312164306640625,-1.672479748725891,-2.193085908889771,0.4920442998409271,10.068359375,78.22799682617188,-7.68072509765625
206676,0.0576019287109375,0.4136199951171875,-0.1930084228515625,-1.672479748725891,-2.193085908889771,0.4920442998409271,10.29136657714844,77.70712280273438,-7.01873779296875
206677,0.029571533203125,0.4368743896484375,-0.2191162109375,-1.379822373390198,-1.984378814697266,0.6809353828430176,10.54145812988281,77.36114501953125,-6.018173217773438
206678,0.007293701171875,0.3346099853515625,-0.3050994873046875,-0.7251552939414978,-1.51012396812439,0.6429486274719238,10.79820251464844,77.244384765625,-4.784255981445312
206679,-0.0365447998046875,0.243072509765625,-0.277587890625,-0.0428665056824684,-0.8862485885620117,0.5384312272071838,10.73284912109375,77.433837890625,-3.674026489257812
206680,-0.0365447998046875,0.243072509765625,-0.277587890625,-0.0428665056824684,-0.8862485885620117,0.5384312272071838,10.73284912109375,77.433837890625,-3.674026489257812
206681,-0.175933837890625,0.1844482421875,-0.33172607421875,0.5259572863578796,0.2327184677124023,0.0761147439479827,10.86106872558594,77.97842407226562,-2.2213134765625
206682,-0.2540435791015625,0.193878173828125,-0.407440185546875,0.4333676695823669,0.3938325345516205,-0.1812038719654083,10.79891967773438,78.19596862792969,-2.062103271484375
206683,-0.3666534423828125,0.1898193359375,-0.4725341796875,0.1727217137813568,0.3433054387569427,-0.3291217088699341,10.71749877929688,78.37181091308594,-2.204986572265625
206684,-0.488067626953125,0.228729248046875,-0.536468505859375,-0.1503863036632538,0.1290280222892761,-0.416699230670929,10.44877624511719,78.41889953613281,-2.591140747070312
206685,-0.5879364013671875,0.301544189453125,-0.551483154296875,-0.447629451751709,-0.0897972658276557,-0.4613820016384125,10.29203796386719,78.26007080078125,-2.835342407226562
206686,-0.5879364013671875,0.301544189453125,-0.551483154296875,-0.447629451751709,-0.0897972658276557,-0.4613820016384125,10.29203796386719,78.26007080078125,-2.835342407226562
206687,-0.729095458984375,0.4136199951171875,-0.51007080078125,-0.2778846025466919,0.4968198835849762,-0.1072561517357826,9.577316284179688,78.06088256835938,-3.173202514648438
206688,-0.6766357421875,0.4788055419921875,-0.52239990234375,-0.2778846025466919,0.4968198835849762,-0.1072561517357826,9.32379150390625,77.88247680664062,-3.148208618164062
206689,-0.580596923828125,0.598968505859375,-0.5337677001953125,0.034143853932619,0.6342949271202087,0.1891411542892456,9.011337280273438,77.64265441894531,-2.9842529296875
206690,-0.4822235107421875,0.73553466796875,-0.481658935546875,0.336607038974762,0.5928041934967041,0.4871062636375427,8.876113891601562,77.4207763671875,-3.044219970703125
206691,-0.3752899169921875,0.865234375,-0.3436279296875,0.5146228671073914,0.599525511264801,0.7838292717933655,8.805130004882812,77.35879516601562,-3.189285278320312
206692,-0.3752899169921875,0.865234375,-0.3436279296875,0.5146228671073914,0.599525511264801,0.7838292717933655,8.805130004882812,77.35879516601562,-3.189285278320312
206693,-0.1951751708984375,1.091659545898438,-0.2378387451171875,0.5777573585510254,0.7607601881027222,1.275252819061279,8.852005004882812,77.60430908203125,-3.910980224609375
206694,-0.2061767578125,1.230972290039062,-0.2530059814453125,0.6494195461273193,0.6756618022918701,1.424686789512634,8.97882080078125,77.81454467773438,-4.134552001953125
206695,-0.3162841796875,1.620956420898438,-0.4393463134765625,0.8784804344177246,-0.3008940517902374,1.320594787597656,9.695281982421877,78.66630554199219,-4.544937133789062
206696,-0.364959716796875,1.818923950195312,-0.4761505126953125,1.337384104728699,-0.8846216797828674,1.012609481811523,10.14443969726562,79.00944519042969,-4.55975341796875
206697,-0.364959716796875,1.818923950195312,-0.4761505126953125,1.337384104728699,-0.8846216797828674,1.012609481811523,10.14443969726562,79.00944519042969,-4.55975341796875
206698,-0.364959716796875,1.818923950195312,-0.4761505126953125,1.337384104728699,-0.8846216797828674,1.012609481811523,10.14443969726562,79.00944519042969,-4.55975341796875
206699,-0.3674774169921875,1.76763916015625,-0.2823638916015625,3.271104335784912,0.0004332963144406,0.6328113079071045,10.92930603027344,80.01046752929688,-4.777236938476562
206700,-0.396484375,1.753005981445312,-0.3943328857421875,3.271104335784912,0.0004332963144406,0.6328113079071045,11.18838500976562,80.46212768554688,-4.788665771484375
206701,-0.4083709716796875,1.959930419921875,-0.794586181640625,3.65407395362854,0.1024478152394295,0.4611188769340515,11.36537170410156,80.98808288574219,-5.154891967773438
206702,-0.350372314453125,2.283172607421875,-1.133926391601562,3.298460960388184,-1.230748772621155,0.4553400874137878,11.26296997070312,82.18482971191406,-7.409011840820312
206703,-0.350372314453125,2.283172607421875,-1.133926391601562,3.298460960388184,-1.230748772621155,0.4553400874137878,11.26296997070312,82.18482971191406,-7.409011840820312
206704,-0.2559814453125,2.602874755859375,-0.867645263671875,3.298460960388184,-1.230748772621155,0.4553400874137878,11.26296997070312,82.18482971191406,-7.409011840820312
206705,-0.191802978515625,3.198135375976562,-0.137939453125,1.640694141387939,-0.4290046095848083,1.255578398704529,11.35855102539062,83.48307800292969,-9.952789306640623
206706,-0.3117523193359375,3.551742553710938,-0.0778656005859375,1.423365831375122,0.2146782130002975,1.445527315139771,11.768310546875,84.12783813476562,-10.43637084960938
206707,-0.46905517578125,3.80474853515625,-0.27410888671875,1.432440519332886,0.3933683335781097,1.338791012763977,12.26768493652344,84.71646118164062,-10.96174621582031
206708,-0.46905517578125,3.80474853515625,-0.27410888671875,1.432440519332886,0.3933683335781097,1.338791012763977,12.26768493652344,84.71646118164062,-10.96174621582031
206709,-1.150833129882812,3.415664672851562,0.088470458984375,1.321442365646362,-0.9475761651992798,0.3236017525196075,13.657958984375,85.8568115234375,-12.0740966796875
206710,-1.699325561523438,2.759567260742188,0.366180419921875,1.140952587127686,-0.7743465900421143,0.0840419083833694,14.13209533691406,86.36529541015625,-12.63803100585938
206711,-2.13818359375,1.949172973632812,0.29541015625,1.186540246009827,-0.7055951952934265,0.539309024810791,14.40615844726562,86.6502685546875,-13.03131103515625
206712,-2.118988037109375,1.173019409179688,0.37335205078125,1.506280660629272,-0.6413970589637756,1.07206130027771,14.82279968261719,86.96638488769531,-13.27801513671875
206713,-1.79791259765625,0.5823974609375,0.54974365234375,1.841051459312439,-0.3443712294101715,1.323685646057129,15.42730712890625,87.27001953125,-13.57789611816406
206714,-1.79791259765625,0.5823974609375,0.54974365234375,1.841051459312439,-0.3443712294101715,1.323685646057129,15.42730712890625,87.27001953125,-13.57789611816406
206715,-0.974273681640625,0.205596923828125,0.6277923583984375,1.812941312789917,0.4582906067371368,1.121465921401978,16.82441711425781,88.01841735839844,-14.92398071289062
206716,-0.7460174560546875,0.0630340576171875,0.4510345458984375,1.54921543598175,0.7067946791648865,1.004095911979675,17.4066162109375,88.304931640625,-15.79702758789062
206717,-0.5522918701171875,-0.0720672607421875,0.2672576904296875,1.230729579925537,0.8273932933807373,0.88540118932724,17.99003601074219,88.47465515136719,-16.52955627441406
206718,-0.386138916015625,-0.16717529296875,0.213287353515625,0.9023330211639404,0.912442684173584,0.8114931583404541,18.34086608886719,88.66175842285156,-17.36709594726562
206719,-0.257843017578125,-0.1793975830078125,0.3072509765625,0.5390685200691223,1.179886102676392,0.710263729095459,18.67935180664062,88.77909851074219,-18.00132751464844
206720,-0.257843017578125,-0.1793975830078125,0.3072509765625,0.5390685200691223,1.179886102676392,0.710263729095459,18.67935180664062,88.77909851074219,-18.00132751464844
206721,-0.0413055419921875,-0.1182708740234375,0.404296875,-0.1077605485916138,1.982921600341797,0.5457860827445984,19.427734375,89.178955078125,-19.04913330078125
206722,0.051513671875,-0.1052093505859375,0.3615875244140625,-0.2997571527957916,2.101463556289673,0.5313892960548401,19.64772033691406,89.32713317871094,-19.52801513671875
206723,0.1097869873046875,-0.09906005859375,0.3587799072265625,-0.4621569812297821,2.099377155303955,0.5793485641479492,19.9803466796875,89.57513427734375,-19.87590026855469
206724,0.1222381591796875,-0.06854248046875,0.3698883056640625,-0.6354928016662598,2.000343799591064,0.6064249277114868,20.13902282714844,89.82334899902344,-20.16142272949219
206725,0.084075927734375,0.00543212890625,0.4361419677734375,-0.8570571541786194,1.900244235992432,0.5403942465782166,20.38601684570312,89.95217895507812,-20.41415405273438
206726,0.084075927734375,0.00543212890625,0.4361419677734375,-0.8570571541786194,1.900244235992432,0.5403942465782166,20.38601684570312,89.95217895507812,-20.41415405273438
206727,-0.0606231689453125,0.20654296875,0.5057373046875,-1.510545253753662,1.060240387916565,-0.1328869462013245,20.94029235839844,90.41162109375,-20.84323120117188
206728,-0.1263580322265625,0.272003173828125,0.4933013916015625,-1.510545253753662,1.060240387916565,-0.1328869462013245,21.24519348144531,90.47940063476562,-20.790283203125
206729,-0.169891357421875,0.362945556640625,0.4655303955078125,-1.658137917518616,0.3627353310585022,-0.2102570980787277,21.42962646484375,90.4563446044922,-20.72799682617188
206730,-0.169891357421875,0.362945556640625,0.4655303955078125,-1.658137917518616,0.3627353310585022,-0.2102570980787277,21.42962646484375,90.4563446044922,-20.72799682617188
206731,-0.2442474365234375,0.614776611328125,0.4761505126953125,-1.973712921142578,-1.135356187820435,-0.2788265645503998,21.65353393554688,90.38441467285156,-19.50047302246094
206732,-0.2700347900390625,0.7585296630859375,0.5074615478515625,-2.035135746002197,-1.71437931060791,-0.3060092031955719,21.65312194824219,90.36766052246094,-18.5474853515625
206733,-0.284271240234375,0.8894805908203125,0.532470703125,-1.993433833122253,-2.189644575119019,-0.324087530374527,21.47433471679688,90.35177612304688,-17.60687255859375
206734,-0.2946014404296875,0.99615478515625,0.560455322265625,-1.867916464805603,-2.566103935241699,-0.2829731106758118,21.38255310058594,90.28465270996094,-16.31071472167969
206735,-0.303680419921875,1.115203857421875,0.5871429443359375,-1.728830456733704,-2.75130033493042,-0.2198351621627808,21.31393432617188,90.03144836425781,-14.92843627929688
206736,-0.303680419921875,1.115203857421875,0.5871429443359375,-1.728830456733704,-2.75130033493042,-0.2198351621627808,21.31393432617188,90.03144836425781,-14.92843627929688
206737,-0.191741943359375,1.143661499023438,0.551544189453125,-1.972806811332703,-1.195551633834839,-0.3393325209617615,20.97648620605469,89.79489135742188,-12.00117492675781
206738,-0.1598968505859375,0.94384765625,0.43408203125,-1.972806811332703,-1.195551633834839,-0.3393325209617615,20.71006774902344,89.73135375976562,-10.55224609375
206739,-0.14691162109375,0.6978302001953125,0.260528564453125,-2.083793878555298,-0.4881784617900848,-0.3618650138378143,20.48281860351562,89.581298828125,-9.393081665039062
206740,-0.14691162109375,0.6978302001953125,0.260528564453125,-2.083793878555298,-0.4881784617900848,-0.3618650138378143,20.48281860351562,89.581298828125,-9.393081665039062
206741,-0.1582183837890625,0.3760223388671875,-0.3781280517578125,-1.961692929267883,-0.0463006533682346,-0.5959062576293945,19.90177917480469,89.14863586425781,-7.376571655273438
206742,-0.168975830078125,0.296722412109375,-1.1514892578125,-1.207811713218689,-1.416702032089233,-0.837734043598175,19.62086486816406,88.96075439453125,-6.569122314453125
206743,-0.0688018798828125,0.287841796875,-0.9672088623046876,0.5916745066642761,-3.161320447921753,-1.169999361038208,19.22627258300781,88.75265502929688,-5.547256469726562
206744,-0.0688018798828125,0.287841796875,-0.9672088623046876,0.5916745066642761,-3.161320447921753,-1.169999361038208,19.22627258300781,88.75265502929688,-5.547256469726562
206745,-0.0329742431640625,0.2187042236328125,0.07037353515625,0.7578189969062805,-2.092972993850708,-1.173323512077332,18.58697509765625,88.16091918945312,-3.608566284179688
206746,0.0091094970703125,0.1868743896484375,0.0523529052734375,0.6464887261390686,-0.3754471242427826,-1.035618901252747,18.23883056640625,87.90858459472656,-3.043777465820312
206747,0.0593414306640625,0.1985626220703125,-0.29486083984375,0.5138009786605835,0.6784371137619019,-0.8315517902374268,17.96505737304688,87.61796569824219,-2.927734375
206748,0.0593414306640625,0.1985626220703125,-0.29486083984375,0.5138009786605835,0.6784371137619019,-0.8315517902374268,17.96505737304688,87.61796569824219,-2.927734375
206749,0.1452178955078125,0.180328369140625,-0.5420989990234375,0.4603444337844849,-0.0372261963784694,-0.3336717188358307,17.59788513183594,86.84794616699219,-3.313812255859375
206750,0.1566162109375,0.2079620361328125,-0.43389892578125,0.3295653760433197,-0.729232907295227,-0.0588651821017265,17.52897644042969,86.57868957519531,-3.377517700195312
206751,0.1536712646484375,0.287750244140625,-0.3714141845703125,0.1809793710708618,-1.212472200393677,0.1633242070674896,17.41893005371094,86.60453796386719,-3.451248168945312
206752,0.1536712646484375,0.287750244140625,-0.3714141845703125,0.1809793710708618,-1.212472200393677,0.1633242070674896,17.41893005371094,86.60453796386719,-3.451248168945312
206753,0.06683349609375,0.592132568359375,-0.4126434326171875,0.3670206069946289,-1.381593585014343,0.0530504360795021,17.70791625976562,86.62400817871094,-2.65167236328125
206754,0.0131378173828125,0.7614898681640625,-0.4572296142578125,0.6860886216163635,-1.019607782363892,-0.2352617830038071,17.8681640625,86.71836853027344,-1.969070434570312
206755,-0.0946044921875,0.8966217041015625,-0.5507049560546875,1.035690069198608,-0.5149030089378357,-0.5237031579017639,17.972900390625,86.81227111816406,-1.629714965820312
206756,-0.0946044921875,0.8966217041015625,-0.5507049560546875,1.035690069198608,-0.5149030089378357,-0.5237031579017639,17.972900390625,86.81227111816406,-1.629714965820312
206757,-0.338531494140625,1.12646484375,-0.94427490234375,1.237946510314941,0.5247926712036133,-0.644293487071991,17.75572204589844,86.96055603027344,-1.453369140625
206758,-0.338531494140625,1.12646484375,-0.94427490234375,1.237946510314941,0.5247926712036133,-0.644293487071991,17.75572204589844,86.96055603027344,-1.453369140625
206759,-0.5199432373046875,1.473922729492188,-0.9259796142578124,0.6714968681335449,0.264348030090332,-0.7521381974220276,17.22528076171875,86.84506225585938,-2.232101440429688
206760,-0.6553955078125,1.695144653320312,-0.3966064453125,0.070924237370491,0.0625976026058197,-1.31073009967804,16.84695434570312,86.76243591308594,-2.704498291015625
206761,-0.774139404296875,2.027084350585938,-0.1104278564453125,-0.1033125370740891,0.2056556940078735,-2.273200988769531,16.53009033203125,86.58529663085938,-3.137466430664062
206762,-0.774139404296875,2.027084350585938,-0.1104278564453125,-0.1033125370740891,0.2056556940078735,-2.273200988769531,16.53009033203125,86.58529663085938,-3.137466430664062
206763,-0.9019317626953124,2.377822875976562,-0.1017913818359375,0.2715342938899994,0.2310960739850998,-3.289683818817139,15.83084106445312,86.32496643066406,-3.365280151367188
206764,-1.355361938476562,2.406539916992188,0.2493133544921875,0.5790790915489197,0.8618175387382507,-3.941205739974976,14.82518005371094,85.86929321289062,-3.782241821289062
206765,-3.080718994140625,2.109527587890625,-0.463409423828125,-0.0385061129927635,3.036417484283447,-0.3618439733982086,11.92381286621094,84.34019470214844,-5.82550048828125
206766,-2.591552734375,2.49481201171875,-0.35260009765625,0.372163712978363,0.5710115432739258,0.1572277098894119,11.10446166992188,83.79713439941406,-7.232040405273438
206767,-2.020172119140625,2.544845581054688,0.3548736572265625,0.2471482753753662,-0.7688985466957092,0.6130865812301636,10.78465270996094,83.83091735839844,-8.417221069335938
206768,-2.020172119140625,2.544845581054688,0.3548736572265625,0.2471482753753662,-0.7688985466957092,0.6130865812301636,10.78465270996094,83.83091735839844,-8.417221069335938
206769,-1.092300415039062,2.504287719726562,0.288421630859375,0.1105760484933853,-1.040180325508118,0.803577721118927,10.9180908203125,84.14678955078125,-8.800323486328125
206770,-0.991973876953125,2.410003662109375,0.22210693359375,0.421368271112442,-1.004435420036316,0.9569501876831056,11.07679748535156,84.32389831542969,-8.622268676757812
206771,-0.93353271484375,2.202133178710938,0.2908935546875,0.7820830345153809,-0.7452584505081177,0.9811838865280152,11.36776733398438,84.49911499023438,-8.250076293945312
206772,-0.93353271484375,2.202133178710938,0.2908935546875,0.7820830345153809,-0.7452584505081177,0.9811838865280152,11.36776733398438,84.49911499023438,-8.250076293945312
206773,-0.7683563232421875,1.67498779296875,0.187042236328125,1.31281852722168,-0.215019628405571,0.743806779384613,12.37872314453125,85.10987854003906,-7.949249267578125
206774,-0.7683563232421875,1.67498779296875,0.187042236328125,1.31281852722168,-0.215019628405571,0.743806779384613,12.37872314453125,85.10987854003906,-7.949249267578125
206775,-0.5136566162109375,1.245590209960938,6.103515625e-05,1.278623342514038,-0.8868680596351624,0.7289766669273376,13.70808410644531,85.71908569335938,-8.653213500976562
206776,-0.3997039794921875,1.05889892578125,0.010406494140625,1.197362303733826,-1.168789982795715,0.7426885366439819,14.28457641601562,85.89669799804688,-8.819992065429688
206777,-0.30169677734375,0.864013671875,0.02288818359375,1.134121537208557,-1.223694562911987,0.776009202003479,14.872314453125,86.08935546875,-8.827255249023438
206778,-0.30169677734375,0.864013671875,0.02288818359375,1.134121537208557,-1.223694562911987,0.776009202003479,14.872314453125,86.08935546875,-8.827255249023438
206779,-0.1557464599609375,0.5451202392578125,-0.0028228759765625,1.056136965751648,-0.6403205990791321,0.7891638875007629,15.91461181640625,86.56930541992188,-8.646377563476562
206780,-0.1031494140625,0.449737548828125,0.09539794921875,1.056136965751648,-0.6403205990791321,0.7891638875007629,16.46278381347656,86.90554809570312,-8.65887451171875
206781,-0.0558624267578125,0.3637847900390625,0.148284912109375,0.8922604322433472,-0.1787758767604828,0.8014349341392517,16.85549926757812,87.24403381347656,-8.63446044921875
206782,-0.0641326904296875,0.2823638916015625,0.1006317138671875,0.1594418585300446,0.6221327781677246,0.8590785264968872,17.68977355957031,87.75146484375,-9.023635864257812
206783,-0.0641326904296875,0.2823638916015625,0.1006317138671875,0.1594418585300446,0.6221327781677246,0.8590785264968872,17.68977355957031,87.75146484375,-9.023635864257812
206784,-0.0744476318359375,0.292510986328125,0.0225982666015625,0.1594418585300446,0.6221327781677246,0.8590785264968872,18.03828430175781,88.0452880859375,-9.135574340820312
206785,-0.0983428955078125,0.3504180908203125,0.040924072265625,-0.0013049489352852,0.4604067504405975,0.8371119499206543,18.49409484863281,88.22129821777344,-9.360321044921877
206786,-0.1169281005859375,0.4209442138671875,0.1344146728515625,-0.1244561746716499,0.3165142834186554,0.8027023077011108,18.85655212402344,88.37060546875,-9.478652954101562
206787,-0.10595703125,0.4753265380859375,0.2197265625,-0.2400339096784592,0.2957847714424133,0.7492055296897888,19.20960998535156,88.682373046875,-9.87811279296875
206788,-0.10595703125,0.4753265380859375,0.2197265625,-0.2400339096784592,0.2957847714424133,0.7492055296897888,19.20960998535156,88.682373046875,-9.87811279296875
206789,-0.05828857421875,0.578460693359375,0.43292236328125,-0.4866726994514465,0.6793625354766846,0.6001614332199097,19.93966674804688,88.93751525878906,-9.991409301757812
206790,-0.05828857421875,0.578460693359375,0.43292236328125,-0.4866726994514465,0.6793625354766846,0.6001614332199097,19.93966674804688,88.93751525878906,-9.991409301757812
206791,-0.056640625,0.59771728515625,0.5526275634765625,-0.6828296780586243,1.034288644790649,0.5279871225357056,20.23085021972656,89.0213623046875,-9.889266967773438
206792,-0.1011505126953125,0.6168670654296875,0.6070709228515625,-1.248588442802429,1.407286524772644,0.3385655283927917,20.76890563964844,89.1788330078125,-9.81304931640625
206793,-0.1892242431640625,0.6274261474609375,0.60882568359375,-1.601898550987244,1.369428277015686,0.1349708735942841,20.93756103515625,89.2489013671875,-9.811965942382812
206794,-0.1892242431640625,0.6274261474609375,0.60882568359375,-1.601898550987244,1.369428277015686,0.1349708735942841,20.93756103515625,89.2489013671875,-9.811965942382812
206795,-0.4579010009765625,0.5772247314453125,0.6630096435546875,-2.445367574691772,1.218183398246765,-0.2382804751396179,21.01046752929688,89.47212219238281,-9.575439453125
206796,-0.5345306396484375,0.57818603515625,0.600738525390625,-2.546912908554077,0.8432798385620117,-0.2272571176290512,20.89454650878906,89.43492126464844,-9.246368408203123
206797,-0.5816192626953125,0.590087890625,0.5444488525390625,-2.567514181137085,0.351320743560791,-0.1820166707038879,20.61396789550781,89.2808837890625,-8.754104614257812
206798,-0.5816192626953125,0.590087890625,0.5444488525390625,-2.567514181137085,0.351320743560791,-0.1820166707038879,20.61396789550781,89.2808837890625,-8.754104614257812
206799,-0.593994140625,0.6261138916015625,0.42547607421875,-2.535208940505981,-0.1374311000108719,-0.1845453381538391,19.85795593261719,89.17631530761719,-7.525177001953125
206800,-0.593994140625,0.6261138916015625,0.42547607421875,-2.535208940505981,-0.1374311000108719,-0.1845453381538391,19.85795593261719,89.17631530761719,-7.525177001953125
206801,-0.49407958984375,0.5127410888671875,0.229278564453125,-2.309906244277954,-0.7367264628410339,-0.5494279861450195,19.19209289550781,88.98866271972656,-5.622390747070312
206802,-0.4126434326171875,0.408599853515625,0.127593994140625,-1.67214560508728,-1.090271830558777,-0.9615769386291504,18.89950561523438,88.79644775390625,-4.539947509765625
206803,-0.4126434326171875,0.408599853515625,0.127593994140625,-1.67214560508728,-1.090271830558777,-0.9615769386291504,18.89950561523438,88.79644775390625,-4.539947509765625
206804,-0.4126434326171875,0.408599853515625,0.127593994140625,-1.67214560508728,-1.090271830558777,-0.9615769386291504,18.89950561523438,88.79644775390625,-4.539947509765625
206805,-0.2132415771484375,0.22747802734375,-0.2787017822265625,-0.627406656742096,-1.676698803901672,-1.199695229530334,18.20927429199219,87.62739562988281,-1.7061767578125
206806,-0.1556549072265625,0.2062835693359375,-0.20135498046875,-0.067273311316967,-1.928572773933411,-1.207028746604919,18.04386901855469,87.21726989746094,-0.8873138427734375
206807,-0.1083984375,0.1655426025390625,-0.069183349609375,0.3755800127983093,-1.610790014266968,-1.078513383865356,17.99467468261719,86.74391174316406,-0.172454833984375
206808,-0.03582763671875,0.1300201416015625,-0.0463409423828125,0.3755800127983093,-1.610790014266968,-1.078513383865356,17.92903137207031,86.15615844726562,0.47137451171875
206809,0.02752685546875,0.0999298095703125,-0.0578155517578125,0.3893128633499146,-1.384740710258484,-0.9253060221672058,18.08866882324219,85.59254455566406,1.03387451171875
206810,0.0762939453125,0.0548095703125,-0.087860107421875,0.3310439586639404,-1.212250113487244,-0.7257276177406311,18.26724243164062,85.04173278808594,1.296630859375
206811,0.121429443359375,-0.010894775390625,-0.1317901611328125,0.1696305721998215,-1.068319916725159,-0.1956326216459274,18.46572875976562,84.47877502441406,1.663528442382812
206812,0.1311492919921875,-0.0486297607421875,-0.2012939453125,0.1696305721998215,-1.068319916725159,-0.1956326216459274,18.52993774414062,84.12861633300781,1.987899780273438
206813,0.098052978515625,-0.03631591796875,-0.314727783203125,0.236611470580101,-1.074887990951538,-0.0455504395067691,18.64849853515625,83.68193054199219,2.33978271484375
206814,0.05731201171875,0.031280517578125,-0.444244384765625,0.3759994506835938,-1.255120873451233,-0.0962618216872215,18.79287719726562,83.49722290039062,2.811752319335938
206815,0.039215087890625,0.116546630859375,-0.5050048828125,0.184460923075676,-0.8755781054496765,-0.5984019041061401,18.8087158203125,83.51179504394531,3.282119750976562
206816,0.039215087890625,0.116546630859375,-0.5050048828125,0.184460923075676,-0.8755781054496765,-0.5984019041061401,18.8087158203125,83.51179504394531,3.282119750976562
206817,-0.1001739501953125,0.3977813720703125,-0.74365234375,-0.3766071796417236,0.1365959346294403,-0.9068676233291626,18.77482604980469,83.69378662109375,4.010696411132812
206818,-0.21087646484375,0.465301513671875,-0.57470703125,-0.1363727599382401,0.120092585682869,-0.9934086203575134,18.47749328613281,83.61738586425781,4.219711303710938
206819,-0.2478485107421875,0.605438232421875,-0.28857421875,0.3603400886058807,0.6749888062477112,-1.125572562217712,18.15414428710938,83.40318298339844,4.628067016601562
206820,-0.2910919189453125,0.7501373291015625,-0.2898406982421875,0.3603400886058807,0.6749888062477112,-1.125572562217712,17.569091796875,83.09295654296875,4.687530517578125
206821,-0.3813629150390625,0.9030609130859376,-0.37579345703125,0.5501512885093689,0.7708748579025269,-1.098230600357056,17.15353393554688,82.85789489746094,4.526535034179688
206822,-0.3813629150390625,0.9030609130859376,-0.37579345703125,0.5501512885093689,0.7708748579025269,-1.098230600357056,17.15353393554688,82.85789489746094,4.526535034179688
206823,-0.54266357421875,1.044662475585938,-0.4013519287109375,0.6917310357093811,0.8353763818740845,-1.07327675819397,16.5465087890625,82.63082885742188,4.2010498046875
206824,-0.9673309326171876,1.4095458984375,-0.4790802001953125,0.8627094626426697,0.8105642199516296,-1.409150958061218,15.28329467773438,82.24725341796875,3.371078491210938
206825,-1.113693237304688,1.621322631835938,-0.12615966796875,0.7220103740692139,1.109914183616638,-1.781365513801575,14.53643798828125,82.01394653320312,2.756149291992188
206826,-1.113693237304688,1.621322631835938,-0.12615966796875,0.7220103740692139,1.109914183616638,-1.781365513801575,14.53643798828125,82.01394653320312,2.756149291992188
206827,-1.371688842773438,1.841522216796875,0.0352325439453125,0.496795654296875,1.915407538414001,-2.153672695159912,13.73129272460938,81.72555541992188,1.95648193359375
206828,-2.003875732421875,1.859588623046875,-0.156097412109375,0.4423531889915466,2.356361150741577,-1.794787287712097,12.84577941894531,81.42832946777344,1.058181762695312
206829,-2.312393188476562,2.595123291015625,-0.2288055419921875,0.996134340763092,1.158717393875122,0.2255002409219742,10.99674987792969,80.66192626953125,-1.213394165039062
206830,-2.312393188476562,2.595123291015625,-0.2288055419921875,0.996134340763092,1.158717393875122,0.2255002409219742,10.99674987792969,80.66192626953125,-1.213394165039062
206831,-1.90093994140625,2.916366577148438,-0.055450439453125,1.023803234100342,0.2198716402053833,0.4374905228614807,10.60133361816406,80.62811279296875,-2.309783935546875
206832,-1.097671508789062,2.656967163085938,0.0514678955078125,0.7491389513015747,-0.396298885345459,0.4733683466911316,10.43318176269531,81.03779602050781,-3.806198120117188
206833,-1.062423706054688,2.470687866210938,0.2600250244140625,0.8538286089897156,-0.2856940627098083,0.5533580183982849,10.51837158203125,81.35121154785156,-4.169937133789062
206834,-1.062423706054688,2.470687866210938,0.2600250244140625,0.8538286089897156,-0.2856940627098083,0.5533580183982849,10.51837158203125,81.35121154785156,-4.169937133789062
206835,-1.0352783203125,2.33203125,0.595428466796875,1.396447896957397,-0.3420684039592743,0.7188335061073303,10.73388671875,82.02072143554688,-4.653564453125
206836,-0.99310302734375,2.29229736328125,0.7512054443359375,1.578881978988647,-0.4676651954650879,0.7803493142127991,11.00701904296875,82.339111328125,-4.903152465820312
206837,-0.9261932373046876,2.142608642578125,0.7928009033203125,1.595619320869446,-0.5166535377502441,0.8093170523643494,11.28253173828125,82.72270202636719,-5.099853515625
206838,-0.9261932373046876,2.142608642578125,0.7928009033203125,1.595619320869446,-0.5166535377502441,0.8093170523643494,11.28253173828125,82.72270202636719,-5.099853515625
206839,-0.8719482421875,1.824081420898438,0.6683197021484375,1.319331049919128,-0.763383686542511,0.8486543297767639,11.80255126953125,83.16519165039062,-5.392593383789062
206840,-0.6854705810546875,1.175674438476562,0.246612548828125,1.191403746604919,-1.012495279312134,0.9216800928115844,13.14854431152344,83.87318420410156,-5.899124145507812
206841,-0.561370849609375,1.020950317382812,0.1407928466796875,1.124531984329224,-1.134714126586914,0.924774169921875,13.77235412597656,84.16738891601562,-5.923324584960938
206842,-0.4672088623046875,0.910491943359375,0.121856689453125,1.170408964157104,-1.023449063301086,0.8731929659843445,14.33296203613281,84.60099792480469,-5.957305908203125
206843,-0.3820037841796875,0.7941436767578125,0.043121337890625,1.309853911399841,-0.7949138879776001,0.8046658635139465,14.92768859863281,85.03547668457031,-6.000762939453125
206844,-0.3086700439453125,0.6471710205078125,-0.102783203125,1.514514446258545,-0.7356297969818115,0.7779780626296997,15.42369079589844,85.44694519042969,-6.017501831054688
206845,-0.276031494140625,0.5082855224609375,-0.1114044189453125,1.680394768714905,-0.7740309834480286,0.7650790214538574,16.1087646484375,85.69345092773438,-6.094680786132812
206846,-0.276031494140625,0.5082855224609375,-0.1114044189453125,1.680394768714905,-0.7740309834480286,0.7650790214538574,16.1087646484375,85.69345092773438,-6.094680786132812
206847,-0.2508087158203125,0.399139404296875,0.01837158203125,1.653953194618225,-0.6367650032043457,0.7840625643730164,16.59675598144531,86.06704711914062,-6.228164672851562
206848,-0.13092041015625,0.2683563232421875,0.225860595703125,0.869856595993042,0.1376273632049561,0.9076747894287108,17.62199401855469,86.68951416015625,-6.85693359375
206849,-0.0965728759765625,0.2159576416015625,0.2149505615234375,0.3565810322761536,0.5360516905784607,0.9620538949966432,18.1363525390625,86.97158813476562,-7.255706787109375
206850,-0.0773773193359375,0.150115966796875,0.11322021484375,-0.0291887782514095,0.7109318971633911,0.9932448267936708,18.69285583496094,87.18937683105469,-7.401580810546875
206851,-0.0822906494140625,0.1259613037109375,0.0501861572265625,-0.2536793947219849,0.6668187975883484,0.9942429661750792,19.08749389648438,87.47860717773438,-7.657333374023438
206852,-0.1089935302734375,0.1417083740234375,0.0561370849609375,-0.3613432943820953,0.5835204124450684,0.9717219471931458,19.38421630859375,87.85546875,-7.986038208007812
206853,-0.141143798828125,0.1875457763671875,0.1168975830078125,-0.4084274470806122,0.5998640060424805,0.918651819229126,19.78215026855469,88.04971313476562,-7.957260131835938
206854,-0.141143798828125,0.1875457763671875,0.1168975830078125,-0.4084274470806122,0.5998640060424805,0.918651819229126,19.78215026855469,88.04971313476562,-7.957260131835938
206855,-0.164215087890625,0.2365264892578125,0.21075439453125,-0.4417004287242889,0.746430516242981,0.8289933204650879,20.10191345214844,88.29493713378906,-7.926422119140625
206856,-0.1685791015625,0.302886962890625,0.3309478759765625,-0.6571011543273926,1.201860070228577,0.5335821509361267,20.59039306640625,88.85203552246094,-8.120529174804688
206857,-0.1960601806640625,0.37371826171875,0.376861572265625,-0.8730065822601318,1.346784234046936,0.3563416004180908,20.74530029296875,89.09391784667969,-8.203720092773438
206858,-0.1960601806640625,0.37371826171875,0.376861572265625,-0.8730065822601318,1.346784234046936,0.3563416004180908,20.74530029296875,89.09391784667969,-8.203720092773438
206859,-0.2493896484375,0.4793548583984375,0.4539642333984375,-1.54478919506073,1.429625868797302,-0.0573250763118267,20.93295288085938,89.23561096191406,-8.32025146484375
206860,-0.4436798095703125,0.671417236328125,0.6012420654296875,-1.928868174552917,1.411899328231812,-0.2079979330301285,21.04588317871094,89.39947509765625,-8.256729125976562
206861,-0.5494384765625,0.7330322265625,0.6288604736328125,-2.221958160400391,1.34838342666626,-0.2834575474262238,20.84956359863281,89.46336364746094,-8.257644653320312
206862,-0.5494384765625,0.7330322265625,0.6288604736328125,-2.221958160400391,1.34838342666626,-0.2834575474262238,20.84956359863281,89.46336364746094,-8.257644653320312
206863,-0.644256591796875,0.785186767578125,0.5604095458984375,-2.354514837265015,1.111072897911072,-0.2900243699550629,20.5325927734375,89.48162841796875,-7.940155029296875
206864,-0.6955108642578125,0.807891845703125,0.46759033203125,-2.334408521652222,0.6601470112800598,-0.234201580286026,20.17561340332031,89.3223876953125,-7.533416748046875
206865,-0.577239990234375,0.7306365966796875,0.375396728515625,-2.041191101074219,-0.1554148942232132,-0.2474066019058228,19.29824829101562,89.38673400878906,-6.485946655273438
206866,-0.577239990234375,0.7306365966796875,0.375396728515625,-2.041191101074219,-0.1554148942232132,-0.2474066019058228,19.29824829101562,89.38673400878906,-6.485946655273438
206867,-0.488922119140625,0.600250244140625,0.3354034423828125,-1.852622389793396,-0.2863779664039612,-0.3163867294788361,18.80622863769531,89.37358093261719,-5.682357788085938
206868,-0.450531005859375,0.490386962890625,0.2655792236328125,-1.662725210189819,-0.2557175159454346,-0.3995862901210785,18.41966247558594,89.35269165039062,-4.865921020507812
206869,-0.389678955078125,0.352935791015625,0.0547943115234375,-1.070440292358398,-0.2910475432872772,-0.6824542284011841,17.87472534179688,89.08857727050781,-3.40057373046875
206870,-0.389678955078125,0.352935791015625,0.0547943115234375,-1.070440292358398,-0.2910475432872772,-0.6824542284011841,17.87472534179688,89.08857727050781,-3.40057373046875
206871,-0.3185882568359375,0.3193817138671875,-0.098541259765625,-0.7171770334243774,-0.515091598033905,-0.7970162034034729,17.88307189941406,88.76411437988281,-2.749404907226562
206872,-0.23748779296875,0.29803466796875,-0.2302093505859375,-0.3117621541023254,-0.94172865152359,-0.8635454177856445,17.7642822265625,88.1776123046875,-2.3084716796875
206873,-0.09283447265625,0.178741455078125,-0.1815185546875,0.2604552805423737,-1.45525050163269,-0.8255820870399475,17.50550842285156,86.59707641601562,-1.177215576171875
206874,-0.09283447265625,0.178741455078125,-0.1815185546875,0.2604552805423737,-1.45525050163269,-0.8255820870399475,17.50550842285156,86.59707641601562,-1.177215576171875
206875,-0.0195465087890625,0.120697021484375,-0.1818389892578125,0.3555479943752289,-1.445319294929504,-0.7010819315910339,17.44300842285156,86.18905639648438,-0.8003692626953125
206876,0.1068572998046875,0.0116424560546875,-0.289398193359375,0.4341740906238556,-0.90550434589386,-0.1124032437801361,17.52227783203125,85.19132995605469,-0.029571533203125
206877,0.0748748779296875,0.02435302734375,-0.3245697021484375,0.5488088130950928,-0.6019819974899292,0.1290535926818848,17.61740112304688,85.01031494140625,0.148101806640625
206878,0.0748748779296875,0.02435302734375,-0.3245697021484375,0.5488088130950928,-0.6019819974899292,0.1290535926818848,17.61740112304688,85.01031494140625,0.148101806640625
206879,0.0769195556640625,0.1171112060546875,-0.35321044921875,0.4906834363937378,-0.3482621014118195,0.1630946397781372,17.8179931640625,85.15829467773438,0.4392852783203125
206880,0.1097564697265625,0.1844940185546875,-0.3727874755859375,0.3735629320144653,-0.3958618342876434,0.0955968275666236,17.81271362304688,85.28591918945312,0.6097869873046875
206881,0.1127166748046875,0.267791748046875,-0.3694305419921875,0.2644806504249573,-0.4403494298458099,-0.0367915704846382,17.81417846679688,85.42854309082031,0.7270660400390625
206882,0.103759765625,0.3705902099609375,-0.3842315673828125,0.2226980626583099,-0.4832577407360077,-0.2121519446372986,17.71157836914062,85.44493103027344,0.81768798828125
206883,0.103759765625,0.3705902099609375,-0.3842315673828125,0.2226980626583099,-0.4832577407360077,-0.2121519446372986,17.71157836914062,85.44493103027344,0.81768798828125
206884,0.002227783203125,0.6688690185546875,-0.4313812255859375,0.4810851216316223,-0.6113131642341614,-0.6208906769752502,17.68798828125,85.40194702148438,1.551666259765625
206885,-0.1190948486328125,0.8079833984375,-0.4483795166015625,0.749480664730072,-0.6273885369300842,-0.8296982645988464,17.56938171386719,85.28901672363281,1.76373291015625
206886,-0.1190948486328125,0.8079833984375,-0.4483795166015625,0.749480664730072,-0.6273885369300842,-0.8296982645988464,17.56938171386719,85.28901672363281,1.76373291015625
206887,-0.2925872802734375,0.941925048828125,-0.5035858154296875,1.092089176177979,-0.5167259573936462,-1.021600604057312,17.39523315429688,85.14839172363281,1.961196899414062
206888,-0.704864501953125,1.213394165039062,-0.8421783447265625,1.657155752182007,0.097483143210411,-1.369620084762573,16.6107177734375,84.79899597167969,1.754913330078125
206889,-0.8232269287109375,1.35748291015625,-0.8433380126953125,1.468027830123901,0.3391719460487366,-1.330631136894226,16.19239807128906,84.4698486328125,1.3629150390625
206890,-0.8232269287109375,1.35748291015625,-0.8433380126953125,1.468027830123901,0.3391719460487366,-1.330631136894226,16.19239807128906,84.4698486328125,1.3629150390625
206891,-0.8781890869140625,1.521316528320312,-0.5238037109375,0.9574111700057985,0.6354824304580688,-1.318201303482056,15.64813232421875,84.35368347167969,0.7560577392578125
206892,-0.910736083984375,1.752456665039062,-0.3857574462890625,0.5887988209724426,0.6024118065834045,-1.526339411735535,15.13356018066406,84.1522216796875,-0.0294647216796875
206893,-1.411346435546875,2.216812133789062,-0.529449462890625,1.108875036239624,0.0279498752206563,-1.9552401304245,14.03431701660156,83.46519470214844,-1.000411987304688
206894,-1.411346435546875,2.216812133789062,-0.529449462890625,1.108875036239624,0.0279498752206563,-1.9552401304245,14.03431701660156,83.46519470214844,-1.000411987304688
206895,-2.04901123046875,2.154205322265625,-0.588104248046875,1.403663039207458,0.5898289084434509,-1.412153720855713,13.35910034179688,83.0531005859375,-1.484634399414062
206896,-2.36737060546875,2.03570556640625,-0.796173095703125,1.639026284217834,0.8760319352149963,-0.7094069719314575,12.67059326171875,82.77140808105469,-2.137557983398438
206897,-1.580215454101562,1.96484375,-0.679107666015625,1.622782588005066,0.3149837851524353,-0.0281799733638763,11.81489562988281,82.88917541503906,-3.811111450195312
206898,-1.251968383789062,2.119430541992188,-0.49755859375,1.393640160560608,0.3385935127735138,0.1646478027105331,11.64105224609375,83.2037353515625,-4.512847900390625
206899,-1.251968383789062,2.119430541992188,-0.49755859375,1.393640160560608,0.3385935127735138,0.1646478027105331,11.64105224609375,83.2037353515625,-4.512847900390625
206900,-1.287689208984375,2.416030883789062,-0.060211181640625,1.025612831115723,0.5224541425704956,0.5204397439956665,11.25848388671875,83.86639404296875,-5.75848388671875
206901,-1.35589599609375,2.555343627929688,0.1663665771484375,0.7729060649871826,0.4319263696670532,0.6007417440414429,11.21109008789062,84.12942504882812,-6.298095703125
206902,-1.35589599609375,2.555343627929688,0.1663665771484375,0.7729060649871826,0.4319263696670532,0.6007417440414429,11.21109008789062,84.12942504882812,-6.298095703125
206903,-1.421890258789062,2.606826782226562,0.2880859375,0.5320519208908081,0.2211006879806519,0.645703911781311,11.276611328125,84.48443603515625,-6.963668823242188
206904,-1.39727783203125,2.466903686523438,0.477935791015625,0.3609110414981842,-0.0282995477318763,0.8678778409957886,11.46907043457031,84.82516479492188,-7.698944091796875
206905,-1.275222778320312,1.902099609375,0.6359710693359375,0.5905964374542236,0.2580464482307434,0.8968490362167358,12.43269348144531,85.52047729492188,-8.518386840820312
206906,-1.275222778320312,1.902099609375,0.6359710693359375,0.5905964374542236,0.2580464482307434,0.8968490362167358,12.43269348144531,85.52047729492188,-8.518386840820312
206907,-1.00213623046875,1.352096557617188,0.4997406005859375,0.9967772364616394,0.0905466750264167,0.7567436099052429,13.13667297363281,85.74211120605469,-8.725128173828125
206908,-0.558380126953125,0.701324462890625,0.2191009521484375,1.640740990638733,-0.4613702893257141,0.7617058753967285,14.29151916503906,86.135498046875,-9.701156616210938
206909,-0.4040069580078125,0.5644989013671875,0.17547607421875,1.626355767250061,-0.6709759831428528,0.7813056707382202,14.79423522949219,86.32754516601562,-10.05364990234375
206910,-0.4040069580078125,0.5644989013671875,0.17547607421875,1.626355767250061,-0.6709759831428528,0.7813056707382202,14.79423522949219,86.32754516601562,-10.05364990234375
206911,-0.308837890625,0.4799346923828125,0.0964202880859375,1.350757122039795,-0.7562269568443298,0.7017005681991577,15.37825012207031,86.45384216308594,-10.32835388183594
206912,-0.19390869140625,0.3890533447265625,-0.0894775390625,0.9478336572647096,-1.046130657196045,0.5854304432868958,15.9427490234375,86.44132995605469,-10.495849609375
206913,0.0405120849609375,0.230743408203125,-0.1447906494140625,0.2148736864328384,-1.673572182655334,0.826154887676239,16.57417297363281,86.75083923339844,-10.42965698242188
206914,0.0405120849609375,0.230743408203125,-0.1447906494140625,0.2148736864328384,-1.673572182655334,0.826154887676239,16.57417297363281,86.75083923339844,-10.42965698242188
206915,-0.08807373046875,0.3968963623046875,0.1506500244140625,-0.0002439455565763,0.0625185072422027,1.001589059829712,17.02923583984375,87.36729431152344,-9.635223388671877
206916,-0.2037353515625,0.4568023681640625,0.122802734375,0.0302244815975427,0.8827329874038696,1.02333402633667,17.31356811523438,87.69987487792969,-9.220367431640623
206917,-0.2593231201171875,0.5269317626953125,0.122772216796875,0.0248518195003271,1.277180671691895,0.9682382941246032,17.82966613769531,87.93067932128906,-9.131561279296877
206918,-0.2593231201171875,0.5269317626953125,0.122772216796875,0.0248518195003271,1.277180671691895,0.9682382941246032,17.82966613769531,87.93067932128906,-9.131561279296877
206919,-0.2340087890625,0.4416961669921875,0.194305419921875,-0.0443307124078273,1.448276042938232,0.8109461069107056,18.96405029296875,88.35272216796875,-9.980743408203123
206920,-0.1754302978515625,0.34820556640625,0.2088470458984375,-0.0188075099140405,1.357868909835815,0.7838506102561951,19.42727661132812,88.33340454101562,-10.42523193359375
206921,-0.1138916015625,0.2872314453125,0.2274322509765625,-0.0235977377742528,1.342695474624634,0.7642470598220825,19.85922241210938,88.6160888671875,-10.9566650390625
206922,-0.1138916015625,0.2872314453125,0.2274322509765625,-0.0235977377742528,1.342695474624634,0.7642470598220825,19.85922241210938,88.6160888671875,-10.9566650390625
206923,-0.0206146240234375,0.2522735595703125,0.3530731201171875,-0.3453419506549835,1.684574246406555,0.745154857635498,20.48110961914062,89.00006103515625,-11.71195983886719
206924,-0.0009002685546875,0.2574615478515625,0.3999481201171875,-0.6996390223503113,1.918259978294373,0.725053608417511,20.64173889160156,89.196533203125,-12.02798461914062
206925,-0.0034637451171875,0.282745361328125,0.400390625,-1.150496006011963,1.98244035243988,0.6793851852416992,20.98304748535156,89.47740173339844,-12.38011169433594
206926,-0.0034637451171875,0.282745361328125,0.400390625,-1.150496006011963,1.98244035243988,0.6793851852416992,20.98304748535156,89.47740173339844,-12.38011169433594
206927,-0.10675048828125,0.465423583984375,0.4285736083984375,-2.285764217376709,1.010802507400513,0.0489752665162086,21.42877197265625,90.03045654296875,-12.60206604003906
206928,-0.2352752685546875,0.5727386474609375,0.4626617431640625,-2.285764217376709,1.010802507400513,0.0489752665162086,21.57321166992188,90.14132690429688,-12.46699523925781
206929,-0.3905029296875,0.63677978515625,0.5438995361328125,-2.4313063621521,0.54118412733078,-0.1299020797014236,21.62385559082031,90.21438598632812,-11.85316467285156
206930,-0.3905029296875,0.63677978515625,0.5438995361328125,-2.4313063621521,0.54118412733078,-0.1299020797014236,21.62385559082031,90.21438598632812,-11.85316467285156
206931,-0.521636962890625,0.6944427490234375,0.5947723388671875,-2.506107091903687,-0.0042954124510288,-0.3687980175018311,21.43504333496094,90.354248046875,-11.3131103515625
206932,-0.6147003173828125,0.7520599365234375,0.552734375,-2.46029806137085,-0.3258582651615143,-0.5046586394309998,21.05308532714844,90.4722137451172,-10.70487976074219
206933,-0.6613616943359375,0.7064056396484375,0.1649169921875,-2.323195219039917,-0.7826502919197083,-0.6305987238883972,20.24089050292969,90.47886657714844,-8.89715576171875
206934,-0.6613616943359375,0.7064056396484375,0.1649169921875,-2.323195219039917,-0.7826502919197083,-0.6305987238883972,20.24089050292969,90.47886657714844,-8.89715576171875
206935,-0.6330413818359375,0.528045654296875,-0.06585693359375,-2.062006235122681,-1.372581005096436,-0.6776391863822937,19.83140563964844,90.29011535644533,-7.812744140625
206936,-0.545318603515625,0.3665313720703125,-0.1007080078125,-1.331933617591858,-1.928947567939758,-0.7025094032287598,19.42503356933594,90.15362548828124,-6.778091430664062
206937,-0.3359832763671875,0.21795654296875,0.0061187744140625,-0.6651620268821716,-1.463037133216858,-0.7929471731185913,18.89213562011719,89.45860290527344,-4.444366455078125
206938,-0.3359832763671875,0.21795654296875,0.0061187744140625,-0.6651620268821716,-1.463037133216858,-0.7929471731185913,18.89213562011719,89.45860290527344,-4.444366455078125
206939,-0.1661224365234375,0.155792236328125,-0.0470123291015625,-0.5091918706893921,-1.214961528778076,-0.8314223885536194,18.76675415039062,88.70480346679688,-2.32415771484375
206940,-0.08795166015625,0.129852294921875,-0.092559814453125,-0.4795141220092773,-1.071530818939209,-0.8260664939880371,18.75303649902344,88.25411987304688,-1.689788818359375
206941,-0.019073486328125,0.10247802734375,-0.1367950439453125,-0.5362296104431152,-1.026394844055176,-0.7581915855407715,18.85682678222656,87.68399047851562,-1.102508544921875
206942,-0.019073486328125,0.10247802734375,-0.1367950439453125,-0.5362296104431152,-1.026394844055176,-0.7581915855407715,18.85682678222656,87.68399047851562,-1.102508544921875
206943,0.0868682861328125,0.028533935546875,-0.2077178955078125,-0.5635374188423157,-0.9826710224151612,-0.3934090733528137,19.0364990234375,86.61761474609375,-0.2165679931640625
206944,0.0965423583984375,0.0050506591796875,-0.2536163330078125,-0.4463854730129242,-0.9650347828865052,-0.1583395749330521,19.12158203125,86.08448791503906,0.47894287109375
206945,0.0730438232421875,0.0252838134765625,-0.318939208984375,-0.2413236647844315,-0.967722713947296,-0.0088645983487367,19.24002075195312,85.92057800292969,0.975372314453125
206946,0.0730438232421875,0.0252838134765625,-0.318939208984375,-0.2413236647844315,-0.967722713947296,-0.0088645983487367,19.24002075195312,85.92057800292969,0.975372314453125
206947,0.0406494140625,0.0758056640625,-0.3721923828125,0.2049230486154556,-0.9710407257080078,-0.0804000347852706,19.17475891113281,85.8499755859375,1.534439086914062
206948,0.0410003662109375,0.1732635498046875,-0.34039306640625,0.2320814430713654,-0.8594350814819336,-0.1440450549125671,19.37619018554688,85.63052368164062,2.225753784179688
206949,0.0288238525390625,0.2819976806640625,-0.33062744140625,0.0793954879045486,-0.4246087968349457,-0.1705347150564194,19.38044738769531,85.58616638183594,2.495925903320312
206950,-0.033966064453125,0.4411773681640625,-0.480621337890625,-0.2057781964540482,0.1752961874008179,-0.301748126745224,19.41802978515625,85.51193237304688,2.789749145507812
206951,-0.033966064453125,0.4411773681640625,-0.480621337890625,-0.2057781964540482,0.1752961874008179,-0.301748126745224,19.41802978515625,85.51193237304688,2.789749145507812
206952,-0.235748291015625,0.688720703125,-0.6795654296875,-0.1363855451345444,-0.0940761640667915,-0.5581450462341309,19.02430725097656,85.38720703125,3.187255859375
206953,-0.314666748046875,0.8426055908203125,-0.67864990234375,0.2586946785449982,-0.3600772321224213,-0.6504451036453247,18.75848388671875,85.31477355957031,3.256591796875
206954,-0.314666748046875,0.8426055908203125,-0.67864990234375,0.2586946785449982,-0.3600772321224213,-0.6504451036453247,18.75848388671875,85.31477355957031,3.256591796875
206955,-0.535888671875,1.129348754882812,-0.672882080078125,1.166464567184448,0.0462013185024261,-0.7280733585357666,18.20205688476562,85.0386962890625,3.338394165039062
206956,-0.6221923828125,1.31463623046875,-0.7030487060546875,1.427508950233459,0.4947737753391266,-0.7098056674003601,17.87850952148438,84.91078186035156,3.32733154296875
206957,-0.6591339111328125,1.584640502929688,-0.471038818359375,1.284592747688293,0.9573203921318054,-0.726039469242096,17.48175048828125,85.09199523925781,2.98089599609375
206958,-0.6601104736328125,1.9134521484375,-0.1505889892578125,0.8220834732055664,1.423914432525635,-0.967738687992096,17.02471923828125,85.24189758300781,2.462570190429688
206959,-0.6601104736328125,1.9134521484375,-0.1505889892578125,0.8220834732055664,1.423914432525635,-0.967738687992096,17.02471923828125,85.24189758300781,2.462570190429688
206960,-0.7271728515625,2.252700805664062,-0.1293182373046875,0.5077958106994629,1.435664892196655,-1.470996499061584,16.41656494140625,85.3734130859375,1.643112182617188
206961,-1.514053344726562,3.044082641601562,-0.035888671875,0.5469829440116882,0.9517239928245544,-2.883718967437744,14.78483581542969,85.22257995605469,-0.19061279296875
206962,-1.514053344726562,3.044082641601562,-0.035888671875,0.5469829440116882,0.9517239928245544,-2.883718967437744,14.78483581542969,85.22257995605469,-0.19061279296875
206963,-2.79229736328125,2.936599731445312,-0.1236572265625,0.7548319697380066,0.8241841793060303,-2.158934593200684,13.6219482421875,84.89045715332031,-0.979766845703125
206964,-3.612655639648438,3.231979370117188,-0.587188720703125,0.7994284629821777,0.5654469132423401,-0.2660037279129028,12.39659118652344,84.38755798339844,-1.959686279296875
206965,-1.9403076171875,3.147125244140625,-0.02532958984375,0.936284065246582,-0.9297444224357604,0.0428390763700008,11.15591430664062,83.96475219726562,-3.829315185546875
206966,-1.9403076171875,3.147125244140625,-0.02532958984375,0.936284065246582,-0.9297444224357604,0.0428390763700008,11.15591430664062,83.96475219726562,-3.829315185546875
206967,-1.487014770507812,2.635604858398438,0.3309326171875,1.110766887664795,-0.1815327703952789,0.3389151990413666,11.18917846679688,84.04705810546875,-3.988693237304688
206968,-1.343841552734375,2.39544677734375,0.5111083984375,1.69866955280304,0.2919674217700958,0.5293237566947937,11.41523742675781,84.03448486328125,-4.130584716796875
206969,-0.990966796875,1.983245849609375,0.5966949462890625,2.626750946044922,0.3111126124858856,0.8539822697639465,11.85398864746094,84.61871337890625,-5.000335693359375
206970,-0.990966796875,1.983245849609375,0.5966949462890625,2.626750946044922,0.3111126124858856,0.8539822697639465,11.85398864746094,84.61871337890625,-5.000335693359375
206971,-0.8511962890625,1.759384155273438,0.5916595458984375,2.274433851242065,0.3325284123420715,0.7132073044776917,12.45474243164062,84.95787048339844,-5.722152709960938
206972,-0.576171875,1.0849609375,0.3513641357421875,2.124985694885254,-0.0535875931382179,0.630620539188385,13.74766540527344,85.54115295410156,-7.677078247070312
206973,-0.44976806640625,0.8407745361328125,0.3765411376953125,2.022042512893677,-0.3746036887168884,0.60365229845047,14.57630920410156,85.68264770507812,-8.516708374023438
206974,-0.3087615966796875,0.680816650390625,0.3770294189453125,1.826856017112732,-0.4760637581348419,0.5921882390975952,15.31243896484375,85.75234985351562,-9.064865112304688
206975,-0.3087615966796875,0.680816650390625,0.3770294189453125,1.826856017112732,-0.4760637581348419,0.5921882390975952,15.31243896484375,85.75234985351562,-9.064865112304688
206976,0.029571533203125,0.3298492431640625,-0.1627960205078125,1.163483381271362,-1.087193369865417,0.8026503920555115,16.27972412109375,86.15582275390625,-9.840576171875
206977,0.161834716796875,0.1494903564453125,-0.385589599609375,0.7992556691169739,-1.601244449615479,1.041853070259094,16.59373474121094,86.34541320800781,-10.03414916992188
206978,0.161834716796875,0.1494903564453125,-0.385589599609375,0.7992556691169739,-1.601244449615479,1.041853070259094,16.59373474121094,86.34541320800781,-10.03414916992188
206979,0.214263916015625,0.07415771484375,-0.0550689697265625,0.2334348559379578,0.3425054252147675,1.075047016143799,17.08831787109375,86.99049377441406,-9.559921264648438
206980,0.1178741455078125,0.2087554931640625,0.233001708984375,0.2334348559379578,0.3425054252147675,1.075047016143799,17.48526000976562,87.48835754394531,-9.232986450195312
206981,-0.07464599609375,0.3465423583984375,0.3292999267578125,0.0836395025253295,1.504983186721802,0.8582220077514648,17.99516296386719,87.91587829589844,-8.918869018554688
206982,-0.2227325439453125,0.4353485107421875,0.3006744384765625,-0.140394926071167,2.086318731307983,0.8179800510406494,18.44508361816406,88.31890869140625,-8.978240966796875
206983,-0.2227325439453125,0.4353485107421875,0.3006744384765625,-0.140394926071167,2.086318731307983,0.8179800510406494,18.44508361816406,88.31890869140625,-8.978240966796875
206984,-0.435150146484375,0.4188995361328125,0.1170501708984375,-0.3490847647190094,1.645711541175842,0.641525149345398,19.53363037109375,88.68849182128906,-9.878875732421877
206985,-0.4479827880859375,0.321990966796875,0.0531768798828125,-0.3704150915145874,0.9715030193328856,0.5632585883140564,20.10658264160156,88.7017822265625,-10.31448364257812
206986,-0.4479827880859375,0.321990966796875,0.0531768798828125,-0.3704150915145874,0.9715030193328856,0.5632585883140564,20.10658264160156,88.7017822265625,-10.31448364257812
206987,-0.3807525634765625,0.2335052490234375,0.076141357421875,-0.4253782033920288,0.4022422432899475,0.5529571771621704,20.53004455566406,88.7662353515625,-10.74795532226562
206988,-0.0832977294921875,0.27587890625,0.14263916015625,-0.7118911743164062,0.0893447920680046,0.5315171480178833,20.92294311523438,89.09477233886719,-10.94364929199219
206989,-0.02728271484375,0.3143157958984375,0.243377685546875,-0.9188422560691832,0.1392348557710648,0.5262853503227234,20.99871826171875,89.28053283691406,-10.88467407226562
206990,-0.02728271484375,0.3143157958984375,0.243377685546875,-0.9188422560691832,0.1392348557710648,0.5262853503227234,20.99871826171875,89.28053283691406,-10.88467407226562
206991,-0.0858306884765625,0.4502410888671875,0.445465087890625,-1.548104286193848,0.6344912052154541,0.4229840040206909,21.23451232910156,89.47821044921875,-10.49537658691406
206992,-0.179473876953125,0.53729248046875,0.476959228515625,-1.871333479881287,0.8333209156990051,0.3107176721096039,21.34425354003906,89.74266052246094,-10.15208435058594
206993,-0.2888641357421875,0.5976409912109375,0.4930419921875,-2.137871742248535,0.9815250635147096,0.2019680142402649,21.48922729492188,89.85731506347656,-9.759857177734377
206994,-0.2888641357421875,0.5976409912109375,0.4930419921875,-2.137871742248535,0.9815250635147096,0.2019680142402649,21.48922729492188,89.85731506347656,-9.759857177734377
206995,-0.39666748046875,0.6613922119140625,0.4805908203125,-2.309834003448486,0.9973953366279602,0.0794801786541938,21.56596374511719,90.04832458496094,-9.443038940429688
206996,-0.6161041259765625,0.7467041015625,0.462860107421875,-2.231571912765503,0.3975947797298431,-0.2358884215354919,21.26628112792969,90.13055419921876,-8.079818725585938
206997,-0.6767120361328125,0.71258544921875,0.447601318359375,-2.231571912765503,0.3975947797298431,-0.2358884215354919,21.05943298339844,90.2982177734375,-7.657241821289062
206998,-0.6767120361328125,0.71258544921875,0.447601318359375,-2.231571912765503,0.3975947797298431,-0.2358884215354919,21.05943298339844,90.2982177734375,-7.657241821289062
206999,-0.5677947998046875,0.5693817138671875,0.256103515625,-2.066863298416138,-0.1703520268201828,-0.3725487887859344,20.32026672363281,90.2496337890625,-6.178253173828125
207000,-0.452545166015625,0.49652099609375,0.1531982421875,-1.853956699371338,-0.7399731278419495,-0.654452383518219,19.98579406738281,90.09944152832033,-5.303695678710938
207001,-0.3808135986328125,0.4067840576171875,0.0962677001953125,-1.853956699371338,-0.7399731278419495,-0.654452383518219,19.73013305664062,89.90748596191406,-4.288253784179688
207002,-0.3808135986328125,0.4067840576171875,0.0962677001953125,-1.853956699371338,-0.7399731278419495,-0.654452383518219,19.73013305664062,89.90748596191406,-4.288253784179688
207003,-0.3253021240234375,0.3131561279296875,0.0521392822265625,-1.677393317222595,-0.8848027586936951,-0.7947690486907959,19.48944091796875,89.66139221191406,-3.270660400390625
207004,-0.208251953125,0.180938720703125,-0.073150634765625,-1.170726656913757,-1.220767736434937,-0.9257060289382936,19.21395874023438,88.77005004882812,-1.82037353515625
207005,-0.1463775634765625,0.1542816162109375,-0.1587677001953125,-0.882411539554596,-1.473803997039795,-0.9056673049926758,19.08625793457031,88.33314514160156,-0.9302520751953124
207006,-0.1463775634765625,0.1542816162109375,-0.1587677001953125,-0.882411539554596,-1.473803997039795,-0.9056673049926758,19.08625793457031,88.33314514160156,-0.9302520751953124
207007,0.0090789794921875,0.122314453125,-0.358917236328125,0.0916327163577079,-2.060726404190063,-0.334096223115921,18.94570922851562,87.25117492675781,0.6411590576171875
207008,0.086669921875,0.1176300048828125,-0.316253662109375,0.0916327163577079,-2.060726404190063,-0.334096223115921,19.11985778808594,86.69894409179688,1.3111572265625
207009,0.147552490234375,0.1064453125,-0.2704315185546875,0.3799673020839691,-1.630908131599426,0.0368347130715847,19.33473205566406,86.19862365722656,2.034103393554688
207010,0.147552490234375,0.1064453125,-0.2704315185546875,0.3799673020839691,-1.630908131599426,0.0368347130715847,19.33473205566406,86.19862365722656,2.034103393554688
207011,0.1533355712890625,0.128662109375,-0.2579193115234375,0.5389534831047058,-0.9737009406089784,0.4700261056423187,19.63491821289062,85.90223693847656,2.690872192382812
207012,0.171844482421875,0.305999755859375,-0.485504150390625,-0.0499630309641361,-0.0284327063709497,0.3913094401359558,20.20509338378906,85.7449951171875,3.442047119140625
207013,0.171844482421875,0.305999755859375,-0.485504150390625,-0.0499630309641361,-0.0284327063709497,0.3913094401359558,20.20509338378906,85.7449951171875,3.442047119140625
207014,0.202423095703125,0.3263092041015625,-0.5993499755859375,-0.0499630309641361,-0.0284327063709497,0.3913094401359558,20.46548461914062,86.04949951171875,3.510986328125
207015,0.0609130859375,0.451812744140625,-0.431060791015625,-0.3257051408290863,-0.789241373538971,-0.5471147298812866,20.61503601074219,86.54490661621094,3.910995483398438
207016,-0.02435302734375,0.53692626953125,-0.3831787109375,-0.3257051408290863,-0.789241373538971,-0.5471147298812866,20.74839782714844,86.54864501953125,4.275146484375
207017,-0.1526641845703125,0.5720367431640625,-0.374542236328125,-0.0293006300926208,-0.8315784335136414,-0.8678323030471802,20.74002075195312,86.4619140625,4.714263916015625
207018,-0.258270263671875,0.596710205078125,-0.3586273193359375,0.9186166524887084,-0.2883236706256866,-1.250088334083557,20.71266174316406,86.25318908691406,5.174713134765625
207019,-0.258270263671875,0.596710205078125,-0.3586273193359375,0.9186166524887084,-0.2883236706256866,-1.250088334083557,20.71266174316406,86.25318908691406,5.174713134765625
207020,-0.5698089599609375,0.811614990234375,-0.6531982421875,1.496922135353088,0.1978310495615005,-1.329184770584106,20.36866760253906,85.88386535644531,5.683334350585938
207021,-0.7758941650390625,0.9354095458984376,-0.7916107177734375,1.76267683506012,0.6788567900657654,-1.223359823226929,19.91583251953125,85.70628356933594,5.600311279296875
207022,-0.7758941650390625,0.9354095458984376,-0.7916107177734375,1.76267683506012,0.6788567900657654,-1.223359823226929,19.91583251953125,85.70628356933594,5.600311279296875
207023,-1.112228393554688,1.61859130859375,-0.4636077880859375,0.3636367917060852,1.665785193443298,-1.235398054122925,18.58474731445312,85.59976196289062,4.821197509765625
207024,-1.274200439453125,2.14654541015625,-0.260040283203125,-0.4997568130493164,1.770894289016724,-1.990347027778625,17.68978881835938,85.64651489257812,3.891448974609375
207025,-1.624801635742188,2.664291381835938,-0.194732666015625,-0.9404410123825072,1.773809909820557,-2.976903915405273,16.63189697265625,85.62577819824219,3.2030029296875
207026,-1.624801635742188,2.664291381835938,-0.194732666015625,-0.9404410123825072,1.773809909820557,-2.976903915405273,16.63189697265625,85.62577819824219,3.2030029296875
207027,-2.70660400390625,2.759185791015625,-0.258880615234375,-0.9093544483184814,1.562348246574402,-2.485204458236694,15.5870361328125,85.3516845703125,2.630035400390625
207028,-3.602874755859375,3.198654174804688,0.0498046875,-0.5822559595108032,0.3481009900569916,0.8524951934814453,12.88330078125,84.55152893066406,1.542083740234375
207029,-2.860504150390625,2.956253051757812,0.4429168701171875,-0.4391582012176514,-0.6709977984428406,1.325759649276733,12.02810668945312,84.24932861328125,1.200057983398438
207030,-2.860504150390625,2.956253051757812,0.4429168701171875,-0.4391582012176514,-0.6709977984428406,1.325759649276733,12.02810668945312,84.24932861328125,1.200057983398438
207031,-1.949905395507812,2.488479614257812,0.770843505859375,-0.3498584032058716,-0.910664439201355,1.474849224090576,11.86531066894531,84.39935302734375,0.9084930419921876
207032,-1.425201416015625,2.279617309570312,0.98651123046875,0.2410688102245331,0.1496217101812363,2.074293613433838,12.61097717285156,84.80525207519531,0.984466552734375
207033,-1.403610229492188,2.363906860351562,0.7272491455078125,1.073665618896484,1.401873826980591,2.00021767616272,13.27143859863281,85.12745666503906,1.162979125976562
207034,-1.403610229492188,2.363906860351562,0.7272491455078125,1.073665618896484,1.401873826980591,2.00021767616272,13.27143859863281,85.12745666503906,1.162979125976562
207035,-1.236785888671875,2.2943115234375,0.2786407470703125,1.707527756690979,1.504614353179932,1.751548528671265,14.0611572265625,85.49153137207031,1.197860717773438
207036,-1.112289428710938,1.73565673828125,0.3096160888671875,1.847974896430969,1.115752935409546,1.248622536659241,15.68441772460938,86.37368774414062,-0.6492462158203125
207037,-0.838531494140625,1.25738525390625,0.380126953125,1.813599944114685,0.6333359479904175,1.034738779067993,16.59709167480469,86.7476806640625,-1.748321533203125
207038,-0.838531494140625,1.25738525390625,0.380126953125,1.813599944114685,0.6333359479904175,1.034738779067993,16.59709167480469,86.7476806640625,-1.748321533203125
207039,-0.3497314453125,0.6517333984375,0.458465576171875,1.339685916900635,0.0944316983222961,0.885319709777832,18.20469665527344,87.33999633789062,-3.654266357421875
207040,-0.14752197265625,0.45074462890625,0.415924072265625,1.339685916900635,0.0944316983222961,0.885319709777832,19.70579528808594,87.607421875,-4.699600219726562
207041,0.025238037109375,0.293853759765625,0.38482666015625,1.127562165260315,-0.2767431735992432,0.9631686806678772,20.36711120605469,87.79362487792969,-5.087905883789062
207042,0.025238037109375,0.293853759765625,0.38482666015625,1.127562165260315,-0.2767431735992432,0.9631686806678772,20.36711120605469,87.79362487792969,-5.087905883789062
207043,0.1640777587890625,0.205780029296875,0.410308837890625,0.8766793608665466,-0.6513903141021729,1.14468252658844,20.91793823242188,88.208251953125,-5.332122802734375
207044,0.2399139404296875,0.180023193359375,0.4957733154296875,0.5898707509040833,-0.7417084574699402,1.401596426963806,21.46711730957031,88.422119140625,-5.30792236328125
207045,0.254638671875,0.31634521484375,0.652679443359375,0.1509213447570801,-0.1671242713928223,1.793000102043152,22.41806030273438,89.17280578613281,-4.85968017578125
207046,0.254638671875,0.31634521484375,0.652679443359375,0.1509213447570801,-0.1671242713928223,1.793000102043152,22.41806030273438,89.17280578613281,-4.85968017578125
207047,0.1640625,0.504486083984375,0.6946258544921875,-0.0580827444791793,0.4208715856075287,1.747520208358765,23.02995300292969,89.48982238769531,-4.593002319335938
207048,0.01910400390625,0.6802215576171875,0.4974822998046875,-0.4393645823001862,1.666372060775757,0.8968029618263245,24.29629516601562,90.27291870117188,-4.492630004882812
207049,0.0274658203125,0.55950927734375,0.304229736328125,-0.5257650017738342,1.745149970054626,0.4376702904701233,24.80319213867188,90.50872802734376,-4.590194702148438
207050,0.043670654296875,0.3789215087890625,0.1289215087890625,-0.5229726433753967,1.447283983230591,0.1261936277151108,25.00035095214844,90.58561706542967,-4.706924438476562
207051,0.0701141357421875,0.2023773193359375,-0.0634918212890625,-0.3990959823131561,0.8332756757736206,-0.0199100580066442,25.14407348632812,90.54118347167967,-4.750762939453125
207052,0.10711669921875,0.1008148193359375,-0.0649566650390625,-0.2095873206853867,0.187781348824501,-0.0198645181953907,25.07579040527344,90.47306823730467,-4.927200317382812
207053,0.1300048828125,0.082611083984375,0.0826416015625,-0.1301814317703247,-0.1678433269262314,0.0547841526567935,24.9833984375,90.58047485351562,-5.076431274414062
207054,0.1300048828125,0.082611083984375,0.0826416015625,-0.1301814317703247,-0.1678433269262314,0.0547841526567935,24.9833984375,90.58047485351562,-5.076431274414062
207055,0.154327392578125,0.058135986328125,0.180267333984375,-0.34239861369133,-0.3091937899589539,0.3536230623722076,24.9254150390625,90.48330688476562,-5.011810302734375
207056,0.198577880859375,0.0147552490234375,0.2360687255859375,-0.5123834013938904,-0.3004088401794434,0.5183925628662109,25.01692199707031,90.50656127929688,-4.489654541015625
207057,0.2244720458984375,0.03228759765625,0.2689361572265625,-0.7045571208000183,-0.266514778137207,0.66364985704422,25.18586730957031,90.54461669921876,-4.169723510742188
207058,0.2244720458984375,0.03228759765625,0.2689361572265625,-0.7045571208000183,-0.266514778137207,0.66364985704422,25.18586730957031,90.54461669921876,-4.169723510742188
207059,0.261962890625,0.0926361083984375,0.3227081298828125,-0.9289278984069824,-0.2764765918254852,0.7938084006309509,25.44938659667969,90.5502471923828,-3.67340087890625
207060,0.26446533203125,0.40374755859375,0.5431671142578125,-1.475003480911255,-0.4325490295886993,0.86359041929245,26.2490234375,90.52565002441406,-2.44903564453125
207061,0.1734619140625,0.6401519775390625,0.72479248046875,-1.712985992431641,-0.1994553208351135,0.575242280960083,26.64790344238281,90.42813110351562,-1.642303466796875
207062,0.1734619140625,0.6401519775390625,0.72479248046875,-1.712985992431641,-0.1994553208351135,0.575242280960083,26.64790344238281,90.42813110351562,-1.642303466796875
207063,0.033447265625,0.81170654296875,0.852813720703125,-1.902037858963013,0.4243411719799042,0.1123909875750542,27.01887512207031,90.4182586669922,-0.9367523193359376
207064,-0.2312774658203125,0.832763671875,0.620697021484375,-2.069693088531494,1.820205569267273,-0.6542348265647888,27.239013671875,90.15301513671876,0.47900390625
207065,-0.2952117919921875,0.7490386962890625,0.3084564208984375,-1.930684924125671,1.815360546112061,-1.000603914260864,26.81500244140625,89.86839294433594,0.9678497314453124
207066,-0.2952117919921875,0.7490386962890625,0.3084564208984375,-1.930684924125671,1.815360546112061,-1.000603914260864,26.81500244140625,89.86839294433594,0.9678497314453124
207067,-0.3482666015625,0.635833740234375,-0.4150390625,-1.605603814125061,1.109047651290894,-1.343241930007935,26.32844543457031,89.34828186035156,1.262649536132812
207068,-0.2324676513671875,0.399200439453125,-0.56884765625,0.5458582639694214,-4.999931812286377,-2.16757607460022,25.05938720703125,88.33476257324219,1.811309814453125
207069,-0.1209869384765625,0.297027587890625,0.316650390625,0.4789085388183594,-4.802265644073486,-2.288092374801636,24.51316833496094,87.96438598632812,2.428375244140625
207070,-0.1209869384765625,0.297027587890625,0.316650390625,0.4789085388183594,-4.802265644073486,-2.288092374801636,24.51316833496094,87.96438598632812,2.428375244140625
207071,-0.05072021484375,0.13238525390625,0.2216033935546875,0.3257370889186859,-3.804168462753296,-2.140023231506348,24.04881286621094,87.69841003417969,3.090347290039062
207072,-0.3100433349609375,-0.26287841796875,-0.210235595703125,-0.5352591276168823,1.755908608436584,-0.7374429106712341,22.93434143066406,87.05479431152344,4.432785034179688
207073,-0.1876220703125,0.2219085693359375,-0.8005218505859375,-0.518397867679596,2.108008146286011,-0.2199597954750061,22.39421081542969,86.77937316894531,4.573104858398438
207074,-0.1876220703125,0.2219085693359375,-0.8005218505859375,-0.518397867679596,2.108008146286011,-0.2199597954750061,22.39421081542969,86.77937316894531,4.573104858398438
207075,-0.050140380859375,0.5333404541015625,-0.4464111328125,-0.840114951133728,0.67484450340271,0.0461363345384597,21.64051818847656,86.34669494628906,3.825897216796875
207076,-0.061859130859375,0.589447021484375,-0.2984771728515625,-0.9420191645622252,0.1548111438751221,0.1169005185365677,21.508056640625,86.18080139160156,3.817886352539062
207077,-0.05950927734375,0.619781494140625,-0.1915435791015625,-0.9123387932777404,-0.062154185026884,0.18516506254673,21.36941528320312,86.11285400390625,4.006134033203125
207078,-0.05950927734375,0.619781494140625,-0.1915435791015625,-0.9123387932777404,-0.062154185026884,0.18516506254673,21.36941528320312,86.11285400390625,4.006134033203125
207079,-0.0556182861328125,0.6445159912109375,-0.1047821044921875,-0.8454774618148804,-0.0913187265396118,0.2686213254928589,21.35543823242188,86.03631591796875,4.25982666015625
207080,-0.050140380859375,0.6693572998046875,-0.057647705078125,-0.8110576868057251,-0.0383892022073268,0.3659452199935913,21.46028137207031,85.8341064453125,4.646163940429688
207081,-0.0039520263671875,0.654296875,-0.1063385009765625,-0.6466314792633057,-0.0364589430391788,0.5892435908317566,21.760986328125,85.718994140625,5.41033935546875
207082,-0.0039520263671875,0.654296875,-0.1063385009765625,-0.6466314792633057,-0.0364589430391788,0.5892435908317566,21.760986328125,85.718994140625,5.41033935546875
207083,0.0032806396484375,0.760009765625,-0.0619964599609375,-0.3827899992465973,-0.0748095288872718,0.6458703279495239,22.32281494140625,85.569091796875,6.193817138671875
207084,-0.0053253173828125,0.88885498046875,-0.0425872802734375,-0.3090713024139404,-0.00262614316307,0.5586054921150208,22.57589721679688,85.616943359375,6.532440185546875
207085,-0.001953125,1.043807983398438,-0.0850830078125,-0.2351848185062408,0.0521675981581211,0.4308097064495087,22.82591247558594,85.63882446289062,6.861190795898438
207086,0.031005859375,1.194686889648438,-0.1730804443359375,0.1709112972021103,-0.1186400949954987,0.3144370317459106,23.1190185546875,85.64117431640625,7.075042724609375
207087,0.031005859375,1.194686889648438,-0.1730804443359375,0.1709112972021103,-0.1186400949954987,0.3144370317459106,23.1190185546875,85.64117431640625,7.075042724609375
207088,0.0902252197265625,1.58245849609375,-0.352081298828125,0.5434366464614868,-0.2445652782917023,0.3448063731193542,23.44674682617188,85.84298706054688,7.351028442382812
207089,0.083892822265625,1.96856689453125,-0.4601287841796875,1.036675930023193,-0.2491983771324158,0.4007671177387238,23.6407470703125,85.90544128417969,7.551681518554688
207090,0.083892822265625,1.96856689453125,-0.4601287841796875,1.036675930023193,-0.2491983771324158,0.4007671177387238,23.6407470703125,85.90544128417969,7.551681518554688
207091,-0.1311492919921875,3.145263671875,-0.60931396484375,2.12638521194458,1.695178508758545,0.564573347568512,23.65493774414062,86.56346130371094,7.09576416015625
207092,-0.653350830078125,3.937210083007812,-0.88006591796875,1.673825740814209,2.998496770858765,-0.1131103113293648,23.24940490722656,87.09199523925781,6.435897827148438
207093,-1.157058715820312,4.636672973632812,-0.79473876953125,0.4425356090068817,2.916117668151855,-1.81039822101593,22.68702697753906,87.42384338378906,5.270950317382812
207094,-1.157058715820312,4.636672973632812,-0.79473876953125,0.4425356090068817,2.916117668151855,-1.81039822101593,22.68702697753906,87.42384338378906,5.270950317382812
207095,-1.510223388671875,5.25982666015625,-0.546783447265625,-0.4459213018417358,1.740952610969543,-3.806885957717896,21.80413818359375,87.53057861328125,3.868667602539062
207096,-2.3568115234375,4.242965698242188,-0.0298309326171875,0.7633519768714905,-0.6209967136383057,-4.49876594543457,18.72650146484375,86.2308349609375,1.839263916015625
207097,-3.337081909179688,2.057891845703125,-0.4347686767578125,0.4859581887722015,1.754768013954163,-0.8071098327636719,16.83932495117188,85.1121826171875,1.011672973632812
207098,-0.8560943603515625,2.386199951171875,0.399200439453125,3.249850988388062,1.047423124313354,0.8403649926185608,14.99522399902344,84.48089599609375,-1.49468994140625
207099,-0.8560943603515625,2.386199951171875,0.399200439453125,3.249850988388062,1.047423124313354,0.8403649926185608,14.99522399902344,84.48089599609375,-1.49468994140625
207100,-0.6626129150390625,2.130905151367188,1.354812622070312,4.096620559692383,2.142477512359619,0.3910369873046875,15.40608215332031,84.89602661132812,-2.671844482421875
207101,-0.407745361328125,1.739227294921875,1.22589111328125,4.484383106231689,3.473764657974243,0.224658414721489,15.89027404785156,85.52854919433594,-4.180465698242188
207102,-0.407745361328125,1.739227294921875,1.22589111328125,4.484383106231689,3.473764657974243,0.224658414721489,15.89027404785156,85.52854919433594,-4.180465698242188
207103,-0.1309967041015625,1.238784790039062,0.7359771728515625,4.425201892852783,3.538437128067017,0.5321813225746155,16.33596801757812,85.93690490722656,-6.188079833984375
207104,-0.0166168212890625,0.88348388671875,0.5807342529296875,3.923786640167236,2.849202632904053,0.9847269654273988,16.78231811523438,86.21185302734375,-8.815536499023438
207105,-0.067352294921875,0.433929443359375,0.7092437744140625,1.907174110412598,1.163496494293213,1.055638194084167,18.33351135253906,86.54690551757812,-12.89341735839844
207106,-0.1223907470703125,0.248809814453125,0.8042449951171875,0.7459564805030823,0.7867081761360168,0.6199505925178528,19.14955139160156,86.66831970214844,-14.0382080078125
207107,-0.1223907470703125,0.248809814453125,0.8042449951171875,0.7459564805030823,0.7867081761360168,0.6199505925178528,19.14955139160156,86.66831970214844,-14.0382080078125
207108,-0.19818115234375,-0.1026611328125,0.8353424072265625,-0.8581133484840393,0.9519919157028198,-0.1382135301828384,20.13189697265625,87.11083984375,-15.28559875488281
207109,-0.2428741455078125,-0.2142181396484375,0.83917236328125,-1.269986629486084,1.275583624839783,-0.1216060593724251,20.130615234375,87.36042785644531,-15.37782287597656
207110,-0.2428741455078125,-0.2142181396484375,0.83917236328125,-1.269986629486084,1.275583624839783,-0.1216060593724251,20.130615234375,87.36042785644531,-15.37782287597656
207111,-0.2795867919921875,-0.2713470458984375,0.8846893310546875,-1.52197527885437,1.619300246238708,0.0464367419481277,20.03224182128906,87.61091613769531,-15.41670227050781
207112,-0.4546661376953125,-0.30828857421875,0.9233245849609376,-2.068684339523315,2.27393627166748,0.4103489220142365,19.62947082519531,88.26486206054688,-15.39598083496094
207113,-0.61932373046875,-0.3177032470703125,0.7802734375,-2.361128330230713,2.345217704772949,0.5373087525367737,19.39346313476562,88.66947937011719,-15.35971069335938
207114,-0.61932373046875,-0.3177032470703125,0.7802734375,-2.361128330230713,2.345217704772949,0.5373087525367737,19.39346313476562,88.66947937011719,-15.35971069335938
207115,-0.7829437255859375,-0.332550048828125,0.5749664306640625,-2.772520303726196,1.677205562591553,0.6144117712974548,19.27801513671875,89.15872192382812,-15.40951538085938
207116,-0.967559814453125,-0.2905120849609375,0.1770782470703125,-2.907227039337158,1.258548378944397,0.4606815874576569,19.18829345703125,90.27357482910156,-14.71353149414062
207117,-0.9309539794921876,-0.1527252197265625,-0.2636260986328125,-2.899433612823486,0.6815202236175537,0.1120706126093864,19.17291259765625,90.69856262207033,-14.25662231445312
207118,-0.9309539794921876,-0.1527252197265625,-0.2636260986328125,-2.899433612823486,0.6815202236175537,0.1120706126093864,19.17291259765625,90.69856262207033,-14.25662231445312
207119,-0.806884765625,-0.00482177734375,-1.15509033203125,-2.321472644805908,-1.422084093093872,-0.3691724538803101,19.24710083007812,91.04556274414062,-13.43667602539062
207120,-0.614166259765625,0.073272705078125,0.048675537109375,-1.813860058784485,-3.05309009552002,-1.066965937614441,18.91416931152344,91.031494140625,-11.08705139160156
207121,-0.5729827880859375,0.15008544921875,0.1813812255859375,-1.907548189163208,-2.302449941635132,-1.308920979499817,18.72702026367188,90.6588134765625,-9.523468017578123
207122,-0.5729827880859375,0.15008544921875,0.1813812255859375,-1.907548189163208,-2.302449941635132,-1.308920979499817,18.72702026367188,90.6588134765625,-9.523468017578123
207123,-0.5703582763671875,0.2509307861328125,0.029815673828125,-1.761421918869019,-1.871155858039856,-1.506236791610718,18.64176940917969,90.1846923828125,-7.826705932617188
207124,-0.602874755859375,0.42822265625,-0.078094482421875,-1.218163967132568,-2.020924091339111,-1.590326309204102,18.62977600097656,88.34823608398438,-5.359817504882812
207125,-0.56671142578125,0.54119873046875,0.05487060546875,-1.143775463104248,-2.019158601760864,-1.486488342285156,18.61833190917969,87.35626220703125,-4.267959594726562
207126,-0.56671142578125,0.54119873046875,0.05487060546875,-1.143775463104248,-2.019158601760864,-1.486488342285156,18.61833190917969,87.35626220703125,-4.267959594726562
207127,-0.4932861328125,0.8612518310546875,0.1831817626953125,-1.637503147125244,-0.2166241854429245,-0.9655186533927916,18.63844299316406,85.54356384277344,-2.47772216796875
207128,-0.4732666015625,0.961578369140625,0.169219970703125,-1.637503147125244,-0.2166241854429245,-0.9655186533927916,18.54414367675781,84.66488647460938,-1.671630859375
207129,-0.29229736328125,0.9296722412109376,0.18585205078125,-1.79450261592865,0.3798807561397552,-0.6591911911964417,18.32905578613281,84.08230590820312,-0.9378509521484376
207130,-0.29229736328125,0.9296722412109376,0.18585205078125,-1.79450261592865,0.3798807561397552,-0.6591911911964417,18.32905578613281,84.08230590820312,-0.9378509521484376
207131,-0.2393646240234375,0.771240234375,0.1918487548828125,-1.910484313964844,0.9044361114501952,-0.4631010591983795,17.79753112792969,83.65966796875,-0.4452362060546875
207132,-0.34393310546875,0.22918701171875,-0.064666748046875,-1.719366669654846,0.7366799116134644,-0.4165689945220947,16.75984191894531,83.06797790527344,0.202239990234375
207133,-0.229644775390625,0.153717041015625,-0.1913604736328125,-1.485822081565857,0.2087119370698929,-0.3321057856082916,16.56480407714844,82.77407836914062,0.60137939453125
207134,-0.229644775390625,0.153717041015625,-0.1913604736328125,-1.485822081565857,0.2087119370698929,-0.3321057856082916,16.56480407714844,82.77407836914062,0.60137939453125
207135,-0.1265716552734375,0.1622772216796875,-0.2257537841796875,-1.155088305473328,-0.769891619682312,-0.1392319202423096,16.4642333984375,82.43246459960938,0.9383544921875
207136,0.0095367431640625,0.2128143310546875,-0.2050933837890625,-1.032149314880371,-0.9949426054954528,-0.0437911562621593,16.41015625,81.75001525878906,1.776229858398438
207137,0.0381011962890625,0.282318115234375,-0.1761627197265625,-0.9168437719345092,-1.064624428749084,0.0046967510133981,16.43576049804688,81.42909240722656,2.386871337890625
207138,0.0381011962890625,0.282318115234375,-0.1761627197265625,-0.9168437719345092,-1.064624428749084,0.0046967510133981,16.43576049804688,81.42909240722656,2.386871337890625
207139,-0.0250244140625,0.4340972900390625,-0.048858642578125,-0.723116397857666,-0.6544798016548157,-0.2322814464569092,16.64495849609375,81.09735107421875,3.623077392578125
207140,-0.11920166015625,0.4629974365234375,-0.0324249267578125,-0.7108850479125977,-0.1879619061946869,-0.444347620010376,16.72386169433594,80.93551635742188,4.324981689453125
207141,-0.2542572021484375,0.4655303955078125,-0.09393310546875,-0.7297601699829102,0.1570029258728027,-0.5845518708229065,16.76615905761719,80.68399047851562,4.88128662109375
207142,-0.2542572021484375,0.4655303955078125,-0.09393310546875,-0.7297601699829102,0.1570029258728027,-0.5845518708229065,16.76615905761719,80.68399047851562,4.88128662109375
207143,-0.3486785888671875,0.4793853759765625,-0.2019500732421875,-0.7108456492424011,0.3305137455463409,-0.6838257312774658,16.55708312988281,80.49917602539062,5.129684448242188
207144,-0.4978790283203125,0.5450592041015625,-0.3937835693359375,-0.2843582332134247,0.0618753507733345,-0.6355442404747009,16.11087036132812,80.01907348632812,5.195648193359375
207145,-0.494293212890625,0.6023712158203125,-0.39447021484375,0.4026702344417572,-0.1875089108943939,-0.285604327917099,15.71232604980469,79.79258728027344,5.405624389648438
207146,-0.494293212890625,0.6023712158203125,-0.39447021484375,0.4026702344417572,-0.1875089108943939,-0.285604327917099,15.71232604980469,79.79258728027344,5.405624389648438
207147,-0.4366455078125,0.6958160400390625,-0.3761444091796875,0.7082692980766296,-0.1729600578546524,-0.0857183635234832,15.40374755859375,79.70741271972656,5.456787109375
207148,-0.294036865234375,0.9160003662109376,-0.34869384765625,0.9568748474121094,-0.1039820611476898,0.1192028224468231,15.00173950195312,79.57087707519531,5.507537841796875
207149,-0.2782745361328125,1.0145263671875,-0.365936279296875,1.15959095954895,-0.0406994931399822,0.3295382261276245,14.73187255859375,79.71258544921875,5.380630493164062
207150,-0.2782745361328125,1.0145263671875,-0.365936279296875,1.15959095954895,-0.0406994931399822,0.3295382261276245,14.73187255859375,79.71258544921875,5.380630493164062
207151,-0.3091583251953125,1.117355346679688,-0.4135589599609375,1.335069298744202,-0.0237383525818586,0.5006487369537354,14.5760498046875,79.87733459472656,5.333709716796875
207152,-0.4792327880859375,1.285720825195312,-0.4672088623046875,1.581849813461304,0.0298194140195846,0.6697970032691956,14.56648254394531,80.66145324707031,4.6678466796875
207153,-0.639312744140625,1.362579345703125,-0.4109954833984375,1.630199193954468,0.3663281798362732,0.673575222492218,14.63749694824219,81.073974609375,4.25689697265625
207154,-0.8267669677734375,1.502899169921875,-0.3946075439453125,1.632019758224487,0.8551231622695923,0.5586172342300415,14.60658264160156,81.61701965332031,3.860519409179688
207155,-0.9605255126953124,1.700057983398438,-0.4598236083984375,1.58769702911377,1.194646120071411,0.369360476732254,14.52009582519531,82.35603332519531,3.15802001953125
207156,-1.027191162109375,1.887161254882812,-0.5312957763671875,1.629972338676453,1.177763819694519,0.2352471351623535,14.35723876953125,82.84371948242188,2.323989868164062
207157,-1.050918579101562,2.043716430664062,-0.4817657470703125,1.731869578361511,0.8735538721084595,0.3379921615123749,14.10124206542969,83.3568115234375,1.206207275390625
207158,-1.050918579101562,2.043716430664062,-0.4817657470703125,1.731869578361511,0.8735538721084595,0.3379921615123749,14.10124206542969,83.3568115234375,1.206207275390625
207159,-1.0037841796875,2.271820068359375,-0.3174896240234375,1.699458956718445,0.5166831016540527,0.6756346225738525,13.82896423339844,83.74285888671875,0.332977294921875
207160,-0.786468505859375,3.079818725585938,-0.034423828125,1.220865488052368,-0.298304408788681,1.79567289352417,13.33790588378906,84.56437683105469,-1.745712280273438
207161,-0.62371826171875,3.72027587890625,0.0134429931640625,1.110195398330688,-0.871728241443634,2.368330240249634,13.419677734375,85.06983947753906,-2.4188232421875
207162,-0.62371826171875,3.72027587890625,0.0134429931640625,1.110195398330688,-0.871728241443634,2.368330240249634,13.419677734375,85.06983947753906,-2.4188232421875
207163,-0.691192626953125,3.974700927734375,0.853179931640625,1.239631414413452,-0.9192520976066588,2.89201831817627,14.55949401855469,86.68817138671875,-3.1768798828125
207164,-1.024154663085938,3.502960205078125,1.021728515625,1.398348331451416,0.1382271200418472,2.759909629821777,15.59225463867188,87.76705932617188,-3.368133544921875
207165,-1.210800170898438,2.723785400390625,0.7386474609375,1.629462838172913,1.044440388679504,2.417716264724731,16.93403625488281,88.68505859375,-3.483001708984375
207166,-1.210800170898438,2.723785400390625,0.7386474609375,1.629462838172913,1.044440388679504,2.417716264724731,16.93403625488281,88.68505859375,-3.483001708984375
207167,-1.36083984375,1.882919311523438,0.4582061767578125,1.6708664894104,1.685721874237061,2.172182083129883,18.39138793945312,89.61067199707031,-3.94537353515625
207168,-1.247787475585938,0.9204559326171876,0.079925537109375,1.269213795661926,1.86974310874939,1.849147796630859,21.04167175292969,90.99322509765624,-5.942611694335938
207169,-1.065948486328125,0.712921142578125,0.0831451416015625,1.119776129722595,1.037183046340942,1.616065263748169,22.24748229980469,91.6901397705078,-7.051971435546875
207170,-1.065948486328125,0.712921142578125,0.0831451416015625,1.119776129722595,1.037183046340942,1.616065263748169,22.24748229980469,91.6901397705078,-7.051971435546875
207171,-0.886993408203125,0.628570556640625,0.4184112548828125,1.171590924263,0.7215049266815186,1.34612774848938,23.07722473144531,92.26510620117188,-7.94915771484375
207172,-0.511627197265625,0.4397125244140625,0.5218658447265625,1.272860765457153,1.287876725196838,1.120306372642517,24.21273803710938,93.05900573730467,-9.395065307617188
207173,-0.332000732421875,0.430999755859375,0.4476318359375,1.201649188995361,1.484500288963318,1.116545677185059,24.57830810546875,93.41148376464844,-10.01580810546875
207174,-0.332000732421875,0.430999755859375,0.4476318359375,1.201649188995361,1.484500288963318,1.116545677185059,24.57830810546875,93.41148376464844,-10.01580810546875
207175,-0.2009429931640625,0.5050811767578125,0.38665771484375,1.065639615058899,1.446430683135986,1.104626178741455,24.89581298828125,93.75553894042967,-10.81733703613281
207176,-0.0827484130859375,0.6827392578125,0.3129119873046875,0.6480938196182251,0.7286674976348877,0.9557355642318726,25.50608825683594,94.42864990234376,-12.28123474121094
207177,-0.0640869140625,0.731109619140625,0.3261566162109375,0.4238295555114746,0.2942305505275726,0.7885891795158386,26.08720397949219,94.46437072753906,-12.8092041015625
207178,-0.0379638671875,0.73419189453125,0.3391571044921875,0.219038337469101,-0.608500063419342,0.3310884535312653,26.51164245605469,94.67593383789062,-13.15884399414062
207179,-0.0379638671875,0.73419189453125,0.3391571044921875,0.219038337469101,-0.608500063419342,0.3310884535312653,26.51164245605469,94.67593383789062,-13.15884399414062
207180,0.069488525390625,0.6063232421875,0.3236541748046875,0.2442467510700226,-1.14038610458374,0.1276373267173767,27.6221923828125,94.3869171142578,-13.14067077636719
207181,0.125823974609375,0.502197265625,0.326751708984375,0.2967248857021332,-1.64896833896637,-0.0258241407573223,28.11308288574219,94.2852020263672,-12.93170166015625
207182,0.125823974609375,0.502197265625,0.326751708984375,0.2967248857021332,-1.64896833896637,-0.0258241407573223,28.11308288574219,94.2852020263672,-12.93170166015625
207183,0.25543212890625,0.272216796875,0.334381103515625,0.2125799059867859,-2.618406057357788,-0.1051549166440964,28.74755859375,93.72769165039062,-12.00483703613281
207184,0.3387908935546875,0.1966705322265625,0.400665283203125,-0.2855667769908905,-3.125019550323486,0.2573721408843994,28.99691772460938,93.5426788330078,-11.54408264160156
207185,0.3957672119140625,0.173980712890625,0.5137481689453125,-0.2855667769908905,-3.125019550323486,0.2573721408843994,28.93240356445312,93.3349151611328,-10.83586120605469
207186,0.3957672119140625,0.173980712890625,0.5137481689453125,-0.2855667769908905,-3.125019550323486,0.2573721408843994,28.93240356445312,93.3349151611328,-10.83586120605469
