time_idx,accelerometerAccelerationX(G),accelerometerAccelerationY(G),accelerometerAccelerationZ(G),gyroRotationX(rad/s),gyroRotationY(rad/s),gyroRotationZ(rad/s),magnetometerX(µT),magnetometerY(µT),magnetometerZ(µT)
240870,0.1257171630859375,-0.227569580078125,-0.044036865234375,-0.0296122208237648,-1.301234602928162,-0.5300185680389404,65.90846252441406,91.30706787109376,-40.06338500976562
240871,0.161865234375,-0.2320098876953125,-0.1207122802734375,-0.3002927303314209,-0.9877414107322692,-0.5910622477531433,65.35317993164062,91.11854553222656,-40.02130126953125
240872,0.161865234375,-0.2320098876953125,-0.1207122802734375,-0.3002927303314209,-0.9877414107322692,-0.5910622477531433,65.35317993164062,91.11854553222656,-40.02130126953125
240873,0.2871856689453125,-0.0681304931640625,-0.09002685546875,-0.7238495945930481,-1.368968963623047,-0.6590460538864136,64.35678100585938,91.1056671142578,-39.64695739746094
240874,0.258331298828125,0.17596435546875,0.1260833740234375,-0.8972639441490173,-1.150422215461731,-0.7861747145652771,63.66777038574219,91.33045959472656,-39.55108642578125
240875,0.258331298828125,0.17596435546875,0.1260833740234375,-0.8972639441490173,-1.150422215461731,-0.7861747145652771,63.66777038574219,91.33045959472656,-39.55108642578125
240876,0.08001708984375,0.3818511962890625,0.5782318115234375,-1.339547157287598,0.5378631949424744,-1.193217635154724,62.34837341308594,92.28904724121094,-39.40818786621094
240877,0.068206787109375,0.5704345703125,0.9279327392578124,-1.860785841941833,1.585731863975525,-1.479305505752563,61.70420837402344,92.79721069335938,-38.90858459472656
240878,0.129638671875,1.061630249023438,1.30255126953125,-2.625400066375732,2.938752174377441,-2.008608341217041,61.13334655761719,93.71884155273438,-38.53532409667969
240879,0.129638671875,1.061630249023438,1.30255126953125,-2.625400066375732,2.938752174377441,-2.008608341217041,61.13334655761719,93.71884155273438,-38.53532409667969
240880,0.3514404296875,6.916702270507812,0.8787384033203125,-2.757690191268921,2.767581224441528,-2.962809324264526,60.27622985839844,96.0855712890625,-37.32037353515625
240881,-0.3825836181640625,8.113998413085938,0.902374267578125,-2.095423221588135,-0.5767847895622253,-0.9643133282661438,59.99009704589844,97.3960418701172,-36.79832458496094
240882,-1.56488037109375,7.834320068359375,1.106124877929688,0.2064775377511978,-1.32197642326355,-0.7824534773826599,59.84521484375,98.41677856445312,-36.53570556640625
240883,-1.56488037109375,7.834320068359375,1.106124877929688,0.2064775377511978,-1.32197642326355,-0.7824534773826599,59.84521484375,98.41677856445312,-36.53570556640625
240884,-1.016021728515625,4.935012817382812,-0.151611328125,1.339407086372375,-2.036228179931641,-2.636910915374756,59.61474609375,98.8620147705078,-36.35508728027344
240885,0.0415496826171875,0.6876983642578125,-0.48553466796875,-0.9810376763343812,-7.20682430267334,-2.242373943328857,56.83029174804688,98.61087036132812,-36.93083190917969
240886,0.2582855224609375,0.522125244140625,0.025299072265625,-1.861573576927185,-2.092543363571167,-0.9249792098999025,54.09864807128906,98.6736297607422,-36.98597717285156
240887,0.2582855224609375,0.522125244140625,0.025299072265625,-1.861573576927185,-2.092543363571167,-0.9249792098999025,54.09864807128906,98.6736297607422,-36.98597717285156
240888,0.8496246337890625,0.97900390625,-1.882568359375,-0.0201803687959909,-1.145679354667664,0.2504612505435944,52.04389953613281,98.88870239257812,-36.72306823730469
240889,0.1313934326171875,1.384048461914062,-0.005889892578125,3.215330123901367,-1.088069915771484,0.3220019936561584,51.28120422363281,98.24861145019533,-36.58755493164062
240890,0.0493621826171875,1.121429443359375,-0.263214111328125,2.690608024597168,-0.6249070167541504,0.4181642234325409,51.28007507324219,97.579345703125,-37.76495361328125
240891,0.0493621826171875,1.121429443359375,-0.263214111328125,2.690608024597168,-0.6249070167541504,0.4181642234325409,51.28007507324219,97.579345703125,-37.76495361328125
240892,-0.0422821044921875,0.967132568359375,-0.287628173828125,1.799415946006775,-0.4516739845275879,0.5609850287437439,51.33164978027344,96.87022399902344,-39.16514587402344
240893,-0.050201416015625,0.663665771484375,-0.1729583740234375,1.138710737228394,-0.3487814366817474,0.616946280002594,51.66412353515625,95.73966979980467,-40.82839965820312
240894,-0.032745361328125,0.45147705078125,-0.1632232666015625,1.267243623733521,-0.441130518913269,0.656307578086853,51.69422912597656,95.48843383789062,-41.34397888183594
240895,-0.032745361328125,0.45147705078125,-0.1632232666015625,1.267243623733521,-0.441130518913269,0.656307578086853,51.69422912597656,95.48843383789062,-41.34397888183594
240896,-0.0178985595703125,0.2661285400390625,-0.0987091064453125,1.472034811973572,-0.2577367424964905,0.6859144568443298,51.90374755859375,95.25253295898438,-41.84147644042969
240897,0.0026092529296875,-0.05377197265625,0.0802001953125,1.162576079368591,0.3567570447921753,0.6881573796272278,52.1671142578125,94.62942504882812,-42.73037719726562
240898,-0.0026702880859375,-0.1756744384765625,0.1096038818359375,1.162576079368591,0.3567570447921753,0.6881573796272278,52.34745788574219,94.14527893066406,-43.10296630859375
240899,-0.0026702880859375,-0.1756744384765625,0.1096038818359375,1.162576079368591,0.3567570447921753,0.6881573796272278,52.34745788574219,94.14527893066406,-43.10296630859375
240900,-0.0149383544921875,-0.231109619140625,0.129547119140625,0.7036399245262146,0.7837004065513611,0.7005578279495239,52.97528076171875,93.44371032714844,-43.7901611328125
240901,-0.024810791015625,-0.2028656005859375,0.10345458984375,0.5367960929870605,0.8919288516044617,0.7050034403800964,53.385498046875,93.10647583007812,-44.03515625
240902,-0.0349884033203125,-0.184661865234375,0.0654296875,0.4286400377750397,0.9220305681228638,0.687027096748352,53.92976379394531,92.93156433105467,-44.12789916992188
240903,-0.0349884033203125,-0.184661865234375,0.0654296875,0.4286400377750397,0.9220305681228638,0.687027096748352,53.92976379394531,92.93156433105467,-44.12789916992188
240904,-0.0520782470703125,-0.203765869140625,-0.054901123046875,0.2631312310695648,0.7402842044830322,0.5921466946601868,55.14266967773438,92.76031494140624,-43.93154907226562
240905,-0.0541229248046875,-0.2301788330078125,-0.1190032958984375,0.2275591194629669,0.5357121825218201,0.5456116795539856,55.79208374023438,92.73260498046876,-43.68971252441406
240906,-0.055450439453125,-0.25390625,-0.13262939453125,0.2084445506334305,0.3593243360519409,0.5027866959571838,56.34880065917969,92.92926025390624,-43.27072143554688
240907,-0.055450439453125,-0.25390625,-0.13262939453125,0.2084445506334305,0.3593243360519409,0.5027866959571838,56.34880065917969,92.92926025390624,-43.27072143554688
240908,-0.0505523681640625,-0.2866973876953125,-0.0639801025390625,0.0655273422598838,0.4516116678714752,0.3801572024822235,57.58934020996094,92.95706176757812,-42.13291931152344
240909,-0.02374267578125,-0.29205322265625,-0.1157073974609375,-0.2197576612234116,0.7047169208526611,0.3128399252891541,58.28520202636719,92.75750732421876,-41.36062622070312
240910,0.018218994140625,-0.278900146484375,-0.2020111083984375,-0.356698215007782,0.3664237856864929,0.2559508085250854,59.12420654296875,92.48733520507812,-40.43630981445312
240911,0.018218994140625,-0.278900146484375,-0.2020111083984375,-0.356698215007782,0.3664237856864929,0.2559508085250854,59.12420654296875,92.48733520507812,-40.43630981445312
240912,0.034515380859375,-0.2617034912109375,-0.14208984375,-0.6107525825500488,-0.470494270324707,0.1031642034649849,59.81730651855469,92.0518035888672,-39.684326171875
240913,0.0616607666015625,-0.227264404296875,0.000274658203125,-0.7731164693832397,-0.7660103440284729,-0.0272747632116079,60.56845092773438,90.8314208984375,-38.45474243164062
240914,0.0786285400390625,-0.2191925048828125,0.040496826171875,-0.9019466042518616,-0.8976352214813232,-0.1830632984638214,60.65315246582031,90.45109558105467,-38.18630981445312
240915,0.0786285400390625,-0.2191925048828125,0.040496826171875,-0.9019466042518616,-0.8976352214813232,-0.1830632984638214,60.65315246582031,90.45109558105467,-38.18630981445312
240916,0.1392974853515625,0.02630615234375,-0.228668212890625,-0.9821043014526368,-1.088835477828979,-0.5494095683097839,60.06175231933594,90.12171936035156,-37.74420166015625
240917,0.09478759765625,0.2187042236328125,-0.3605499267578125,-0.6442287564277649,-1.263197183609009,-0.6176275610923767,59.63191223144531,90.33335876464844,-37.48394775390625
240918,0.0875244140625,0.2532806396484375,-0.1424407958984375,-0.6442287564277649,-1.263197183609009,-0.6176275610923767,59.18605041503906,90.6252899169922,-37.05157470703125
240919,0.0845947265625,0.2519378662109375,0.224517822265625,-0.6725054383277893,-0.7372758984565735,-0.5918305516242981,58.57273864746094,91.09140014648438,-36.92451477050781
240920,0.0845947265625,0.2519378662109375,0.224517822265625,-0.6725054383277893,-0.7372758984565735,-0.5918305516242981,58.57273864746094,91.09140014648438,-36.92451477050781
240921,0.0486907958984375,0.2574310302734375,0.6889495849609375,-1.310129284858704,0.5290425419807434,-0.7013373374938965,57.22390747070312,92.58633422851562,-36.88410949707031
240922,0.0454254150390625,0.36480712890625,0.8163909912109375,-1.685137271881104,1.029496073722839,-0.7919213175773621,56.30471801757812,93.7705535888672,-37.25801086425781
240923,0.0454254150390625,0.36480712890625,0.8163909912109375,-1.685137271881104,1.029496073722839,-0.7919213175773621,56.30471801757812,93.7705535888672,-37.25801086425781
240924,0.047576904296875,0.9270477294921876,1.121124267578125,-2.120814561843872,1.313459634780884,-0.958767831325531,55.32432556152344,94.97280883789062,-37.69371032714844
240925,0.098602294921875,3.025558471679688,1.367813110351562,-2.902983665466309,0.7661142349243164,0.4345471858978271,54.47537231445312,95.93096923828124,-38.39418029785156
240926,-1.213363647460938,8.125534057617188,2.749481201171875,-3.119560480117798,1.365953922271729,1.459732055664062,54.0101318359375,97.78509521484376,-39.43928527832031
240927,-1.213363647460938,8.125534057617188,2.749481201171875,-3.119560480117798,1.365953922271729,1.459732055664062,54.0101318359375,97.78509521484376,-39.43928527832031
240928,-1.715240478515625,7.636978149414062,1.794845581054688,-2.117160797119141,1.811072826385498,-0.924848973751068,54.82783508300781,98.36271667480467,-39.206298828125
240929,0.097991943359375,2.208740234375,-1.591049194335938,-0.9541850686073304,-2.212018489837646,-1.741137385368347,55.87539672851562,98.84617614746094,-36.35711669921875
240930,1.103347778320312,0.7510223388671875,-3.683242797851562,-1.142539262771606,-7.602378845214844,-0.5213462710380554,54.70008850097656,99.15431213378906,-35.35797119140625
240931,1.103347778320312,0.7510223388671875,-3.683242797851562,-1.142539262771606,-7.602378845214844,-0.5213462710380554,54.70008850097656,99.15431213378906,-35.35797119140625
240932,1.26361083984375,0.67181396484375,-1.4083251953125,0.4559334516525269,-1.092467069625854,0.8599493503570557,52.87934875488281,99.6365966796875,-34.61434936523438
240933,0.1984100341796875,1.8411865234375,-0.3646087646484375,2.735215663909912,0.0044208471663296,1.22682774066925,51.16874694824219,99.86924743652344,-34.34181213378906
240934,0.1049346923828125,1.753646850585938,-0.2259063720703125,1.865942239761353,-1.151203870773315,0.8915418982505798,52.02713012695312,99.11433410644533,-35.13818359375
240935,0.061187744140625,1.402816772460938,-0.0941162109375,0.6308445334434509,-1.733906149864197,0.4184832572937012,52.84519958496094,98.40672302246094,-36.32101440429688
240936,0.061187744140625,1.402816772460938,-0.0941162109375,0.6308445334434509,-1.733906149864197,0.4184832572937012,52.84519958496094,98.40672302246094,-36.32101440429688
240937,0.17498779296875,0.7027130126953125,-0.37506103515625,-0.3771584630012512,-1.171043634414673,0.4073864221572876,53.23159790039062,97.40309143066406,-37.18931579589844
240938,0.178314208984375,0.4545745849609375,-0.7187957763671875,0.1243491172790527,-1.197247982025146,0.5760343074798584,53.21176147460938,97.45851135253906,-37.16549682617188
240939,0.178314208984375,0.4545745849609375,-0.7187957763671875,0.1243491172790527,-1.197247982025146,0.5760343074798584,53.21176147460938,97.45851135253906,-37.16549682617188
240940,0.0895233154296875,0.356658935546875,-0.6659698486328125,1.023411273956299,-1.27366578578949,0.6889267563819885,53.15420532226562,97.4091796875,-36.9989013671875
240941,-0.0388641357421875,0.30859375,-0.256256103515625,1.643051862716675,-1.089969992637634,0.6359463334083557,53.35791015625,96.97053527832033,-37.49461364746094
240942,-0.041717529296875,0.173065185546875,-0.1876678466796875,1.264979362487793,-0.8810732960700989,0.5512354373931885,53.39244079589844,96.62173461914062,-38.17332458496094
240943,-0.0280914306640625,0.0678558349609375,-0.013946533203125,0.7615975141525269,-0.5359907150268555,0.4509506523609161,53.41632080078125,96.21607971191406,-38.86663818359375
240944,-0.0280914306640625,0.0678558349609375,-0.013946533203125,0.7615975141525269,-0.5359907150268555,0.4509506523609161,53.41632080078125,96.21607971191406,-38.86663818359375
240945,0.004302978515625,0.02960205078125,0.246368408203125,0.3154674172401428,0.2774497270584106,0.1946312636137009,53.54460144042969,95.62673950195312,-39.57893371582031
240946,0.016845703125,-0.006805419921875,0.1942291259765625,0.4167498052120209,0.3800415992736816,0.0506993979215621,53.67460632324219,95.56716918945312,-39.57672119140625
240947,0.016845703125,-0.006805419921875,0.1942291259765625,0.4167498052120209,0.3800415992736816,0.0506993979215621,53.67460632324219,95.56716918945312,-39.57672119140625
240948,0.02496337890625,-0.0672454833984375,0.1131439208984375,0.6145308017730713,0.2018614858388901,-0.0581839457154274,53.83856201171875,95.41888427734376,-39.63206481933594
240949,0.0267486572265625,-0.1162567138671875,0.0431976318359375,1.055750012397766,-0.3832131624221802,-0.17967389523983,54.03825378417969,95.2236328125,-39.85960388183594
240950,0.0324249267578125,-0.1036224365234375,0.0614471435546875,1.17122495174408,-0.5281913876533508,-0.2259867936372757,53.98568725585938,95.0972137451172,-40.13578796386719
240951,0.0324249267578125,-0.1036224365234375,0.0614471435546875,1.17122495174408,-0.5281913876533508,-0.2259867936372757,53.98568725585938,95.0972137451172,-40.13578796386719
240952,0.0540618896484375,-0.0966033935546875,0.0267333984375,1.130718231201172,-0.6538230776786804,-0.2924955189228058,53.75401306152344,94.42681884765624,-40.93841552734375
240953,0.07073974609375,-0.097198486328125,-0.036102294921875,0.9944040775299072,-0.8028796911239624,-0.3021241724491119,53.57073974609375,94.155029296875,-41.61506652832031
240954,0.084869384765625,-0.0946502685546875,-0.061187744140625,0.8059226274490356,-1.043893098831177,-0.3015127182006836,53.23588562011719,93.869873046875,-42.00254821777344
240955,0.094451904296875,-0.089080810546875,-0.0014801025390625,0.3598338067531586,-1.242048740386963,-0.3143180012702942,52.87921142578125,93.59660339355467,-42.20303344726562
240956,0.094451904296875,-0.089080810546875,-0.0014801025390625,0.3598338067531586,-1.242048740386963,-0.3143180012702942,52.87921142578125,93.59660339355467,-42.20303344726562
240957,0.11639404296875,-0.07403564453125,0.119781494140625,-0.0933374017477035,-1.029433965682983,-0.3502080738544464,52.04736328125,93.3212432861328,-42.32269287109375
240958,0.1484375,-0.0614776611328125,0.0869140625,-0.0933374017477035,-1.029433965682983,-0.3502080738544464,51.49977111816406,93.1892547607422,-42.32559204101562
240959,0.1484375,-0.0614776611328125,0.0869140625,-0.0933374017477035,-1.029433965682983,-0.3502080738544464,51.49977111816406,93.1892547607422,-42.32559204101562
240960,0.219696044921875,0.107330322265625,-0.0487213134765625,-0.5538658499717712,-1.350893497467041,-0.3922924101352692,50.566162109375,93.15950012207033,-42.04197692871094
240961,0.193328857421875,0.2917938232421875,0.068634033203125,-0.8121355175971985,-1.524954795837402,-0.5004207491874695,50.02828979492188,93.14895629882812,-41.84965515136719
240962,0.140960693359375,0.3845672607421875,0.357330322265625,-1.132452011108398,-1.210376381874084,-0.6851043105125427,49.42982482910156,93.21658325195312,-41.52751159667969
240963,0.0905303955078125,0.492401123046875,0.7114715576171875,-1.492220520973206,-0.2372152060270309,-0.9097036123275756,48.86727905273438,93.56675720214844,-41.08872985839844
240964,0.0905303955078125,0.492401123046875,0.7114715576171875,-1.492220520973206,-0.2372152060270309,-0.9097036123275756,48.86727905273438,93.56675720214844,-41.08872985839844
240965,0.185333251953125,2.867095947265625,1.104339599609375,-1.901968121528625,2.867917776107788,-2.263214826583862,47.51495361328125,94.80804443359376,-40.19425964355469
240966,0.1002655029296875,4.042648315429688,0.935943603515625,-1.607506632804871,2.967912197113037,-2.133435249328613,47.048583984375,95.4454345703125,-40.08631896972656
240967,0.1002655029296875,4.042648315429688,0.935943603515625,-1.607506632804871,2.967912197113037,-2.133435249328613,47.048583984375,95.4454345703125,-40.08631896972656
240968,-0.3643646240234375,5.124404907226562,0.726409912109375,-1.029950141906738,1.021657586097717,-1.569785594940186,46.80587768554688,95.89834594726562,-39.98588562011719
240969,-0.818572998046875,4.657501220703125,0.9608001708984376,0.4893507957458496,-2.849059343338013,-0.8442063331604004,46.52520751953125,96.69493103027344,-39.84968566894531
240970,-0.3461151123046875,2.988540649414062,0.614044189453125,0.2091545462608337,-3.727307796478271,-0.674541175365448,46.09547424316406,96.68777465820312,-39.65939331054688
240971,-0.0861968994140625,1.976837158203125,0.3251953125,-0.2034356743097305,-3.913160085678101,-0.2375369220972061,45.24966430664062,96.42755126953124,-39.61599731445312
240972,-0.0861968994140625,1.976837158203125,0.3251953125,-0.2034356743097305,-3.913160085678101,-0.2375369220972061,45.24966430664062,96.42755126953124,-39.61599731445312
240973,0.6105499267578125,1.987655639648438,-1.78216552734375,-0.0043875579722225,-5.569048881530762,0.1061014011502266,42.73565673828125,96.355224609375,-39.08100891113281
240974,0.72332763671875,2.49066162109375,-0.98699951171875,0.3090715706348419,-4.171343803405762,0.2384716868400574,41.31712341308594,96.65200805664062,-38.52603149414062
240975,0.72332763671875,2.49066162109375,-0.98699951171875,0.3090715706348419,-4.171343803405762,0.2384716868400574,41.31712341308594,96.65200805664062,-38.52603149414062
240976,0.2695465087890625,1.841140747070312,-0.576904296875,2.565722703933716,-1.515737056732178,0.443669319152832,38.9296875,96.95281982421876,-37.6541748046875
240977,0.1374053955078125,1.599899291992188,-0.23675537109375,2.565722703933716,-1.515737056732178,0.443669319152832,38.84548950195312,96.5557098388672,-37.88287353515625
240978,0.0298614501953125,1.2991943359375,0.0087890625,2.181426763534546,-1.864006042480469,0.617840588092804,39.19570922851562,95.74363708496094,-38.66708374023438
240979,-0.0193634033203125,0.996124267578125,-0.02740478515625,1.301682829856873,-1.932317018508911,0.8687023520469666,39.51080322265625,94.99745178222656,-39.43455505371094
240980,-0.0431365966796875,0.6825103759765625,-0.1635894775390625,1.301682829856873,-1.932317018508911,0.8687023520469666,39.76858520507812,94.2863311767578,-40.1038818359375
240981,-0.0565338134765625,0.4022064208984375,-0.3264312744140625,1.166651725769043,-2.05049467086792,0.9626117944717408,39.72994995117188,93.78672790527344,-40.65188598632812
240982,-0.071075439453125,0.190093994140625,-0.3053436279296875,1.271528601646423,-2.059520483016968,1.022756695747375,39.66319274902344,93.50016784667967,-41.02705383300781
240983,-0.09381103515625,0.0726470947265625,-0.13336181640625,1.529543399810791,-1.654761791229248,0.9951615333557128,39.52786254882812,93.4084930419922,-41.28311157226562
240984,-0.09918212890625,0.007965087890625,-0.0088958740234375,1.71776282787323,-0.4828457534313202,0.7873973846435547,39.30947875976562,93.15756225585938,-41.4127197265625
240985,-0.0920562744140625,-0.060272216796875,0.0435028076171875,1.71776282787323,-0.4828457534313202,0.7873973846435547,39.36640930175781,92.91064453125,-41.79136657714844
240986,-0.0879364013671875,-0.1242828369140625,0.0699310302734375,1.551077485084534,-0.0770748108625412,0.7168686389923096,39.39596557617188,92.34529113769533,-42.18498229980469
240987,-0.08197021484375,-0.1702728271484375,0.1131591796875,1.109224200248718,0.3986791968345642,0.6653417944908142,39.61848449707031,91.9643096923828,-42.86505126953125
240988,-0.08197021484375,-0.1702728271484375,0.1131591796875,1.109224200248718,0.3986791968345642,0.6653417944908142,39.61848449707031,91.9643096923828,-42.86505126953125
240989,-0.064544677734375,-0.1866912841796875,0.1291656494140625,0.8865609765052795,0.4921026229858398,0.6582494974136353,40.30104064941406,91.36888122558594,-43.82791137695312
240990,-0.060638427734375,-0.1844482421875,0.037506103515625,0.7066228985786438,0.3657619953155518,0.6502012014389038,40.6766357421875,91.19139099121094,-44.40769958496094
240991,-0.046112060546875,-0.1890716552734375,-0.102508544921875,0.6159532070159912,-0.3453065156936646,0.6503005027770996,41.47003173828125,90.77635192871094,-45.11848449707031
240992,-0.046112060546875,-0.1890716552734375,-0.102508544921875,0.6159532070159912,-0.3453065156936646,0.6503005027770996,41.47003173828125,90.77635192871094,-45.11848449707031
240993,-0.038177490234375,-0.19757080078125,-0.088775634765625,0.6618977785110474,-0.6818286180496216,0.644287645816803,41.87200927734375,90.69245910644533,-45.47782897949219
240994,-0.037811279296875,-0.1999664306640625,-0.052276611328125,0.6986986994743347,-0.8583070039749146,0.6159425377845764,42.11465454101562,90.73887634277344,-45.70455932617188
240995,-0.03778076171875,-0.2068939208984375,-0.0664520263671875,0.7001674175262451,-0.907370150089264,0.5644785761833191,42.20440673828125,90.72061157226562,-45.85507202148438
240996,-0.03778076171875,-0.2068939208984375,-0.0664520263671875,0.7001674175262451,-0.907370150089264,0.5644785761833191,42.20440673828125,90.72061157226562,-45.85507202148438
240997,-0.027130126953125,-0.231109619140625,-0.0980987548828125,0.5764595866203308,-0.7752818465232849,0.4608834683895111,42.53041076660156,90.67550659179688,-46.021728515625
240998,-0.013092041015625,-0.22540283203125,-0.078338623046875,0.4386399388313293,-0.569424569606781,0.3986437916755676,42.81169128417969,90.65682983398438,-46.12957763671875
240999,0.0461883544921875,-0.24212646484375,-0.0754547119140625,-0.0902843549847602,-0.0672983452677726,0.2486492246389389,43.36488342285156,90.48210144042967,-45.54946899414062
241000,0.0461883544921875,-0.24212646484375,-0.0754547119140625,-0.0902843549847602,-0.0672983452677726,0.2486492246389389,43.36488342285156,90.48210144042967,-45.54946899414062
241001,0.0773468017578125,-0.2508392333984375,-0.1378326416015625,-0.5892155766487122,-0.0545215643942356,0.1285382658243179,43.62828063964844,90.18032836914062,-45.21058654785156
241002,0.1011199951171875,-0.2126617431640625,-0.170806884765625,-1.138223052024841,-0.4697131812572479,2.210423735959921e-05,43.89559936523438,89.72906494140625,-44.6126708984375
241003,0.11669921875,-0.041778564453125,-0.049896240234375,-1.996184110641479,-0.6289036273956299,-0.3053074479103088,44.02024841308594,89.41844177246094,-44.24734497070312
241004,0.11669921875,-0.041778564453125,-0.049896240234375,-1.996184110641479,-0.6289036273956299,-0.3053074479103088,44.02024841308594,89.41844177246094,-44.24734497070312
241005,-0.0214080810546875,0.2966156005859375,0.5688323974609375,-2.284632444381714,0.5255340933799744,-0.3692326247692108,43.54652404785156,89.85906982421875,-43.04147338867188
241006,-0.01708984375,0.3673095703125,0.747314453125,-2.750056982040405,1.781664371490479,-0.4767817258834839,43.02847290039062,90.59260559082033,-42.26567077636719
241007,0.00494384765625,0.5692596435546875,0.94091796875,-3.824055194854736,2.764402389526367,-1.24565601348877,42.60980224609375,91.5733642578125,-41.4329833984375
241008,0.00494384765625,0.5692596435546875,0.94091796875,-3.824055194854736,2.764402389526367,-1.24565601348877,42.60980224609375,91.5733642578125,-41.4329833984375
241009,-0.1476898193359375,3.228851318359375,1.444198608398438,-3.880033731460571,2.325110673904419,-1.684487700462341,42.06802368164062,93.59507751464844,-40.03355407714844
241010,-0.426361083984375,7.61895751953125,1.723007202148438,-2.684211730957031,0.3933441042900085,-0.6008338928222656,42.01580810546875,94.42489624023438,-39.33424377441406
241011,-1.211761474609375,8.107131958007812,2.26263427734375,-1.370208621025085,-0.7704226970672607,2.112943172454834,42.25761413574219,95.4315185546875,-39.03729248046875
241012,-1.211761474609375,8.107131958007812,2.26263427734375,-1.370208621025085,-0.7704226970672607,2.112943172454834,42.25761413574219,95.4315185546875,-39.03729248046875
241013,-0.308563232421875,3.427047729492188,-0.662689208984375,-0.0118356207385659,-0.6634362936019897,-1.301336288452148,43.06170654296875,96.9783172607422,-39.49411010742188
241014,0.4008941650390625,1.077651977539062,-1.7342529296875,-0.5456848740577698,-3.215157985687256,-1.117208361625671,43.33773803710938,97.11119079589844,-39.11964416503906
241015,0.926727294921875,0.6081390380859375,-1.841323852539062,0.4945721924304962,0.2048242539167404,0.6497854590415955,41.10041809082031,97.22575378417967,-37.82789611816406
241016,0.926727294921875,0.6081390380859375,-1.841323852539062,0.4945721924304962,0.2048242539167404,0.6497854590415955,41.10041809082031,97.22575378417967,-37.82789611816406
241017,0.44696044921875,1.451370239257812,-0.486297607421875,1.783671855926514,-0.2133503556251526,1.106282949447632,39.98667907714844,97.47868347167967,-37.09671020507812
241018,0.2924346923828125,1.586441040039062,-0.0032501220703125,2.014428853988647,-0.8113605380058289,1.107583403587341,39.83517456054688,97.34646606445312,-36.65525817871094
241019,0.220703125,1.503875732421875,0.0488433837890625,1.463331937789917,-1.235312342643738,0.8639762997627258,40.36051940917969,96.91535949707033,-37.17550659179688
241020,0.220703125,1.503875732421875,0.0488433837890625,1.463331937789917,-1.235312342643738,0.8639762997627258,40.36051940917969,96.91535949707033,-37.17550659179688
241021,0.1244354248046875,0.95526123046875,-0.186279296875,0.0976424068212509,-1.268301486968994,0.512642502784729,41.42253112792969,95.87806701660156,-38.58609008789062
241022,0.122283935546875,0.699310302734375,-0.378387451171875,-0.126180037856102,-1.274263501167297,0.5791357755661011,41.5869140625,95.42619323730467,-38.8240966796875
241023,0.136016845703125,0.475311279296875,-0.553924560546875,0.1448450684547424,-1.471593856811523,0.6869426965713501,41.66455078125,95.30616760253906,-38.946044921875
241024,0.120819091796875,0.3045196533203125,-0.5490264892578125,0.8415905833244324,-1.44763445854187,0.740152895450592,41.61474609375,95.3370361328125,-38.76768493652344
241025,0.091156005859375,0.2154693603515625,-0.42431640625,1.478726625442505,-1.044507503509521,0.7077100276947021,41.65310668945312,95.34405517578124,-38.57843017578125
241026,0.0587615966796875,0.159271240234375,-0.3601837158203125,1.684619307518005,-0.6041663289070129,0.614328920841217,41.6539306640625,95.1549835205078,-38.60600280761719
241027,0.0593719482421875,0.07598876953125,-0.384429931640625,1.508515357971191,-0.4090079963207245,0.4922171533107758,41.751708984375,94.993896484375,-38.97209167480469
241028,0.0934295654296875,-0.0288543701171875,-0.43536376953125,1.159968614578247,-0.4559526145458221,0.3981204628944397,41.85638427734375,94.50758361816406,-39.23033142089844
241029,0.13885498046875,-0.130340576171875,-0.4607391357421875,0.8102462291717529,-0.6745896339416504,0.3426878452301025,41.92494201660156,94.23916625976562,-39.86997985839844
241030,0.1725311279296875,-0.184600830078125,-0.362579345703125,0.5595005750656128,-0.8806104063987732,0.3188599944114685,42.001220703125,93.99362182617188,-40.39540100097656
241031,0.17633056640625,-0.1815185546875,-0.1784515380859375,0.4235243797302246,-0.920818328857422,0.2784992754459381,42.02824401855469,93.80691528320312,-40.84097290039062
241032,0.17633056640625,-0.1815185546875,-0.1784515380859375,0.4235243797302246,-0.920818328857422,0.2784992754459381,42.02824401855469,93.80691528320312,-40.84097290039062
241033,0.161163330078125,-0.168182373046875,-0.0110321044921875,0.2585567235946655,-0.5780785083770752,0.1549821197986603,41.821533203125,93.80462646484376,-40.79086303710938
241034,0.1708221435546875,-0.178009033203125,-0.1463470458984375,0.2979927957057953,-0.7334723472595215,0.1427323818206787,41.73326110839844,93.62576293945312,-40.63642883300781
241035,0.1963958740234375,-0.1732177734375,-0.177154541015625,0.6419703960418701,-1.550709962844849,0.1345258504152298,41.49981689453125,93.60227966308594,-40.18037414550781
241036,0.1963958740234375,-0.1732177734375,-0.177154541015625,0.6419703960418701,-1.550709962844849,0.1345258504152298,41.49981689453125,93.60227966308594,-40.18037414550781
241037,0.205047607421875,-0.158905029296875,-0.102386474609375,0.7861126661300659,-1.836524605751038,0.0857934653759002,41.29438781738281,93.44561767578124,-40.02540588378906
241038,0.2002410888671875,-0.13177490234375,0.022216796875,0.832419216632843,-1.907397508621216,-0.0224469862878322,40.98207092285156,93.298583984375,-39.861083984375
241039,0.2035369873046875,-0.1121063232421875,0.1066741943359375,0.489922046661377,-1.445935368537903,-0.2916702032089233,40.5244140625,93.07945251464844,-39.92205810546875
241040,0.2035369873046875,-0.1121063232421875,0.1066741943359375,0.489922046661377,-1.445935368537903,-0.2916702032089233,40.5244140625,93.07945251464844,-39.92205810546875
241041,0.2171783447265625,0.1125946044921875,0.2177886962890625,0.1059075221419334,-1.017933368682861,-0.4042015373706818,39.56546020507812,92.80039978027344,-39.64974975585938
241042,0.0937347412109375,0.3211822509765625,0.4908447265625,-0.3944668769836426,-0.3167526423931122,-0.5704277753829956,39.22561645507812,92.71975708007812,-39.56118774414062
241043,0.0462493896484375,0.47412109375,0.8016510009765625,-1.023038625717163,0.7327346801757812,-0.8210315108299255,38.87826538085938,92.71368408203124,-39.40476989746094
241044,0.0462493896484375,0.47412109375,0.8016510009765625,-1.023038625717163,0.7327346801757812,-0.8210315108299255,38.87826538085938,92.71368408203124,-39.40476989746094
241045,-0.0844573974609375,0.7503204345703125,1.024276733398438,-2.561844825744629,2.906732082366943,-1.497313261032104,38.67218017578125,93.1783447265625,-38.83290100097656
241046,-0.2212677001953125,2.34747314453125,1.21044921875,-2.84899115562439,3.556166648864746,-2.476808786392212,38.71937561035156,93.79005432128906,-38.6495361328125
241047,-0.417083740234375,4.224472045898438,1.294464111328125,-2.21839714050293,3.709066152572632,-3.214563131332397,38.68824768066406,94.58193969726562,-38.46768188476562
241048,-0.417083740234375,4.224472045898438,1.294464111328125,-2.21839714050293,3.709066152572632,-3.214563131332397,38.68824768066406,94.58193969726562,-38.46768188476562
241049,-1.751510620117188,5.526641845703125,1.2515869140625,0.37015300989151,0.0327928327023983,-1.693544864654541,38.40965270996094,95.48037719726562,-38.65031433105469
241050,-1.761825561523438,4.117660522460938,1.050079345703125,1.346428155899048,-0.973791778087616,-1.542228817939758,38.07699584960938,95.55859375,-39.14303588867188
241051,-1.097702026367188,2.333984375,0.5384521484375,1.31445848941803,-2.27226996421814,-1.625592470169067,37.60098266601562,95.30990600585938,-39.71853637695312
241052,-1.097702026367188,2.333984375,0.5384521484375,1.31445848941803,-2.27226996421814,-1.625592470169067,37.60098266601562,95.30990600585938,-39.71853637695312
241053,-0.4185333251953125,0.738922119140625,0.2678680419921875,-0.0160093270242214,-4.284371376037598,-1.418718576431274,35.58039855957031,93.8493194580078,-40.01068115234375
241054,-0.2768096923828125,0.6743621826171875,0.262115478515625,-2.093433618545532,-2.543185472488403,-0.3888436257839203,34.0615234375,93.28729248046876,-39.51136779785156
241055,-0.126220703125,1.114669799804688,0.228424072265625,-2.093433618545532,-2.543185472488403,-0.3888436257839203,32.55630493164062,92.69528198242188,-38.81246948242188
241056,-0.126220703125,1.114669799804688,0.228424072265625,-2.093433618545532,-2.543185472488403,-0.3888436257839203,32.55630493164062,92.69528198242188,-38.81246948242188
241057,0.69403076171875,2.32818603515625,-1.214019775390625,-1.358431577682495,-2.190554141998291,0.9192912578582764,30.60403442382812,92.52301025390624,-35.76356506347656
241058,0.9294891357421876,2.436691284179688,-0.084991455078125,-1.358431577682495,-2.190554141998291,0.9192912578582764,29.935791015625,93.11271667480467,-33.54676818847656
241059,0.810699462890625,2.081146240234375,-0.351654052734375,1.334583282470703,-0.4476989507675171,0.978056013584137,29.28852844238281,93.79527282714844,-31.19966125488281
241060,0.810699462890625,2.081146240234375,-0.351654052734375,1.334583282470703,-0.4476989507675171,0.978056013584137,29.28852844238281,93.79527282714844,-31.19966125488281
241061,0.2460479736328125,1.44561767578125,-0.213897705078125,3.262043476104736,-0.7072532773017883,0.7566922307014465,29.71969604492188,94.14004516601562,-30.58370971679688
241062,0.246612548828125,1.246749877929688,-0.215179443359375,2.915839910507202,-1.237123847007751,0.8278183341026306,30.15336608886719,93.80793762207033,-31.58442687988281
241063,0.3326873779296875,1.059646606445312,-0.1351318359375,2.350905418395996,-1.756971836090088,0.9862872958183287,30.48674011230469,93.34312438964844,-32.821044921875
241064,0.3326873779296875,1.059646606445312,-0.1351318359375,2.350905418395996,-1.756971836090088,0.9862872958183287,30.48674011230469,93.34312438964844,-32.821044921875
241065,0.46051025390625,0.5950469970703125,-0.279632568359375,1.695003509521484,-1.832042574882507,1.314717650413513,30.87953186035156,92.49253845214844,-34.10450744628906
241066,0.4197540283203125,0.2567596435546875,-0.441009521484375,1.716819524765015,-1.766001462936401,1.498187661170959,31.09153747558594,92.4205322265625,-34.49455261230469
241067,0.341156005859375,0.011199951171875,-0.4334716796875,1.866139531135559,-1.696910858154297,1.599310994148254,31.31838989257812,92.42672729492188,-34.814208984375
241068,0.341156005859375,0.011199951171875,-0.4334716796875,1.866139531135559,-1.696910858154297,1.599310994148254,31.31838989257812,92.42672729492188,-34.814208984375
241069,0.1028594970703125,-0.2353668212890625,-0.14288330078125,1.855175256729126,-0.7982649803161621,1.453908085823059,31.9029541015625,92.270263671875,-35.43000793457031
241070,0.012176513671875,-0.266510009765625,-0.1401519775390625,1.568060994148254,-0.4222774803638458,1.311787605285645,32.184814453125,92.2438507080078,-35.84469604492188
241071,-0.0373992919921875,-0.2504730224609375,-0.1127471923828125,1.230684757232666,-0.3493164479732513,1.202828407287598,32.54627990722656,92.166748046875,-36.26737976074219
241072,-0.0373992919921875,-0.2504730224609375,-0.1127471923828125,1.230684757232666,-0.3493164479732513,1.202828407287598,32.54627990722656,92.166748046875,-36.26737976074219
241073,-0.0957183837890625,-0.220916748046875,-0.094329833984375,0.7349493503570557,-0.8187782168388367,1.032664179801941,33.27522277832031,92.18093872070312,-36.79460144042969
241074,-0.118865966796875,-0.2274169921875,-0.142852783203125,0.640550434589386,-1.23223614692688,0.9583651423454284,33.68849182128906,92.17581176757812,-37.02259826660156
241075,-0.135223388671875,-0.2712554931640625,-0.051025390625,0.8139837384223938,-1.613189101219177,0.7685030698776245,34.07054138183594,92.4971923828125,-37.76034545898438
241076,-0.135223388671875,-0.2712554931640625,-0.051025390625,0.8139837384223938,-1.613189101219177,0.7685030698776245,34.07054138183594,92.4971923828125,-37.76034545898438
241077,-0.126190185546875,-0.2650604248046875,0.0601348876953125,0.9603081941604614,-1.366992831230164,0.6288439631462097,34.11105346679688,92.81871032714844,-37.92933654785156
241078,-0.1100616455078125,-0.234710693359375,0.1295928955078125,1.004548668861389,-1.041630148887634,0.456186980009079,34.22369384765625,92.86198425292967,-38.08273315429688
241079,-0.0798492431640625,-0.2024383544921875,0.1782073974609375,0.9025822877883912,-0.7538197040557861,0.289909839630127,34.338623046875,92.9352569580078,-38.40974426269531
241080,-0.0498504638671875,-0.172119140625,0.223175048828125,0.6545354723930359,-0.4704039990901947,0.1570513993501663,34.44407653808594,93.02944946289062,-38.75959777832031
241081,-0.0472564697265625,-0.144195556640625,0.243255615234375,0.3120809197425842,-0.1368872821331024,0.0492445118725299,34.53446960449219,93.13784790039062,-38.91314697265625
241082,-0.0590362548828125,-0.1343231201171875,0.208282470703125,-0.0756697282195091,0.1590716689825058,-0.0454122237861156,34.66224670410156,93.21400451660156,-38.98564147949219
241083,-0.12030029296875,-0.12408447265625,0.1385498046875,-0.916783094406128,0.4513240456581116,-0.2408118098974228,35.14561462402344,93.43685913085938,-38.53733825683594
241084,-0.12030029296875,-0.12408447265625,0.1385498046875,-0.916783094406128,0.4513240456581116,-0.2408118098974228,35.14561462402344,93.43685913085938,-38.53733825683594
241085,-0.2009124755859375,-0.0938262939453125,0.084014892578125,-1.3318852186203,0.4820944666862488,-0.3889288306236267,35.3997802734375,93.61666870117188,-37.81256103515625
241086,-0.350677490234375,0.0284423828125,-0.1381378173828125,-1.61038339138031,0.3632256090641022,-0.5659244060516357,35.56353759765625,93.78547668457033,-36.96104431152344
241087,-0.263885498046875,0.24530029296875,0.056396484375,-1.717709898948669,-0.0855196937918663,-0.6261656284332275,35.41061401367188,94.47055053710938,-35.36195373535156
241088,-0.263885498046875,0.24530029296875,0.056396484375,-1.717709898948669,-0.0855196937918663,-0.6261656284332275,35.41061401367188,94.47055053710938,-35.36195373535156
241089,-0.12884521484375,0.186065673828125,0.445343017578125,-1.713692188262939,0.3632394671440125,-0.5799046754837036,35.02568054199219,94.89816284179688,-34.83122253417969
241090,-0.06353759765625,0.273834228515625,0.5708770751953125,-1.642563939094543,0.5169576406478882,-0.5589104294776917,34.38609313964844,95.13079833984376,-34.43136596679688
241091,-0.2146453857421875,2.301605224609375,1.377716064453125,-1.285099267959595,0.4679911732673645,-0.6099387407302856,33.31700134277344,94.92546081542967,-34.05412292480469
241092,-0.2146453857421875,2.301605224609375,1.377716064453125,-1.285099267959595,0.4679911732673645,-0.6099387407302856,33.31700134277344,94.92546081542967,-34.05412292480469
241093,-0.419219970703125,5.150421142578125,2.03668212890625,-1.050216794013977,0.9158501625061036,-0.1341783106327057,32.93788146972656,94.91787719726562,-34.0838623046875
241094,-0.5790557861328125,7.574798583984375,2.536880493164062,-1.130558729171753,1.733182072639465,1.480345726013184,32.93658447265625,95.18450927734376,-34.33877563476562
241095,-1.044219970703125,7.980743408203125,2.200454711914062,-0.436239093542099,4.20789909362793,1.926603674888611,33.45509338378906,95.6149444580078,-34.97218322753906
241096,-0.471160888671875,5.075546264648438,0.3563385009765625,0.0449347160756588,4.32542610168457,0.0793643295764923,34.68292236328125,96.03805541992188,-35.48751831054688
241097,-0.0965728759765625,1.880416870117188,-0.7373199462890625,-0.6071019172668457,1.287434935569763,-0.775124728679657,36.10647583007812,96.05812072753906,-35.5933837890625
241098,0.125244140625,0.8011322021484375,-1.334243774414062,-1.6225825548172,-1.986464381217957,-1.137869358062744,36.71778869628906,95.9589385986328,-35.14753723144531
241099,0.5893707275390625,0.6705322265625,-2.328659057617188,-2.599621057510376,-6.266695022583008,-1.12302577495575,36.25749206542969,95.82789611816406,-34.48838806152344
241100,0.82000732421875,1.433319091796875,-1.0269775390625,0.2305075079202652,-0.0062155514024198,0.7064740657806396,34.94920349121094,95.91741943359376,-33.19425964355469
241101,0.5732269287109375,2.027633666992188,-1.60986328125,0.2305075079202652,-0.0062155514024198,0.7064740657806396,33.3663330078125,96.12522888183594,-31.40638732910156
241102,0.1872711181640625,2.053375244140625,-0.4623565673828125,2.353330850601196,-0.2916955053806305,0.8262244462966919,32.54145812988281,96.191162109375,-29.97900390625
241103,0.00341796875,1.521499633789062,-0.418212890625,1.750013709068298,-0.0757514834403991,0.6408655047416687,33.04954528808594,95.7056121826172,-30.62629699707031
241104,0.00341796875,1.521499633789062,-0.418212890625,1.750013709068298,-0.0757514834403991,0.6408655047416687,33.04954528808594,95.7056121826172,-30.62629699707031
241105,0.1313934326171875,1.179916381835938,-0.6504364013671875,0.7318111062049866,-0.615143895149231,0.546935498714447,33.50251770019531,95.32167053222656,-31.50144958496094
241106,0.26080322265625,0.9586944580078124,-0.5660247802734375,0.4172686040401459,-0.9770964980125428,0.4701975882053375,33.85700988769531,95.08097839355467,-32.35154724121094
241107,0.3777923583984375,0.7333831787109375,-0.53741455078125,0.7777721881866455,-1.293326616287231,0.569054126739502,33.98773193359375,94.9429168701172,-32.78536987304688
241108,0.3777923583984375,0.7333831787109375,-0.53741455078125,0.7777721881866455,-1.293326616287231,0.569054126739502,33.98773193359375,94.9429168701172,-32.78536987304688
241109,0.3995513916015625,0.3852081298828125,-0.3188629150390625,1.45423698425293,-0.3861471712589264,0.8162199854850769,34.15626525878906,94.77642822265624,-33.14466857910156
241110,0.351898193359375,0.2819061279296875,-0.2410888671875,1.45423698425293,-0.3861471712589264,0.8162199854850769,34.22959899902344,94.65420532226562,-33.28813171386719
241111,0.3054046630859375,0.2270965576171875,-0.21575927734375,1.256887912750244,-0.1257424801588058,0.7680966854095459,34.49342346191406,94.46517944335938,-33.59664916992188
241112,0.3054046630859375,0.2270965576171875,-0.21575927734375,1.256887912750244,-0.1257424801588058,0.7680966854095459,34.49342346191406,94.46517944335938,-33.59664916992188
241113,0.220703125,0.0803375244140625,-0.1986846923828125,0.8158665895462036,-0.4218021035194397,0.548728346824646,35.03074645996094,94.136962890625,-34.36312866210938
241114,0.1946563720703125,-0.0199737548828125,-0.1985321044921875,0.6110945343971252,-0.7045978307723999,0.4586764872074127,35.27459716796875,93.97474670410156,-34.62393188476562
241115,0.174713134765625,-0.10906982421875,-0.1712646484375,0.4821719825267792,-0.949066698551178,0.4137031733989716,35.42683410644531,93.87147521972656,-34.81486511230469
241116,0.174713134765625,-0.10906982421875,-0.1712646484375,0.4821719825267792,-0.949066698551178,0.4137031733989716,35.42683410644531,93.87147521972656,-34.81486511230469
241117,0.148406982421875,-0.1883544921875,-0.0543060302734375,0.5272161364555359,-1.016461491584778,0.379860520362854,35.48077392578125,94.0045928955078,-34.81494140625
241118,0.1422119140625,-0.1936492919921875,-0.025726318359375,0.6391613483428955,-0.9252740144729614,0.3614389002323151,35.53205871582031,93.90779113769533,-34.59051513671875
241119,0.1372528076171875,-0.1915435791015625,-0.0470428466796875,0.7530481815338135,-0.8867316842079163,0.3466753959655762,35.51777648925781,93.86856079101562,-34.42768859863281
241120,0.1372528076171875,-0.1915435791015625,-0.0470428466796875,0.7530481815338135,-0.8867316842079163,0.3466753959655762,35.51777648925781,93.86856079101562,-34.42768859863281
241121,0.1118927001953125,-0.2047119140625,-0.0692596435546875,0.8549417853355408,-1.028895497322083,0.2947067320346832,35.46083068847656,93.73942565917967,-34.30047607421875
241122,0.0964813232421875,-0.2213897705078125,-0.0618896484375,0.8048973083496094,-0.9881709814071656,0.2399476170539856,35.55462646484375,93.50164794921876,-34.22697448730469
241123,0.0811767578125,-0.2516937255859375,-0.0911407470703125,0.5288734436035156,-0.7177900671958923,0.0946205183863639,35.63369750976562,93.29150390625,-34.08721923828125
241124,0.0658721923828125,-0.279541015625,-0.1505279541015625,0.5288734436035156,-0.7177900671958923,0.0946205183863639,35.60182189941406,93.14039611816406,-33.929931640625
241125,0.0538330078125,-0.287689208984375,-0.1728973388671875,0.3678352832794189,-0.666109025478363,0.0167728550732135,35.55935668945312,93.1873779296875,-34.10789489746094
241126,0.04638671875,-0.26483154296875,-0.1285400390625,0.1845195144414902,-0.6525543332099915,-0.0709040015935897,35.50630187988281,93.03887939453124,-34.10804748535156
241127,0.035980224609375,-0.2198333740234375,-0.065338134765625,0.0034961977507919,-0.6984725594520569,-0.1847972720861435,35.57876586914062,92.80955505371094,-33.99729919433594
241128,0.0382080078125,-0.1361083984375,0.001678466796875,-0.1862044930458069,-0.7566066980361938,-0.321399599313736,35.51139831542969,92.749755859375,-34.01031494140625
241129,0.05596923828125,0.105194091796875,0.0986175537109375,-0.3732087314128876,-0.7172175049781799,-0.4456035792827606,35.4222412109375,92.7282257080078,-33.8326416015625
241130,0.0565185546875,0.2256317138671875,0.2281036376953125,-0.5614883899688721,-0.4782190322875977,-0.5471235513687134,35.2462158203125,92.8326416015625,-33.52938842773438
241131,0.0297698974609375,0.2791900634765625,0.6143341064453125,-1.128019213676453,0.4710969626903534,-0.8595765233039856,34.52105712890625,92.96005249023438,-33.01896667480469
241132,0.0297698974609375,0.2791900634765625,0.6143341064453125,-1.128019213676453,0.4710969626903534,-0.8595765233039856,34.52105712890625,92.96005249023438,-33.01896667480469
241133,0.0132904052734375,0.4269256591796875,0.8590087890625,-1.459956049919128,1.336555361747742,-1.093890428543091,34.1529541015625,93.14297485351562,-32.69671630859375
241134,0.017425537109375,0.7161102294921875,1.09130859375,-1.927428722381592,2.311155319213867,-1.448694109916687,33.77630615234375,93.42874145507812,-32.44084167480469
241135,-0.027587890625,2.584014892578125,1.234115600585938,-1.805950999259949,2.457974195480347,-2.656079292297363,33.49217224121094,93.68399047851562,-32.43257141113281
241136,-0.027587890625,2.584014892578125,1.234115600585938,-1.805950999259949,2.457974195480347,-2.656079292297363,33.49217224121094,93.68399047851562,-32.43257141113281
241137,-0.544952392578125,7.408645629882812,1.407608032226562,-1.484321355819702,0.2257439196109772,-1.639169812202454,32.72908020019531,94.60481262207033,-33.35005187988281
241138,-1.406951904296875,7.464996337890625,1.539321899414062,-0.6633662581443787,-1.751281976699829,-1.342994570732117,32.29640197753906,94.8803253173828,-33.76832580566406
241139,-1.156707763671875,5.131805419921875,1.075759887695312,-0.0825574621558189,-2.792661428451538,-1.909180164337158,31.98556518554688,94.92086791992188,-33.81340026855469
241140,-0.3634033203125,2.696609497070312,0.4410400390625,-0.2803967595100403,-3.977124691009521,-1.9394291639328,31.44874572753906,94.7561492919922,-33.37155151367188
241141,-0.1817626953125,1.612930297851562,0.2914276123046875,-0.8102470636367798,-4.266503810882568,-1.814889430999756,30.44853210449219,94.35336303710938,-32.35235595703125
241142,-0.20751953125,1.194366455078125,0.042022705078125,-1.542625665664673,-2.473562717437744,-1.371028900146484,29.11799621582031,93.85858154296876,-31.17474365234375
241143,0.5549774169921875,1.483718872070312,-2.660690307617188,-1.628233551979065,-1.109200477600098,-0.248209536075592,27.73910522460938,93.23249816894533,-29.97714233398438
241144,0.5549774169921875,1.483718872070312,-2.660690307617188,-1.628233551979065,-1.109200477600098,-0.248209536075592,27.73910522460938,93.23249816894533,-29.97714233398438
241145,0.13446044921875,2.125350952148438,-0.0167236328125,3.132636070251465,-1.558272480964661,1.034149885177612,26.03665161132812,92.7694854736328,-27.693115234375
241146,0.10247802734375,2.037643432617188,0.1327667236328125,3.278858423233032,-0.5193893909454346,0.9586759209632874,25.8861083984375,92.81434631347656,-27.11064147949219
241147,0.1292724609375,1.736618041992188,-0.007415771484375,1.771539807319641,-0.3200975656509399,0.981109857559204,26.15495300292969,92.66217041015624,-27.44935607910156
241148,0.1292724609375,1.736618041992188,-0.007415771484375,1.771539807319641,-0.3200975656509399,0.981109857559204,26.15495300292969,92.66217041015624,-27.44935607910156
241149,0.1464996337890625,1.055984497070312,-0.2525482177734375,1.388535737991333,-0.7528567314147949,1.09809136390686,27.05946350097656,91.97769165039062,-29.49043273925781
241150,0.1273040771484375,0.829010009765625,-0.2767791748046875,1.407082200050354,-1.267752289772034,1.19526743888855,27.54289245605469,91.6719207763672,-30.11819458007812
241151,0.1259613037109375,0.65789794921875,-0.2121734619140625,2.017203092575073,-1.761049628257751,1.162948131561279,27.90602111816406,91.61700439453124,-30.50822448730469
241152,0.1569671630859375,0.442352294921875,-0.086273193359375,2.017203092575073,-1.761049628257751,1.162948131561279,28.24867248535156,91.55361938476562,-30.66883850097656
241153,0.1597747802734375,0.2003631591796875,0.004486083984375,2.294503688812256,-1.465899229049683,1.134734034538269,28.34257507324219,91.72653198242188,-30.8551025390625
241154,0.1192169189453125,-0.021820068359375,0.0759429931640625,2.372944116592407,-0.7878285646438599,1.095190644264221,28.49618530273438,91.68295288085938,-31.12094116210938
241155,0.0489044189453125,-0.183868408203125,0.11151123046875,2.208314895629883,0.4849749505519867,1.042443037033081,28.54660034179688,91.68260192871094,-31.50900268554688
241156,0.011474609375,-0.2567138671875,-0.0622100830078125,1.865028738975525,1.73761510848999,0.9519852995872498,28.77250671386719,91.547607421875,-32.08283996582031
241157,0.0319671630859375,-0.355133056640625,-0.624176025390625,1.383400797843933,1.946769118309021,0.8879415988922119,29.15837097167969,91.4408721923828,-32.83938598632812
241158,0.0237884521484375,-0.4144287109375,-0.9654083251953124,0.6372318863868713,0.5644159913063049,0.8931959867477417,29.70988464355469,91.3400421142578,-33.70919799804688
241159,-0.019287109375,-0.2579193115234375,-0.3697052001953125,-0.0715253129601478,-0.5857521295547485,0.7417846322059631,30.45864868164062,91.3745574951172,-34.43424987792969
241160,-0.0415191650390625,-0.167510986328125,0.0877685546875,-0.0715253129601478,-0.5857521295547485,0.7417846322059631,31.07505798339844,91.36827087402344,-34.65599060058594
241161,-0.0482025146484375,-0.1795654296875,0.204925537109375,-0.0436345636844635,-0.200014054775238,0.6296365261077881,31.52073669433594,91.6116943359375,-34.36326599121094
241162,-0.053558349609375,-0.210906982421875,0.1897430419921875,0.1008113026618958,0.3152666091918945,0.5339659452438354,32.07305908203125,91.90657043457033,-33.79838562011719
241163,-0.0565338134765625,-0.29302978515625,-0.0621185302734375,0.47565096616745,0.1048667579889297,0.4710420966148376,32.67514038085938,92.11216735839844,-33.18690490722656
241164,-0.0565338134765625,-0.29302978515625,-0.0621185302734375,0.47565096616745,0.1048667579889297,0.4710420966148376,32.67514038085938,92.11216735839844,-33.18690490722656
241165,-0.0443115234375,-0.5171051025390625,-0.4570770263671875,0.5730260014533997,-0.5898076295852661,0.478681892156601,34.38714599609375,91.8091278076172,-31.70780944824219
241166,-0.039276123046875,-0.4311676025390625,-0.07867431640625,0.4999933242797852,-0.5811627507209778,0.3925209045410156,35.10389709472656,91.27316284179688,-31.17453002929688
241167,-0.031280517578125,-0.337127685546875,0.125030517578125,0.2490337938070297,-0.1955173015594482,0.2658596336841583,35.78346252441406,90.43771362304688,-30.78506469726562
241168,-0.031280517578125,-0.337127685546875,0.125030517578125,0.2490337938070297,-0.1955173015594482,0.2658596336841583,35.78346252441406,90.43771362304688,-30.78506469726562
241169,-0.024749755859375,-0.3127899169921875,0.176513671875,-0.5917251110076904,0.6808094382286072,0.0489406436681747,36.15638732910156,89.52210998535156,-30.67839050292969
241170,-0.0234832763671875,-0.319000244140625,0.094879150390625,-0.9869920015335084,0.8683587908744812,-0.0208469592034816,35.90818786621094,87.88113403320312,-30.75498962402344
241171,-0.03564453125,-0.2911376953125,0.0136871337890625,-1.28270697593689,0.7853757739067078,-0.0785675123333931,35.55160522460938,87.42312622070312,-30.75276184082031
241172,-0.03564453125,-0.2911376953125,0.0136871337890625,-1.28270697593689,0.7853757739067078,-0.0785675123333931,35.55160522460938,87.42312622070312,-30.75276184082031
241173,-0.138427734375,-0.0968170166015625,-0.1605224609375,-1.444157719612122,-0.778322160243988,-0.1480709612369537,34.54954528808594,87.25611877441406,-30.91007995605469
241174,-0.09808349609375,0.0992279052734375,-0.17144775390625,-1.444157719612122,-0.778322160243988,-0.1480709612369537,34.06561279296875,87.39894104003906,-30.63063049316406
241175,-0.0467681884765625,0.2137603759765625,0.088134765625,-1.580320596694946,-1.918950319290161,-0.395661324262619,33.74661254882812,88.08909606933594,-29.72801208496094
241176,-0.0467681884765625,0.2137603759765625,0.088134765625,-1.580320596694946,-1.918950319290161,-0.395661324262619,33.74661254882812,88.08909606933594,-29.72801208496094
241177,-0.03997802734375,0.23382568359375,0.33135986328125,-1.635037064552307,-1.873993754386902,-0.5188146829605103,33.62464904785156,88.42987060546875,-28.83993530273438
241178,-0.031005859375,0.246917724609375,0.50042724609375,-1.700352430343628,-1.361697196960449,-0.6167439222335815,33.5267333984375,88.82850646972656,-27.74664306640625
241179,-0.0201873779296875,0.28912353515625,0.5981903076171875,-2.030782461166382,-0.427646666765213,-0.847963273525238,33.6087646484375,89.5008544921875,-26.44410705566406
241180,-0.0201873779296875,0.28912353515625,0.5981903076171875,-2.030782461166382,-0.427646666765213,-0.847963273525238,33.6087646484375,89.5008544921875,-26.44410705566406
241181,-0.0181427001953125,0.5001220703125,0.875457763671875,-2.253639936447144,-0.1338187903165817,-1.010836601257324,33.33309936523438,91.83457946777344,-24.25770568847656
241182,0.00042724609375,1.090713500976562,1.215499877929688,-2.452002763748169,0.0896768867969512,-1.266402363777161,32.49514770507812,93.31800842285156,-24.06642150878906
241183,0.1785888671875,3.990982055664062,1.39715576171875,-2.50514554977417,0.0315946787595748,-1.114151835441589,31.31843566894531,94.32789611816406,-24.423583984375
241184,0.1785888671875,3.990982055664062,1.39715576171875,-2.50514554977417,0.0315946787595748,-1.114151835441589,31.31843566894531,94.32789611816406,-24.423583984375
241185,-0.854522705078125,8.055068969726562,2.446243286132812,-2.330036163330078,0.8384893536567688,2.378585577011108,30.03004455566406,95.4761199951172,-25.96690368652344
241186,-0.821685791015625,7.343887329101562,1.2520751953125,-0.8163771033287048,2.66724157333374,0.2362277060747147,30.38359069824219,95.97227478027344,-26.40452575683594
241187,-0.190155029296875,3.738983154296875,-0.873016357421875,-0.6303931474685669,1.156496047973633,-1.511994242668152,31.36418151855469,96.54664611816406,-25.84942626953125
241188,-0.190155029296875,3.738983154296875,-0.873016357421875,-0.6303931474685669,1.156496047973633,-1.511994242668152,31.36418151855469,96.54664611816406,-25.84942626953125
241189,0.42706298828125,0.5272369384765625,-0.7430877685546875,-1.850515842437744,-1.878289461135864,-0.4114759564399719,31.69731140136719,96.710205078125,-24.26473999023438
241190,0.6163177490234375,0.9304351806640624,-0.4277191162109375,-0.1451132446527481,0.6162946224212646,0.482300877571106,30.7174072265625,96.78909301757812,-23.39994812011719
241191,0.41650390625,1.68695068359375,-0.3573150634765625,2.215685367584229,-0.7570445537567139,0.9087746739387512,29.70794677734375,96.60220336914062,-21.10792541503906
241192,0.41650390625,1.68695068359375,-0.3573150634765625,2.215685367584229,-0.7570445537567139,0.9087746739387512,29.70794677734375,96.60220336914062,-21.10792541503906
241193,0.3188629150390625,1.808059692382812,-0.003448486328125,1.731757283210754,-1.117181897163391,0.8228640556335449,30.61076354980469,96.30410766601562,-22.17153930664062
241194,0.335693359375,1.561264038085938,0.1826629638671875,0.983363151550293,-0.952052116394043,0.7630323767662048,30.94088745117188,96.11369323730467,-23.01335144042969
241195,0.32061767578125,1.25103759765625,0.1883697509765625,0.5087623000144958,-0.6216661930084229,0.759283185005188,31.13214111328125,96.13104248046876,-23.45785522460938
241196,0.322174072265625,0.935638427734375,-0.057891845703125,0.4035796821117401,-0.7139015793800354,0.8199063539505005,31.49105834960938,96.16488647460938,-23.501220703125
241197,0.3154296875,0.6575775146484375,-0.3200531005859375,0.545430064201355,-1.288689494132996,0.8954495787620544,31.81854248046875,96.2760772705078,-23.56838989257812
241198,0.2811279296875,0.4220123291015625,-0.445587158203125,0.8029510378837585,-1.997843742370605,0.945401132106781,32.07977294921875,96.25914001464844,-23.31776428222656
241199,0.2269439697265625,0.2322540283203125,-0.4268798828125,1.090090990066528,-2.448480129241943,0.941295862197876,32.355712890625,96.34547424316406,-23.259521484375
241200,0.2269439697265625,0.2322540283203125,-0.4268798828125,1.090090990066528,-2.448480129241943,0.941295862197876,32.355712890625,96.34547424316406,-23.259521484375
241201,0.0608062744140625,-0.041107177734375,-0.0966796875,1.230571866035461,-1.533143162727356,0.653559684753418,32.65629577636719,96.54454040527344,-23.11280822753906
241202,0.0126190185546875,-0.1159515380859375,-0.037628173828125,1.01287841796875,-0.6396896839141846,0.4806835353374481,32.8916015625,96.52978515625,-23.14689636230469
241203,-0.00030517578125,-0.08795166015625,0.02459716796875,0.8272111415863037,-0.1595640927553177,0.340783953666687,33.0810546875,96.48619079589844,-23.42408752441406
241204,-0.00030517578125,-0.08795166015625,0.02459716796875,0.8272111415863037,-0.1595640927553177,0.340783953666687,33.0810546875,96.48619079589844,-23.42408752441406
241205,0.00396728515625,-0.08526611328125,0.0882415771484375,0.613426923751831,0.1094300895929337,0.104505367577076,33.56388854980469,96.34373474121094,-23.96125793457031
241206,-0.002349853515625,-0.110198974609375,-0.00042724609375,0.5645030736923218,0.0070909326896071,0.0174775272607803,33.82568359375,96.30935668945312,-24.24197387695312
241207,0.0038299560546875,-0.16778564453125,-0.153900146484375,0.5395870804786682,-0.916565477848053,-0.0409535579383373,33.9443359375,96.2587432861328,-24.51922607421875
241208,0.0038299560546875,-0.16778564453125,-0.153900146484375,0.5395870804786682,-0.916565477848053,-0.0409535579383373,33.9443359375,96.2587432861328,-24.51922607421875
241209,0.0563812255859375,-0.2300567626953125,-0.2049560546875,0.6024107336997986,-1.315235614776611,-0.0389987975358963,33.99162292480469,96.21205139160156,-24.84066772460938
241210,0.08502197265625,-0.2201080322265625,-0.114044189453125,0.6875725388526917,-1.425797820091248,-0.0501585081219673,33.86915588378906,96.1304168701172,-24.82145690917969
241211,0.1006622314453125,-0.1927947998046875,-0.01263427734375,0.7442318201065063,-1.314584732055664,-0.0809449180960655,33.60960388183594,96.29981994628906,-24.95327758789062
241212,0.1067657470703125,-0.1533355712890625,0.0918731689453125,0.7282261848449707,-1.069563865661621,-0.1342978924512863,33.47445678710938,96.2913055419922,-25.07600402832031
241213,0.0982818603515625,-0.108734130859375,0.1689300537109375,0.6296620965003967,-0.7592445611953735,-0.1959940046072006,33.21623229980469,96.32513427734376,-25.35516357421875
241214,0.0823822021484375,-0.0815887451171875,0.187103271484375,0.4616424739360809,-0.4391326308250427,-0.2471421509981155,33.07257080078125,96.255615234375,-25.34455871582031
241215,0.064971923828125,-0.0667572021484375,0.1702728271484375,0.2698354721069336,-0.1663389056921005,-0.2905663251876831,32.88343811035156,96.07682800292967,-25.37478637695312
241216,0.064971923828125,-0.0667572021484375,0.1702728271484375,0.2698354721069336,-0.1663389056921005,-0.2905663251876831,32.88343811035156,96.07682800292967,-25.37478637695312
241217,0.0506134033203125,-0.03955078125,0.1279754638671875,-0.1112447679042816,0.2184958606958389,-0.3403184413909912,32.82330322265625,95.93826293945312,-25.28097534179688
241218,0.0481414794921875,-0.0231781005859375,0.094879150390625,-0.2875042259693146,0.2512743175029755,-0.3522438108921051,32.77720642089844,95.86090087890624,-25.09471130371094
241219,0.0437469482421875,0.0057830810546875,0.0586700439453125,-0.4288453757762909,0.1421629935503006,-0.3775371611118317,32.70637512207031,95.94326782226562,-24.90476989746094
241220,0.0437469482421875,0.0057830810546875,0.0586700439453125,-0.4288453757762909,0.1421629935503006,-0.3775371611118317,32.70637512207031,95.94326782226562,-24.90476989746094
241221,-0.0014801025390625,0.0848846435546875,0.08367919921875,-0.6198267936706543,-0.4221131503582001,-0.4705464839935303,32.62498474121094,96.03923034667967,-24.49078369140625
241222,-0.0289154052734375,0.1251373291015625,0.148193359375,-0.7418376207351685,-0.7645142078399658,-0.5410462021827698,32.44766235351562,96.2297821044922,-24.40347290039062
241223,-0.067047119140625,0.2304229736328125,0.2760162353515625,-0.9206745028495787,-1.111887335777283,-0.6476938128471375,32.18879699707031,96.22134399414062,-24.01828002929688
241224,-0.067047119140625,0.2304229736328125,0.2760162353515625,-0.9206745028495787,-1.111887335777283,-0.6476938128471375,32.18879699707031,96.22134399414062,-24.01828002929688
241225,-0.3123779296875,1.979263305664062,0.90509033203125,-1.185138344764709,-0.650862455368042,-2.008403778076172,31.38798522949219,96.30647277832033,-23.08573913574219
241226,-0.410430908203125,2.765228271484375,1.056259155273438,-1.125639081001282,-0.015272962860763,-2.787621974945068,30.78028869628906,96.26995849609376,-22.6016845703125
241227,-0.0614166259765625,5.332046508789062,1.046142578125,-0.7386682033538818,-0.3890020847320557,-1.770904660224915,28.62040710449219,95.91946411132812,-21.57823181152344
241228,-0.0614166259765625,5.332046508789062,1.046142578125,-0.7386682033538818,-0.3890020847320557,-1.770904660224915,28.62040710449219,95.91946411132812,-21.57823181152344
241229,-0.515289306640625,6.951644897460938,1.025360107421875,0.0150039829313755,-0.4357210993766785,0.7540769577026367,27.52426147460938,95.78692626953124,-21.30085754394531
241230,-0.6793670654296875,4.872543334960938,0.514190673828125,1.113889455795288,0.0722169354557991,0.2446677982807159,27.30296325683594,95.8515625,-21.29647827148438
241231,-0.0394134521484375,2.224014282226562,-0.17938232421875,1.552971243858337,-0.3723056614398956,-0.0581517182290554,27.48388671875,95.89492797851562,-21.27420043945312
241232,-0.0394134521484375,2.224014282226562,-0.17938232421875,1.552971243858337,-0.3723056614398956,-0.0581517182290554,27.48388671875,95.89492797851562,-21.27420043945312
241233,0.1699981689453125,1.996353149414062,-0.6478118896484375,-0.1794698983430862,-4.794870853424072,-0.8815515637397766,27.68736267089844,94.86390686035156,-21.460693359375
241234,0.362823486328125,2.780075073242188,-0.448944091796875,-0.8761469721794128,-5.347708225250244,-0.775795042514801,27.135986328125,94.34405517578124,-21.03883361816406
241235,0.7653350830078125,3.196395874023438,-0.7994842529296875,-1.094786643981934,-3.039482831954956,-0.1076460331678391,26.28451538085938,93.90968322753906,-20.00697326660156
241236,0.7653350830078125,3.196395874023438,-0.7994842529296875,-1.094786643981934,-3.039482831954956,-0.1076460331678391,26.28451538085938,93.90968322753906,-20.00697326660156
241237,0.96612548828125,2.704940795898438,-2.016036987304688,0.3114353716373444,-1.252200722694397,0.4762613475322723,25.60484313964844,93.75491333007812,-18.676513671875
241238,0.4130096435546875,1.720672607421875,-0.0036163330078125,2.860658645629883,0.0091293165460228,0.5645278096199036,25.59071350097656,93.63980102539062,-17.26710510253906
241239,0.31219482421875,1.411407470703125,-0.1572265625,2.650700330734253,0.1702239364385605,0.6973508596420288,25.93257141113281,93.54988098144533,-17.93234252929688
241240,0.31219482421875,1.411407470703125,-0.1572265625,2.650700330734253,0.1702239364385605,0.6973508596420288,25.93257141113281,93.54988098144533,-17.93234252929688
241241,0.2613677978515625,1.016891479492188,-0.20404052734375,1.975566148757935,-0.8547130227088928,0.8167073726654053,26.91612243652344,93.13002014160156,-19.98324584960938
241242,0.2671661376953125,0.749237060546875,-0.21478271484375,1.837758541107178,-1.248188495635986,0.9246902465820312,27.29400634765625,93.0495147705078,-20.65473937988281
241243,0.2263336181640625,0.26922607421875,-0.14202880859375,1.910858511924744,-1.56404435634613,1.11845600605011,27.86431884765625,93.30656433105467,-21.73979187011719
241244,0.2263336181640625,0.26922607421875,-0.14202880859375,1.910858511924744,-1.56404435634613,1.11845600605011,27.86431884765625,93.30656433105467,-21.73979187011719
241245,0.1578216552734375,0.0599212646484375,-0.07330322265625,1.966254949569702,-1.240090012550354,1.100318074226379,28.19451904296875,93.45521545410156,-22.03125
241246,0.0634918212890625,-0.106170654296875,-0.0472259521484375,1.930540323257446,-0.6344355344772339,1.020729660987854,28.42510986328125,93.50921630859376,-22.27980041503906
241247,-0.023895263671875,-0.2006988525390625,-0.04620361328125,1.790717720985413,-0.0013728595804423,0.8878086805343628,28.77011108398438,93.6786651611328,-22.73991394042969
241248,-0.023895263671875,-0.2006988525390625,-0.04620361328125,1.790717720985413,-0.0013728595804423,0.8878086805343628,28.77011108398438,93.6786651611328,-22.73991394042969
241249,-0.1018218994140625,-0.151092529296875,-0.0179901123046875,1.336510896682739,0.2617093622684479,0.5627320408821106,29.35786437988281,93.6947021484375,-23.8458251953125
241250,-0.153167724609375,-0.130401611328125,0.0482940673828125,1.072901606559753,0.1804224997758865,0.3400981724262238,29.58773803710938,93.86265563964844,-24.17774963378906
241251,-0.219940185546875,-0.1256256103515625,0.11590576171875,0.6396127343177795,0.6636666655540466,-0.2671856284141541,29.85317993164062,93.91549682617188,-24.48771667480469
241252,-0.3083038330078125,-0.129241943359375,0.1445465087890625,0.6396127343177795,0.6636666655540466,-0.2671856284141541,30.12867736816406,94.0197296142578,-24.80201721191406
241253,-0.462158203125,-0.1387786865234375,0.097320556640625,0.5244613885879517,1.227754831314087,-0.6927472949028015,30.31454467773438,94.17611694335938,-24.99299621582031
241254,-0.50146484375,-0.1962738037109375,-0.05377197265625,0.4913734495639801,1.536837339401245,-1.105792164802551,30.43069458007812,94.32000732421876,-25.07640075683594
241255,-0.3886566162109375,-0.2857208251953125,-0.2110137939453125,0.4950118660926819,1.319140076637268,-1.304324984550476,30.49691772460938,94.2372589111328,-25.03611755371094
241256,-0.3886566162109375,-0.2857208251953125,-0.2110137939453125,0.4950118660926819,1.319140076637268,-1.304324984550476,30.49691772460938,94.2372589111328,-25.03611755371094
241257,-0.2504119873046875,-0.48809814453125,-0.1276092529296875,0.2663837373256683,0.5335839986801147,-0.8444649577140808,30.20242309570312,93.82894897460938,-24.81700134277344
241258,-0.13336181640625,-0.3930816650390625,-0.0404815673828125,-0.024638233706355,0.5044602155685425,-0.5010260939598083,30.16976928710938,93.591064453125,-24.43002319335938
241259,-0.026519775390625,-0.2699737548828125,-0.0610809326171875,-0.07725590467453,0.1693703830242157,-0.3923864364624023,30.10414123535156,93.26530456542967,-23.87924194335938
241260,-0.026519775390625,-0.2699737548828125,-0.0610809326171875,-0.07725590467453,0.1693703830242157,-0.3923864364624023,30.10414123535156,93.26530456542967,-23.87924194335938
241261,0.040374755859375,-0.22186279296875,-0.043212890625,-0.0213739983737468,-0.9304573535919188,-0.4857070446014404,30.48524475097656,91.67071533203124,-23.04078674316406
241262,0.048980712890625,-0.222381591796875,-0.0024566650390625,-0.0954852402210235,-1.297811388969421,-0.545428991317749,30.43807983398438,90.79597473144533,-22.83857727050781
241263,0.053497314453125,-0.2227020263671875,0.0346221923828125,-0.2400328367948532,-1.519321918487549,-0.5909692645072937,30.29229736328125,90.04547119140625,-22.83238220214844
241264,0.053497314453125,-0.2227020263671875,0.0346221923828125,-0.2400328367948532,-1.519321918487549,-0.5909692645072937,30.29229736328125,90.04547119140625,-22.83238220214844
241265,0.0535736083984375,-0.2171478271484375,0.070556640625,-0.7697936296463013,-1.888801693916321,-0.6502541899681091,29.28579711914062,88.50656127929688,-22.51316833496094
241266,0.0531005859375,-0.2119598388671875,0.1121673583984375,-1.169315457344055,-2.077712297439575,-0.6833503246307373,28.63792419433594,88.09197998046875,-22.21923828125
241267,0.0373687744140625,-0.1810302734375,0.1967620849609375,-1.63828182220459,-2.13740062713623,-0.7118765115737915,28.0621337890625,87.72537231445312,-21.54660034179688
241268,-0.011322021484375,0.01263427734375,0.2506561279296875,-2.063738584518433,-1.870640277862549,-0.664009153842926,27.49749755859375,87.73439025878906,-20.73835754394531
241269,-0.0113372802734375,0.0911102294921875,0.2634124755859375,-2.585062980651855,-0.6721006035804749,-0.6031662821769714,27.15570068359375,87.77438354492188,-19.48280334472656
241270,-0.0119476318359375,0.1079559326171875,0.3098602294921875,-2.585062980651855,-0.6721006035804749,-0.6031662821769714,27.00566101074219,87.86935424804688,-18.06599426269531
241271,-0.0177154541015625,0.1513519287109375,0.37261962890625,-2.735023021697998,-0.1024297028779984,-0.6463398933410645,26.95306396484375,88.38636779785156,-16.43330383300781
241272,-0.0177154541015625,0.1513519287109375,0.37261962890625,-2.735023021697998,-0.1024297028779984,-0.6463398933410645,26.95306396484375,88.38636779785156,-16.43330383300781
241273,-0.0943603515625,0.3616943359375,0.58197021484375,-2.696345090866089,0.3101051449775696,-0.7576919794082642,25.85787963867188,90.54362487792967,-14.20840454101562
241274,-0.227874755859375,1.067428588867188,0.7440185546875,-2.554630041122437,-0.6710060834884644,-0.6561951637268066,24.65780639648438,91.5106201171875,-14.29521179199219
241275,-0.6783905029296875,5.040634155273438,1.2119140625,-2.202368974685669,-1.289095878601074,0.171306237578392,23.75289916992188,91.9486846923828,-15.10700988769531
241276,-1.2926025390625,8.175201416015625,1.5389404296875,-1.897748589515686,-0.791924238204956,2.461857080459595,23.40876770019531,92.31544494628906,-15.94447326660156
241277,-1.936630249023438,8.00457763671875,1.282211303710938,-1.391832709312439,0.0607038289308548,1.571710824966431,23.78160095214844,92.99935913085938,-16.861083984375
241278,-1.068374633789062,6.6754150390625,-0.2092132568359375,-0.7404048442840576,-0.0301895942538976,-1.125139713287354,24.74406433105469,93.5729522705078,-16.841796875
241279,0.11962890625,2.513137817382812,-1.982498168945312,-0.3447126448154449,-0.6575131416320801,-0.2545369565486908,25.38108825683594,93.69403076171876,-15.83538818359375
241280,0.11962890625,2.513137817382812,-1.982498168945312,-0.3447126448154449,-0.6575131416320801,-0.2545369565486908,25.38108825683594,93.69403076171876,-15.83538818359375
241281,0.133148193359375,1.255859375,-0.385589599609375,1.718914151191711,-2.15444803237915,2.02328085899353,24.73544311523438,93.406005859375,-14.21652221679688
241282,0.2092437744140625,1.105087280273438,0.1483154296875,1.887515187263489,-0.1768845021724701,1.633149981498718,24.87077331542969,93.54328918457033,-13.7139892578125
241283,0.3038177490234375,1.230026245117188,-0.2022552490234375,1.315100312232971,0.6623814105987549,1.409605264663696,25.41313171386719,93.91342163085938,-13.40187072753906
241284,0.2960357666015625,1.625091552734375,-0.47802734375,0.631883978843689,0.1246665641665459,1.158126711845398,26.05867004394531,94.294189453125,-13.672119140625
241285,0.250335693359375,1.792526245117188,-0.340545654296875,0.2954356372356415,-0.5593245625495911,0.8550280928611755,26.63671875,94.64173889160156,-14.31802368164062
241286,0.1723175048828125,1.611251831054688,-0.1167144775390625,0.4159418046474457,-0.7384887337684631,0.6645489931106567,27.23641967773438,94.78488159179688,-14.72775268554688
241287,0.09869384765625,1.281570434570312,-0.111053466796875,1.113890051841736,-0.7528924345970154,0.6722883582115173,27.77577209472656,94.67144775390624,-14.99269104003906
241288,0.0875701904296875,1.022811889648438,-0.202911376953125,1.113890051841736,-0.7528924345970154,0.6722883582115173,28.15525817871094,94.70028686523438,-14.85679626464844
241289,0.0672149658203125,0.8087615966796875,-0.2413330078125,1.370063424110413,-0.8337246775627136,0.7078967094421387,28.55308532714844,94.75558471679688,-14.97113037109375
241290,0.0223388671875,0.6392822265625,-0.1960906982421875,1.455677151679993,-0.797531008720398,0.7132232785224915,28.89787292480469,94.8525390625,-15.12600708007812
241291,-0.03924560546875,0.3213043212890625,-0.1136016845703125,1.339487195014954,-0.6411839723587036,0.6273017525672913,29.51661682128906,95.08998107910156,-15.68006896972656
241292,-0.03924560546875,0.3213043212890625,-0.1136016845703125,1.339487195014954,-0.6411839723587036,0.6273017525672913,29.51661682128906,95.08998107910156,-15.68006896972656
241293,-0.050872802734375,0.17498779296875,-0.0689697265625,1.242842435836792,-0.6039713621139526,0.5513161420822144,29.71577453613281,95.30491638183594,-16.17251586914062
241294,-0.0542144775390625,0.04180908203125,-0.0225677490234375,1.124165296554565,-0.540949821472168,0.4718109369277954,30.08419799804688,95.51268005371094,-16.712646484375
241295,-0.053466796875,-0.071502685546875,0.0254058837890625,0.9888402223587036,-0.4386023879051208,0.4041474759578705,30.40098571777344,95.4931182861328,-17.03996276855469
241296,-0.053466796875,-0.071502685546875,0.0254058837890625,0.9888402223587036,-0.4386023879051208,0.4041474759578705,30.40098571777344,95.4931182861328,-17.03996276855469
241297,-0.0379638671875,-0.124969482421875,0.0687103271484375,0.8110920786857605,-0.2037576586008072,0.331367552280426,30.7840576171875,95.42398071289062,-17.49513244628906
241298,-0.02374267578125,-0.1251983642578125,0.019989013671875,0.7965258955955505,-0.1284866034984589,0.3014985918998718,30.91435241699219,95.5731964111328,-17.69622802734375
241299,-0.0089569091796875,-0.1341400146484375,-0.0791168212890625,0.8814125657081604,-0.5013733506202698,0.2686767280101776,31.10726928710938,95.69729614257812,-17.82707214355469
241300,-0.0089569091796875,-0.1341400146484375,-0.0791168212890625,0.8814125657081604,-0.5013733506202698,0.2686767280101776,31.10726928710938,95.69729614257812,-17.82707214355469
241301,0.033538818359375,-0.1751708984375,-0.186798095703125,0.9202560782432556,-0.8883548974990845,0.2751849591732025,31.34716796875,95.8197784423828,-18.149169921875
241302,0.0531463623046875,-0.171630859375,-0.1269683837890625,0.8952029347419739,-1.224759578704834,0.2769722044467926,31.4949951171875,95.8406982421875,-18.10255432128906
241303,0.0621490478515625,-0.15673828125,-0.001434326171875,0.7954305410385132,-1.342326641082764,0.2401580065488815,31.66360473632812,95.87660217285156,-17.97184753417969
241304,0.0621490478515625,-0.15673828125,-0.001434326171875,0.7954305410385132,-1.342326641082764,0.2401580065488815,31.66360473632812,95.87660217285156,-17.97184753417969
241305,0.06695556640625,-0.15081787109375,0.1012115478515625,0.6736183762550354,-1.214069128036499,0.1743121445178986,31.84774780273438,95.84390258789062,-17.83158874511719
241306,0.0741119384765625,-0.1590423583984375,0.141082763671875,0.397490918636322,-0.6451377272605896,0.0176485013216733,32.05619812011719,95.8239288330078,-17.57437133789062
241307,0.0897979736328125,-0.1917572021484375,0.0684356689453125,0.2434033304452896,-0.4718309044837952,-0.0551250390708446,32.55117797851562,95.57623291015624,-16.55735778808594
241308,0.0897979736328125,-0.1917572021484375,0.0684356689453125,0.2434033304452896,-0.4718309044837952,-0.0551250390708446,32.55117797851562,95.57623291015624,-16.55735778808594
241309,0.1174163818359375,-0.2342681884765625,-0.134429931640625,-0.1822337210178375,-0.8080395460128784,-0.263496071100235,32.93095397949219,94.48646545410156,-15.68614196777344
241310,0.1302337646484375,-0.2516326904296875,-0.207733154296875,-0.4105888605117798,-1.276609420776367,-0.3352879881858826,32.92549133300781,94.1592254638672,-15.26518249511719
241311,0.15423583984375,-0.28955078125,-0.2570953369140625,-0.6261376738548279,-1.791124105453491,-0.3728106021881104,32.72520446777344,93.6571044921875,-14.6029052734375
241312,0.15423583984375,-0.28955078125,-0.2570953369140625,-0.6261376738548279,-1.791124105453491,-0.3728106021881104,32.72520446777344,93.6571044921875,-14.6029052734375
241313,0.245086669921875,-0.1849517822265625,-0.2175445556640625,-0.861266553401947,-2.524248123168945,-0.4458837509155273,32.08810424804688,93.174560546875,-14.05567932128906
241314,0.1602935791015625,0.1999969482421875,0.0792999267578125,-0.9312980771064758,-1.92473304271698,-0.6561568379402161,31.74835205078125,92.98851013183594,-13.40499877929688
241315,0.035614013671875,0.2711334228515625,0.3707427978515625,-1.005549192428589,-0.7701672911643982,-0.8124374747276306,31.33026123046875,92.98942565917967,-12.61953735351562
241316,0.035614013671875,0.2711334228515625,0.3707427978515625,-1.005549192428589,-0.7701672911643982,-0.8124374747276306,31.33026123046875,92.98942565917967,-12.61953735351562
241317,0.02337646484375,0.309295654296875,0.59771728515625,-1.534872889518738,1.162237524986267,-1.158932566642761,30.87577819824219,92.99049377441406,-11.05276489257812
241318,0.0036773681640625,0.452789306640625,0.67919921875,-2.030511617660522,1.550404191017151,-1.399412631988525,30.44856262207031,93.25041198730467,-10.36869812011719
241319,-0.0353240966796875,0.7389678955078125,0.754730224609375,-2.575589418411255,1.225667715072632,-1.67220413684845,29.9644775390625,93.535888671875,-9.9376220703125
241320,-0.0353240966796875,0.7389678955078125,0.754730224609375,-2.575589418411255,1.225667715072632,-1.67220413684845,29.9644775390625,93.535888671875,-9.9376220703125
241321,-0.072235107421875,6.742401123046875,0.9704742431640624,-3.063599348068237,-1.725849270820618,-2.504087209701538,27.88595581054688,93.94905090332033,-9.743362426757812
241322,-0.661712646484375,8.181732177734375,0.633270263671875,-2.357264518737793,-4.606118679046631,-1.60884964466095,26.85189819335938,94.13156127929688,-9.755615234375
241323,-1.752716064453125,7.927459716796875,1.247970581054688,-0.3363521695137024,-5.652931213378906,-2.644940853118896,25.99749755859375,94.1533203125,-9.893234252929688
241324,-1.752716064453125,7.927459716796875,1.247970581054688,-0.3363521695137024,-5.652931213378906,-2.644940853118896,25.99749755859375,94.1533203125,-9.893234252929688
241325,-0.458099365234375,1.41802978515625,-1.596725463867188,0.4053863883018494,3.485785961151123,-0.3289914727210999,25.26924133300781,93.77107238769533,-8.716094970703125
241326,0.0833282470703125,0.610595703125,-2.732391357421875,2.222983121871948,-0.1694609373807907,1.257405638694763,24.68392944335938,92.97340393066406,-7.967361450195312
241327,-0.0838775634765625,0.948272705078125,-0.7452545166015625,2.621742725372314,-0.9552338123321532,1.3758704662323,24.27981567382812,92.35507202148438,-8.093643188476562
241328,-0.0838775634765625,0.948272705078125,-0.7452545166015625,2.621742725372314,-0.9552338123321532,1.3758704662323,24.27981567382812,92.35507202148438,-8.093643188476562
241329,0.1479339599609375,1.133834838867188,-0.0619049072265625,2.260445117950439,-2.040977239608765,1.03708815574646,25.04867553710938,92.17935180664062,-9.080963134765623
241330,0.1986846923828125,1.075302124023438,0.1018524169921875,1.830673694610596,-2.090345859527588,0.8782863020896912,25.64743041992188,92.25379943847656,-9.459701538085938
241331,0.304290771484375,0.844024658203125,-0.040618896484375,1.287270545959473,-1.78249204158783,1.308688521385193,26.20724487304688,92.32102966308594,-9.530792236328123
241332,0.304290771484375,0.844024658203125,-0.040618896484375,1.287270545959473,-1.78249204158783,1.308688521385193,26.20724487304688,92.32102966308594,-9.530792236328123
241333,0.4554290771484375,0.3000335693359375,-0.7147979736328125,1.68406081199646,-1.781650543212891,1.824939131736755,27.09858703613281,92.61671447753906,-9.459060668945312
241334,0.319000244140625,0.3321380615234375,-0.382965087890625,2.097132921218872,-1.022366285324097,1.998486399650574,27.39462280273438,93.24714660644533,-9.91729736328125
241335,0.2579193115234375,0.3597259521484375,-0.1187591552734375,2.153708934783936,0.1736881732940674,1.81255567073822,27.97319030761719,93.75656127929688,-10.34945678710938
241336,0.2579193115234375,0.3597259521484375,-0.1187591552734375,2.153708934783936,0.1736881732940674,1.81255567073822,27.97319030761719,93.75656127929688,-10.34945678710938
241337,0.17327880859375,0.2402801513671875,-0.0341949462890625,1.597804188728333,0.8930354118347168,1.389317870140076,29.47508239746094,94.67330932617188,-11.16281127929688
241338,0.088958740234375,0.1698455810546875,0.0265350341796875,1.187652945518494,0.7759622931480408,1.165873646736145,30.20236206054688,94.84307861328124,-11.58380126953125
241339,0.015594482421875,0.0741424560546875,0.03125,0.7888994216918945,0.5405529737472534,0.9748938083648682,30.93856811523438,94.96932983398438,-12.09495544433594
241340,0.015594482421875,0.0741424560546875,0.03125,0.7888994216918945,0.5405529737472534,0.9748938083648682,30.93856811523438,94.96932983398438,-12.09495544433594
241341,-0.076904296875,-0.077728271484375,0.0847015380859375,0.2924007177352905,-0.032738771289587,0.6904828548431396,31.92098999023438,95.8039093017578,-14.27574157714844
241342,-0.0827484130859375,-0.10467529296875,0.154083251953125,0.2506082355976105,-0.0512703768908977,0.6146277189254761,32.42546081542969,96.00100708007812,-14.65940856933594
241343,-0.085296630859375,-0.1182403564453125,0.1251220703125,0.3211372792720795,-0.014256433583796,0.5711524486541748,32.87544250488281,96.18484497070312,-14.78132629394531
241344,-0.085296630859375,-0.1182403564453125,0.1251220703125,0.3211372792720795,-0.014256433583796,0.5711524486541748,32.87544250488281,96.18484497070312,-14.78132629394531
241345,-0.0842437744140625,-0.12286376953125,-0.02337646484375,0.558072030544281,-0.3108095526695251,0.5012924075126648,33.55509948730469,96.52935791015624,-14.99441528320312
241346,-0.0921630859375,-0.1211090087890625,-0.0052947998046875,0.6087093949317932,-0.5164415240287781,0.4363030195236206,33.86531066894531,96.61448669433594,-15.13101196289062
241347,-0.1055145263671875,-0.1226806640625,0.047027587890625,0.4327173233032227,-0.4314483404159546,0.188456729054451,34.26350402832031,96.62860107421876,-15.08383178710938
241348,-0.1055145263671875,-0.1226806640625,0.047027587890625,0.4327173233032227,-0.4314483404159546,0.188456729054451,34.26350402832031,96.62860107421876,-15.08383178710938
241349,-0.162994384765625,-0.14703369140625,0.10748291015625,0.227630227804184,-0.1590021699666977,0.0009632653673179,34.96109008789062,96.98471069335938,-15.38020324707031
241350,-0.162994384765625,-0.14703369140625,0.10748291015625,0.227630227804184,-0.1590021699666977,0.0009632653673179,34.96109008789062,96.98471069335938,-15.38020324707031
241351,-0.17578125,-0.174774169921875,0.085357666015625,-0.4643833935260773,0.7185469269752502,-0.5475656390190125,35.53208923339844,97.29904174804688,-15.03921508789062
241352,-0.110260009765625,-0.192047119140625,0.02703857421875,-0.4643833935260773,0.7185469269752502,-0.5475656390190125,36.02339172363281,97.63612365722656,-14.29034423828125
241353,-0.0736236572265625,-0.209716796875,-0.016510009765625,-0.6897826790809631,0.631507933139801,-0.58794766664505,36.23663330078125,97.58045959472656,-13.55577087402344
241354,-0.06640625,-0.22412109375,-0.047027587890625,-0.90012127161026,0.3874563872814178,-0.5917200446128845,36.32095336914062,97.1856689453125,-12.7969970703125
241355,-0.0791015625,-0.244842529296875,-0.0711822509765625,-1.102090835571289,0.0208592098206281,-0.5729197263717651,36.355712890625,96.70936584472656,-11.87779235839844
241356,-0.135986328125,-0.290252685546875,-0.090057373046875,-1.334508657455444,-0.3894572257995605,-0.5262566208839417,36.34927368164062,96.23878479003906,-10.80340576171875
241357,-0.2416839599609375,-0.3486785888671875,-0.1518402099609375,-1.564445734024048,-0.6790842413902283,-0.4111457169055939,36.26664733886719,95.74765014648438,-9.703140258789062
241358,-0.407318115234375,-0.282257080078125,-0.2873992919921875,-1.639244556427002,-0.7929524779319763,-0.351098358631134,36.24057006835938,95.43487548828124,-8.625656127929688
241359,-0.486602783203125,0.0676422119140625,-0.342254638671875,-1.47076952457428,-0.67926025390625,-0.373813271522522,36.16598510742188,95.46194458007812,-7.5714111328125
241360,-0.486602783203125,0.0676422119140625,-0.342254638671875,-1.47076952457428,-0.67926025390625,-0.373813271522522,36.16598510742188,95.46194458007812,-7.5714111328125
241361,-0.2926025390625,0.2789459228515625,-0.113555908203125,-1.272379279136658,-0.7074096202850342,-0.1964957416057587,35.63571166992188,95.45169067382812,-5.853759765625
241362,-0.2046966552734375,0.307281494140625,0.12371826171875,-1.486052989959717,-0.5708531141281128,-0.0903650522232055,35.23982238769531,95.7246551513672,-5.243698120117188
241363,-0.1373443603515625,0.357574462890625,0.3887176513671875,-1.878442525863647,-0.2332239300012589,-0.0555317029356956,34.6458740234375,96.02482604980467,-5.043014526367188
241364,-0.1373443603515625,0.357574462890625,0.3887176513671875,-1.878442525863647,-0.2332239300012589,-0.0555317029356956,34.6458740234375,96.02482604980467,-5.043014526367188
241365,-0.1512908935546875,0.569915771484375,0.77032470703125,-2.789833784103394,0.1424008160829544,-0.1996116489171982,33.163818359375,96.42823791503906,-5.127944946289062
241366,-0.26666259765625,1.199432373046875,0.987823486328125,-2.946036100387573,-0.1692050099372864,-0.357372522354126,32.54438781738281,96.18348693847656,-5.013519287109375
241367,-0.3560333251953125,4.5172119140625,1.318878173828125,-2.818174123764038,-0.0984551981091499,-0.1954302191734314,32.20404052734375,96.00531005859376,-4.961044311523438
241368,-0.3560333251953125,4.5172119140625,1.318878173828125,-2.818174123764038,-0.0984551981091499,-0.1954302191734314,32.20404052734375,96.00531005859376,-4.961044311523438
241369,-0.71844482421875,8.015243530273438,0.271148681640625,-1.227287650108337,-0.9669367671012878,0.9666869640350342,32.23652648925781,96.84478759765624,-5.303298950195312
241370,-0.215545654296875,6.41900634765625,-0.2539825439453125,0.121561586856842,-1.295647025108337,-0.7062447667121887,32.67355346679688,96.9915771484375,-4.611785888671875
241371,0.4569244384765625,2.145797729492188,-1.152435302734375,0.3887133896350861,1.092005491256714,-0.0118015315383672,32.80941772460938,96.7141571044922,-3.759506225585938
241372,0.4569244384765625,2.145797729492188,-1.152435302734375,0.3887133896350861,1.092005491256714,-0.0118015315383672,32.80941772460938,96.7141571044922,-3.759506225585938
241373,0.3877105712890625,0.9720306396484376,-0.7314910888671875,1.177302002906799,-0.8676296472549438,1.152457356452942,32.70726013183594,96.08189392089844,-3.052993774414062
241374,0.305084228515625,1.110427856445312,-0.125213623046875,1.359779357910156,-1.082274317741394,1.086349487304688,33.23081970214844,96.0832061767578,-3.23370361328125
241375,0.3152313232421875,1.295074462890625,-0.180999755859375,1.099979043006897,-1.249683022499084,0.9073027372360228,33.95167541503906,96.20321655273438,-3.83782958984375
241376,0.3095550537109375,1.433624267578125,-0.245086669921875,0.6354951858520508,-1.500754117965698,0.7247393131256104,34.62521362304688,96.2769775390625,-4.371139526367188
241377,0.3232879638671875,1.327407836914062,-0.189361572265625,0.3270276486873627,-1.567431926727295,0.6101731061935425,35.17874145507812,96.30142211914062,-4.633651733398438
241378,0.400848388671875,1.094100952148438,-0.155364990234375,0.3081130981445312,-1.442039608955383,0.5855204463005066,35.75065612792969,96.32540893554688,-4.423583984375
241379,0.4804229736328125,0.8345947265625,-0.20037841796875,0.5633832216262817,-1.222315073013306,0.6990656852722168,36.19723510742188,96.3413543701172,-4.505889892578125
241380,0.48065185546875,0.5969696044921875,-0.306854248046875,0.9642856121063232,-0.9817756414413452,0.9009321928024292,36.59385681152344,96.48634338378906,-4.594650268554688
241381,0.3639984130859375,0.4655303955078125,-0.33258056640625,1.324053883552551,-0.7835097312927246,1.022666335105896,37.14346313476562,96.73777770996094,-4.792434692382812
241382,0.1923370361328125,0.420806884765625,-0.2411346435546875,1.492828011512756,-0.7447686791419983,0.9857301712036132,37.67149353027344,97.017822265625,-5.010787963867188
241383,0.040435791015625,0.4127655029296875,-0.0305938720703125,1.479307174682617,-0.737454354763031,0.8550970554351807,38.14744567871094,97.35809326171876,-5.553680419921875
241384,0.040435791015625,0.4127655029296875,-0.0305938720703125,1.479307174682617,-0.737454354763031,0.8550970554351807,38.14744567871094,97.35809326171876,-5.553680419921875
241385,-0.1372528076171875,0.31463623046875,0.2602691650390625,1.037737965583801,-0.149156466126442,0.4407864511013031,39.199462890625,97.78115844726562,-6.479354858398438
241386,-0.194793701171875,0.2212677001953125,0.181060791015625,0.7412946224212646,0.060318998992443,0.2254123538732529,39.54739379882812,97.91184997558594,-6.822097778320312
241387,-0.2316741943359375,0.100128173828125,0.0430755615234375,0.5295764803886414,-0.053991861641407,0.0354511998593807,39.83308410644531,98.10206604003906,-7.308624267578125
241388,-0.2316741943359375,0.100128173828125,0.0430755615234375,0.5295764803886414,-0.053991861641407,0.0354511998593807,39.83308410644531,98.10206604003906,-7.308624267578125
241389,-0.2354736328125,-0.0986785888671875,0.0931549072265625,0.4799074828624725,-0.4275654554367065,-0.185468390583992,40.08746337890625,98.12091064453124,-8.080276489257812
241390,-0.2177734375,-0.1860504150390625,0.1216583251953125,0.5459094047546387,-0.3317244052886963,-0.2254608124494553,40.178955078125,98.1935577392578,-8.289291381835938
241391,-0.208038330078125,-0.2596282958984375,0.041748046875,0.5714927911758423,-0.200695812702179,-0.2065790146589279,40.0953369140625,98.28182983398438,-8.61639404296875
241392,-0.208038330078125,-0.2596282958984375,0.041748046875,0.5714927911758423,-0.200695812702179,-0.2065790146589279,40.0953369140625,98.28182983398438,-8.61639404296875
241393,-0.0988311767578125,-0.2855377197265625,-0.06787109375,0.4819991290569305,-0.1278378516435623,-0.0797100067138671,39.94523620605469,98.2325439453125,-8.93096923828125
241394,-0.0247039794921875,-0.232818603515625,0.0325927734375,0.4312555193901062,-0.0199473425745964,-0.0480732545256614,39.90364074707031,98.21707153320312,-9.042755126953123
241395,0.0178985595703125,-0.16741943359375,0.1475830078125,0.388529360294342,0.1969719231128693,-0.0650775358080864,39.79020690917969,98.43374633789062,-9.433609008789062
241396,0.0357666015625,-0.114349365234375,0.2075653076171875,0.3132407367229462,0.4639729857444763,-0.1234148815274239,39.74024963378906,98.4457550048828,-9.765533447265623
241397,0.0434417724609375,-0.086212158203125,0.1992645263671875,0.2069491893053055,0.7104511857032776,-0.1996140480041504,39.65737915039062,98.41860961914062,-9.897247314453123
241398,0.0503997802734375,-0.0777740478515625,0.1501922607421875,0.0605501644313335,0.8411881923675537,-0.2632390856742859,39.57353210449219,98.51638793945312,-9.935287475585938
241399,0.056243896484375,-0.076171875,0.1048126220703125,-0.0922750681638717,0.8137725591659546,-0.3181231021881104,39.43063354492188,98.519775390625,-10.06846618652344
241400,0.056243896484375,-0.076171875,0.1048126220703125,-0.0922750681638717,0.8137725591659546,-0.3181231021881104,39.43063354492188,98.519775390625,-10.06846618652344
241401,0.0614776611328125,-0.081634521484375,0.0484619140625,-0.4525429606437683,0.3198086321353912,-0.421219676733017,39.11051940917969,98.49124145507812,-9.719131469726562
241402,0.0667266845703125,-0.080718994140625,0.0334320068359375,-0.905810296535492,-0.4667517244815826,-0.5252408981323242,38.84614562988281,98.4864501953125,-9.479400634765623
241403,0.0798492431640625,-0.0656280517578125,0.0220184326171875,-0.905810296535492,-0.4667517244815826,-0.5252408981323242,38.64295959472656,98.41598510742188,-8.978439331054688
241404,0.1006927490234375,-0.009185791015625,-0.0264434814453125,-1.141394853591919,-0.8360195159912109,-0.5692937970161438,38.35809326171875,98.2900390625,-8.417938232421875
241405,0.10443115234375,0.1437225341796875,-0.349639892578125,-1.302262902259827,-1.402971625328064,-0.6311510801315308,38.11538696289062,98.24114990234376,-7.85626220703125
241406,0.099609375,0.3361358642578125,-0.6201171875,-1.313313126564026,-2.443029165267944,-0.7772829532623291,37.85359191894531,98.20944213867188,-7.362014770507812
241407,0.03106689453125,0.511993408203125,-0.0251312255859375,-1.383848309516907,-1.904267191886902,-0.9014342427253724,37.40711975097656,98.29679870605467,-6.655776977539062
241408,0.03106689453125,0.511993408203125,-0.0251312255859375,-1.383848309516907,-1.904267191886902,-0.9014342427253724,37.40711975097656,98.29679870605467,-6.655776977539062
241409,0.1025543212890625,2.7020263671875,0.6101837158203125,-1.526252865791321,1.735491037368774,-1.570661306381226,36.42587280273438,98.33201599121094,-5.224533081054688
241410,0.15008544921875,4.045364379882812,0.25469970703125,-0.4217720031738281,-0.2658260762691498,-1.10041332244873,35.7557373046875,98.18685913085938,-4.929107666015625
241411,-0.1359710693359375,5.071395874023438,0.24078369140625,-0.4217720031738281,-0.2658260762691498,-1.10041332244873,34.99238586425781,98.07928466796876,-4.929901123046875
241412,-0.1359710693359375,5.071395874023438,0.24078369140625,-0.4217720031738281,-0.2658260762691498,-1.10041332244873,34.99238586425781,98.07928466796876,-4.929901123046875
241413,-0.6251678466796875,5.437103271484375,0.886627197265625,0.2350924015045166,-1.927817821502686,-0.6596543192863464,34.06655883789062,97.60708618164062,-4.636520385742188
241414,-0.5340576171875,3.81170654296875,0.54559326171875,-0.1117944419384003,-1.106163144111633,-0.5386285781860352,33.9310302734375,97.3920440673828,-4.3822021484375
241415,-0.274261474609375,2.352462768554688,-0.4521942138671875,-0.4859334230422974,-0.3154913783073425,-0.1684113889932632,33.84837341308594,97.1660614013672,-4.14080810546875
241416,-0.274261474609375,2.352462768554688,-0.4521942138671875,-0.4859334230422974,-0.3154913783073425,-0.1684113889932632,33.84837341308594,97.1660614013672,-4.14080810546875
241417,0.5540618896484375,1.988571166992188,-1.20855712890625,1.817846298217773,-0.93739515542984,0.9858665466308594,33.75639343261719,96.797607421875,-3.641952514648438
241418,0.5040283203125,1.892776489257812,-0.381256103515625,1.817846298217773,-0.93739515542984,0.9858665466308594,34.05485534667969,96.74821472167967,-3.380691528320312
241419,0.53265380859375,1.62738037109375,-0.47540283203125,1.621259450912476,-0.4670833051204681,1.084250688552856,34.56523132324219,96.73088073730467,-3.321151733398438
241420,0.53265380859375,1.62738037109375,-0.47540283203125,1.621259450912476,-0.4670833051204681,1.084250688552856,34.56523132324219,96.73088073730467,-3.321151733398438
241421,0.4454193115234375,1.213958740234375,-0.4307098388671875,1.435189962387085,-0.5428848266601562,1.038691997528076,35.88238525390625,97.04104614257812,-4.489059448242188
241422,0.3870391845703125,1.052978515625,-0.42803955078125,1.427359580993652,-0.5649973154067993,0.9636200666427612,36.525634765625,97.12203979492188,-5.141876220703125
241423,0.320343017578125,0.9101104736328124,-0.4586944580078125,1.54570460319519,-0.6383234858512878,0.8884933590888977,37.02093505859375,97.207763671875,-5.63214111328125
241424,0.320343017578125,0.9101104736328124,-0.4586944580078125,1.54570460319519,-0.6383234858512878,0.8884933590888977,37.02093505859375,97.207763671875,-5.63214111328125
241425,0.096282958984375,0.690277099609375,-0.2188873291015625,1.676273703575134,-0.543125331401825,0.676790714263916,38.12370300292969,97.6412353515625,-6.618118286132812
241426,0.026641845703125,0.5774688720703125,-0.1065521240234375,1.610711812973022,-0.3243778049945831,0.6006149649620056,38.55732727050781,97.82078552246094,-7.216110229492188
241427,-0.001922607421875,0.4328765869140625,-0.0179901123046875,1.49397349357605,-0.0516573339700698,0.5334604382514954,38.926513671875,98.06996154785156,-7.973419189453125
241428,-0.001922607421875,0.4328765869140625,-0.0179901123046875,1.49397349357605,-0.0516573339700698,0.5334604382514954,38.926513671875,98.06996154785156,-7.973419189453125
241429,-0.026702880859375,0.1211395263671875,0.0546112060546875,1.195952653884888,0.337420642375946,0.4348385334014893,39.55116271972656,98.50283813476562,-9.515914916992188
241430,-0.0399017333984375,0.001190185546875,0.07757568359375,1.047778964042664,0.4033317565917969,0.4034875333309174,39.77912902832031,98.65533447265624,-10.11869812011719
241431,-0.0506591796875,-0.090728759765625,0.0801239013671875,0.912821888923645,0.4145495295524597,0.3805119097232819,39.94203186035156,98.8001708984375,-10.66595458984375
241432,-0.0506591796875,-0.090728759765625,0.0801239013671875,0.912821888923645,0.4145495295524597,0.3805119097232819,39.94203186035156,98.8001708984375,-10.66595458984375
241433,-0.061004638671875,-0.130828857421875,0.0367584228515625,0.6802613735198975,0.3941358625888824,0.33320352435112,40.31074523925781,99.0648193359375,-11.64328002929688
241434,-0.0641326904296875,-0.132598876953125,-0.005401611328125,0.5663142800331116,0.3655084669589996,0.3037383258342743,40.51846313476562,99.12738037109376,-11.98348999023438
241435,-0.072021484375,-0.1386260986328125,-0.0541839599609375,0.4796014726161957,0.2926987111568451,0.2621999382972717,40.69149780273438,99.21591186523438,-12.28828430175781
241436,-0.072021484375,-0.1386260986328125,-0.0541839599609375,0.4796014726161957,0.2926987111568451,0.2621999382972717,40.69149780273438,99.21591186523438,-12.28828430175781
241437,-0.0910491943359375,-0.18707275390625,-0.0586395263671875,0.095923863351345,0.2158305644989014,0.1020416766405106,41.0743408203125,99.34678649902344,-12.57138061523438
241438,-0.0910491943359375,-0.18707275390625,-0.0586395263671875,0.095923863351345,0.2158305644989014,0.1020416766405106,41.0743408203125,99.34678649902344,-12.57138061523438
241439,-0.089141845703125,-0.198028564453125,0.038299560546875,-0.0784841552376747,0.3357985019683838,0.0392858870327472,41.26893615722656,99.54817199707033,-12.44404602050781
241440,-0.075653076171875,-0.1884002685546875,0.0899505615234375,-0.2540879249572754,0.4749369621276855,-0.0214251317083835,41.39860534667969,99.575927734375,-12.34422302246094
241441,-0.06231689453125,-0.1796417236328125,0.110992431640625,-0.4029929935932159,0.5733362436294556,-0.084794782102108,41.57624816894531,99.53890991210938,-12.03518676757812
241442,-0.057891845703125,-0.1803131103515625,0.1160736083984375,-0.5084578990936279,0.5999707579612732,-0.1629223376512527,41.7318115234375,99.6874542236328,-11.527587890625
241443,-0.0629730224609375,-0.1846771240234375,0.1090850830078125,-0.6800562739372253,0.4063456356525421,-0.3355545699596405,41.9930419921875,99.83772277832033,-10.87033081054688
241444,-0.0629730224609375,-0.1846771240234375,0.1090850830078125,-0.6800562739372253,0.4063456356525421,-0.3355545699596405,41.9930419921875,99.83772277832033,-10.87033081054688
241445,-0.1258544921875,-0.1939697265625,0.076995849609375,-0.8370975852012634,0.1493777632713318,-0.4518793225288391,42.2987060546875,99.8253173828125,-9.4327392578125
241446,-0.2244873046875,-0.20892333984375,0.0781402587890625,-1.094532012939453,-0.129482626914978,-0.5770270824432373,42.39352416992188,99.66171264648438,-8.694564819335938
241447,-0.4417266845703125,-0.22021484375,0.141845703125,-1.468522667884827,-0.0395391546189785,-0.6753211617469788,42.39785766601562,99.4196319580078,-7.872299194335938
241448,-0.4417266845703125,-0.22021484375,0.141845703125,-1.468522667884827,-0.0395391546189785,-0.6753211617469788,42.39785766601562,99.4196319580078,-7.872299194335938
241449,-0.3366546630859375,0.339874267578125,-0.65771484375,-1.925570368766785,0.4906615912914276,-0.6642834544181824,42.136962890625,99.10865783691406,-6.061248779296875
241450,-0.2054901123046875,0.5133056640625,-0.9461212158203124,-1.878121376037598,-0.6651108860969543,-0.6995964050292969,41.83460998535156,99.07575988769533,-5.13970947265625
241451,-0.15673828125,0.52093505859375,-0.32177734375,-1.883939623832703,-0.8662295937538147,-0.6637217998504639,41.19596862792969,98.96156311035156,-4.261032104492188
241452,-0.15673828125,0.52093505859375,-0.32177734375,-1.883939623832703,-0.8662295937538147,-0.6637217998504639,41.19596862792969,98.96156311035156,-4.261032104492188
241453,-0.149139404296875,0.4962310791015625,0.7896728515625,-2.496185302734375,0.6556108593940735,-0.587276041507721,39.7176513671875,98.9774932861328,-3.682540893554688
241454,-0.149139404296875,0.4962310791015625,0.7896728515625,-2.496185302734375,0.6556108593940735,-0.587276041507721,39.7176513671875,98.9774932861328,-3.682540893554688
241455,-0.227325439453125,0.8245391845703125,0.733154296875,-2.642001390457153,0.5778284668922424,-0.5926438570022583,38.94404602050781,98.71051025390624,-3.482147216796875
241456,-0.3685302734375,2.638656616210938,0.9243927001953124,-2.933512687683105,0.0494256056845188,-0.389653742313385,38.2703857421875,98.3308563232422,-3.397323608398438
241457,-0.4396820068359375,8.137680053710938,0.9771270751953124,-2.072539567947388,-1.229938626289368,2.350979566574097,37.82258605957031,98.06954956054688,-3.5086669921875
241458,-0.277130126953125,7.537109375,0.4023895263671875,-0.8074659109115601,-1.745174288749695,0.0315022654831409,38.13180541992188,98.24650573730467,-3.461502075195312
